onset	duration	sample	trial_type	response_time	stim_file	item_name	serialpos	list	test	answer	experiment	session	subject
0.0	143.851	11449	SESS_START	n/a	n/a	n/a	-999	-999	[0, 0, 0]	n/a	FR1	2	R1108J
143.851	10.428	155299	COUNTDOWN_START	n/a	n/a	n/a	-999	-999	[0, 0, 0]	n/a	FR1	2	R1108J
154.279	3.875	165727	COUNTDOWN_END	n/a	n/a	n/a	-999	-999	[0, 0, 0]	n/a	FR1	2	R1108J
158.154	2.549	169602	PRACTICE_WORD	n/a	n/a	COTTON	1	-1	[0, 0, 0]	n/a	FR1	2	R1108J
160.703	2.468	172151	PRACTICE_WORD	n/a	n/a	CAMEL	2	-1	[0, 0, 0]	n/a	FR1	2	R1108J
163.171	2.384	174619	PRACTICE_WORD	n/a	n/a	RING	3	-1	[0, 0, 0]	n/a	FR1	2	R1108J
165.555	2.5	177003	PRACTICE_WORD	n/a	n/a	BEAM	4	-1	[0, 0, 0]	n/a	FR1	2	R1108J
168.055	2.534	179503	PRACTICE_WORD	n/a	n/a	CHEST	5	-1	[0, 0, 0]	n/a	FR1	2	R1108J
170.589	2.616	182037	PRACTICE_WORD	n/a	n/a	ATTIC	6	-1	[0, 0, 0]	n/a	FR1	2	R1108J
173.205	2.484	184653	PRACTICE_WORD	n/a	n/a	WAGON	7	-1	[0, 0, 0]	n/a	FR1	2	R1108J
175.689	2.434	187137	PRACTICE_WORD	n/a	n/a	IRON	8	-1	[0, 0, 0]	n/a	FR1	2	R1108J
178.123	2.583	189571	PRACTICE_WORD	n/a	n/a	TONGUE	9	-1	[0, 0, 0]	n/a	FR1	2	R1108J
180.706	2.534	192154	PRACTICE_WORD	n/a	n/a	FLOOD	10	-1	[0, 0, 0]	n/a	FR1	2	R1108J
183.24	2.616	194688	PRACTICE_WORD	n/a	n/a	WATCH	11	-1	[0, 0, 0]	n/a	FR1	2	R1108J
185.856	1.602	197304	PRACTICE_WORD	n/a	n/a	RHINO	12	-1	[0, 0, 0]	n/a	FR1	2	R1108J
187.458	0.016	198906	START	n/a	n/a	n/a	-999	1	[-999, -999, -999]	n/a	FR1	2	R1108J
187.474	8.918	198922	PROB	8.918	n/a	n/a	-999	1	[8, 6, 2]	56	FR1	2	R1108J
196.392	11.862	207840	PROB	11.862	n/a	n/a	-999	1	[9, 2, 5]	84	FR1	2	R1108J
208.254	80.598	219702	STOP	n/a	n/a	n/a	-999	1	[-999, -999, -999]	n/a	FR1	2	R1108J
288.852	0.0	300299	TRIAL	n/a	n/a	n/a	-999	1	[0, 0, 0]	n/a	FR1	2	R1108J
288.852	10.428	300299	COUNTDOWN_START	n/a	n/a	n/a	-999	1	[0, 0, 0]	n/a	FR1	2	R1108J
299.28	0.008	310727	COUNTDOWN_END	n/a	n/a	n/a	-999	1	[0, 0, 0]	n/a	FR1	2	R1108J
299.288	3.583	310735	ORIENT	n/a	n/a	n/a	-999	1	[0, 0, 0]	n/a	FR1	2	R1108J
302.871	2.485	314318	WORD	n/a	wordpools/wordpool_EN.txt	HOSE	1	1	[0, 0, 0]	n/a	FR1	2	R1108J
305.356	2.449	316803	WORD	n/a	wordpools/wordpool_EN.txt	ARM	2	1	[0, 0, 0]	n/a	FR1	2	R1108J
307.805	2.485	319252	WORD	n/a	wordpools/wordpool_EN.txt	PIN	3	1	[0, 0, 0]	n/a	FR1	2	R1108J
310.29	2.482	321737	WORD	n/a	wordpools/wordpool_EN.txt	PLATE	4	1	[0, 0, 0]	n/a	FR1	2	R1108J
312.772	2.502	324219	WORD	n/a	wordpools/wordpool_EN.txt	TOE	5	1	[0, 0, 0]	n/a	FR1	2	R1108J
315.274	2.566	326721	WORD	n/a	wordpools/wordpool_EN.txt	NAIL	6	1	[0, 0, 0]	n/a	FR1	2	R1108J
317.84	2.501	329287	WORD	n/a	wordpools/wordpool_EN.txt	PASTE	7	1	[0, 0, 0]	n/a	FR1	2	R1108J
320.341	2.499	331788	WORD	n/a	wordpools/wordpool_EN.txt	SPONGE	8	1	[0, 0, 0]	n/a	FR1	2	R1108J
322.84	2.468	334287	WORD	n/a	wordpools/wordpool_EN.txt	EEL	9	1	[0, 0, 0]	n/a	FR1	2	R1108J
325.308	2.4	336755	WORD	n/a	wordpools/wordpool_EN.txt	BOOT	10	1	[0, 0, 0]	n/a	FR1	2	R1108J
327.708	2.617	339155	WORD	n/a	wordpools/wordpool_EN.txt	ROOT	11	1	[0, 0, 0]	n/a	FR1	2	R1108J
330.325	1.617	341772	WORD	n/a	wordpools/wordpool_EN.txt	LIP	12	1	[0, 0, 0]	n/a	FR1	2	R1108J
331.942	0.001	343389	DISTRACT_START	n/a	n/a	n/a	-999	1	[0, 0, 0]	n/a	FR1	2	R1108J
331.943	0.016	343390	START	n/a	n/a	n/a	-999	2	[-999, -999, -999]	n/a	FR1	2	R1108J
331.959	3.717	343406	PROB	3.717	n/a	n/a	-999	2	[1, 2, 5]	8	FR1	2	R1108J
335.676	5.251	347123	PROB	5.251	n/a	n/a	-999	2	[1, 6, 9]	16	FR1	2	R1108J
340.927	6.701	352373	PROB	6.701	n/a	n/a	-999	2	[9, 9, 7]	25	FR1	2	R1108J
347.628	10.019	359074	PROB	10.019	n/a	n/a	-999	2	[4, 8, 5]	17	FR1	2	R1108J
357.647	0.016	369093	STOP	n/a	n/a	n/a	-999	2	[-999, -999, -999]	n/a	FR1	2	R1108J
357.663	1.087	369109	DISTRACT_END	n/a	n/a	n/a	-999	1	[0, 0, 0]	n/a	FR1	2	R1108J
358.75	2.097	370196	REC_START	n/a	n/a	n/a	-999	1	[0, 0, 0]	n/a	FR1	2	R1108J
360.847	1.03	372293	REC_WORD	1.03	n/a	BOOT	-999	1	[0, 0, 0]	n/a	FR1	2	R1108J
361.877	0.876	373323	REC_WORD	0.876	n/a	ROOT	-999	1	[0, 0, 0]	n/a	FR1	2	R1108J
362.753	0.966	374199	REC_WORD	0.966	n/a	TOE	-999	1	[0, 0, 0]	n/a	FR1	2	R1108J
363.719	1.458	375165	REC_WORD	1.458	n/a	NAIL	-999	1	[0, 0, 0]	n/a	FR1	2	R1108J
365.177	10.483	376623	REC_WORD_VV	10.483	n/a	<>	-999	1	[0, 0, 0]	n/a	FR1	2	R1108J
375.66	1.0	387106	REC_WORD	1.0	n/a	SPONGE	-999	1	[0, 0, 0]	n/a	FR1	2	R1108J
376.66	0.654	388106	REC_WORD_VV	0.654	n/a	<>	-999	1	[0, 0, 0]	n/a	FR1	2	R1108J
377.314	1.623	388760	REC_WORD	1.623	n/a	ARM	-999	1	[0, 0, 0]	n/a	FR1	2	R1108J
378.937	9.817	390383	REC_WORD_VV	9.817	n/a	<>	-999	1	[0, 0, 0]	n/a	FR1	2	R1108J
388.754	3.179	400200	REC_END	n/a	n/a	n/a	-999	1	[0, 0, 0]	n/a	FR1	2	R1108J
391.933	0.0	403379	TRIAL	n/a	n/a	n/a	-999	2	[0, 0, 0]	n/a	FR1	2	R1108J
391.933	10.428	403379	COUNTDOWN_START	n/a	n/a	n/a	-999	2	[0, 0, 0]	n/a	FR1	2	R1108J
402.361	0.007	413807	COUNTDOWN_END	n/a	n/a	n/a	-999	2	[0, 0, 0]	n/a	FR1	2	R1108J
402.368	3.934	413814	ORIENT	n/a	n/a	n/a	-999	2	[0, 0, 0]	n/a	FR1	2	R1108J
406.302	2.533	417748	WORD	n/a	wordpools/wordpool_EN.txt	CONE	1	2	[0, 0, 0]	n/a	FR1	2	R1108J
408.835	2.601	420281	WORD	n/a	wordpools/wordpool_EN.txt	MAIL	2	2	[0, 0, 0]	n/a	FR1	2	R1108J
411.436	2.584	422882	WORD	n/a	wordpools/wordpool_EN.txt	COIN	3	2	[0, 0, 0]	n/a	FR1	2	R1108J
414.02	2.45	425466	WORD	n/a	wordpools/wordpool_EN.txt	PHONE	4	2	[0, 0, 0]	n/a	FR1	2	R1108J
416.47	2.416	427916	WORD	n/a	wordpools/wordpool_EN.txt	NET	5	2	[0, 0, 0]	n/a	FR1	2	R1108J
418.886	2.618	430332	WORD	n/a	wordpools/wordpool_EN.txt	BANK	6	2	[0, 0, 0]	n/a	FR1	2	R1108J
421.504	2.5	432950	WORD	n/a	wordpools/wordpool_EN.txt	CASH	7	2	[0, 0, 0]	n/a	FR1	2	R1108J
424.004	2.384	435450	WORD	n/a	wordpools/wordpool_EN.txt	STORE	8	2	[0, 0, 0]	n/a	FR1	2	R1108J
426.388	2.584	437834	WORD	n/a	wordpools/wordpool_EN.txt	INK	9	2	[0, 0, 0]	n/a	FR1	2	R1108J
428.972	2.516	440418	WORD	n/a	wordpools/wordpool_EN.txt	SHEET	10	2	[0, 0, 0]	n/a	FR1	2	R1108J
431.488	2.417	442934	WORD	n/a	wordpools/wordpool_EN.txt	CUBE	11	2	[0, 0, 0]	n/a	FR1	2	R1108J
433.905	1.617	445351	WORD	n/a	wordpools/wordpool_EN.txt	ICE	12	2	[0, 0, 0]	n/a	FR1	2	R1108J
435.522	0.001	446968	DISTRACT_START	n/a	n/a	n/a	-999	2	[0, 0, 0]	n/a	FR1	2	R1108J
435.523	0.016	446969	START	n/a	n/a	n/a	-999	3	[-999, -999, -999]	n/a	FR1	2	R1108J
435.539	8.101	446985	PROB	8.101	n/a	n/a	-999	3	[7, 7, 4]	18	FR1	2	R1108J
443.64	9.251	455086	PROB	9.251	n/a	n/a	-999	3	[9, 7, 5]	21	FR1	2	R1108J
452.891	6.2	464337	PROB	6.2	n/a	n/a	-999	3	[4, 8, 8]	20	FR1	2	R1108J
459.091	0.018	470537	STOP	n/a	n/a	n/a	-999	3	[-999, -999, -999]	n/a	FR1	2	R1108J
459.109	1.167	470555	DISTRACT_END	n/a	n/a	n/a	-999	2	[0, 0, 0]	n/a	FR1	2	R1108J
460.276	1.428	471722	REC_START	n/a	n/a	n/a	-999	2	[0, 0, 0]	n/a	FR1	2	R1108J
461.704	1.326	473150	REC_WORD	1.326	n/a	PHONE	-999	2	[0, 0, 0]	n/a	FR1	2	R1108J
463.03	0.555	474476	REC_WORD_VV	0.555	n/a	<>	-999	2	[0, 0, 0]	n/a	FR1	2	R1108J
463.585	0.99	475031	REC_WORD	0.99	n/a	CUBE	-999	2	[0, 0, 0]	n/a	FR1	2	R1108J
464.575	1.157	476021	REC_WORD	1.157	n/a	ICE	-999	2	[0, 0, 0]	n/a	FR1	2	R1108J
465.732	3.823	477178	REC_WORD_VV	3.823	n/a	<>	-999	2	[0, 0, 0]	n/a	FR1	2	R1108J
469.555	20.735	481001	REC_WORD_VV	20.735	n/a	<>	-999	2	[0, 0, 0]	n/a	FR1	2	R1108J
490.29	9.691	501735	REC_END	n/a	n/a	n/a	-999	2	[0, 0, 0]	n/a	FR1	2	R1108J
499.981	0.0	511426	TRIAL	n/a	n/a	n/a	-999	3	[0, 0, 0]	n/a	FR1	2	R1108J
499.981	10.428	511426	COUNTDOWN_START	n/a	n/a	n/a	-999	3	[0, 0, 0]	n/a	FR1	2	R1108J
510.409	0.006	521854	COUNTDOWN_END	n/a	n/a	n/a	-999	3	[0, 0, 0]	n/a	FR1	2	R1108J
510.415	3.667	521860	ORIENT	n/a	n/a	n/a	-999	3	[0, 0, 0]	n/a	FR1	2	R1108J
514.082	2.584	525527	WORD	n/a	wordpools/wordpool_EN.txt	WAVE	1	3	[0, 0, 0]	n/a	FR1	2	R1108J
516.666	2.534	528111	WORD	n/a	wordpools/wordpool_EN.txt	POLE	2	3	[0, 0, 0]	n/a	FR1	2	R1108J
519.2	2.582	530645	WORD	n/a	wordpools/wordpool_EN.txt	FORT	3	3	[0, 0, 0]	n/a	FR1	2	R1108J
521.782	2.418	533227	WORD	n/a	wordpools/wordpool_EN.txt	CAPE	4	3	[0, 0, 0]	n/a	FR1	2	R1108J
524.2	2.451	535645	WORD	n/a	wordpools/wordpool_EN.txt	BAND	5	3	[0, 0, 0]	n/a	FR1	2	R1108J
526.651	2.517	538096	WORD	n/a	wordpools/wordpool_EN.txt	SUN	6	3	[0, 0, 0]	n/a	FR1	2	R1108J
529.168	2.532	540613	WORD	n/a	wordpools/wordpool_EN.txt	SAIL	7	3	[0, 0, 0]	n/a	FR1	2	R1108J
531.7	2.552	543145	WORD	n/a	wordpools/wordpool_EN.txt	BOARD	8	3	[0, 0, 0]	n/a	FR1	2	R1108J
534.252	2.516	545697	WORD	n/a	wordpools/wordpool_EN.txt	SHIP	9	3	[0, 0, 0]	n/a	FR1	2	R1108J
536.768	2.618	548213	WORD	n/a	wordpools/wordpool_EN.txt	STAR	10	3	[0, 0, 0]	n/a	FR1	2	R1108J
539.386	2.382	550831	WORD	n/a	wordpools/wordpool_EN.txt	PLANE	11	3	[0, 0, 0]	n/a	FR1	2	R1108J
541.768	1.618	553213	WORD	n/a	wordpools/wordpool_EN.txt	FROG	12	3	[0, 0, 0]	n/a	FR1	2	R1108J
543.386	0.001	554831	DISTRACT_START	n/a	n/a	n/a	-999	3	[0, 0, 0]	n/a	FR1	2	R1108J
543.387	0.016	554832	START	n/a	n/a	n/a	-999	4	[-999, -999, -999]	n/a	FR1	2	R1108J
543.403	15.285	554848	PROB	15.285	n/a	n/a	-999	4	[9, 8, 7]	24	FR1	2	R1108J
558.688	12.223	570133	PROB	12.223	n/a	n/a	-999	4	[8, 7, 2]	10	FR1	2	R1108J
570.911	0.012	582356	STOP	n/a	n/a	n/a	-999	4	[-999, -999, -999]	n/a	FR1	2	R1108J
570.923	1.034	582368	DISTRACT_END	n/a	n/a	n/a	-999	3	[0, 0, 0]	n/a	FR1	2	R1108J
571.957	2.69	583402	REC_START	n/a	n/a	n/a	-999	3	[0, 0, 0]	n/a	FR1	2	R1108J
574.647	7.166	586092	REC_WORD_VV	7.166	n/a	<>	-999	3	[0, 0, 0]	n/a	FR1	2	R1108J
581.813	1.225	593258	REC_WORD	1.225	n/a	BOARD	-999	3	[0, 0, 0]	n/a	FR1	2	R1108J
583.038	1.439	594483	REC_WORD	1.439	n/a	SUN	-999	3	[0, 0, 0]	n/a	FR1	2	R1108J
584.477	1.57	595922	REC_WORD	1.57	n/a	SHIP	-999	3	[0, 0, 0]	n/a	FR1	2	R1108J
586.047	10.033	597492	REC_WORD_VV	10.033	n/a	<>	-999	3	[0, 0, 0]	n/a	FR1	2	R1108J
596.08	1.0	607525	REC_WORD	1.0	n/a	SAIL	-999	3	[0, 0, 0]	n/a	FR1	2	R1108J
597.08	4.884	608525	REC_WORD_VV	4.884	n/a	<>	-999	3	[0, 0, 0]	n/a	FR1	2	R1108J
601.964	2.18	613408	REC_END	n/a	n/a	n/a	-999	3	[0, 0, 0]	n/a	FR1	2	R1108J
604.144	0.0	615588	TRIAL	n/a	n/a	n/a	-999	4	[0, 0, 0]	n/a	FR1	2	R1108J
604.144	10.428	615588	COUNTDOWN_START	n/a	n/a	n/a	-999	4	[0, 0, 0]	n/a	FR1	2	R1108J
614.572	0.006	626016	COUNTDOWN_END	n/a	n/a	n/a	-999	4	[0, 0, 0]	n/a	FR1	2	R1108J
614.578	3.935	626022	ORIENT	n/a	n/a	n/a	-999	4	[0, 0, 0]	n/a	FR1	2	R1108J
618.513	2.45	629957	WORD	n/a	wordpools/wordpool_EN.txt	MAT	1	4	[0, 0, 0]	n/a	FR1	2	R1108J
620.963	2.4	632407	WORD	n/a	wordpools/wordpool_EN.txt	WORLD	2	4	[0, 0, 0]	n/a	FR1	2	R1108J
623.363	2.499	634807	WORD	n/a	wordpools/wordpool_EN.txt	STREET	3	4	[0, 0, 0]	n/a	FR1	2	R1108J
625.862	2.602	637306	WORD	n/a	wordpools/wordpool_EN.txt	SOCK	4	4	[0, 0, 0]	n/a	FR1	2	R1108J
628.464	2.617	639908	WORD	n/a	wordpools/wordpool_EN.txt	CAR	5	4	[0, 0, 0]	n/a	FR1	2	R1108J
631.081	2.55	642525	WORD	n/a	wordpools/wordpool_EN.txt	VAN	6	4	[0, 0, 0]	n/a	FR1	2	R1108J
633.631	2.533	645075	WORD	n/a	wordpools/wordpool_EN.txt	PANTS	7	4	[0, 0, 0]	n/a	FR1	2	R1108J
636.164	2.451	647608	WORD	n/a	wordpools/wordpool_EN.txt	GOAT	8	4	[0, 0, 0]	n/a	FR1	2	R1108J
638.615	2.467	650059	WORD	n/a	wordpools/wordpool_EN.txt	SUIT	9	4	[0, 0, 0]	n/a	FR1	2	R1108J
641.082	2.467	652526	WORD	n/a	wordpools/wordpool_EN.txt	DIME	10	4	[0, 0, 0]	n/a	FR1	2	R1108J
643.549	2.45	654993	WORD	n/a	wordpools/wordpool_EN.txt	DRESS	11	4	[0, 0, 0]	n/a	FR1	2	R1108J
645.999	1.617	657443	WORD	n/a	wordpools/wordpool_EN.txt	DITCH	12	4	[0, 0, 0]	n/a	FR1	2	R1108J
647.616	0.0	659060	DISTRACT_START	n/a	n/a	n/a	-999	4	[0, 0, 0]	n/a	FR1	2	R1108J
647.616	0.017	659060	START	n/a	n/a	n/a	-999	5	[-999, -999, -999]	n/a	FR1	2	R1108J
647.633	8.067	659077	PROB	8.067	n/a	n/a	-999	5	[2, 1, 9]	12	FR1	2	R1108J
655.7	9.452	667144	PROB	9.452	n/a	n/a	-999	5	[6, 2, 7]	13	FR1	2	R1108J
665.152	6.226	676596	PROB	6.226	n/a	n/a	-999	5	[8, 8, 1]	17	FR1	2	R1108J
671.378	0.008	682822	STOP	n/a	n/a	n/a	-999	5	[-999, -999, -999]	n/a	FR1	2	R1108J
671.386	1.217	682830	DISTRACT_END	n/a	n/a	n/a	-999	4	[0, 0, 0]	n/a	FR1	2	R1108J
672.603	1.442	684047	REC_START	n/a	n/a	n/a	-999	4	[0, 0, 0]	n/a	FR1	2	R1108J
674.045	0.606	685489	REC_WORD_VV	0.606	n/a	<>	-999	4	[0, 0, 0]	n/a	FR1	2	R1108J
674.651	0.905	686095	REC_WORD	0.905	n/a	DITCH	-999	4	[0, 0, 0]	n/a	FR1	2	R1108J
675.556	27.058	687000	REC_WORD_VV	27.058	n/a	<>	-999	4	[0, 0, 0]	n/a	FR1	2	R1108J
702.614	64.034	714058	REC_END	n/a	n/a	n/a	-999	4	[0, 0, 0]	n/a	FR1	2	R1108J
766.648	0.0	778091	TRIAL	n/a	n/a	n/a	-999	5	[0, 0, 0]	n/a	FR1	2	R1108J
766.648	10.428	778091	COUNTDOWN_START	n/a	n/a	n/a	-999	5	[0, 0, 0]	n/a	FR1	2	R1108J
777.076	0.007	788519	COUNTDOWN_END	n/a	n/a	n/a	-999	5	[0, 0, 0]	n/a	FR1	2	R1108J
777.083	3.683	788526	ORIENT	n/a	n/a	n/a	-999	5	[0, 0, 0]	n/a	FR1	2	R1108J
780.766	2.517	792209	WORD	n/a	wordpools/wordpool_EN.txt	BLOOM	1	5	[0, 0, 0]	n/a	FR1	2	R1108J
783.283	2.566	794726	WORD	n/a	wordpools/wordpool_EN.txt	BEACH	2	5	[0, 0, 0]	n/a	FR1	2	R1108J
785.849	2.568	797292	WORD	n/a	wordpools/wordpool_EN.txt	FLAG	3	5	[0, 0, 0]	n/a	FR1	2	R1108J
788.417	2.484	799860	WORD	n/a	wordpools/wordpool_EN.txt	STORM	4	5	[0, 0, 0]	n/a	FR1	2	R1108J
790.901	2.384	802344	WORD	n/a	wordpools/wordpool_EN.txt	KEY	5	5	[0, 0, 0]	n/a	FR1	2	R1108J
793.285	2.566	804728	WORD	n/a	wordpools/wordpool_EN.txt	SHEEP	6	5	[0, 0, 0]	n/a	FR1	2	R1108J
795.851	2.401	807294	WORD	n/a	wordpools/wordpool_EN.txt	LAND	7	5	[0, 0, 0]	n/a	FR1	2	R1108J
798.252	2.583	809695	WORD	n/a	wordpools/wordpool_EN.txt	SEA	8	5	[0, 0, 0]	n/a	FR1	2	R1108J
800.835	2.601	812278	WORD	n/a	wordpools/wordpool_EN.txt	FUDGE	9	5	[0, 0, 0]	n/a	FR1	2	R1108J
803.436	2.383	814879	WORD	n/a	wordpools/wordpool_EN.txt	MAP	10	5	[0, 0, 0]	n/a	FR1	2	R1108J
805.819	2.501	817262	WORD	n/a	wordpools/wordpool_EN.txt	RAIN	11	5	[0, 0, 0]	n/a	FR1	2	R1108J
808.32	1.617	819763	WORD	n/a	wordpools/wordpool_EN.txt	SHIELD	12	5	[0, 0, 0]	n/a	FR1	2	R1108J
809.937	0.0	821380	DISTRACT_START	n/a	n/a	n/a	-999	5	[0, 0, 0]	n/a	FR1	2	R1108J
809.937	0.017	821380	START	n/a	n/a	n/a	-999	6	[-999, -999, -999]	n/a	FR1	2	R1108J
809.954	3.717	821397	PROB	3.717	n/a	n/a	-999	6	[1, 6, 2]	9	FR1	2	R1108J
813.671	9.216	825114	PROB	9.216	n/a	n/a	-999	6	[5, 3, 7]	15	FR1	2	R1108J
822.887	4.169	834330	PROB	4.169	n/a	n/a	-999	6	[1, 6, 6]	13	FR1	2	R1108J
827.056	8.907	838499	PROB	8.907	n/a	n/a	-999	6	[4, 3, 9]	16	FR1	2	R1108J
835.963	0.01	847406	STOP	n/a	n/a	n/a	-999	6	[-999, -999, -999]	n/a	FR1	2	R1108J
835.973	1.152	847416	DISTRACT_END	n/a	n/a	n/a	-999	5	[0, 0, 0]	n/a	FR1	2	R1108J
837.125	13.578	848568	REC_START	n/a	n/a	n/a	-999	5	[0, 0, 0]	n/a	FR1	2	R1108J
850.703	1.0	862146	REC_WORD_VV	1.0	n/a	<>	-999	5	[0, 0, 0]	n/a	FR1	2	R1108J
851.703	2.533	863146	REC_WORD_VV	2.533	n/a	<>	-999	5	[0, 0, 0]	n/a	FR1	2	R1108J
854.236	12.899	865679	REC_WORD_VV	12.899	n/a	<>	-999	5	[0, 0, 0]	n/a	FR1	2	R1108J
867.135	6.226	878577	REC_END	n/a	n/a	n/a	-999	5	[0, 0, 0]	n/a	FR1	2	R1108J
873.361	0.0	884803	TRIAL	n/a	n/a	n/a	-999	6	[0, 0, 0]	n/a	FR1	2	R1108J
873.361	10.428	884803	COUNTDOWN_START	n/a	n/a	n/a	-999	6	[0, 0, 0]	n/a	FR1	2	R1108J
883.789	0.006	895231	COUNTDOWN_END	n/a	n/a	n/a	-999	6	[0, 0, 0]	n/a	FR1	2	R1108J
883.795	3.618	895237	ORIENT	n/a	n/a	n/a	-999	6	[0, 0, 0]	n/a	FR1	2	R1108J
887.413	2.534	898855	WORD	n/a	wordpools/wordpool_EN.txt	MOOSE	1	6	[0, 0, 0]	n/a	FR1	2	R1108J
889.947	2.433	901389	WORD	n/a	wordpools/wordpool_EN.txt	TRASH	2	6	[0, 0, 0]	n/a	FR1	2	R1108J
892.38	2.433	903822	WORD	n/a	wordpools/wordpool_EN.txt	TREE	3	6	[0, 0, 0]	n/a	FR1	2	R1108J
894.813	2.435	906255	WORD	n/a	wordpools/wordpool_EN.txt	HOUSE	4	6	[0, 0, 0]	n/a	FR1	2	R1108J
897.248	2.466	908690	WORD	n/a	wordpools/wordpool_EN.txt	WOOD	5	6	[0, 0, 0]	n/a	FR1	2	R1108J
899.714	2.418	911156	WORD	n/a	wordpools/wordpool_EN.txt	CHALK	6	6	[0, 0, 0]	n/a	FR1	2	R1108J
902.132	2.567	913574	WORD	n/a	wordpools/wordpool_EN.txt	NEST	7	6	[0, 0, 0]	n/a	FR1	2	R1108J
904.699	2.517	916141	WORD	n/a	wordpools/wordpool_EN.txt	WEB	8	6	[0, 0, 0]	n/a	FR1	2	R1108J
907.216	2.549	918658	WORD	n/a	wordpools/wordpool_EN.txt	BRANCH	9	6	[0, 0, 0]	n/a	FR1	2	R1108J
909.765	2.418	921207	WORD	n/a	wordpools/wordpool_EN.txt	ANT	10	6	[0, 0, 0]	n/a	FR1	2	R1108J
912.183	2.517	923625	WORD	n/a	wordpools/wordpool_EN.txt	TRUCK	11	6	[0, 0, 0]	n/a	FR1	2	R1108J
914.7	1.617	926142	WORD	n/a	wordpools/wordpool_EN.txt	LAKE	12	6	[0, 0, 0]	n/a	FR1	2	R1108J
916.317	0.001	927759	DISTRACT_START	n/a	n/a	n/a	-999	6	[0, 0, 0]	n/a	FR1	2	R1108J
916.318	0.016	927760	START	n/a	n/a	n/a	-999	7	[-999, -999, -999]	n/a	FR1	2	R1108J
916.334	16.919	927776	PROB	16.919	n/a	n/a	-999	7	[1, 5, 1]	7	FR1	2	R1108J
933.253	10.082	944695	PROB	10.082	n/a	n/a	-999	7	[6, 4, 5]	16	FR1	2	R1108J
943.335	0.019	954777	STOP	n/a	n/a	n/a	-999	7	[-999, -999, -999]	n/a	FR1	2	R1108J
943.354	1.167	954796	DISTRACT_END	n/a	n/a	n/a	-999	6	[0, 0, 0]	n/a	FR1	2	R1108J
944.521	1.264	955963	REC_START	n/a	n/a	n/a	-999	6	[0, 0, 0]	n/a	FR1	2	R1108J
945.785	3.606	957227	REC_WORD_VV	3.606	n/a	<>	-999	6	[0, 0, 0]	n/a	FR1	2	R1108J
949.391	1.24	960833	REC_WORD	1.24	n/a	WOOD	-999	6	[0, 0, 0]	n/a	FR1	2	R1108J
950.631	1.0	962073	REC_WORD_VV	1.0	n/a	<>	-999	6	[0, 0, 0]	n/a	FR1	2	R1108J
951.631	22.903	963073	REC_WORD_VV	22.903	n/a	<>	-999	6	[0, 0, 0]	n/a	FR1	2	R1108J
974.534	27.894	985976	REC_END	n/a	n/a	n/a	-999	6	[0, 0, 0]	n/a	FR1	2	R1108J
1002.428	0.0	1013869	TRIAL	n/a	n/a	n/a	-999	7	[0, 0, 0]	n/a	FR1	2	R1108J
1002.428	10.428	1013869	COUNTDOWN_START	n/a	n/a	n/a	-999	7	[0, 0, 0]	n/a	FR1	2	R1108J
1012.856	0.006	1024297	COUNTDOWN_END	n/a	n/a	n/a	-999	7	[0, 0, 0]	n/a	FR1	2	R1108J
1012.862	3.618	1024303	ORIENT	n/a	n/a	n/a	-999	7	[0, 0, 0]	n/a	FR1	2	R1108J
1016.48	2.467	1027921	WORD	n/a	wordpools/wordpool_EN.txt	FLUTE	1	7	[0, 0, 0]	n/a	FR1	2	R1108J
1018.947	2.55	1030388	WORD	n/a	wordpools/wordpool_EN.txt	CANE	2	7	[0, 0, 0]	n/a	FR1	2	R1108J
1021.497	2.617	1032938	WORD	n/a	wordpools/wordpool_EN.txt	LEG	3	7	[0, 0, 0]	n/a	FR1	2	R1108J
1024.114	2.501	1035555	WORD	n/a	wordpools/wordpool_EN.txt	VEST	4	7	[0, 0, 0]	n/a	FR1	2	R1108J
1026.615	2.567	1038056	WORD	n/a	wordpools/wordpool_EN.txt	SHIRT	5	7	[0, 0, 0]	n/a	FR1	2	R1108J
1029.182	2.615	1040623	WORD	n/a	wordpools/wordpool_EN.txt	SLEEVE	6	7	[0, 0, 0]	n/a	FR1	2	R1108J
1031.797	2.585	1043238	WORD	n/a	wordpools/wordpool_EN.txt	ROSE	7	7	[0, 0, 0]	n/a	FR1	2	R1108J
1034.382	2.416	1045823	WORD	n/a	wordpools/wordpool_EN.txt	BED	8	7	[0, 0, 0]	n/a	FR1	2	R1108J
1036.798	2.402	1048239	WORD	n/a	wordpools/wordpool_EN.txt	THUMB	9	7	[0, 0, 0]	n/a	FR1	2	R1108J
1039.2	2.5	1050641	WORD	n/a	wordpools/wordpool_EN.txt	STICK	10	7	[0, 0, 0]	n/a	FR1	2	R1108J
1041.7	2.4	1053141	WORD	n/a	wordpools/wordpool_EN.txt	CHIN	11	7	[0, 0, 0]	n/a	FR1	2	R1108J
1044.1	1.616	1055541	WORD	n/a	wordpools/wordpool_EN.txt	BENCH	12	7	[0, 0, 0]	n/a	FR1	2	R1108J
1045.716	0.0	1057157	DISTRACT_START	n/a	n/a	n/a	-999	7	[0, 0, 0]	n/a	FR1	2	R1108J
1045.716	0.017	1057157	START	n/a	n/a	n/a	-999	8	[-999, -999, -999]	n/a	FR1	2	R1108J
1045.733	4.435	1057174	PROB	4.435	n/a	n/a	-999	8	[1, 5, 3]	9	FR1	2	R1108J
1050.168	4.083	1061609	PROB	4.083	n/a	n/a	-999	8	[6, 6, 6]	18	FR1	2	R1108J
1054.251	13.983	1065692	PROB	13.983	n/a	n/a	-999	8	[6, 7, 5]	18	FR1	2	R1108J
1068.234	0.019	1079675	STOP	n/a	n/a	n/a	-999	8	[-999, -999, -999]	n/a	FR1	2	R1108J
1068.253	1.101	1079694	DISTRACT_END	n/a	n/a	n/a	-999	7	[0, 0, 0]	n/a	FR1	2	R1108J
1069.354	1.442	1080795	REC_START	n/a	n/a	n/a	-999	7	[0, 0, 0]	n/a	FR1	2	R1108J
1070.796	1.477	1082237	REC_WORD	1.477	n/a	FLUTE	-999	7	[0, 0, 0]	n/a	FR1	2	R1108J
1072.273	15.689	1083714	REC_WORD_VV	15.689	n/a	<>	-999	7	[0, 0, 0]	n/a	FR1	2	R1108J
1087.962	11.402	1099403	REC_WORD	11.402	n/a	THUMB	-999	7	[0, 0, 0]	n/a	FR1	2	R1108J
1099.364	3.61	1110805	REC_END	n/a	n/a	n/a	-999	7	[0, 0, 0]	n/a	FR1	2	R1108J
1102.974	0.0	1114415	TRIAL	n/a	n/a	n/a	-999	8	[0, 0, 0]	n/a	FR1	2	R1108J
1102.974	10.428	1114415	COUNTDOWN_START	n/a	n/a	n/a	-999	8	[0, 0, 0]	n/a	FR1	2	R1108J
1113.402	0.007	1124843	COUNTDOWN_END	n/a	n/a	n/a	-999	8	[0, 0, 0]	n/a	FR1	2	R1108J
1113.409	3.466	1124850	ORIENT	n/a	n/a	n/a	-999	8	[0, 0, 0]	n/a	FR1	2	R1108J
1116.875	2.451	1128316	WORD	n/a	wordpools/wordpool_EN.txt	ROAD	1	8	[0, 0, 0]	n/a	FR1	2	R1108J
1119.326	2.55	1130767	WORD	n/a	wordpools/wordpool_EN.txt	CHEEK	2	8	[0, 0, 0]	n/a	FR1	2	R1108J
1121.876	2.434	1133317	WORD	n/a	wordpools/wordpool_EN.txt	APE	3	8	[0, 0, 0]	n/a	FR1	2	R1108J
1124.31	2.45	1135750	WORD	n/a	wordpools/wordpool_EN.txt	MOON	4	8	[0, 0, 0]	n/a	FR1	2	R1108J
1126.76	2.601	1138200	WORD	n/a	wordpools/wordpool_EN.txt	SIGN	5	8	[0, 0, 0]	n/a	FR1	2	R1108J
1129.361	2.516	1140801	WORD	n/a	wordpools/wordpool_EN.txt	ROCK	6	8	[0, 0, 0]	n/a	FR1	2	R1108J
1131.877	2.468	1143317	WORD	n/a	wordpools/wordpool_EN.txt	JEEP	7	8	[0, 0, 0]	n/a	FR1	2	R1108J
1134.345	2.483	1145785	WORD	n/a	wordpools/wordpool_EN.txt	CLOUD	8	8	[0, 0, 0]	n/a	FR1	2	R1108J
1136.828	2.518	1148268	WORD	n/a	wordpools/wordpool_EN.txt	SKY	9	8	[0, 0, 0]	n/a	FR1	2	R1108J
1139.346	2.616	1150786	WORD	n/a	wordpools/wordpool_EN.txt	CLIFF	10	8	[0, 0, 0]	n/a	FR1	2	R1108J
1141.962	2.451	1153402	WORD	n/a	wordpools/wordpool_EN.txt	TENT	11	8	[0, 0, 0]	n/a	FR1	2	R1108J
1144.413	1.617	1155853	WORD	n/a	wordpools/wordpool_EN.txt	SNOW	12	8	[0, 0, 0]	n/a	FR1	2	R1108J
1146.03	0.0	1157470	DISTRACT_START	n/a	n/a	n/a	-999	8	[0, 0, 0]	n/a	FR1	2	R1108J
1146.03	0.016	1157470	START	n/a	n/a	n/a	-999	9	[-999, -999, -999]	n/a	FR1	2	R1108J
1146.046	13.152	1157486	PROB	13.152	n/a	n/a	-999	9	[7, 8, 1]	16	FR1	2	R1108J
1159.198	8.408	1170638	PROB	8.408	n/a	n/a	-999	9	[4, 2, 2]	8	FR1	2	R1108J
1167.606	0.01	1179046	STOP	n/a	n/a	n/a	-999	9	[-999, -999, -999]	n/a	FR1	2	R1108J
1167.616	1.1	1179056	DISTRACT_END	n/a	n/a	n/a	-999	8	[0, 0, 0]	n/a	FR1	2	R1108J
1168.716	30.0	1180156	REC_START	n/a	n/a	n/a	-999	8	[0, 0, 0]	n/a	FR1	2	R1108J
1198.716	0.009	1210156	REC_WORD_VV	0.009	n/a	<>	-999	8	[0, 0, 0]	n/a	FR1	2	R1108J
1198.725	219.256	1210165	REC_END	n/a	n/a	n/a	-999	8	[0, 0, 0]	n/a	FR1	2	R1108J
1417.981	0.0	1429419	TRIAL	n/a	n/a	n/a	-999	9	[0, 0, 0]	n/a	FR1	2	R1108J
1417.981	10.428	1429419	COUNTDOWN_START	n/a	n/a	n/a	-999	9	[0, 0, 0]	n/a	FR1	2	R1108J
1428.409	0.007	1439847	COUNTDOWN_END	n/a	n/a	n/a	-999	9	[0, 0, 0]	n/a	FR1	2	R1108J
1428.416	3.784	1439854	ORIENT	n/a	n/a	n/a	-999	9	[0, 0, 0]	n/a	FR1	2	R1108J
1432.2	2.582	1443638	WORD	n/a	wordpools/wordpool_EN.txt	JUDGE	1	9	[0, 0, 0]	n/a	FR1	2	R1108J
1434.782	2.402	1446220	WORD	n/a	wordpools/wordpool_EN.txt	MUG	2	9	[0, 0, 0]	n/a	FR1	2	R1108J
1437.184	2.516	1448622	WORD	n/a	wordpools/wordpool_EN.txt	PURSE	3	9	[0, 0, 0]	n/a	FR1	2	R1108J
1439.7	2.617	1451138	WORD	n/a	wordpools/wordpool_EN.txt	HORSE	4	9	[0, 0, 0]	n/a	FR1	2	R1108J
1442.317	2.533	1453755	WORD	n/a	wordpools/wordpool_EN.txt	EAR	5	9	[0, 0, 0]	n/a	FR1	2	R1108J
1444.85	2.402	1456288	WORD	n/a	wordpools/wordpool_EN.txt	PIG	6	9	[0, 0, 0]	n/a	FR1	2	R1108J
1447.252	2.499	1458690	WORD	n/a	wordpools/wordpool_EN.txt	CLOWN	7	9	[0, 0, 0]	n/a	FR1	2	R1108J
1449.751	2.601	1461189	WORD	n/a	wordpools/wordpool_EN.txt	JAIL	8	9	[0, 0, 0]	n/a	FR1	2	R1108J
1452.352	2.483	1463790	WORD	n/a	wordpools/wordpool_EN.txt	BADGE	9	9	[0, 0, 0]	n/a	FR1	2	R1108J
1454.835	2.468	1466273	WORD	n/a	wordpools/wordpool_EN.txt	WEED	10	9	[0, 0, 0]	n/a	FR1	2	R1108J
1457.303	2.533	1468741	WORD	n/a	wordpools/wordpool_EN.txt	CHIEF	11	9	[0, 0, 0]	n/a	FR1	2	R1108J
1459.836	1.617	1471274	WORD	n/a	wordpools/wordpool_EN.txt	BOOK	12	9	[0, 0, 0]	n/a	FR1	2	R1108J
1461.453	0.001	1472891	DISTRACT_START	n/a	n/a	n/a	-999	9	[0, 0, 0]	n/a	FR1	2	R1108J
1461.454	0.016	1472892	START	n/a	n/a	n/a	-999	10	[-999, -999, -999]	n/a	FR1	2	R1108J
1461.47	16.035	1472908	PROB	16.035	n/a	n/a	-999	10	[5, 3, 9]	17	FR1	2	R1108J
1477.505	12.383	1488943	PROB	12.383	n/a	n/a	-999	10	[7, 9, 6]	22	FR1	2	R1108J
1489.888	0.019	1501326	STOP	n/a	n/a	n/a	-999	10	[-999, -999, -999]	n/a	FR1	2	R1108J
1489.907	1.167	1501345	DISTRACT_END	n/a	n/a	n/a	-999	9	[0, 0, 0]	n/a	FR1	2	R1108J
1491.074	2.596	1502512	REC_START	n/a	n/a	n/a	-999	9	[0, 0, 0]	n/a	FR1	2	R1108J
1493.67	0.851	1505108	REC_WORD	0.851	n/a	JUDGE	-999	9	[0, 0, 0]	n/a	FR1	2	R1108J
1494.521	1.232	1505959	REC_WORD	1.232	n/a	BADGE	-999	9	[0, 0, 0]	n/a	FR1	2	R1108J
1495.753	25.335	1507191	REC_WORD_VV	25.335	n/a	<>	-999	9	[0, 0, 0]	n/a	FR1	2	R1108J
1521.088	10.591	1532525	REC_END	n/a	n/a	n/a	-999	9	[0, 0, 0]	n/a	FR1	2	R1108J
1531.679	0.0	1543116	TRIAL	n/a	n/a	n/a	-999	10	[0, 0, 0]	n/a	FR1	2	R1108J
1531.679	10.428	1543116	COUNTDOWN_START	n/a	n/a	n/a	-999	10	[0, 0, 0]	n/a	FR1	2	R1108J
1542.107	0.007	1553544	COUNTDOWN_END	n/a	n/a	n/a	-999	10	[0, 0, 0]	n/a	FR1	2	R1108J
1542.114	3.85	1553551	ORIENT	n/a	n/a	n/a	-999	10	[0, 0, 0]	n/a	FR1	2	R1108J
1545.964	2.551	1557401	WORD	n/a	wordpools/wordpool_EN.txt	MULE	1	10	[0, 0, 0]	n/a	FR1	2	R1108J
1548.515	2.517	1559952	WORD	n/a	wordpools/wordpool_EN.txt	DESK	2	10	[0, 0, 0]	n/a	FR1	2	R1108J
1551.032	2.466	1562469	WORD	n/a	wordpools/wordpool_EN.txt	PEA	3	10	[0, 0, 0]	n/a	FR1	2	R1108J
1553.498	2.617	1564935	WORD	n/a	wordpools/wordpool_EN.txt	SCHOOL	4	10	[0, 0, 0]	n/a	FR1	2	R1108J
1556.115	2.534	1567552	WORD	n/a	wordpools/wordpool_EN.txt	GUARD	5	10	[0, 0, 0]	n/a	FR1	2	R1108J
1558.649	2.517	1570086	WORD	n/a	wordpools/wordpool_EN.txt	BOY	6	10	[0, 0, 0]	n/a	FR1	2	R1108J
1561.166	2.467	1572603	WORD	n/a	wordpools/wordpool_EN.txt	TRAIN	7	10	[0, 0, 0]	n/a	FR1	2	R1108J
1563.633	2.4	1575070	WORD	n/a	wordpools/wordpool_EN.txt	SEAT	8	10	[0, 0, 0]	n/a	FR1	2	R1108J
1566.033	2.551	1577470	WORD	n/a	wordpools/wordpool_EN.txt	WALL	9	10	[0, 0, 0]	n/a	FR1	2	R1108J
1568.584	2.384	1580021	WORD	n/a	wordpools/wordpool_EN.txt	PEN	10	10	[0, 0, 0]	n/a	FR1	2	R1108J
1570.968	2.583	1582405	WORD	n/a	wordpools/wordpool_EN.txt	WING	11	10	[0, 0, 0]	n/a	FR1	2	R1108J
1573.551	1.617	1584988	WORD	n/a	wordpools/wordpool_EN.txt	CHAIR	12	10	[0, 0, 0]	n/a	FR1	2	R1108J
1575.168	0.0	1586605	DISTRACT_START	n/a	n/a	n/a	-999	10	[0, 0, 0]	n/a	FR1	2	R1108J
1575.168	0.016	1586605	START	n/a	n/a	n/a	-999	11	[-999, -999, -999]	n/a	FR1	2	R1108J
1575.184	10.069	1586621	PROB	10.069	n/a	n/a	-999	11	[3, 8, 6]	17	FR1	2	R1108J
1585.253	7.317	1596690	PROB	7.317	n/a	n/a	-999	11	[8, 2, 6]	16	FR1	2	R1108J
1592.57	5.882	1604007	PROB	5.882	n/a	n/a	-999	11	[5, 3, 3]	11	FR1	2	R1108J
1598.452	0.019	1609889	STOP	n/a	n/a	n/a	-999	11	[-999, -999, -999]	n/a	FR1	2	R1108J
1598.471	1.151	1609908	DISTRACT_END	n/a	n/a	n/a	-999	10	[0, 0, 0]	n/a	FR1	2	R1108J
1599.622	3.943	1611059	REC_START	n/a	n/a	n/a	-999	10	[0, 0, 0]	n/a	FR1	2	R1108J
1603.565	2.148	1615002	REC_WORD	2.148	n/a	MULE	-999	10	[0, 0, 0]	n/a	FR1	2	R1108J
1605.713	2.496	1617150	REC_WORD	2.496	n/a	DESK	-999	10	[0, 0, 0]	n/a	FR1	2	R1108J
1608.209	1.759	1619646	REC_WORD	1.759	n/a	BOY	-999	10	[0, 0, 0]	n/a	FR1	2	R1108J
1609.968	1.433	1621405	REC_WORD_VV	1.433	n/a	<>	-999	10	[0, 0, 0]	n/a	FR1	2	R1108J
1611.401	1.21	1622838	REC_WORD	1.21	n/a	TRAIN	-999	10	[0, 0, 0]	n/a	FR1	2	R1108J
1612.611	17.018	1624048	REC_WORD_VV	17.018	n/a	<>	-999	10	[0, 0, 0]	n/a	FR1	2	R1108J
1629.629	33.733	1641066	REC_END	n/a	n/a	n/a	-999	10	[0, 0, 0]	n/a	FR1	2	R1108J
1663.362	0.0	1674798	TRIAL	n/a	n/a	n/a	-999	11	[0, 0, 0]	n/a	FR1	2	R1108J
1663.362	10.428	1674798	COUNTDOWN_START	n/a	n/a	n/a	-999	11	[0, 0, 0]	n/a	FR1	2	R1108J
1673.79	0.006	1685226	COUNTDOWN_END	n/a	n/a	n/a	-999	11	[0, 0, 0]	n/a	FR1	2	R1108J
1673.796	3.485	1685232	ORIENT	n/a	n/a	n/a	-999	11	[0, 0, 0]	n/a	FR1	2	R1108J
1677.281	2.533	1688717	WORD	n/a	wordpools/wordpool_EN.txt	SEED	1	11	[0, 0, 0]	n/a	FR1	2	R1108J
1679.814	2.601	1691250	WORD	n/a	wordpools/wordpool_EN.txt	HOOK	2	11	[0, 0, 0]	n/a	FR1	2	R1108J
1682.415	2.466	1693851	WORD	n/a	wordpools/wordpool_EN.txt	SHRIMP	3	11	[0, 0, 0]	n/a	FR1	2	R1108J
1684.881	2.601	1696317	WORD	n/a	wordpools/wordpool_EN.txt	MUD	4	11	[0, 0, 0]	n/a	FR1	2	R1108J
1687.482	2.484	1698918	WORD	n/a	wordpools/wordpool_EN.txt	TEA	5	11	[0, 0, 0]	n/a	FR1	2	R1108J
1689.966	2.483	1701402	WORD	n/a	wordpools/wordpool_EN.txt	BEE	6	11	[0, 0, 0]	n/a	FR1	2	R1108J
1692.449	2.534	1703885	WORD	n/a	wordpools/wordpool_EN.txt	FRUIT	7	11	[0, 0, 0]	n/a	FR1	2	R1108J
1694.983	2.384	1706419	WORD	n/a	wordpools/wordpool_EN.txt	GRAPE	8	11	[0, 0, 0]	n/a	FR1	2	R1108J
1697.367	2.617	1708803	WORD	n/a	wordpools/wordpool_EN.txt	TRAY	9	11	[0, 0, 0]	n/a	FR1	2	R1108J
1699.984	2.483	1711420	WORD	n/a	wordpools/wordpool_EN.txt	JAR	10	11	[0, 0, 0]	n/a	FR1	2	R1108J
1702.467	2.383	1713903	WORD	n/a	wordpools/wordpool_EN.txt	SHELL	11	11	[0, 0, 0]	n/a	FR1	2	R1108J
1704.85	1.618	1716286	WORD	n/a	wordpools/wordpool_EN.txt	SHARK	12	11	[0, 0, 0]	n/a	FR1	2	R1108J
1706.468	0.001	1717904	DISTRACT_START	n/a	n/a	n/a	-999	11	[0, 0, 0]	n/a	FR1	2	R1108J
1706.469	0.016	1717905	START	n/a	n/a	n/a	-999	12	[-999, -999, -999]	n/a	FR1	2	R1108J
1706.485	5.5	1717921	PROB	5.5	n/a	n/a	-999	12	[1, 8, 9]	18	FR1	2	R1108J
1711.985	8.568	1723421	PROB	8.568	n/a	n/a	-999	12	[4, 1, 8]	13	FR1	2	R1108J
1720.553	4.401	1731989	PROB	4.401	n/a	n/a	-999	12	[1, 3, 7]	11	FR1	2	R1108J
1724.954	7.452	1736390	PROB	7.452	n/a	n/a	-999	12	[2, 6, 5]	13	FR1	2	R1108J
1732.406	0.015	1743842	STOP	n/a	n/a	n/a	-999	12	[-999, -999, -999]	n/a	FR1	2	R1108J
1732.421	1.035	1743857	DISTRACT_END	n/a	n/a	n/a	-999	11	[0, 0, 0]	n/a	FR1	2	R1108J
1733.456	3.115	1744892	REC_START	n/a	n/a	n/a	-999	11	[0, 0, 0]	n/a	FR1	2	R1108J
1736.571	1.0	1748007	REC_WORD	1.0	n/a	SHELL	-999	11	[0, 0, 0]	n/a	FR1	2	R1108J
1737.571	0.864	1749007	REC_WORD_VV	0.864	n/a	<>	-999	11	[0, 0, 0]	n/a	FR1	2	R1108J
1738.435	2.035	1749871	REC_WORD	2.035	n/a	BEE	-999	11	[0, 0, 0]	n/a	FR1	2	R1108J
1740.47	1.493	1751906	REC_WORD	1.493	n/a	JUICE	-999	11	[0, 0, 0]	n/a	FR1	2	R1108J
1741.963	4.03	1753399	REC_WORD_VV	4.03	n/a	<>	-999	11	[0, 0, 0]	n/a	FR1	2	R1108J
1745.993	1.742	1757429	REC_WORD	1.742	n/a	FRUIT	-999	11	[0, 0, 0]	n/a	FR1	2	R1108J
1747.735	3.01	1759171	REC_WORD	3.01	n/a	TRAY	-999	11	[0, 0, 0]	n/a	FR1	2	R1108J
1750.745	1.448	1762181	REC_WORD	1.448	n/a	JAR	-999	11	[0, 0, 0]	n/a	FR1	2	R1108J
1752.193	11.273	1763629	REC_WORD_VV	11.273	n/a	<>	-999	11	[0, 0, 0]	n/a	FR1	2	R1108J
1763.466	73.085	1774902	REC_END	n/a	n/a	n/a	-999	11	[0, 0, 0]	n/a	FR1	2	R1108J
1836.551	0.0	1847986	TRIAL	n/a	n/a	n/a	-999	12	[0, 0, 0]	n/a	FR1	2	R1108J
1836.551	10.428	1847986	COUNTDOWN_START	n/a	n/a	n/a	-999	12	[0, 0, 0]	n/a	FR1	2	R1108J
1846.979	0.007	1858414	COUNTDOWN_END	n/a	n/a	n/a	-999	12	[0, 0, 0]	n/a	FR1	2	R1108J
1846.986	3.501	1858421	ORIENT	n/a	n/a	n/a	-999	12	[0, 0, 0]	n/a	FR1	2	R1108J
1850.487	2.433	1861922	WORD	n/a	wordpools/wordpool_EN.txt	ZOO	1	12	[0, 0, 0]	n/a	FR1	2	R1108J
1852.92	2.467	1864355	WORD	n/a	wordpools/wordpool_EN.txt	MOLE	2	12	[0, 0, 0]	n/a	FR1	2	R1108J
1855.387	2.499	1866822	WORD	n/a	wordpools/wordpool_EN.txt	WHEEL	3	12	[0, 0, 0]	n/a	FR1	2	R1108J
1857.886	2.468	1869321	WORD	n/a	wordpools/wordpool_EN.txt	BRIDGE	4	12	[0, 0, 0]	n/a	FR1	2	R1108J
1860.354	2.45	1871789	WORD	n/a	wordpools/wordpool_EN.txt	TEETH	5	12	[0, 0, 0]	n/a	FR1	2	R1108J
1862.804	2.551	1874239	WORD	n/a	wordpools/wordpool_EN.txt	STEAM	6	12	[0, 0, 0]	n/a	FR1	2	R1108J
1865.355	2.617	1876790	WORD	n/a	wordpools/wordpool_EN.txt	TOOTH	7	12	[0, 0, 0]	n/a	FR1	2	R1108J
1867.972	2.501	1879407	WORD	n/a	wordpools/wordpool_EN.txt	ARK	8	12	[0, 0, 0]	n/a	FR1	2	R1108J
1870.473	2.549	1881908	WORD	n/a	wordpools/wordpool_EN.txt	CORD	9	12	[0, 0, 0]	n/a	FR1	2	R1108J
1873.022	2.484	1884457	WORD	n/a	wordpools/wordpool_EN.txt	FILM	10	12	[0, 0, 0]	n/a	FR1	2	R1108J
1875.506	2.517	1886941	WORD	n/a	wordpools/wordpool_EN.txt	BOMB	11	12	[0, 0, 0]	n/a	FR1	2	R1108J
1878.023	1.617	1889458	WORD	n/a	wordpools/wordpool_EN.txt	BALL	12	12	[0, 0, 0]	n/a	FR1	2	R1108J
1879.64	0.001	1891075	DISTRACT_START	n/a	n/a	n/a	-999	12	[0, 0, 0]	n/a	FR1	2	R1108J
1879.641	0.016	1891076	START	n/a	n/a	n/a	-999	13	[-999, -999, -999]	n/a	FR1	2	R1108J
1879.657	7.284	1891092	PROB	7.284	n/a	n/a	-999	13	[7, 1, 5]	13	FR1	2	R1108J
1886.941	9.268	1898376	PROB	9.268	n/a	n/a	-999	13	[4, 8, 3]	15	FR1	2	R1108J
1896.209	9.854	1907644	PROB	9.854	n/a	n/a	-999	13	[5, 3, 8]	16	FR1	2	R1108J
1906.063	0.014	1917497	STOP	n/a	n/a	n/a	-999	13	[-999, -999, -999]	n/a	FR1	2	R1108J
1906.077	1.184	1917511	DISTRACT_END	n/a	n/a	n/a	-999	12	[0, 0, 0]	n/a	FR1	2	R1108J
1907.261	5.998	1918695	REC_START	n/a	n/a	n/a	-999	12	[0, 0, 0]	n/a	FR1	2	R1108J
1913.259	0.725	1924693	REC_WORD	0.725	n/a	ARK	-999	12	[0, 0, 0]	n/a	FR1	2	R1108J
1913.984	1.559	1925418	REC_WORD	1.559	n/a	CORD	-999	12	[0, 0, 0]	n/a	FR1	2	R1108J
1915.543	4.808	1926977	REC_WORD_VV	4.808	n/a	<>	-999	12	[0, 0, 0]	n/a	FR1	2	R1108J
1920.351	2.525	1931785	REC_WORD	2.525	n/a	ZOO	-999	12	[0, 0, 0]	n/a	FR1	2	R1108J
1922.876	1.917	1934310	REC_WORD	1.917	n/a	MOLE	-999	12	[0, 0, 0]	n/a	FR1	2	R1108J
1924.793	12.478	1936227	REC_WORD	12.478	n/a	WHEEL	-999	12	[0, 0, 0]	n/a	FR1	2	R1108J
1937.271	35.047	1948705	REC_END	n/a	n/a	n/a	-999	12	[0, 0, 0]	n/a	FR1	2	R1108J
1972.318	0.0	1983752	TRIAL	n/a	n/a	n/a	-999	13	[0, 0, 0]	n/a	FR1	2	R1108J
1972.318	10.428	1983752	COUNTDOWN_START	n/a	n/a	n/a	-999	13	[0, 0, 0]	n/a	FR1	2	R1108J
1982.746	0.006	1994180	COUNTDOWN_END	n/a	n/a	n/a	-999	13	[0, 0, 0]	n/a	FR1	2	R1108J
1982.752	0.0	1994186	ORIENT	n/a	n/a	n/a	-999	13	[0, 0, 0]	n/a	FR1	2	R1108J
