onset	duration	sample	trial_type	response_time	stim_file	item_name	serialpos	list	test	answer	experiment	session	subject
0.0	0.0	10767	INSTRUCT_START	n/a	n/a	n/a	-999	-999	[0, 0, 0]	n/a	FR1	4	R1230J
0.0	10.947	10767	INSTRUCT_END	n/a	n/a	n/a	-999	-999	[0, 0, 0]	n/a	FR1	4	R1230J
10.947	0.0	21714	SESS_START	n/a	n/a	n/a	-999	-999	[0, 0, 0]	n/a	FR1	4	R1230J
10.947	1282.869	21714	MIC_TEST	n/a	n/a	n/a	-999	-999	[0, 0, 0]	n/a	FR1	4	R1230J
1293.816	5.268	1304577	PRACTICE_TRIAL	n/a	n/a	n/a	-999	-1	[0, 0, 0]	n/a	FR1	4	R1230J
1299.084	10.428	1309845	COUNTDOWN_START	n/a	n/a	n/a	-999	-1	[0, 0, 0]	n/a	FR1	4	R1230J
1309.512	0.007	1320273	COUNTDOWN_END	n/a	n/a	n/a	-999	-1	[0, 0, 0]	n/a	FR1	4	R1230J
1309.519	1.618	1320280	PRACTICE_ORIENT	n/a	n/a	n/a	-999	-1	[0, 0, 0]	n/a	FR1	4	R1230J
1311.137	2.083	1321898	PRACTICE_ORIENT_OFF	n/a	n/a	n/a	-999	-1	[0, 0, 0]	n/a	FR1	4	R1230J
1313.22	1.617	1323981	PRACTICE_WORD	n/a	n/a	RHINO	1	-1	[0, 0, 0]	n/a	FR1	4	R1230J
1314.837	0.85	1325598	PRACTICE_WORD_OFF	n/a	n/a	RHINO	-999	-1	[0, 0, 0]	n/a	FR1	4	R1230J
1315.687	1.617	1326448	PRACTICE_WORD	n/a	n/a	CAMEL	2	-1	[0, 0, 0]	n/a	FR1	4	R1230J
1317.304	0.9	1328065	PRACTICE_WORD_OFF	n/a	n/a	CAMEL	-999	-1	[0, 0, 0]	n/a	FR1	4	R1230J
1318.204	1.617	1328965	PRACTICE_WORD	n/a	n/a	FLOOD	3	-1	[0, 0, 0]	n/a	FR1	4	R1230J
1319.821	0.901	1330582	PRACTICE_WORD_OFF	n/a	n/a	FLOOD	-999	-1	[0, 0, 0]	n/a	FR1	4	R1230J
1320.722	1.616	1331483	PRACTICE_WORD	n/a	n/a	BEAM	4	-1	[0, 0, 0]	n/a	FR1	4	R1230J
1322.338	0.884	1333099	PRACTICE_WORD_OFF	n/a	n/a	BEAM	-999	-1	[0, 0, 0]	n/a	FR1	4	R1230J
1323.222	1.616	1333983	PRACTICE_WORD	n/a	n/a	ATTIC	5	-1	[0, 0, 0]	n/a	FR1	4	R1230J
1324.838	0.801	1335599	PRACTICE_WORD_OFF	n/a	n/a	ATTIC	-999	-1	[0, 0, 0]	n/a	FR1	4	R1230J
1325.639	1.617	1336400	PRACTICE_WORD	n/a	n/a	IRON	6	-1	[0, 0, 0]	n/a	FR1	4	R1230J
1327.256	0.816	1338017	PRACTICE_WORD_OFF	n/a	n/a	IRON	-999	-1	[0, 0, 0]	n/a	FR1	4	R1230J
1328.072	1.617	1338833	PRACTICE_WORD	n/a	n/a	TONGUE	7	-1	[0, 0, 0]	n/a	FR1	4	R1230J
1329.689	0.984	1340450	PRACTICE_WORD_OFF	n/a	n/a	TONGUE	-999	-1	[0, 0, 0]	n/a	FR1	4	R1230J
1330.673	1.617	1341434	PRACTICE_WORD	n/a	n/a	CHEST	8	-1	[0, 0, 0]	n/a	FR1	4	R1230J
1332.29	0.9	1343051	PRACTICE_WORD_OFF	n/a	n/a	CHEST	-999	-1	[0, 0, 0]	n/a	FR1	4	R1230J
1333.19	1.616	1343951	PRACTICE_WORD	n/a	n/a	WAGON	9	-1	[0, 0, 0]	n/a	FR1	4	R1230J
1334.806	0.8	1345567	PRACTICE_WORD_OFF	n/a	n/a	WAGON	-999	-1	[0, 0, 0]	n/a	FR1	4	R1230J
1335.606	1.617	1346367	PRACTICE_WORD	n/a	n/a	RING	10	-1	[0, 0, 0]	n/a	FR1	4	R1230J
1337.223	0.867	1347984	PRACTICE_WORD_OFF	n/a	n/a	RING	-999	-1	[0, 0, 0]	n/a	FR1	4	R1230J
1338.09	1.617	1348851	PRACTICE_WORD	n/a	n/a	COTTON	11	-1	[0, 0, 0]	n/a	FR1	4	R1230J
1339.707	0.866	1350468	PRACTICE_WORD_OFF	n/a	n/a	COTTON	-999	-1	[0, 0, 0]	n/a	FR1	4	R1230J
1340.573	1.618	1351334	PRACTICE_WORD	n/a	n/a	WATCH	12	-1	[0, 0, 0]	n/a	FR1	4	R1230J
1342.191	0.0	1352952	PRACTICE_WORD_OFF	n/a	n/a	WATCH	-999	-1	[0, 0, 0]	n/a	FR1	4	R1230J
1342.191	0.0	1352952	DISTRACT_START	n/a	n/a	n/a	-999	-1	[0, 0, 0]	n/a	FR1	4	R1230J
1342.191	0.016	1352952	START	n/a	n/a	n/a	-999	-1	[-999, -999, -999]	n/a	FR1	4	R1230J
1342.207	4.468	1352968	PROB	4.468	n/a	n/a	-999	-1	[5, 3, 6]	14	FR1	4	R1230J
1346.675	2.149	1357436	PROB	2.149	n/a	n/a	-999	-1	[5, 8, 2]	15	FR1	4	R1230J
1348.824	2.301	1359585	PROB	2.301	n/a	n/a	-999	-1	[6, 4, 9]	19	FR1	4	R1230J
1351.125	3.366	1361886	PROB	3.366	n/a	n/a	-999	-1	[4, 8, 9]	21	FR1	4	R1230J
1354.491	2.352	1365252	PROB	2.352	n/a	n/a	-999	-1	[3, 2, 9]	14	FR1	4	R1230J
1356.843	4.017	1367604	PROB	4.017	n/a	n/a	-999	-1	[2, 5, 3]	10	FR1	4	R1230J
1360.86	1.742	1371621	PROB	1.742	n/a	n/a	-999	-1	[5, 1, 1]	7	FR1	4	R1230J
1362.602	0.007	1373363	STOP	n/a	n/a	n/a	-999	-1	[-999, -999, -999]	n/a	FR1	4	R1230J
1362.609	0.601	1373370	DISTRACT_END	n/a	n/a	n/a	-999	-1	[0, 0, 0]	n/a	FR1	4	R1230J
1363.21	0.517	1373971	RETRIEVAL_ORIENT	n/a	n/a	n/a	-999	-1	[0, 0, 0]	n/a	FR1	4	R1230J
1363.727	30.012	1374488	PRACTICE_REC_START	n/a	n/a	n/a	-999	-1	[0, 0, 0]	n/a	FR1	4	R1230J
1393.739	17.094	1404500	PRACTICE_REC_END	n/a	n/a	n/a	-999	-1	[0, 0, 0]	n/a	FR1	4	R1230J
1410.833	0.5	1421593	TRIAL	n/a	n/a	n/a	-999	1	[0, 0, 0]	n/a	FR1	4	R1230J
1411.333	10.428	1422093	COUNTDOWN_START	n/a	n/a	n/a	-999	1	[0, 0, 0]	n/a	FR1	4	R1230J
1421.761	0.007	1432521	COUNTDOWN_END	n/a	n/a	n/a	-999	1	[0, 0, 0]	n/a	FR1	4	R1230J
1421.768	1.617	1432528	ORIENT	n/a	n/a	n/a	-999	1	[0, 0, 0]	n/a	FR1	4	R1230J
1423.385	2.067	1434145	ORIENT_OFF	n/a	n/a	n/a	-999	1	[0, 0, 0]	n/a	FR1	4	R1230J
1425.452	1.617	1436212	WORD	n/a	wordpools/wordpool_EN.txt	ROAD	1	1	[0, 0, 0]	n/a	FR1	4	R1230J
1427.069	0.85	1437829	WORD_OFF	n/a	n/a	ROAD	1	1	[0, 0, 0]	n/a	FR1	4	R1230J
1427.919	1.616	1438679	WORD	n/a	wordpools/wordpool_EN.txt	ELF	2	1	[0, 0, 0]	n/a	FR1	4	R1230J
1429.535	0.834	1440295	WORD_OFF	n/a	n/a	ELF	2	1	[0, 0, 0]	n/a	FR1	4	R1230J
1430.369	1.617	1441129	WORD	n/a	wordpools/wordpool_EN.txt	BAG	3	1	[0, 0, 0]	n/a	FR1	4	R1230J
1431.986	0.884	1442746	WORD_OFF	n/a	n/a	BAG	3	1	[0, 0, 0]	n/a	FR1	4	R1230J
1432.87	1.616	1443630	WORD	n/a	wordpools/wordpool_EN.txt	BAT	4	1	[0, 0, 0]	n/a	FR1	4	R1230J
1434.486	0.867	1445246	WORD_OFF	n/a	n/a	BAT	4	1	[0, 0, 0]	n/a	FR1	4	R1230J
1435.353	1.617	1446113	WORD	n/a	wordpools/wordpool_EN.txt	RAT	5	1	[0, 0, 0]	n/a	FR1	4	R1230J
1436.97	0.784	1447730	WORD_OFF	n/a	n/a	RAT	5	1	[0, 0, 0]	n/a	FR1	4	R1230J
1437.754	1.617	1448514	WORD	n/a	wordpools/wordpool_EN.txt	SHIRT	6	1	[0, 0, 0]	n/a	FR1	4	R1230J
1439.371	0.933	1450131	WORD_OFF	n/a	n/a	SHIRT	6	1	[0, 0, 0]	n/a	FR1	4	R1230J
1440.304	1.617	1451064	WORD	n/a	wordpools/wordpool_EN.txt	STAIR	7	1	[0, 0, 0]	n/a	FR1	4	R1230J
1441.921	0.834	1452681	WORD_OFF	n/a	n/a	STAIR	7	1	[0, 0, 0]	n/a	FR1	4	R1230J
1442.755	1.616	1453515	WORD	n/a	wordpools/wordpool_EN.txt	FLEA	8	1	[0, 0, 0]	n/a	FR1	4	R1230J
1444.371	0.834	1455131	WORD_OFF	n/a	n/a	FLEA	8	1	[0, 0, 0]	n/a	FR1	4	R1230J
1445.205	1.617	1455965	WORD	n/a	wordpools/wordpool_EN.txt	TAIL	9	1	[0, 0, 0]	n/a	FR1	4	R1230J
1446.822	0.765	1457582	WORD_OFF	n/a	n/a	TAIL	9	1	[0, 0, 0]	n/a	FR1	4	R1230J
1447.587	1.618	1458347	WORD	n/a	wordpools/wordpool_EN.txt	DIME	10	1	[0, 0, 0]	n/a	FR1	4	R1230J
1449.205	0.984	1459965	WORD_OFF	n/a	n/a	DIME	10	1	[0, 0, 0]	n/a	FR1	4	R1230J
1450.189	1.617	1460949	WORD	n/a	wordpools/wordpool_EN.txt	BENCH	11	1	[0, 0, 0]	n/a	FR1	4	R1230J
1451.806	0.799	1462566	WORD_OFF	n/a	n/a	BENCH	11	1	[0, 0, 0]	n/a	FR1	4	R1230J
1452.605	1.617	1463365	WORD	n/a	wordpools/wordpool_EN.txt	HAND	12	1	[0, 0, 0]	n/a	FR1	4	R1230J
1454.222	0.0	1464982	WORD_OFF	n/a	n/a	HAND	12	1	[0, 0, 0]	n/a	FR1	4	R1230J
1454.222	0.001	1464982	DISTRACT_START	n/a	n/a	n/a	-999	1	[0, 0, 0]	n/a	FR1	4	R1230J
1454.223	0.016	1464983	START	n/a	n/a	n/a	-999	1	[-999, -999, -999]	n/a	FR1	4	R1230J
1454.239	3.151	1464999	PROB	3.151	n/a	n/a	-999	1	[3, 8, 2]	13	FR1	4	R1230J
1457.39	2.182	1468150	PROB	2.182	n/a	n/a	-999	1	[1, 5, 7]	13	FR1	4	R1230J
1459.572	2.385	1470332	PROB	2.385	n/a	n/a	-999	1	[6, 6, 6]	18	FR1	4	R1230J
1461.957	2.917	1472717	PROB	2.917	n/a	n/a	-999	1	[7, 9, 7]	21	FR1	4	R1230J
1464.874	3.2	1475634	PROB	3.2	n/a	n/a	-999	1	[6, 7, 9]	23	FR1	4	R1230J
1468.074	4.084	1478834	PROB	4.084	n/a	n/a	-999	1	[4, 7, 7]	18	FR1	4	R1230J
1472.158	2.705	1482918	PROB	2.705	n/a	n/a	-999	1	[1, 9, 3]	13	FR1	4	R1230J
1474.863	0.012	1485623	STOP	n/a	n/a	n/a	-999	1	[-999, -999, -999]	n/a	FR1	4	R1230J
1474.875	0.567	1485635	DISTRACT_END	n/a	n/a	n/a	-999	1	[0, 0, 0]	n/a	FR1	4	R1230J
1475.442	0.517	1486202	RETRIEVAL_ORIENT	n/a	n/a	n/a	-999	1	[0, 0, 0]	n/a	FR1	4	R1230J
1475.959	0.692	1486719	REC_START	n/a	n/a	n/a	-999	1	[0, 0, 0]	n/a	FR1	4	R1230J
1476.651	0.598	1487411	REC_WORD	0.598	n/a	ROAD	1	1	[0, 0, 0]	n/a	FR1	4	R1230J
1477.249	0.617	1488009	REC_WORD	0.617	n/a	ELF	2	1	[0, 0, 0]	n/a	FR1	4	R1230J
1477.866	0.647	1488626	REC_WORD	0.647	n/a	BAG	3	1	[0, 0, 0]	n/a	FR1	4	R1230J
1478.513	14.446	1489273	REC_WORD	14.446	n/a	BAT	4	1	[0, 0, 0]	n/a	FR1	4	R1230J
1492.959	13.012	1503719	REC_WORD	13.012	n/a	CAT	-999	1	[0, 0, 0]	n/a	FR1	4	R1230J
1505.971	5.976	1516731	REC_END	n/a	n/a	n/a	-999	1	[0, 0, 0]	n/a	FR1	4	R1230J
1511.947	0.5	1522707	TRIAL	n/a	n/a	n/a	-999	2	[0, 0, 0]	n/a	FR1	4	R1230J
1512.447	10.428	1523207	COUNTDOWN_START	n/a	n/a	n/a	-999	2	[0, 0, 0]	n/a	FR1	4	R1230J
1522.875	0.007	1533635	COUNTDOWN_END	n/a	n/a	n/a	-999	2	[0, 0, 0]	n/a	FR1	4	R1230J
1522.882	1.616	1533642	ORIENT	n/a	n/a	n/a	-999	2	[0, 0, 0]	n/a	FR1	4	R1230J
1524.498	2.201	1535258	ORIENT_OFF	n/a	n/a	n/a	-999	2	[0, 0, 0]	n/a	FR1	4	R1230J
1526.699	1.617	1537459	WORD	n/a	wordpools/wordpool_EN.txt	OAR	1	2	[0, 0, 0]	n/a	FR1	4	R1230J
1528.316	0.8	1539076	WORD_OFF	n/a	n/a	OAR	1	2	[0, 0, 0]	n/a	FR1	4	R1230J
1529.116	1.617	1539876	WORD	n/a	wordpools/wordpool_EN.txt	BRUSH	2	2	[0, 0, 0]	n/a	FR1	4	R1230J
1530.733	0.782	1541493	WORD_OFF	n/a	n/a	BRUSH	2	2	[0, 0, 0]	n/a	FR1	4	R1230J
1531.515	1.618	1542275	WORD	n/a	wordpools/wordpool_EN.txt	SIGN	3	2	[0, 0, 0]	n/a	FR1	4	R1230J
1533.133	0.933	1543893	WORD_OFF	n/a	n/a	SIGN	3	2	[0, 0, 0]	n/a	FR1	4	R1230J
1534.066	1.617	1544826	WORD	n/a	wordpools/wordpool_EN.txt	ROOT	4	2	[0, 0, 0]	n/a	FR1	4	R1230J
1535.683	0.95	1546443	WORD_OFF	n/a	n/a	ROOT	4	2	[0, 0, 0]	n/a	FR1	4	R1230J
1536.633	1.617	1547393	WORD	n/a	wordpools/wordpool_EN.txt	TOAST	5	2	[0, 0, 0]	n/a	FR1	4	R1230J
1538.25	0.901	1549010	WORD_OFF	n/a	n/a	TOAST	5	2	[0, 0, 0]	n/a	FR1	4	R1230J
1539.151	1.617	1549911	WORD	n/a	wordpools/wordpool_EN.txt	SPRING	6	2	[0, 0, 0]	n/a	FR1	4	R1230J
1540.768	0.865	1551528	WORD_OFF	n/a	n/a	SPRING	6	2	[0, 0, 0]	n/a	FR1	4	R1230J
1541.633	1.618	1552393	WORD	n/a	wordpools/wordpool_EN.txt	BUSH	7	2	[0, 0, 0]	n/a	FR1	4	R1230J
1543.251	0.85	1554011	WORD_OFF	n/a	n/a	BUSH	7	2	[0, 0, 0]	n/a	FR1	4	R1230J
1544.101	1.617	1554861	WORD	n/a	wordpools/wordpool_EN.txt	STAR	8	2	[0, 0, 0]	n/a	FR1	4	R1230J
1545.718	0.983	1556478	WORD_OFF	n/a	n/a	STAR	8	2	[0, 0, 0]	n/a	FR1	4	R1230J
1546.701	1.617	1557461	WORD	n/a	wordpools/wordpool_EN.txt	ROOM	9	2	[0, 0, 0]	n/a	FR1	4	R1230J
1548.318	1.001	1559078	WORD_OFF	n/a	n/a	ROOM	9	2	[0, 0, 0]	n/a	FR1	4	R1230J
1549.319	1.617	1560079	WORD	n/a	wordpools/wordpool_EN.txt	PIT	10	2	[0, 0, 0]	n/a	FR1	4	R1230J
1550.936	0.966	1561696	WORD_OFF	n/a	n/a	PIT	10	2	[0, 0, 0]	n/a	FR1	4	R1230J
1551.902	1.616	1562662	WORD	n/a	wordpools/wordpool_EN.txt	FLOOR	11	2	[0, 0, 0]	n/a	FR1	4	R1230J
1553.518	0.768	1564278	WORD_OFF	n/a	n/a	FLOOR	11	2	[0, 0, 0]	n/a	FR1	4	R1230J
1554.286	1.617	1565046	WORD	n/a	wordpools/wordpool_EN.txt	SEA	12	2	[0, 0, 0]	n/a	FR1	4	R1230J
1555.903	0.0	1566663	WORD_OFF	n/a	n/a	SEA	12	2	[0, 0, 0]	n/a	FR1	4	R1230J
1555.903	0.001	1566663	DISTRACT_START	n/a	n/a	n/a	-999	2	[0, 0, 0]	n/a	FR1	4	R1230J
1555.904	0.016	1566664	START	n/a	n/a	n/a	-999	2	[-999, -999, -999]	n/a	FR1	4	R1230J
1555.92	3.734	1566680	PROB	3.734	n/a	n/a	-999	2	[2, 5, 7]	14	FR1	4	R1230J
1559.654	3.767	1570414	PROB	3.767	n/a	n/a	-999	2	[3, 8, 9]	20	FR1	4	R1230J
1563.421	2.617	1574181	PROB	2.617	n/a	n/a	-999	2	[1, 8, 6]	15	FR1	4	R1230J
1566.038	4.15	1576798	PROB	4.15	n/a	n/a	-999	2	[8, 7, 5]	23	FR1	4	R1230J
1570.188	2.4	1580948	PROB	2.4	n/a	n/a	-999	2	[6, 4, 3]	13	FR1	4	R1230J
1572.588	2.95	1583348	PROB	2.95	n/a	n/a	-999	2	[2, 4, 7]	13	FR1	4	R1230J
1575.538	3.353	1586298	PROB	3.353	n/a	n/a	-999	2	[9, 3, 3]	15	FR1	4	R1230J
1578.891	0.015	1589651	STOP	n/a	n/a	n/a	-999	2	[-999, -999, -999]	n/a	FR1	4	R1230J
1578.906	0.566	1589666	DISTRACT_END	n/a	n/a	n/a	-999	2	[0, 0, 0]	n/a	FR1	4	R1230J
1579.472	0.519	1590232	RETRIEVAL_ORIENT	n/a	n/a	n/a	-999	2	[0, 0, 0]	n/a	FR1	4	R1230J
1579.991	0.485	1590751	REC_START	n/a	n/a	n/a	-999	2	[0, 0, 0]	n/a	FR1	4	R1230J
1580.476	0.511	1591236	REC_WORD	0.511	n/a	OAR	1	2	[0, 0, 0]	n/a	FR1	4	R1230J
1580.987	0.513	1591747	REC_WORD	0.513	n/a	BRUSH	2	2	[0, 0, 0]	n/a	FR1	4	R1230J
1581.5	1.352	1592260	REC_WORD	1.352	n/a	SIGN	3	2	[0, 0, 0]	n/a	FR1	4	R1230J
1582.852	1.701	1593612	REC_WORD	1.701	n/a	ELF	-999	2	[0, 0, 0]	n/a	FR1	4	R1230J
1584.553	4.283	1595313	REC_WORD	4.283	n/a	HELP	-999	2	[0, 0, 0]	n/a	FR1	4	R1230J
1588.836	21.164	1599596	REC_WORD	21.164	n/a	BROOM	-999	2	[0, 0, 0]	n/a	FR1	4	R1230J
1610.0	5.794	1620760	REC_END	n/a	n/a	n/a	-999	2	[0, 0, 0]	n/a	FR1	4	R1230J
1615.794	0.5	1626554	TRIAL	n/a	n/a	n/a	-999	3	[0, 0, 0]	n/a	FR1	4	R1230J
1616.294	10.428	1627054	COUNTDOWN_START	n/a	n/a	n/a	-999	3	[0, 0, 0]	n/a	FR1	4	R1230J
1626.722	0.007	1637482	COUNTDOWN_END	n/a	n/a	n/a	-999	3	[0, 0, 0]	n/a	FR1	4	R1230J
1626.729	1.617	1637489	ORIENT	n/a	n/a	n/a	-999	3	[0, 0, 0]	n/a	FR1	4	R1230J
1628.346	2.216	1639106	ORIENT_OFF	n/a	n/a	n/a	-999	3	[0, 0, 0]	n/a	FR1	4	R1230J
1630.562	1.618	1641322	WORD	n/a	wordpools/wordpool_EN.txt	SMOKE	1	3	[0, 0, 0]	n/a	FR1	4	R1230J
1632.18	0.9	1642939	WORD_OFF	n/a	n/a	SMOKE	1	3	[0, 0, 0]	n/a	FR1	4	R1230J
1633.08	1.617	1643839	WORD	n/a	wordpools/wordpool_EN.txt	SPOON	2	3	[0, 0, 0]	n/a	FR1	4	R1230J
1634.697	0.799	1645456	WORD_OFF	n/a	n/a	SPOON	2	3	[0, 0, 0]	n/a	FR1	4	R1230J
1635.496	1.618	1646255	WORD	n/a	wordpools/wordpool_EN.txt	SUN	3	3	[0, 0, 0]	n/a	FR1	4	R1230J
1637.114	0.9	1647873	WORD_OFF	n/a	n/a	SUN	3	3	[0, 0, 0]	n/a	FR1	4	R1230J
1638.014	1.616	1648773	WORD	n/a	wordpools/wordpool_EN.txt	WEB	4	3	[0, 0, 0]	n/a	FR1	4	R1230J
1639.63	0.934	1650389	WORD_OFF	n/a	n/a	WEB	4	3	[0, 0, 0]	n/a	FR1	4	R1230J
1640.564	1.617	1651323	WORD	n/a	wordpools/wordpool_EN.txt	CORD	5	3	[0, 0, 0]	n/a	FR1	4	R1230J
1642.181	0.801	1652940	WORD_OFF	n/a	n/a	CORD	5	3	[0, 0, 0]	n/a	FR1	4	R1230J
1642.982	1.615	1653741	WORD	n/a	wordpools/wordpool_EN.txt	PEARL	6	3	[0, 0, 0]	n/a	FR1	4	R1230J
1644.597	0.884	1655356	WORD_OFF	n/a	n/a	PEARL	6	3	[0, 0, 0]	n/a	FR1	4	R1230J
1645.481	1.617	1656240	WORD	n/a	wordpools/wordpool_EN.txt	BRANCH	7	3	[0, 0, 0]	n/a	FR1	4	R1230J
1647.098	0.801	1657857	WORD_OFF	n/a	n/a	BRANCH	7	3	[0, 0, 0]	n/a	FR1	4	R1230J
1647.899	1.616	1658658	WORD	n/a	wordpools/wordpool_EN.txt	FROG	8	3	[0, 0, 0]	n/a	FR1	4	R1230J
1649.515	0.95	1660274	WORD_OFF	n/a	n/a	FROG	8	3	[0, 0, 0]	n/a	FR1	4	R1230J
1650.465	1.601	1661224	WORD	n/a	wordpools/wordpool_EN.txt	FILM	9	3	[0, 0, 0]	n/a	FR1	4	R1230J
1652.066	0.783	1662825	WORD_OFF	n/a	n/a	FILM	9	3	[0, 0, 0]	n/a	FR1	4	R1230J
1652.849	1.616	1663608	WORD	n/a	wordpools/wordpool_EN.txt	PLANT	10	3	[0, 0, 0]	n/a	FR1	4	R1230J
1654.465	0.951	1665224	WORD_OFF	n/a	n/a	PLANT	10	3	[0, 0, 0]	n/a	FR1	4	R1230J
1655.416	1.617	1666175	WORD	n/a	wordpools/wordpool_EN.txt	STEAM	11	3	[0, 0, 0]	n/a	FR1	4	R1230J
1657.033	0.867	1667792	WORD_OFF	n/a	n/a	STEAM	11	3	[0, 0, 0]	n/a	FR1	4	R1230J
1657.9	1.616	1668659	WORD	n/a	wordpools/wordpool_EN.txt	PIG	12	3	[0, 0, 0]	n/a	FR1	4	R1230J
1659.516	0.0	1670275	WORD_OFF	n/a	n/a	PIG	12	3	[0, 0, 0]	n/a	FR1	4	R1230J
1659.516	0.0	1670275	DISTRACT_START	n/a	n/a	n/a	-999	3	[0, 0, 0]	n/a	FR1	4	R1230J
1659.516	0.017	1670275	START	n/a	n/a	n/a	-999	3	[-999, -999, -999]	n/a	FR1	4	R1230J
1659.533	4.151	1670292	PROB	4.151	n/a	n/a	-999	3	[3, 9, 6]	18	FR1	4	R1230J
1663.684	2.734	1674443	PROB	2.734	n/a	n/a	-999	3	[1, 2, 7]	10	FR1	4	R1230J
1666.418	2.483	1677177	PROB	2.483	n/a	n/a	-999	3	[1, 5, 3]	9	FR1	4	R1230J
1668.901	3.667	1679660	PROB	3.667	n/a	n/a	-999	3	[1, 9, 6]	16	FR1	4	R1230J
1672.568	2.95	1683327	PROB	2.95	n/a	n/a	-999	3	[2, 7, 1]	10	FR1	4	R1230J
1675.518	4.345	1686277	PROB	4.345	n/a	n/a	-999	3	[6, 4, 4]	14	FR1	4	R1230J
1679.863	0.007	1690622	STOP	n/a	n/a	n/a	-999	3	[-999, -999, -999]	n/a	FR1	4	R1230J
1679.87	0.583	1690629	DISTRACT_END	n/a	n/a	n/a	-999	3	[0, 0, 0]	n/a	FR1	4	R1230J
1680.453	0.518	1691212	RETRIEVAL_ORIENT	n/a	n/a	n/a	-999	3	[0, 0, 0]	n/a	FR1	4	R1230J
1680.971	0.96	1691730	REC_START	n/a	n/a	n/a	-999	3	[0, 0, 0]	n/a	FR1	4	R1230J
1681.931	0.405	1692690	REC_WORD_VV	0.405	n/a	<>	-999	3	[0, 0, 0]	n/a	FR1	4	R1230J
1682.336	3.312	1693095	REC_WORD	3.312	n/a	SMOKE	1	3	[0, 0, 0]	n/a	FR1	4	R1230J
1685.648	5.431	1696407	REC_WORD_VV	5.431	n/a	<>	-999	3	[0, 0, 0]	n/a	FR1	4	R1230J
1691.079	19.903	1701838	REC_WORD_VV	19.903	n/a	<>	-999	3	[0, 0, 0]	n/a	FR1	4	R1230J
1710.982	5.192	1721741	REC_END	n/a	n/a	n/a	-999	3	[0, 0, 0]	n/a	FR1	4	R1230J
1716.174	0.5	1726933	TRIAL	n/a	n/a	n/a	-999	4	[0, 0, 0]	n/a	FR1	4	R1230J
1716.674	10.428	1727433	COUNTDOWN_START	n/a	n/a	n/a	-999	4	[0, 0, 0]	n/a	FR1	4	R1230J
1727.102	0.007	1737861	COUNTDOWN_END	n/a	n/a	n/a	-999	4	[0, 0, 0]	n/a	FR1	4	R1230J
1727.109	1.617	1737868	ORIENT	n/a	n/a	n/a	-999	4	[0, 0, 0]	n/a	FR1	4	R1230J
1728.726	2.267	1739485	ORIENT_OFF	n/a	n/a	n/a	-999	4	[0, 0, 0]	n/a	FR1	4	R1230J
1730.993	1.616	1741752	WORD	n/a	wordpools/wordpool_EN.txt	BEACH	1	4	[0, 0, 0]	n/a	FR1	4	R1230J
1732.609	0.95	1743368	WORD_OFF	n/a	n/a	BEACH	1	4	[0, 0, 0]	n/a	FR1	4	R1230J
1733.559	1.618	1744318	WORD	n/a	wordpools/wordpool_EN.txt	AXE	2	4	[0, 0, 0]	n/a	FR1	4	R1230J
1735.177	0.984	1745936	WORD_OFF	n/a	n/a	AXE	2	4	[0, 0, 0]	n/a	FR1	4	R1230J
1736.161	1.617	1746920	WORD	n/a	wordpools/wordpool_EN.txt	SMILE	3	4	[0, 0, 0]	n/a	FR1	4	R1230J
1737.778	0.933	1748537	WORD_OFF	n/a	n/a	SMILE	3	4	[0, 0, 0]	n/a	FR1	4	R1230J
1738.711	1.617	1749470	WORD	n/a	wordpools/wordpool_EN.txt	SHEEP	4	4	[0, 0, 0]	n/a	FR1	4	R1230J
1740.328	0.984	1751087	WORD_OFF	n/a	n/a	SHEEP	4	4	[0, 0, 0]	n/a	FR1	4	R1230J
1741.312	1.617	1752071	WORD	n/a	wordpools/wordpool_EN.txt	FUDGE	5	4	[0, 0, 0]	n/a	FR1	4	R1230J
1742.929	0.782	1753688	WORD_OFF	n/a	n/a	FUDGE	5	4	[0, 0, 0]	n/a	FR1	4	R1230J
1743.711	1.617	1754470	WORD	n/a	wordpools/wordpool_EN.txt	PLANE	6	4	[0, 0, 0]	n/a	FR1	4	R1230J
1745.328	0.801	1756087	WORD_OFF	n/a	n/a	PLANE	6	4	[0, 0, 0]	n/a	FR1	4	R1230J
1746.129	1.617	1756888	WORD	n/a	wordpools/wordpool_EN.txt	CAVE	7	4	[0, 0, 0]	n/a	FR1	4	R1230J
1747.746	1.0	1758505	WORD_OFF	n/a	n/a	CAVE	7	4	[0, 0, 0]	n/a	FR1	4	R1230J
1748.746	1.617	1759505	WORD	n/a	wordpools/wordpool_EN.txt	MAIL	8	4	[0, 0, 0]	n/a	FR1	4	R1230J
1750.363	0.966	1761122	WORD_OFF	n/a	n/a	MAIL	8	4	[0, 0, 0]	n/a	FR1	4	R1230J
1751.329	1.617	1762088	WORD	n/a	wordpools/wordpool_EN.txt	COW	9	4	[0, 0, 0]	n/a	FR1	4	R1230J
1752.946	0.867	1763705	WORD_OFF	n/a	n/a	COW	9	4	[0, 0, 0]	n/a	FR1	4	R1230J
1753.813	1.617	1764572	WORD	n/a	wordpools/wordpool_EN.txt	SQUARE	10	4	[0, 0, 0]	n/a	FR1	4	R1230J
1755.43	0.867	1766189	WORD_OFF	n/a	n/a	SQUARE	10	4	[0, 0, 0]	n/a	FR1	4	R1230J
1756.297	1.617	1767056	WORD	n/a	wordpools/wordpool_EN.txt	GOLD	11	4	[0, 0, 0]	n/a	FR1	4	R1230J
1757.914	0.966	1768673	WORD_OFF	n/a	n/a	GOLD	11	4	[0, 0, 0]	n/a	FR1	4	R1230J
1758.88	1.616	1769639	WORD	n/a	wordpools/wordpool_EN.txt	SHRIMP	12	4	[0, 0, 0]	n/a	FR1	4	R1230J
1760.496	0.0	1771255	WORD_OFF	n/a	n/a	SHRIMP	12	4	[0, 0, 0]	n/a	FR1	4	R1230J
1760.496	0.001	1771255	DISTRACT_START	n/a	n/a	n/a	-999	4	[0, 0, 0]	n/a	FR1	4	R1230J
1760.497	0.016	1771256	START	n/a	n/a	n/a	-999	4	[-999, -999, -999]	n/a	FR1	4	R1230J
1760.513	4.185	1771272	PROB	4.185	n/a	n/a	-999	4	[7, 2, 9]	18	FR1	4	R1230J
1764.698	2.916	1775457	PROB	2.916	n/a	n/a	-999	4	[8, 8, 5]	21	FR1	4	R1230J
1767.614	2.551	1778373	PROB	2.551	n/a	n/a	-999	4	[9, 7, 3]	19	FR1	4	R1230J
1770.165	3.034	1780924	PROB	3.034	n/a	n/a	-999	4	[4, 4, 3]	11	FR1	4	R1230J
1773.199	1.55	1783958	PROB	1.55	n/a	n/a	-999	4	[5, 5, 1]	11	FR1	4	R1230J
1774.749	2.7	1785508	PROB	2.7	n/a	n/a	-999	4	[7, 1, 8]	16	FR1	4	R1230J
1777.449	2.434	1788208	PROB	2.434	n/a	n/a	-999	4	[8, 1, 1]	10	FR1	4	R1230J
1779.883	2.561	1790642	PROB	2.561	n/a	n/a	-999	4	[4, 5, 2]	11	FR1	4	R1230J
1782.444	0.006	1793203	STOP	n/a	n/a	n/a	-999	4	[-999, -999, -999]	n/a	FR1	4	R1230J
1782.45	0.567	1793209	DISTRACT_END	n/a	n/a	n/a	-999	4	[0, 0, 0]	n/a	FR1	4	R1230J
1783.017	0.516	1793776	RETRIEVAL_ORIENT	n/a	n/a	n/a	-999	4	[0, 0, 0]	n/a	FR1	4	R1230J
1783.533	0.555	1794292	REC_START	n/a	n/a	n/a	-999	4	[0, 0, 0]	n/a	FR1	4	R1230J
1784.088	0.597	1794847	REC_WORD	0.597	n/a	BEACH	1	4	[0, 0, 0]	n/a	FR1	4	R1230J
1784.685	0.525	1795444	REC_WORD	0.525	n/a	AXE	2	4	[0, 0, 0]	n/a	FR1	4	R1230J
1785.21	0.941	1795969	REC_WORD	0.941	n/a	SMILE	3	4	[0, 0, 0]	n/a	FR1	4	R1230J
1786.151	2.909	1796910	REC_WORD	2.909	n/a	SQUARE	10	4	[0, 0, 0]	n/a	FR1	4	R1230J
1789.06	0.287	1799819	REC_WORD_VV	0.287	n/a	<>	-999	4	[0, 0, 0]	n/a	FR1	4	R1230J
1789.347	24.196	1800106	REC_WORD	24.196	n/a	ROUND	-999	4	[0, 0, 0]	n/a	FR1	4	R1230J
1813.543	5.812	1824302	REC_END	n/a	n/a	n/a	-999	4	[0, 0, 0]	n/a	FR1	4	R1230J
1819.355	0.5	1830114	TRIAL	n/a	n/a	n/a	-999	5	[0, 0, 0]	n/a	FR1	4	R1230J
1819.855	10.428	1830614	COUNTDOWN_START	n/a	n/a	n/a	-999	5	[0, 0, 0]	n/a	FR1	4	R1230J
1830.283	0.007	1841042	COUNTDOWN_END	n/a	n/a	n/a	-999	5	[0, 0, 0]	n/a	FR1	4	R1230J
1830.29	1.617	1841049	ORIENT	n/a	n/a	n/a	-999	5	[0, 0, 0]	n/a	FR1	4	R1230J
1831.907	2.217	1842666	ORIENT_OFF	n/a	n/a	n/a	-999	5	[0, 0, 0]	n/a	FR1	4	R1230J
1834.124	1.616	1844883	WORD	n/a	wordpools/wordpool_EN.txt	STRING	1	5	[0, 0, 0]	n/a	FR1	4	R1230J
1835.74	0.883	1846499	WORD_OFF	n/a	n/a	STRING	1	5	[0, 0, 0]	n/a	FR1	4	R1230J
1836.623	1.618	1847382	WORD	n/a	wordpools/wordpool_EN.txt	JEEP	2	5	[0, 0, 0]	n/a	FR1	4	R1230J
1838.241	0.983	1849000	WORD_OFF	n/a	n/a	JEEP	2	5	[0, 0, 0]	n/a	FR1	4	R1230J
1839.224	1.617	1849983	WORD	n/a	wordpools/wordpool_EN.txt	WORLD	3	5	[0, 0, 0]	n/a	FR1	4	R1230J
1840.841	0.867	1851600	WORD_OFF	n/a	n/a	WORLD	3	5	[0, 0, 0]	n/a	FR1	4	R1230J
1841.708	1.617	1852467	WORD	n/a	wordpools/wordpool_EN.txt	FAN	4	5	[0, 0, 0]	n/a	FR1	4	R1230J
1843.325	0.85	1854084	WORD_OFF	n/a	n/a	FAN	4	5	[0, 0, 0]	n/a	FR1	4	R1230J
1844.175	1.617	1854934	WORD	n/a	wordpools/wordpool_EN.txt	PEN	5	5	[0, 0, 0]	n/a	FR1	4	R1230J
1845.792	0.85	1856551	WORD_OFF	n/a	n/a	PEN	5	5	[0, 0, 0]	n/a	FR1	4	R1230J
1846.642	1.617	1857401	WORD	n/a	wordpools/wordpool_EN.txt	POOL	6	5	[0, 0, 0]	n/a	FR1	4	R1230J
1848.259	0.867	1859018	WORD_OFF	n/a	n/a	POOL	6	5	[0, 0, 0]	n/a	FR1	4	R1230J
1849.126	1.617	1859885	WORD	n/a	wordpools/wordpool_EN.txt	VAN	7	5	[0, 0, 0]	n/a	FR1	4	R1230J
1850.743	0.95	1861502	WORD_OFF	n/a	n/a	VAN	7	5	[0, 0, 0]	n/a	FR1	4	R1230J
1851.693	1.617	1862452	WORD	n/a	wordpools/wordpool_EN.txt	FUR	8	5	[0, 0, 0]	n/a	FR1	4	R1230J
1853.31	0.999	1864069	WORD_OFF	n/a	n/a	FUR	8	5	[0, 0, 0]	n/a	FR1	4	R1230J
1854.309	1.617	1865068	WORD	n/a	wordpools/wordpool_EN.txt	CLIFF	9	5	[0, 0, 0]	n/a	FR1	4	R1230J
1855.926	0.851	1866685	WORD_OFF	n/a	n/a	CLIFF	9	5	[0, 0, 0]	n/a	FR1	4	R1230J
1856.777	1.616	1867536	WORD	n/a	wordpools/wordpool_EN.txt	ROSE	10	5	[0, 0, 0]	n/a	FR1	4	R1230J
1858.393	0.851	1869152	WORD_OFF	n/a	n/a	ROSE	10	5	[0, 0, 0]	n/a	FR1	4	R1230J
1859.244	1.617	1870003	WORD	n/a	wordpools/wordpool_EN.txt	STICK	11	5	[0, 0, 0]	n/a	FR1	4	R1230J
1860.861	0.8	1871619	WORD_OFF	n/a	n/a	STICK	11	5	[0, 0, 0]	n/a	FR1	4	R1230J
1861.661	1.617	1872419	WORD	n/a	wordpools/wordpool_EN.txt	WOLF	12	5	[0, 0, 0]	n/a	FR1	4	R1230J
1863.278	0.0	1874036	WORD_OFF	n/a	n/a	WOLF	12	5	[0, 0, 0]	n/a	FR1	4	R1230J
1863.278	0.0	1874036	DISTRACT_START	n/a	n/a	n/a	-999	5	[0, 0, 0]	n/a	FR1	4	R1230J
1863.278	0.016	1874036	START	n/a	n/a	n/a	-999	5	[-999, -999, -999]	n/a	FR1	4	R1230J
1863.294	2.784	1874052	PROB	2.784	n/a	n/a	-999	5	[4, 3, 1]	8	FR1	4	R1230J
1866.078	3.067	1876836	PROB	3.067	n/a	n/a	-999	5	[1, 7, 6]	14	FR1	4	R1230J
1869.145	2.449	1879903	PROB	2.449	n/a	n/a	-999	5	[1, 1, 5]	7	FR1	4	R1230J
1871.594	2.934	1882352	PROB	2.934	n/a	n/a	-999	5	[1, 5, 9]	15	FR1	4	R1230J
1874.528	3.635	1885286	PROB	3.635	n/a	n/a	-999	5	[8, 6, 9]	23	FR1	4	R1230J
1878.163	2.017	1888921	PROB	2.017	n/a	n/a	-999	5	[6, 5, 1]	12	FR1	4	R1230J
1880.18	1.783	1890938	PROB	1.783	n/a	n/a	-999	5	[1, 5, 5]	11	FR1	4	R1230J
1881.963	3.621	1892721	PROB	3.621	n/a	n/a	-999	5	[3, 5, 9]	17	FR1	4	R1230J
1885.584	0.012	1896342	STOP	n/a	n/a	n/a	-999	5	[-999, -999, -999]	n/a	FR1	4	R1230J
1885.596	0.701	1896354	DISTRACT_END	n/a	n/a	n/a	-999	5	[0, 0, 0]	n/a	FR1	4	R1230J
1886.297	0.518	1897055	RETRIEVAL_ORIENT	n/a	n/a	n/a	-999	5	[0, 0, 0]	n/a	FR1	4	R1230J
1886.815	1.449	1897573	REC_START	n/a	n/a	n/a	-999	5	[0, 0, 0]	n/a	FR1	4	R1230J
1888.264	0.945	1899022	REC_WORD	0.945	n/a	STRING	1	5	[0, 0, 0]	n/a	FR1	4	R1230J
1889.209	0.78	1899967	REC_WORD	0.78	n/a	CHEESE	-999	5	[0, 0, 0]	n/a	FR1	4	R1230J
1889.989	2.641	1900747	REC_WORD_VV	2.641	n/a	<>	-999	5	[0, 0, 0]	n/a	FR1	4	R1230J
1892.63	2.541	1903388	REC_WORD	2.541	n/a	FLANNEL	-999	5	[0, 0, 0]	n/a	FR1	4	R1230J
1895.171	5.699	1905929	REC_WORD	5.699	n/a	FLARE	-999	5	[0, 0, 0]	n/a	FR1	4	R1230J
1900.87	15.957	1911628	REC_WORD	15.957	n/a	GET	-999	5	[0, 0, 0]	n/a	FR1	4	R1230J
1916.827	23.544	1927585	REC_END	n/a	n/a	n/a	-999	5	[0, 0, 0]	n/a	FR1	4	R1230J
1940.371	0.5	1951129	TRIAL	n/a	n/a	n/a	-999	6	[0, 0, 0]	n/a	FR1	4	R1230J
1940.871	10.428	1951629	COUNTDOWN_START	n/a	n/a	n/a	-999	6	[0, 0, 0]	n/a	FR1	4	R1230J
1951.299	0.007	1962057	COUNTDOWN_END	n/a	n/a	n/a	-999	6	[0, 0, 0]	n/a	FR1	4	R1230J
1951.306	1.617	1962064	ORIENT	n/a	n/a	n/a	-999	6	[0, 0, 0]	n/a	FR1	4	R1230J
1952.923	2.033	1963681	ORIENT_OFF	n/a	n/a	n/a	-999	6	[0, 0, 0]	n/a	FR1	4	R1230J
1954.956	1.616	1965714	WORD	n/a	wordpools/wordpool_EN.txt	BOWL	1	6	[0, 0, 0]	n/a	FR1	4	R1230J
1956.572	0.851	1967330	WORD_OFF	n/a	n/a	BOWL	1	6	[0, 0, 0]	n/a	FR1	4	R1230J
1957.423	1.617	1968181	WORD	n/a	wordpools/wordpool_EN.txt	MAZE	2	6	[0, 0, 0]	n/a	FR1	4	R1230J
1959.04	0.867	1969798	WORD_OFF	n/a	n/a	MAZE	2	6	[0, 0, 0]	n/a	FR1	4	R1230J
1959.907	1.616	1970665	WORD	n/a	wordpools/wordpool_EN.txt	HILL	3	6	[0, 0, 0]	n/a	FR1	4	R1230J
1961.523	0.918	1972281	WORD_OFF	n/a	n/a	HILL	3	6	[0, 0, 0]	n/a	FR1	4	R1230J
1962.441	1.616	1973199	WORD	n/a	wordpools/wordpool_EN.txt	BED	4	6	[0, 0, 0]	n/a	FR1	4	R1230J
1964.057	0.767	1974815	WORD_OFF	n/a	n/a	BED	4	6	[0, 0, 0]	n/a	FR1	4	R1230J
1964.824	1.617	1975582	WORD	n/a	wordpools/wordpool_EN.txt	STRAW	5	6	[0, 0, 0]	n/a	FR1	4	R1230J
1966.441	0.867	1977199	WORD_OFF	n/a	n/a	STRAW	5	6	[0, 0, 0]	n/a	FR1	4	R1230J
1967.308	1.617	1978066	WORD	n/a	wordpools/wordpool_EN.txt	CLOCK	6	6	[0, 0, 0]	n/a	FR1	4	R1230J
1968.925	0.833	1979683	WORD_OFF	n/a	n/a	CLOCK	6	6	[0, 0, 0]	n/a	FR1	4	R1230J
1969.758	1.617	1980516	WORD	n/a	wordpools/wordpool_EN.txt	WALL	7	6	[0, 0, 0]	n/a	FR1	4	R1230J
1971.375	0.933	1982133	WORD_OFF	n/a	n/a	WALL	7	6	[0, 0, 0]	n/a	FR1	4	R1230J
1972.308	1.618	1983066	WORD	n/a	wordpools/wordpool_EN.txt	ROOF	8	6	[0, 0, 0]	n/a	FR1	4	R1230J
1973.926	0.933	1984684	WORD_OFF	n/a	n/a	ROOF	8	6	[0, 0, 0]	n/a	FR1	4	R1230J
1974.859	1.616	1985617	WORD	n/a	wordpools/wordpool_EN.txt	GLASS	9	6	[0, 0, 0]	n/a	FR1	4	R1230J
1976.475	0.851	1987233	WORD_OFF	n/a	n/a	GLASS	9	6	[0, 0, 0]	n/a	FR1	4	R1230J
1977.326	1.617	1988084	WORD	n/a	wordpools/wordpool_EN.txt	EEL	10	6	[0, 0, 0]	n/a	FR1	4	R1230J
1978.943	0.967	1989701	WORD_OFF	n/a	n/a	EEL	10	6	[0, 0, 0]	n/a	FR1	4	R1230J
1979.91	1.616	1990668	WORD	n/a	wordpools/wordpool_EN.txt	FARM	11	6	[0, 0, 0]	n/a	FR1	4	R1230J
1981.526	0.933	1992284	WORD_OFF	n/a	n/a	FARM	11	6	[0, 0, 0]	n/a	FR1	4	R1230J
1982.459	1.618	1993217	WORD	n/a	wordpools/wordpool_EN.txt	BRIDGE	12	6	[0, 0, 0]	n/a	FR1	4	R1230J
1984.077	0.0	1994835	WORD_OFF	n/a	n/a	BRIDGE	12	6	[0, 0, 0]	n/a	FR1	4	R1230J
1984.077	0.001	1994835	DISTRACT_START	n/a	n/a	n/a	-999	6	[0, 0, 0]	n/a	FR1	4	R1230J
1984.078	0.016	1994836	START	n/a	n/a	n/a	-999	6	[-999, -999, -999]	n/a	FR1	4	R1230J
1984.094	3.516	1994852	PROB	3.516	n/a	n/a	-999	6	[3, 2, 4]	9	FR1	4	R1230J
1987.61	4.585	1998368	PROB	4.585	n/a	n/a	-999	6	[4, 8, 8]	20	FR1	4	R1230J
1992.195	3.416	2002953	PROB	3.416	n/a	n/a	-999	6	[6, 2, 8]	16	FR1	4	R1230J
1995.611	2.501	2006369	PROB	2.501	n/a	n/a	-999	6	[4, 4, 9]	17	FR1	4	R1230J
1998.112	3.251	2008870	PROB	3.251	n/a	n/a	-999	6	[7, 6, 9]	21	FR1	4	R1230J
2001.363	2.793	2012121	PROB	2.793	n/a	n/a	-999	6	[1, 3, 3]	7	FR1	4	R1230J
2004.156	0.007	2014914	STOP	n/a	n/a	n/a	-999	6	[-999, -999, -999]	n/a	FR1	4	R1230J
2004.163	0.533	2014921	DISTRACT_END	n/a	n/a	n/a	-999	6	[0, 0, 0]	n/a	FR1	4	R1230J
2004.696	0.517	2015454	RETRIEVAL_ORIENT	n/a	n/a	n/a	-999	6	[0, 0, 0]	n/a	FR1	4	R1230J
2005.213	1.457	2015971	REC_START	n/a	n/a	n/a	-999	6	[0, 0, 0]	n/a	FR1	4	R1230J
2006.67	4.148	2017428	REC_WORD	4.148	n/a	HILL	3	6	[0, 0, 0]	n/a	FR1	4	R1230J
2010.818	3.623	2021576	REC_WORD	3.623	n/a	GAZE	-999	6	[0, 0, 0]	n/a	FR1	4	R1230J
2014.441	20.786	2025199	REC_WORD	20.786	n/a	FLARE	-999	6	[0, 0, 0]	n/a	FR1	4	R1230J
2035.227	5.708	2045985	REC_END	n/a	n/a	n/a	-999	6	[0, 0, 0]	n/a	FR1	4	R1230J
2040.935	0.5	2051693	TRIAL	n/a	n/a	n/a	-999	7	[0, 0, 0]	n/a	FR1	4	R1230J
2041.435	10.428	2052193	COUNTDOWN_START	n/a	n/a	n/a	-999	7	[0, 0, 0]	n/a	FR1	4	R1230J
2051.863	0.006	2062621	COUNTDOWN_END	n/a	n/a	n/a	-999	7	[0, 0, 0]	n/a	FR1	4	R1230J
2051.869	1.616	2062627	ORIENT	n/a	n/a	n/a	-999	7	[0, 0, 0]	n/a	FR1	4	R1230J
2053.485	2.168	2064243	ORIENT_OFF	n/a	n/a	n/a	-999	7	[0, 0, 0]	n/a	FR1	4	R1230J
2055.653	1.617	2066411	WORD	n/a	wordpools/wordpool_EN.txt	TEA	1	7	[0, 0, 0]	n/a	FR1	4	R1230J
2057.27	0.9	2068028	WORD_OFF	n/a	n/a	TEA	1	7	[0, 0, 0]	n/a	FR1	4	R1230J
2058.17	1.617	2068928	WORD	n/a	wordpools/wordpool_EN.txt	BALL	2	7	[0, 0, 0]	n/a	FR1	4	R1230J
2059.787	0.967	2070545	WORD_OFF	n/a	n/a	BALL	2	7	[0, 0, 0]	n/a	FR1	4	R1230J
2060.754	1.617	2071512	WORD	n/a	wordpools/wordpool_EN.txt	STORM	3	7	[0, 0, 0]	n/a	FR1	4	R1230J
2062.371	0.95	2073129	WORD_OFF	n/a	n/a	STORM	3	7	[0, 0, 0]	n/a	FR1	4	R1230J
2063.321	1.617	2074079	WORD	n/a	wordpools/wordpool_EN.txt	SHIP	4	7	[0, 0, 0]	n/a	FR1	4	R1230J
2064.938	0.85	2075696	WORD_OFF	n/a	n/a	SHIP	4	7	[0, 0, 0]	n/a	FR1	4	R1230J
2065.788	1.617	2076546	WORD	n/a	wordpools/wordpool_EN.txt	MOTH	5	7	[0, 0, 0]	n/a	FR1	4	R1230J
2067.405	0.767	2078163	WORD_OFF	n/a	n/a	MOTH	5	7	[0, 0, 0]	n/a	FR1	4	R1230J
2068.172	1.617	2078930	WORD	n/a	wordpools/wordpool_EN.txt	JET	6	7	[0, 0, 0]	n/a	FR1	4	R1230J
2069.789	0.933	2080547	WORD_OFF	n/a	n/a	JET	6	7	[0, 0, 0]	n/a	FR1	4	R1230J
2070.722	1.617	2081480	WORD	n/a	wordpools/wordpool_EN.txt	BOMB	7	7	[0, 0, 0]	n/a	FR1	4	R1230J
2072.339	0.85	2083097	WORD_OFF	n/a	n/a	BOMB	7	7	[0, 0, 0]	n/a	FR1	4	R1230J
2073.189	1.617	2083947	WORD	n/a	wordpools/wordpool_EN.txt	WEED	8	7	[0, 0, 0]	n/a	FR1	4	R1230J
2074.806	0.782	2085564	WORD_OFF	n/a	n/a	WEED	8	7	[0, 0, 0]	n/a	FR1	4	R1230J
2075.588	1.618	2086346	WORD	n/a	wordpools/wordpool_EN.txt	RAIN	9	7	[0, 0, 0]	n/a	FR1	4	R1230J
2077.206	0.833	2087964	WORD_OFF	n/a	n/a	RAIN	9	7	[0, 0, 0]	n/a	FR1	4	R1230J
2078.039	1.617	2088797	WORD	n/a	wordpools/wordpool_EN.txt	STEAK	10	7	[0, 0, 0]	n/a	FR1	4	R1230J
2079.656	0.816	2090414	WORD_OFF	n/a	n/a	STEAK	10	7	[0, 0, 0]	n/a	FR1	4	R1230J
2080.472	1.601	2091230	WORD	n/a	wordpools/wordpool_EN.txt	MOUSE	11	7	[0, 0, 0]	n/a	FR1	4	R1230J
2082.073	0.784	2092831	WORD_OFF	n/a	n/a	MOUSE	11	7	[0, 0, 0]	n/a	FR1	4	R1230J
2082.857	1.615	2093615	WORD	n/a	wordpools/wordpool_EN.txt	BLOOM	12	7	[0, 0, 0]	n/a	FR1	4	R1230J
2084.472	0.0	2095230	DISTRACT_START	n/a	n/a	n/a	-999	7	[0, 0, 0]	n/a	FR1	4	R1230J
2084.472	0.001	2095230	WORD_OFF	n/a	n/a	BLOOM	12	7	[0, 0, 0]	n/a	FR1	4	R1230J
2084.473	0.016	2095231	START	n/a	n/a	n/a	-999	7	[-999, -999, -999]	n/a	FR1	4	R1230J
2084.489	7.018	2095247	PROB	7.018	n/a	n/a	-999	7	[3, 1, 4]	8	FR1	4	R1230J
2091.507	3.951	2102264	PROB	3.951	n/a	n/a	-999	7	[7, 1, 4]	12	FR1	4	R1230J
2095.458	2.767	2106215	PROB	2.767	n/a	n/a	-999	7	[2, 8, 9]	19	FR1	4	R1230J
2098.225	4.901	2108982	PROB	4.901	n/a	n/a	-999	7	[2, 3, 9]	14	FR1	4	R1230J
2103.126	4.033	2113883	PROB	4.033	n/a	n/a	-999	7	[9, 2, 7]	18	FR1	4	R1230J
2107.159	0.017	2117916	STOP	n/a	n/a	n/a	-999	7	[-999, -999, -999]	n/a	FR1	4	R1230J
2107.176	0.55	2117933	DISTRACT_END	n/a	n/a	n/a	-999	7	[0, 0, 0]	n/a	FR1	4	R1230J
2107.726	0.518	2118483	RETRIEVAL_ORIENT	n/a	n/a	n/a	-999	7	[0, 0, 0]	n/a	FR1	4	R1230J
2108.244	2.367	2119001	REC_START	n/a	n/a	n/a	-999	7	[0, 0, 0]	n/a	FR1	4	R1230J
2110.611	0.176	2121368	REC_WORD_VV	0.176	n/a	<>	-999	7	[0, 0, 0]	n/a	FR1	4	R1230J
2110.787	1.91	2121544	REC_WORD	1.91	n/a	TEA	1	7	[0, 0, 0]	n/a	FR1	4	R1230J
2112.697	0.218	2123454	REC_WORD_VV	0.218	n/a	<>	-999	7	[0, 0, 0]	n/a	FR1	4	R1230J
2112.915	1.751	2123672	REC_WORD	1.751	n/a	RAT	-999	7	[0, 0, 0]	n/a	FR1	4	R1230J
2114.666	0.258	2125423	REC_WORD_VV	0.258	n/a	<>	-999	7	[0, 0, 0]	n/a	FR1	4	R1230J
2114.924	2.173	2125681	REC_WORD	2.173	n/a	MOUSE	11	7	[0, 0, 0]	n/a	FR1	4	R1230J
2117.097	0.102	2127854	REC_WORD_VV	0.102	n/a	<>	-999	7	[0, 0, 0]	n/a	FR1	4	R1230J
2117.199	6.665	2127956	REC_WORD	6.665	n/a	MOOSE	-999	7	[0, 0, 0]	n/a	FR1	4	R1230J
2123.864	0.186	2134621	REC_WORD_VV	0.186	n/a	<>	-999	7	[0, 0, 0]	n/a	FR1	4	R1230J
2124.05	14.204	2134807	REC_WORD	14.204	n/a	RACKET	-999	7	[0, 0, 0]	n/a	FR1	4	R1230J
2138.254	6.26	2149011	REC_END	n/a	n/a	n/a	-999	7	[0, 0, 0]	n/a	FR1	4	R1230J
2144.514	0.5	2155271	TRIAL	n/a	n/a	n/a	-999	8	[0, 0, 0]	n/a	FR1	4	R1230J
2145.014	10.428	2155771	COUNTDOWN_START	n/a	n/a	n/a	-999	8	[0, 0, 0]	n/a	FR1	4	R1230J
2155.442	0.008	2166199	COUNTDOWN_END	n/a	n/a	n/a	-999	8	[0, 0, 0]	n/a	FR1	4	R1230J
2155.45	1.617	2166207	ORIENT	n/a	n/a	n/a	-999	8	[0, 0, 0]	n/a	FR1	4	R1230J
2157.067	1.983	2167824	ORIENT_OFF	n/a	n/a	n/a	-999	8	[0, 0, 0]	n/a	FR1	4	R1230J
2159.05	1.617	2169807	WORD	n/a	wordpools/wordpool_EN.txt	HORSE	1	8	[0, 0, 0]	n/a	FR1	4	R1230J
2160.667	0.866	2171424	WORD_OFF	n/a	n/a	HORSE	1	8	[0, 0, 0]	n/a	FR1	4	R1230J
2161.533	1.618	2172290	WORD	n/a	wordpools/wordpool_EN.txt	MOUTH	2	8	[0, 0, 0]	n/a	FR1	4	R1230J
2163.151	0.8	2173908	WORD_OFF	n/a	n/a	MOUTH	2	8	[0, 0, 0]	n/a	FR1	4	R1230J
2163.951	1.616	2174708	WORD	n/a	wordpools/wordpool_EN.txt	CLAY	3	8	[0, 0, 0]	n/a	FR1	4	R1230J
2165.567	0.867	2176324	WORD_OFF	n/a	n/a	CLAY	3	8	[0, 0, 0]	n/a	FR1	4	R1230J
2166.434	1.617	2177191	WORD	n/a	wordpools/wordpool_EN.txt	PRINCE	4	8	[0, 0, 0]	n/a	FR1	4	R1230J
2168.051	1.017	2178808	WORD_OFF	n/a	n/a	PRINCE	4	8	[0, 0, 0]	n/a	FR1	4	R1230J
2169.068	1.617	2179825	WORD	n/a	wordpools/wordpool_EN.txt	PEAR	5	8	[0, 0, 0]	n/a	FR1	4	R1230J
2170.685	0.916	2181442	WORD_OFF	n/a	n/a	PEAR	5	8	[0, 0, 0]	n/a	FR1	4	R1230J
2171.601	1.618	2182358	WORD	n/a	wordpools/wordpool_EN.txt	CROWN	6	8	[0, 0, 0]	n/a	FR1	4	R1230J
2173.219	1.0	2183976	WORD_OFF	n/a	n/a	CROWN	6	8	[0, 0, 0]	n/a	FR1	4	R1230J
2174.219	1.617	2184976	WORD	n/a	wordpools/wordpool_EN.txt	INK	7	8	[0, 0, 0]	n/a	FR1	4	R1230J
2175.836	0.866	2186593	WORD_OFF	n/a	n/a	INK	7	8	[0, 0, 0]	n/a	FR1	4	R1230J
2176.702	1.617	2187459	WORD	n/a	wordpools/wordpool_EN.txt	FRUIT	8	8	[0, 0, 0]	n/a	FR1	4	R1230J
2178.319	0.901	2189076	WORD_OFF	n/a	n/a	FRUIT	8	8	[0, 0, 0]	n/a	FR1	4	R1230J
2179.22	1.616	2189977	WORD	n/a	wordpools/wordpool_EN.txt	RIB	9	8	[0, 0, 0]	n/a	FR1	4	R1230J
2180.836	0.934	2191593	WORD_OFF	n/a	n/a	RIB	9	8	[0, 0, 0]	n/a	FR1	4	R1230J
2181.77	1.617	2192527	WORD	n/a	wordpools/wordpool_EN.txt	BOARD	10	8	[0, 0, 0]	n/a	FR1	4	R1230J
2183.387	0.983	2194144	WORD_OFF	n/a	n/a	BOARD	10	8	[0, 0, 0]	n/a	FR1	4	R1230J
2184.37	1.617	2195127	WORD	n/a	wordpools/wordpool_EN.txt	KEY	11	8	[0, 0, 0]	n/a	FR1	4	R1230J
2185.987	0.8	2196744	WORD_OFF	n/a	n/a	KEY	11	8	[0, 0, 0]	n/a	FR1	4	R1230J
2186.787	1.617	2197544	WORD	n/a	wordpools/wordpool_EN.txt	NEST	12	8	[0, 0, 0]	n/a	FR1	4	R1230J
2188.404	0.0	2199161	WORD_OFF	n/a	n/a	NEST	12	8	[0, 0, 0]	n/a	FR1	4	R1230J
2188.404	0.001	2199161	DISTRACT_START	n/a	n/a	n/a	-999	8	[0, 0, 0]	n/a	FR1	4	R1230J
2188.405	0.016	2199162	START	n/a	n/a	n/a	-999	8	[-999, -999, -999]	n/a	FR1	4	R1230J
2188.421	7.217	2199178	PROB	7.217	n/a	n/a	-999	8	[3, 8, 9]	20	FR1	4	R1230J
2195.638	3.267	2206395	PROB	3.267	n/a	n/a	-999	8	[6, 2, 6]	14	FR1	4	R1230J
2198.905	3.251	2209662	PROB	3.251	n/a	n/a	-999	8	[1, 5, 9]	15	FR1	4	R1230J
2202.156	2.432	2212913	PROB	2.432	n/a	n/a	-999	8	[2, 7, 3]	12	FR1	4	R1230J
2204.588	3.268	2215345	PROB	3.268	n/a	n/a	-999	8	[7, 1, 8]	16	FR1	4	R1230J
2207.856	4.365	2218613	PROB	4.365	n/a	n/a	-999	8	[8, 4, 8]	20	FR1	4	R1230J
2212.221	0.02	2222978	STOP	n/a	n/a	n/a	-999	8	[-999, -999, -999]	n/a	FR1	4	R1230J
2212.241	0.6	2222998	DISTRACT_END	n/a	n/a	n/a	-999	8	[0, 0, 0]	n/a	FR1	4	R1230J
2212.841	0.517	2223598	RETRIEVAL_ORIENT	n/a	n/a	n/a	-999	8	[0, 0, 0]	n/a	FR1	4	R1230J
2213.358	1.58	2224115	REC_START	n/a	n/a	n/a	-999	8	[0, 0, 0]	n/a	FR1	4	R1230J
2214.938	2.27	2225695	REC_WORD	2.27	n/a	HORSE	1	8	[0, 0, 0]	n/a	FR1	4	R1230J
2217.208	1.034	2227965	REC_WORD	1.034	n/a	MOUTH	2	8	[0, 0, 0]	n/a	FR1	4	R1230J
2218.242	25.128	2228999	REC_WORD	25.128	n/a	CLAY	3	8	[0, 0, 0]	n/a	FR1	4	R1230J
2243.37	4.359	2254127	REC_END	n/a	n/a	n/a	-999	8	[0, 0, 0]	n/a	FR1	4	R1230J
2247.729	0.5	2258486	TRIAL	n/a	n/a	n/a	-999	9	[0, 0, 0]	n/a	FR1	4	R1230J
2248.229	10.428	2258986	COUNTDOWN_START	n/a	n/a	n/a	-999	9	[0, 0, 0]	n/a	FR1	4	R1230J
2258.657	0.006	2269414	COUNTDOWN_END	n/a	n/a	n/a	-999	9	[0, 0, 0]	n/a	FR1	4	R1230J
2258.663	1.617	2269420	ORIENT	n/a	n/a	n/a	-999	9	[0, 0, 0]	n/a	FR1	4	R1230J
2260.28	1.967	2271037	ORIENT_OFF	n/a	n/a	n/a	-999	9	[0, 0, 0]	n/a	FR1	4	R1230J
2262.247	1.617	2273004	WORD	n/a	wordpools/wordpool_EN.txt	CHALK	1	9	[0, 0, 0]	n/a	FR1	4	R1230J
2263.864	0.8	2274621	WORD_OFF	n/a	n/a	CHALK	1	9	[0, 0, 0]	n/a	FR1	4	R1230J
2264.664	1.617	2275421	WORD	n/a	wordpools/wordpool_EN.txt	DOOR	2	9	[0, 0, 0]	n/a	FR1	4	R1230J
2266.281	0.833	2277038	WORD_OFF	n/a	n/a	DOOR	2	9	[0, 0, 0]	n/a	FR1	4	R1230J
2267.114	1.617	2277871	WORD	n/a	wordpools/wordpool_EN.txt	FENCE	3	9	[0, 0, 0]	n/a	FR1	4	R1230J
2268.731	0.9	2279488	WORD_OFF	n/a	n/a	FENCE	3	9	[0, 0, 0]	n/a	FR1	4	R1230J
2269.631	1.617	2280388	WORD	n/a	wordpools/wordpool_EN.txt	CLOTH	4	9	[0, 0, 0]	n/a	FR1	4	R1230J
2271.248	0.784	2282005	WORD_OFF	n/a	n/a	CLOTH	4	9	[0, 0, 0]	n/a	FR1	4	R1230J
2272.032	1.617	2282789	WORD	n/a	wordpools/wordpool_EN.txt	PURSE	5	9	[0, 0, 0]	n/a	FR1	4	R1230J
2273.649	0.8	2284406	WORD_OFF	n/a	n/a	PURSE	5	9	[0, 0, 0]	n/a	FR1	4	R1230J
2274.449	1.617	2285206	WORD	n/a	wordpools/wordpool_EN.txt	ZOO	6	9	[0, 0, 0]	n/a	FR1	4	R1230J
2276.066	0.767	2286823	WORD_OFF	n/a	n/a	ZOO	6	9	[0, 0, 0]	n/a	FR1	4	R1230J
2276.833	1.617	2287590	WORD	n/a	wordpools/wordpool_EN.txt	PHONE	7	9	[0, 0, 0]	n/a	FR1	4	R1230J
2278.45	1.0	2289207	WORD_OFF	n/a	n/a	PHONE	7	9	[0, 0, 0]	n/a	FR1	4	R1230J
2279.45	1.617	2290207	WORD	n/a	wordpools/wordpool_EN.txt	SOUP	8	9	[0, 0, 0]	n/a	FR1	4	R1230J
2281.067	0.917	2291824	WORD_OFF	n/a	n/a	SOUP	8	9	[0, 0, 0]	n/a	FR1	4	R1230J
2281.984	1.615	2292741	WORD	n/a	wordpools/wordpool_EN.txt	BEAK	9	9	[0, 0, 0]	n/a	FR1	4	R1230J
2283.599	0.967	2294356	WORD_OFF	n/a	n/a	BEAK	9	9	[0, 0, 0]	n/a	FR1	4	R1230J
2284.566	1.618	2295323	WORD	n/a	wordpools/wordpool_EN.txt	LEAF	10	9	[0, 0, 0]	n/a	FR1	4	R1230J
2286.184	0.967	2296941	WORD_OFF	n/a	n/a	LEAF	10	9	[0, 0, 0]	n/a	FR1	4	R1230J
2287.151	1.617	2297908	WORD	n/a	wordpools/wordpool_EN.txt	HOLE	11	9	[0, 0, 0]	n/a	FR1	4	R1230J
2288.768	0.832	2299525	WORD_OFF	n/a	n/a	HOLE	11	9	[0, 0, 0]	n/a	FR1	4	R1230J
2289.6	1.618	2300357	WORD	n/a	wordpools/wordpool_EN.txt	WAVE	12	9	[0, 0, 0]	n/a	FR1	4	R1230J
2291.218	0.0	2301975	WORD_OFF	n/a	n/a	WAVE	12	9	[0, 0, 0]	n/a	FR1	4	R1230J
2291.218	0.001	2301975	DISTRACT_START	n/a	n/a	n/a	-999	9	[0, 0, 0]	n/a	FR1	4	R1230J
2291.219	0.016	2301976	START	n/a	n/a	n/a	-999	9	[-999, -999, -999]	n/a	FR1	4	R1230J
2291.235	6.0	2301992	PROB	6.0	n/a	n/a	-999	9	[3, 3, 9]	15	FR1	4	R1230J
2297.235	6.601	2307992	PROB	6.601	n/a	n/a	-999	9	[6, 2, 7]	15	FR1	4	R1230J
2303.836	4.767	2314593	PROB	4.767	n/a	n/a	-999	9	[6, 2, 9]	17	FR1	4	R1230J
2308.603	4.455	2319360	PROB	4.455	n/a	n/a	-999	9	[9, 2, 1]	12	FR1	4	R1230J
2313.058	0.013	2323815	STOP	n/a	n/a	n/a	-999	9	[-999, -999, -999]	n/a	FR1	4	R1230J
2313.071	0.566	2323828	DISTRACT_END	n/a	n/a	n/a	-999	9	[0, 0, 0]	n/a	FR1	4	R1230J
2313.637	0.518	2324394	RETRIEVAL_ORIENT	n/a	n/a	n/a	-999	9	[0, 0, 0]	n/a	FR1	4	R1230J
2314.155	5.508	2324912	REC_START	n/a	n/a	n/a	-999	9	[0, 0, 0]	n/a	FR1	4	R1230J
2319.663	7.942	2330419	REC_WORD	7.942	n/a	SCHOOL	-999	9	[0, 0, 0]	n/a	FR1	4	R1230J
2327.605	16.56	2338361	REC_WORD_VV	16.56	n/a	<>	-999	9	[0, 0, 0]	n/a	FR1	4	R1230J
2344.165	4.544	2354921	REC_END	n/a	n/a	n/a	-999	9	[0, 0, 0]	n/a	FR1	4	R1230J
2348.709	0.5	2359465	TRIAL	n/a	n/a	n/a	-999	10	[0, 0, 0]	n/a	FR1	4	R1230J
2349.209	10.428	2359965	COUNTDOWN_START	n/a	n/a	n/a	-999	10	[0, 0, 0]	n/a	FR1	4	R1230J
2359.637	0.007	2370393	COUNTDOWN_END	n/a	n/a	n/a	-999	10	[0, 0, 0]	n/a	FR1	4	R1230J
2359.644	1.617	2370400	ORIENT	n/a	n/a	n/a	-999	10	[0, 0, 0]	n/a	FR1	4	R1230J
2361.261	2.1	2372017	ORIENT_OFF	n/a	n/a	n/a	-999	10	[0, 0, 0]	n/a	FR1	4	R1230J
2363.361	1.617	2374117	WORD	n/a	wordpools/wordpool_EN.txt	YARD	1	10	[0, 0, 0]	n/a	FR1	4	R1230J
2364.978	0.967	2375734	WORD_OFF	n/a	n/a	YARD	1	10	[0, 0, 0]	n/a	FR1	4	R1230J
2365.945	1.616	2376701	WORD	n/a	wordpools/wordpool_EN.txt	BADGE	2	10	[0, 0, 0]	n/a	FR1	4	R1230J
2367.561	0.851	2378317	WORD_OFF	n/a	n/a	BADGE	2	10	[0, 0, 0]	n/a	FR1	4	R1230J
2368.412	1.616	2379168	WORD	n/a	wordpools/wordpool_EN.txt	FLUTE	3	10	[0, 0, 0]	n/a	FR1	4	R1230J
2370.028	0.901	2380784	WORD_OFF	n/a	n/a	FLUTE	3	10	[0, 0, 0]	n/a	FR1	4	R1230J
2370.929	1.616	2381685	WORD	n/a	wordpools/wordpool_EN.txt	BOOT	4	10	[0, 0, 0]	n/a	FR1	4	R1230J
2372.545	0.884	2383301	WORD_OFF	n/a	n/a	BOOT	4	10	[0, 0, 0]	n/a	FR1	4	R1230J
2373.429	1.617	2384185	WORD	n/a	wordpools/wordpool_EN.txt	ICE	5	10	[0, 0, 0]	n/a	FR1	4	R1230J
2375.046	0.983	2385802	WORD_OFF	n/a	n/a	ICE	5	10	[0, 0, 0]	n/a	FR1	4	R1230J
2376.029	1.617	2386785	WORD	n/a	wordpools/wordpool_EN.txt	GUARD	6	10	[0, 0, 0]	n/a	FR1	4	R1230J
2377.646	0.949	2388402	WORD_OFF	n/a	n/a	GUARD	6	10	[0, 0, 0]	n/a	FR1	4	R1230J
2378.595	1.601	2389351	WORD	n/a	wordpools/wordpool_EN.txt	SLEEVE	7	10	[0, 0, 0]	n/a	FR1	4	R1230J
2380.196	0.984	2390952	WORD_OFF	n/a	n/a	SLEEVE	7	10	[0, 0, 0]	n/a	FR1	4	R1230J
2381.18	1.617	2391936	WORD	n/a	wordpools/wordpool_EN.txt	SOAP	8	10	[0, 0, 0]	n/a	FR1	4	R1230J
2382.797	0.916	2393553	WORD_OFF	n/a	n/a	SOAP	8	10	[0, 0, 0]	n/a	FR1	4	R1230J
2383.713	1.617	2394469	WORD	n/a	wordpools/wordpool_EN.txt	DOG	9	10	[0, 0, 0]	n/a	FR1	4	R1230J
2385.33	0.984	2396086	WORD_OFF	n/a	n/a	DOG	9	10	[0, 0, 0]	n/a	FR1	4	R1230J
2386.314	1.617	2397070	WORD	n/a	wordpools/wordpool_EN.txt	PET	10	10	[0, 0, 0]	n/a	FR1	4	R1230J
2387.931	0.9	2398687	WORD_OFF	n/a	n/a	PET	10	10	[0, 0, 0]	n/a	FR1	4	R1230J
2388.831	1.617	2399587	WORD	n/a	wordpools/wordpool_EN.txt	SUIT	11	10	[0, 0, 0]	n/a	FR1	4	R1230J
2390.448	0.967	2401204	WORD_OFF	n/a	n/a	SUIT	11	10	[0, 0, 0]	n/a	FR1	4	R1230J
2391.415	1.617	2402171	WORD	n/a	wordpools/wordpool_EN.txt	SOCK	12	10	[0, 0, 0]	n/a	FR1	4	R1230J
2393.032	0.0	2403788	WORD_OFF	n/a	n/a	SOCK	12	10	[0, 0, 0]	n/a	FR1	4	R1230J
2393.032	0.0	2403788	DISTRACT_START	n/a	n/a	n/a	-999	10	[0, 0, 0]	n/a	FR1	4	R1230J
2393.032	0.016	2403788	START	n/a	n/a	n/a	-999	10	[-999, -999, -999]	n/a	FR1	4	R1230J
2393.048	4.934	2403804	PROB	4.934	n/a	n/a	-999	10	[6, 8, 1]	15	FR1	4	R1230J
2397.982	3.868	2408738	PROB	3.868	n/a	n/a	-999	10	[5, 7, 6]	18	FR1	4	R1230J
2401.85	2.517	2412606	PROB	2.517	n/a	n/a	-999	10	[1, 6, 6]	13	FR1	4	R1230J
2404.367	2.867	2415123	PROB	2.867	n/a	n/a	-999	10	[9, 4, 2]	15	FR1	4	R1230J
2407.234	4.299	2417990	PROB	4.299	n/a	n/a	-999	10	[1, 1, 6]	8	FR1	4	R1230J
2411.533	4.824	2422289	PROB	4.824	n/a	n/a	-999	10	[8, 6, 7]	21	FR1	4	R1230J
2416.357	0.011	2427113	STOP	n/a	n/a	n/a	-999	10	[-999, -999, -999]	n/a	FR1	4	R1230J
2416.368	0.634	2427124	DISTRACT_END	n/a	n/a	n/a	-999	10	[0, 0, 0]	n/a	FR1	4	R1230J
2417.002	0.516	2427758	RETRIEVAL_ORIENT	n/a	n/a	n/a	-999	10	[0, 0, 0]	n/a	FR1	4	R1230J
2417.518	2.331	2428274	REC_START	n/a	n/a	n/a	-999	10	[0, 0, 0]	n/a	FR1	4	R1230J
2419.849	2.052	2430605	REC_WORD	2.052	n/a	FLUTE	3	10	[0, 0, 0]	n/a	FR1	4	R1230J
2421.901	2.58	2432657	REC_WORD	2.58	n/a	BADGE	2	10	[0, 0, 0]	n/a	FR1	4	R1230J
2424.481	1.113	2435237	REC_WORD	1.113	n/a	YARD	1	10	[0, 0, 0]	n/a	FR1	4	R1230J
2425.594	0.558	2436350	REC_WORD	0.558	n/a	DOG	9	10	[0, 0, 0]	n/a	FR1	4	R1230J
2426.152	21.376	2436908	REC_WORD	21.376	n/a	PET	10	10	[0, 0, 0]	n/a	FR1	4	R1230J
2447.528	4.445	2458284	REC_END	n/a	n/a	n/a	-999	10	[0, 0, 0]	n/a	FR1	4	R1230J
2451.973	0.5	2462729	TRIAL	n/a	n/a	n/a	-999	11	[0, 0, 0]	n/a	FR1	4	R1230J
2452.473	10.428	2463229	COUNTDOWN_START	n/a	n/a	n/a	-999	11	[0, 0, 0]	n/a	FR1	4	R1230J
2462.901	0.007	2473657	COUNTDOWN_END	n/a	n/a	n/a	-999	11	[0, 0, 0]	n/a	FR1	4	R1230J
2462.908	1.616	2473664	ORIENT	n/a	n/a	n/a	-999	11	[0, 0, 0]	n/a	FR1	4	R1230J
2464.524	2.234	2475280	ORIENT_OFF	n/a	n/a	n/a	-999	11	[0, 0, 0]	n/a	FR1	4	R1230J
2466.758	1.617	2477514	WORD	n/a	wordpools/wordpool_EN.txt	SEAT	1	11	[0, 0, 0]	n/a	FR1	4	R1230J
2468.375	0.8	2479131	WORD_OFF	n/a	n/a	SEAT	1	11	[0, 0, 0]	n/a	FR1	4	R1230J
2469.175	1.617	2479931	WORD	n/a	wordpools/wordpool_EN.txt	CAGE	2	11	[0, 0, 0]	n/a	FR1	4	R1230J
2470.792	0.934	2481548	WORD_OFF	n/a	n/a	CAGE	2	11	[0, 0, 0]	n/a	FR1	4	R1230J
2471.726	1.617	2482482	WORD	n/a	wordpools/wordpool_EN.txt	STOVE	3	11	[0, 0, 0]	n/a	FR1	4	R1230J
2473.343	0.883	2484099	WORD_OFF	n/a	n/a	STOVE	3	11	[0, 0, 0]	n/a	FR1	4	R1230J
2474.226	1.617	2484982	WORD	n/a	wordpools/wordpool_EN.txt	CAR	4	11	[0, 0, 0]	n/a	FR1	4	R1230J
2475.843	0.8	2486599	WORD_OFF	n/a	n/a	CAR	4	11	[0, 0, 0]	n/a	FR1	4	R1230J
2476.643	1.617	2487399	WORD	n/a	wordpools/wordpool_EN.txt	LAMP	5	11	[0, 0, 0]	n/a	FR1	4	R1230J
2478.26	0.933	2489016	WORD_OFF	n/a	n/a	LAMP	5	11	[0, 0, 0]	n/a	FR1	4	R1230J
2479.193	1.617	2489949	WORD	n/a	wordpools/wordpool_EN.txt	OAK	6	11	[0, 0, 0]	n/a	FR1	4	R1230J
2480.81	1.0	2491566	WORD_OFF	n/a	n/a	OAK	6	11	[0, 0, 0]	n/a	FR1	4	R1230J
2481.81	1.617	2492566	WORD	n/a	wordpools/wordpool_EN.txt	STOOL	7	11	[0, 0, 0]	n/a	FR1	4	R1230J
2483.427	0.867	2494183	WORD_OFF	n/a	n/a	STOOL	7	11	[0, 0, 0]	n/a	FR1	4	R1230J
2484.294	1.617	2495050	WORD	n/a	wordpools/wordpool_EN.txt	GOAT	8	11	[0, 0, 0]	n/a	FR1	4	R1230J
2485.911	0.967	2496667	WORD_OFF	n/a	n/a	GOAT	8	11	[0, 0, 0]	n/a	FR1	4	R1230J
2486.878	1.615	2497634	WORD	n/a	wordpools/wordpool_EN.txt	PEA	9	11	[0, 0, 0]	n/a	FR1	4	R1230J
2488.493	0.952	2499249	WORD_OFF	n/a	n/a	PEA	9	11	[0, 0, 0]	n/a	FR1	4	R1230J
2489.445	1.616	2500201	WORD	n/a	wordpools/wordpool_EN.txt	SALT	10	11	[0, 0, 0]	n/a	FR1	4	R1230J
2491.061	0.984	2501817	WORD_OFF	n/a	n/a	SALT	10	11	[0, 0, 0]	n/a	FR1	4	R1230J
2492.045	1.617	2502801	WORD	n/a	wordpools/wordpool_EN.txt	SWAMP	11	11	[0, 0, 0]	n/a	FR1	4	R1230J
2493.662	0.932	2504418	WORD_OFF	n/a	n/a	SWAMP	11	11	[0, 0, 0]	n/a	FR1	4	R1230J
2494.594	1.618	2505350	WORD	n/a	wordpools/wordpool_EN.txt	CAPE	12	11	[0, 0, 0]	n/a	FR1	4	R1230J
2496.212	0.0	2506968	WORD_OFF	n/a	n/a	CAPE	12	11	[0, 0, 0]	n/a	FR1	4	R1230J
2496.212	0.0	2506968	DISTRACT_START	n/a	n/a	n/a	-999	11	[0, 0, 0]	n/a	FR1	4	R1230J
2496.212	0.017	2506968	START	n/a	n/a	n/a	-999	11	[-999, -999, -999]	n/a	FR1	4	R1230J
2496.229	4.017	2506985	PROB	4.017	n/a	n/a	-999	11	[8, 8, 6]	22	FR1	4	R1230J
2500.246	2.249	2511002	PROB	2.249	n/a	n/a	-999	11	[3, 7, 5]	15	FR1	4	R1230J
2502.495	3.602	2513251	PROB	3.602	n/a	n/a	-999	11	[1, 2, 5]	8	FR1	4	R1230J
2506.097	2.817	2516853	PROB	2.817	n/a	n/a	-999	11	[1, 6, 8]	15	FR1	4	R1230J
2508.914	3.134	2519670	PROB	3.134	n/a	n/a	-999	11	[6, 6, 5]	16	FR1	4	R1230J
2512.048	3.117	2522804	PROB	3.117	n/a	n/a	-999	11	[8, 5, 3]	16	FR1	4	R1230J
2515.165	3.604	2525921	PROB	3.604	n/a	n/a	-999	11	[2, 4, 1]	8	FR1	4	R1230J
2518.769	0.013	2529525	STOP	n/a	n/a	n/a	-999	11	[-999, -999, -999]	n/a	FR1	4	R1230J
2518.782	0.699	2529538	DISTRACT_END	n/a	n/a	n/a	-999	11	[0, 0, 0]	n/a	FR1	4	R1230J
2519.481	0.519	2530237	RETRIEVAL_ORIENT	n/a	n/a	n/a	-999	11	[0, 0, 0]	n/a	FR1	4	R1230J
2520.0	2.701	2530756	REC_START	n/a	n/a	n/a	-999	11	[0, 0, 0]	n/a	FR1	4	R1230J
2522.701	3.1	2533457	REC_WORD	3.1	n/a	SHEEP	-999	11	[0, 0, 0]	n/a	FR1	4	R1230J
2525.801	1.913	2536557	REC_WORD	1.913	n/a	COW	-999	11	[0, 0, 0]	n/a	FR1	4	R1230J
2527.714	4.146	2538470	REC_WORD	4.146	n/a	LAMP	5	11	[0, 0, 0]	n/a	FR1	4	R1230J
2531.86	7.089	2542616	REC_WORD	7.089	n/a	DRY	-999	11	[0, 0, 0]	n/a	FR1	4	R1230J
2538.949	11.062	2549705	REC_WORD	11.062	n/a	BALL	-999	11	[0, 0, 0]	n/a	FR1	4	R1230J
2550.011	5.376	2560766	REC_END	n/a	n/a	n/a	-999	11	[0, 0, 0]	n/a	FR1	4	R1230J
2555.387	0.5	2566142	TRIAL	n/a	n/a	n/a	-999	12	[0, 0, 0]	n/a	FR1	4	R1230J
2555.887	10.428	2566642	COUNTDOWN_START	n/a	n/a	n/a	-999	12	[0, 0, 0]	n/a	FR1	4	R1230J
2566.315	0.006	2577070	COUNTDOWN_END	n/a	n/a	n/a	-999	12	[0, 0, 0]	n/a	FR1	4	R1230J
2566.321	1.617	2577076	ORIENT	n/a	n/a	n/a	-999	12	[0, 0, 0]	n/a	FR1	4	R1230J
2567.938	2.267	2578693	ORIENT_OFF	n/a	n/a	n/a	-999	12	[0, 0, 0]	n/a	FR1	4	R1230J
2570.205	1.617	2580960	WORD	n/a	wordpools/wordpool_EN.txt	BEAR	1	12	[0, 0, 0]	n/a	FR1	4	R1230J
2571.822	0.85	2582577	WORD_OFF	n/a	n/a	BEAR	1	12	[0, 0, 0]	n/a	FR1	4	R1230J
2572.672	1.618	2583427	WORD	n/a	wordpools/wordpool_EN.txt	PARK	2	12	[0, 0, 0]	n/a	FR1	4	R1230J
2574.29	0.783	2585045	WORD_OFF	n/a	n/a	PARK	2	12	[0, 0, 0]	n/a	FR1	4	R1230J
2575.073	1.617	2585828	WORD	n/a	wordpools/wordpool_EN.txt	BOOK	3	12	[0, 0, 0]	n/a	FR1	4	R1230J
2576.69	0.799	2587445	WORD_OFF	n/a	n/a	BOOK	3	12	[0, 0, 0]	n/a	FR1	4	R1230J
2577.489	1.618	2588244	WORD	n/a	wordpools/wordpool_EN.txt	KITE	4	12	[0, 0, 0]	n/a	FR1	4	R1230J
2579.107	1.0	2589862	WORD_OFF	n/a	n/a	KITE	4	12	[0, 0, 0]	n/a	FR1	4	R1230J
2580.107	1.617	2590862	WORD	n/a	wordpools/wordpool_EN.txt	NET	5	12	[0, 0, 0]	n/a	FR1	4	R1230J
2581.724	0.967	2592479	WORD_OFF	n/a	n/a	NET	5	12	[0, 0, 0]	n/a	FR1	4	R1230J
2582.691	1.616	2593446	WORD	n/a	wordpools/wordpool_EN.txt	SHELL	6	12	[0, 0, 0]	n/a	FR1	4	R1230J
2584.307	0.951	2595062	WORD_OFF	n/a	n/a	SHELL	6	12	[0, 0, 0]	n/a	FR1	4	R1230J
2585.258	1.616	2596013	WORD	n/a	wordpools/wordpool_EN.txt	SKY	7	12	[0, 0, 0]	n/a	FR1	4	R1230J
2586.874	0.851	2597629	WORD_OFF	n/a	n/a	SKY	7	12	[0, 0, 0]	n/a	FR1	4	R1230J
2587.725	1.617	2598480	WORD	n/a	wordpools/wordpool_EN.txt	BANK	8	12	[0, 0, 0]	n/a	FR1	4	R1230J
2589.342	0.816	2600097	WORD_OFF	n/a	n/a	BANK	8	12	[0, 0, 0]	n/a	FR1	4	R1230J
2590.158	1.617	2600913	WORD	n/a	wordpools/wordpool_EN.txt	HAWK	9	12	[0, 0, 0]	n/a	FR1	4	R1230J
2591.775	0.9	2602530	WORD_OFF	n/a	n/a	HAWK	9	12	[0, 0, 0]	n/a	FR1	4	R1230J
2592.675	1.617	2603430	WORD	n/a	wordpools/wordpool_EN.txt	MOON	10	12	[0, 0, 0]	n/a	FR1	4	R1230J
2594.292	0.984	2605047	WORD_OFF	n/a	n/a	MOON	10	12	[0, 0, 0]	n/a	FR1	4	R1230J
2595.276	1.616	2606031	WORD	n/a	wordpools/wordpool_EN.txt	MULE	11	12	[0, 0, 0]	n/a	FR1	4	R1230J
2596.892	0.951	2607647	WORD_OFF	n/a	n/a	MULE	11	12	[0, 0, 0]	n/a	FR1	4	R1230J
2597.843	1.616	2608598	WORD	n/a	wordpools/wordpool_EN.txt	TRAIN	12	12	[0, 0, 0]	n/a	FR1	4	R1230J
2599.459	0.0	2610214	WORD_OFF	n/a	n/a	TRAIN	12	12	[0, 0, 0]	n/a	FR1	4	R1230J
2599.459	0.0	2610214	DISTRACT_START	n/a	n/a	n/a	-999	12	[0, 0, 0]	n/a	FR1	4	R1230J
2599.459	0.016	2610214	START	n/a	n/a	n/a	-999	12	[-999, -999, -999]	n/a	FR1	4	R1230J
2599.475	4.652	2610230	PROB	4.652	n/a	n/a	-999	12	[9, 2, 8]	19	FR1	4	R1230J
2604.127	3.584	2614882	PROB	3.584	n/a	n/a	-999	12	[8, 6, 5]	19	FR1	4	R1230J
2607.711	3.383	2618466	PROB	3.383	n/a	n/a	-999	12	[7, 8, 8]	23	FR1	4	R1230J
2611.094	4.768	2621849	PROB	4.768	n/a	n/a	-999	12	[6, 7, 6]	19	FR1	4	R1230J
2615.862	3.607	2626617	PROB	3.607	n/a	n/a	-999	12	[7, 8, 5]	20	FR1	4	R1230J
2619.469	0.009	2630224	STOP	n/a	n/a	n/a	-999	12	[-999, -999, -999]	n/a	FR1	4	R1230J
2619.478	0.668	2630233	DISTRACT_END	n/a	n/a	n/a	-999	12	[0, 0, 0]	n/a	FR1	4	R1230J
2620.146	0.518	2630901	RETRIEVAL_ORIENT	n/a	n/a	n/a	-999	12	[0, 0, 0]	n/a	FR1	4	R1230J
2620.664	2.716	2631419	REC_START	n/a	n/a	n/a	-999	12	[0, 0, 0]	n/a	FR1	4	R1230J
2623.38	0.718	2634135	REC_WORD_VV	0.718	n/a	<>	-999	12	[0, 0, 0]	n/a	FR1	4	R1230J
2624.098	0.778	2634853	REC_WORD	0.778	n/a	BEAR	1	12	[0, 0, 0]	n/a	FR1	4	R1230J
2624.876	14.952	2635631	REC_WORD	14.952	n/a	PARK	2	12	[0, 0, 0]	n/a	FR1	4	R1230J
2639.828	7.771	2650583	REC_WORD	7.771	n/a	GATE	-999	12	[0, 0, 0]	n/a	FR1	4	R1230J
2647.599	3.075	2658354	REC_WORD	3.075	n/a	SPOON	-999	12	[0, 0, 0]	n/a	FR1	4	R1230J
2650.674	4.243	2661429	REC_END	n/a	n/a	n/a	-999	12	[0, 0, 0]	n/a	FR1	4	R1230J
2654.917	0.5	2665672	TRIAL	n/a	n/a	n/a	-999	13	[0, 0, 0]	n/a	FR1	4	R1230J
2655.417	10.428	2666172	COUNTDOWN_START	n/a	n/a	n/a	-999	13	[0, 0, 0]	n/a	FR1	4	R1230J
2665.845	0.007	2676600	COUNTDOWN_END	n/a	n/a	n/a	-999	13	[0, 0, 0]	n/a	FR1	4	R1230J
2665.852	1.616	2676607	ORIENT	n/a	n/a	n/a	-999	13	[0, 0, 0]	n/a	FR1	4	R1230J
2667.468	2.067	2678223	ORIENT_OFF	n/a	n/a	n/a	-999	13	[0, 0, 0]	n/a	FR1	4	R1230J
2669.535	1.618	2680290	WORD	n/a	wordpools/wordpool_EN.txt	SEED	1	13	[0, 0, 0]	n/a	FR1	4	R1230J
2671.153	0.9	2681908	WORD_OFF	n/a	n/a	SEED	1	13	[0, 0, 0]	n/a	FR1	4	R1230J
2672.053	1.616	2682808	WORD	n/a	wordpools/wordpool_EN.txt	PEACH	2	13	[0, 0, 0]	n/a	FR1	4	R1230J
2673.669	0.849	2684424	WORD_OFF	n/a	n/a	PEACH	2	13	[0, 0, 0]	n/a	FR1	4	R1230J
2674.518	1.602	2685273	WORD	n/a	wordpools/wordpool_EN.txt	DART	3	13	[0, 0, 0]	n/a	FR1	4	R1230J
2676.12	0.783	2686875	WORD_OFF	n/a	n/a	DART	3	13	[0, 0, 0]	n/a	FR1	4	R1230J
2676.903	1.616	2687658	WORD	n/a	wordpools/wordpool_EN.txt	CHEEK	4	13	[0, 0, 0]	n/a	FR1	4	R1230J
2678.519	1.0	2689274	WORD_OFF	n/a	n/a	CHEEK	4	13	[0, 0, 0]	n/a	FR1	4	R1230J
2679.519	1.618	2690274	WORD	n/a	wordpools/wordpool_EN.txt	PANTS	5	13	[0, 0, 0]	n/a	FR1	4	R1230J
2681.137	0.917	2691892	WORD_OFF	n/a	n/a	PANTS	5	13	[0, 0, 0]	n/a	FR1	4	R1230J
2682.054	1.617	2692809	WORD	n/a	wordpools/wordpool_EN.txt	FOX	6	13	[0, 0, 0]	n/a	FR1	4	R1230J
2683.671	0.983	2694426	WORD_OFF	n/a	n/a	FOX	6	13	[0, 0, 0]	n/a	FR1	4	R1230J
2684.654	1.617	2695409	WORD	n/a	wordpools/wordpool_EN.txt	NAIL	7	13	[0, 0, 0]	n/a	FR1	4	R1230J
2686.271	0.85	2697026	WORD_OFF	n/a	n/a	NAIL	7	13	[0, 0, 0]	n/a	FR1	4	R1230J
2687.121	1.617	2697876	WORD	n/a	wordpools/wordpool_EN.txt	SPEAR	8	13	[0, 0, 0]	n/a	FR1	4	R1230J
2688.738	0.849	2699493	WORD_OFF	n/a	n/a	SPEAR	8	13	[0, 0, 0]	n/a	FR1	4	R1230J
2689.587	1.618	2700342	WORD	n/a	wordpools/wordpool_EN.txt	CALF	9	13	[0, 0, 0]	n/a	FR1	4	R1230J
2691.205	0.984	2701960	WORD_OFF	n/a	n/a	CALF	9	13	[0, 0, 0]	n/a	FR1	4	R1230J
2692.189	1.616	2702944	WORD	n/a	wordpools/wordpool_EN.txt	COIN	10	13	[0, 0, 0]	n/a	FR1	4	R1230J
2693.805	0.783	2704560	WORD_OFF	n/a	n/a	COIN	10	13	[0, 0, 0]	n/a	FR1	4	R1230J
2694.588	1.618	2705343	WORD	n/a	wordpools/wordpool_EN.txt	ROPE	11	13	[0, 0, 0]	n/a	FR1	4	R1230J
2696.206	0.85	2706961	WORD_OFF	n/a	n/a	ROPE	11	13	[0, 0, 0]	n/a	FR1	4	R1230J
2697.056	1.617	2707811	WORD	n/a	wordpools/wordpool_EN.txt	BOX	12	13	[0, 0, 0]	n/a	FR1	4	R1230J
2698.673	0.0	2709428	WORD_OFF	n/a	n/a	BOX	12	13	[0, 0, 0]	n/a	FR1	4	R1230J
2698.673	0.0	2709428	DISTRACT_START	n/a	n/a	n/a	-999	13	[0, 0, 0]	n/a	FR1	4	R1230J
2698.673	0.016	2709428	START	n/a	n/a	n/a	-999	13	[-999, -999, -999]	n/a	FR1	4	R1230J
2698.689	3.284	2709444	PROB	3.284	n/a	n/a	-999	13	[4, 8, 6]	18	FR1	4	R1230J
2701.973	4.55	2712728	PROB	4.55	n/a	n/a	-999	13	[8, 5, 6]	19	FR1	4	R1230J
2706.523	3.067	2717278	PROB	3.067	n/a	n/a	-999	13	[3, 3, 6]	12	FR1	4	R1230J
2709.59	4.684	2720345	PROB	4.684	n/a	n/a	-999	13	[7, 9, 8]	23	FR1	4	R1230J
2714.274	3.283	2725029	PROB	3.283	n/a	n/a	-999	13	[3, 5, 2]	10	FR1	4	R1230J
2717.557	3.647	2728312	PROB	3.647	n/a	n/a	-999	13	[3, 5, 9]	17	FR1	4	R1230J
2721.204	0.022	2731959	STOP	n/a	n/a	n/a	-999	13	[-999, -999, -999]	n/a	FR1	4	R1230J
2721.226	0.533	2731981	DISTRACT_END	n/a	n/a	n/a	-999	13	[0, 0, 0]	n/a	FR1	4	R1230J
2721.759	0.518	2732514	RETRIEVAL_ORIENT	n/a	n/a	n/a	-999	13	[0, 0, 0]	n/a	FR1	4	R1230J
2722.277	0.407	2733032	REC_START	n/a	n/a	n/a	-999	13	[0, 0, 0]	n/a	FR1	4	R1230J
2722.684	1.337	2733439	REC_WORD	1.337	n/a	SEED	1	13	[0, 0, 0]	n/a	FR1	4	R1230J
2724.021	1.3	2734776	REC_WORD	1.3	n/a	CHEEK	4	13	[0, 0, 0]	n/a	FR1	4	R1230J
2725.321	1.524	2736076	REC_WORD	1.524	n/a	PARK	-999	13	[0, 0, 0]	n/a	FR1	4	R1230J
2726.845	6.607	2737600	REC_WORD	6.607	n/a	BEAR	-999	13	[0, 0, 0]	n/a	FR1	4	R1230J
2733.452	18.836	2744207	REC_WORD	18.836	n/a	COIN	10	13	[0, 0, 0]	n/a	FR1	4	R1230J
2752.288	4.893	2763043	REC_END	n/a	n/a	n/a	-999	13	[0, 0, 0]	n/a	FR1	4	R1230J
2757.181	0.5	2767936	TRIAL	n/a	n/a	n/a	-999	14	[0, 0, 0]	n/a	FR1	4	R1230J
2757.681	10.428	2768436	COUNTDOWN_START	n/a	n/a	n/a	-999	14	[0, 0, 0]	n/a	FR1	4	R1230J
2768.109	0.006	2778864	COUNTDOWN_END	n/a	n/a	n/a	-999	14	[0, 0, 0]	n/a	FR1	4	R1230J
2768.115	1.617	2778870	ORIENT	n/a	n/a	n/a	-999	14	[0, 0, 0]	n/a	FR1	4	R1230J
2769.732	1.967	2780487	ORIENT_OFF	n/a	n/a	n/a	-999	14	[0, 0, 0]	n/a	FR1	4	R1230J
2771.699	1.617	2782453	WORD	n/a	wordpools/wordpool_EN.txt	SHOE	1	14	[0, 0, 0]	n/a	FR1	4	R1230J
2773.316	0.833	2784070	WORD_OFF	n/a	n/a	SHOE	1	14	[0, 0, 0]	n/a	FR1	4	R1230J
2774.149	1.617	2784903	WORD	n/a	wordpools/wordpool_EN.txt	TRAY	2	14	[0, 0, 0]	n/a	FR1	4	R1230J
2775.766	0.9	2786520	WORD_OFF	n/a	n/a	TRAY	2	14	[0, 0, 0]	n/a	FR1	4	R1230J
2776.666	1.617	2787420	WORD	n/a	wordpools/wordpool_EN.txt	TOAD	3	14	[0, 0, 0]	n/a	FR1	4	R1230J
2778.283	0.767	2789037	WORD_OFF	n/a	n/a	TOAD	3	14	[0, 0, 0]	n/a	FR1	4	R1230J
2779.05	1.617	2789804	WORD	n/a	wordpools/wordpool_EN.txt	TIE	4	14	[0, 0, 0]	n/a	FR1	4	R1230J
2780.667	0.832	2791421	WORD_OFF	n/a	n/a	TIE	4	14	[0, 0, 0]	n/a	FR1	4	R1230J
2781.499	1.602	2792253	WORD	n/a	wordpools/wordpool_EN.txt	HEN	5	14	[0, 0, 0]	n/a	FR1	4	R1230J
2783.101	0.866	2793855	WORD_OFF	n/a	n/a	HEN	5	14	[0, 0, 0]	n/a	FR1	4	R1230J
2783.967	1.616	2794721	WORD	n/a	wordpools/wordpool_EN.txt	BLUSH	6	14	[0, 0, 0]	n/a	FR1	4	R1230J
2785.583	0.884	2796337	WORD_OFF	n/a	n/a	BLUSH	6	14	[0, 0, 0]	n/a	FR1	4	R1230J
2786.467	1.618	2797221	WORD	n/a	wordpools/wordpool_EN.txt	SNAIL	7	14	[0, 0, 0]	n/a	FR1	4	R1230J
2788.085	0.966	2798839	WORD_OFF	n/a	n/a	SNAIL	7	14	[0, 0, 0]	n/a	FR1	4	R1230J
2789.051	1.617	2799805	WORD	n/a	wordpools/wordpool_EN.txt	SNAKE	8	14	[0, 0, 0]	n/a	FR1	4	R1230J
2790.668	0.833	2801422	WORD_OFF	n/a	n/a	SNAKE	8	14	[0, 0, 0]	n/a	FR1	4	R1230J
2791.501	1.618	2802255	WORD	n/a	wordpools/wordpool_EN.txt	BRICK	9	14	[0, 0, 0]	n/a	FR1	4	R1230J
2793.119	0.833	2803873	WORD_OFF	n/a	n/a	BRICK	9	14	[0, 0, 0]	n/a	FR1	4	R1230J
2793.952	1.616	2804706	WORD	n/a	wordpools/wordpool_EN.txt	LAND	10	14	[0, 0, 0]	n/a	FR1	4	R1230J
2795.568	0.851	2806322	WORD_OFF	n/a	n/a	LAND	10	14	[0, 0, 0]	n/a	FR1	4	R1230J
2796.419	1.617	2807173	WORD	n/a	wordpools/wordpool_EN.txt	TRUCK	11	14	[0, 0, 0]	n/a	FR1	4	R1230J
2798.036	0.917	2808790	WORD_OFF	n/a	n/a	TRUCK	11	14	[0, 0, 0]	n/a	FR1	4	R1230J
2798.953	1.615	2809707	WORD	n/a	wordpools/wordpool_EN.txt	SHEET	12	14	[0, 0, 0]	n/a	FR1	4	R1230J
2800.568	0.0	2811322	WORD_OFF	n/a	n/a	SHEET	12	14	[0, 0, 0]	n/a	FR1	4	R1230J
2800.568	0.001	2811322	DISTRACT_START	n/a	n/a	n/a	-999	14	[0, 0, 0]	n/a	FR1	4	R1230J
2800.569	0.016	2811323	START	n/a	n/a	n/a	-999	14	[-999, -999, -999]	n/a	FR1	4	R1230J
2800.585	3.268	2811339	PROB	3.268	n/a	n/a	-999	14	[2, 7, 8]	17	FR1	4	R1230J
2803.853	3.534	2814607	PROB	3.534	n/a	n/a	-999	14	[1, 5, 7]	13	FR1	4	R1230J
2807.387	4.317	2818141	PROB	4.317	n/a	n/a	-999	14	[7, 8, 5]	20	FR1	4	R1230J
2811.704	3.134	2822458	PROB	3.134	n/a	n/a	-999	14	[7, 7, 5]	19	FR1	4	R1230J
2814.838	4.783	2825592	PROB	4.783	n/a	n/a	-999	14	[9, 9, 6]	24	FR1	4	R1230J
2819.621	3.171	2830375	PROB	3.171	n/a	n/a	-999	14	[3, 5, 9]	7	FR1	4	R1230J
2822.792	0.014	2833546	STOP	n/a	n/a	n/a	-999	14	[-999, -999, -999]	n/a	FR1	4	R1230J
2822.806	0.6	2833560	DISTRACT_END	n/a	n/a	n/a	-999	14	[0, 0, 0]	n/a	FR1	4	R1230J
2823.406	0.517	2834160	RETRIEVAL_ORIENT	n/a	n/a	n/a	-999	14	[0, 0, 0]	n/a	FR1	4	R1230J
2823.923	7.959	2834677	REC_START	n/a	n/a	n/a	-999	14	[0, 0, 0]	n/a	FR1	4	R1230J
2831.882	3.138	2842636	REC_WORD	3.138	n/a	TOOL	-999	14	[0, 0, 0]	n/a	FR1	4	R1230J
2835.02	0.08	2845774	REC_WORD_VV	0.08	n/a	<>	-999	14	[0, 0, 0]	n/a	FR1	4	R1230J
2835.1	0.827	2845854	REC_WORD	0.827	n/a	SHOE	1	14	[0, 0, 0]	n/a	FR1	4	R1230J
2835.927	0.16	2846681	REC_WORD_VV	0.16	n/a	<>	-999	14	[0, 0, 0]	n/a	FR1	4	R1230J
2836.087	4.057	2846841	REC_WORD	4.057	n/a	TRUCK	11	14	[0, 0, 0]	n/a	FR1	4	R1230J
2840.144	0.699	2850898	REC_WORD_VV	0.699	n/a	<>	-999	14	[0, 0, 0]	n/a	FR1	4	R1230J
2840.843	4.91	2851597	REC_WORD	4.91	n/a	BEAR	-999	14	[0, 0, 0]	n/a	FR1	4	R1230J
2845.753	1.0	2856507	REC_WORD_VV	1.0	n/a	<>	-999	14	[0, 0, 0]	n/a	FR1	4	R1230J
2846.753	1.0	2857507	REC_WORD_VV	1.0	n/a	<>	-999	14	[0, 0, 0]	n/a	FR1	4	R1230J
2847.753	6.182	2858507	REC_WORD_VV	6.182	n/a	<>	-999	14	[0, 0, 0]	n/a	FR1	4	R1230J
2853.935	12.026	2864689	REC_END	n/a	n/a	n/a	-999	14	[0, 0, 0]	n/a	FR1	4	R1230J
2865.961	0.5	2876715	TRIAL	n/a	n/a	n/a	-999	15	[0, 0, 0]	n/a	FR1	4	R1230J
2866.461	10.428	2877215	COUNTDOWN_START	n/a	n/a	n/a	-999	15	[0, 0, 0]	n/a	FR1	4	R1230J
2876.889	0.008	2887643	COUNTDOWN_END	n/a	n/a	n/a	-999	15	[0, 0, 0]	n/a	FR1	4	R1230J
2876.897	1.616	2887651	ORIENT	n/a	n/a	n/a	-999	15	[0, 0, 0]	n/a	FR1	4	R1230J
2878.513	1.967	2889267	ORIENT_OFF	n/a	n/a	n/a	-999	15	[0, 0, 0]	n/a	FR1	4	R1230J
2880.48	1.618	2891234	WORD	n/a	wordpools/wordpool_EN.txt	FLAG	1	15	[0, 0, 0]	n/a	FR1	4	R1230J
2882.098	1.0	2892852	WORD_OFF	n/a	n/a	FLAG	1	15	[0, 0, 0]	n/a	FR1	4	R1230J
2883.098	1.616	2893852	WORD	n/a	wordpools/wordpool_EN.txt	DOLL	2	15	[0, 0, 0]	n/a	FR1	4	R1230J
2884.714	0.934	2895468	WORD_OFF	n/a	n/a	DOLL	2	15	[0, 0, 0]	n/a	FR1	4	R1230J
2885.648	1.617	2896402	WORD	n/a	wordpools/wordpool_EN.txt	TOOTH	3	15	[0, 0, 0]	n/a	FR1	4	R1230J
2887.265	0.766	2898019	WORD_OFF	n/a	n/a	TOOTH	3	15	[0, 0, 0]	n/a	FR1	4	R1230J
2888.031	1.617	2898785	WORD	n/a	wordpools/wordpool_EN.txt	CART	4	15	[0, 0, 0]	n/a	FR1	4	R1230J
2889.648	0.833	2900402	WORD_OFF	n/a	n/a	CART	4	15	[0, 0, 0]	n/a	FR1	4	R1230J
2890.481	1.601	2901235	WORD	n/a	wordpools/wordpool_EN.txt	HOOK	5	15	[0, 0, 0]	n/a	FR1	4	R1230J
2892.082	0.984	2902836	WORD_OFF	n/a	n/a	HOOK	5	15	[0, 0, 0]	n/a	FR1	4	R1230J
2893.066	1.616	2903820	WORD	n/a	wordpools/wordpool_EN.txt	WORM	6	15	[0, 0, 0]	n/a	FR1	4	R1230J
2894.682	1.0	2905436	WORD_OFF	n/a	n/a	WORM	6	15	[0, 0, 0]	n/a	FR1	4	R1230J
2895.682	1.617	2906436	WORD	n/a	wordpools/wordpool_EN.txt	SWORD	7	15	[0, 0, 0]	n/a	FR1	4	R1230J
2897.299	1.0	2908053	WORD_OFF	n/a	n/a	SWORD	7	15	[0, 0, 0]	n/a	FR1	4	R1230J
2898.299	1.617	2909053	WORD	n/a	wordpools/wordpool_EN.txt	TANK	8	15	[0, 0, 0]	n/a	FR1	4	R1230J
2899.916	0.784	2910670	WORD_OFF	n/a	n/a	TANK	8	15	[0, 0, 0]	n/a	FR1	4	R1230J
2900.7	1.617	2911454	WORD	n/a	wordpools/wordpool_EN.txt	CUBE	9	15	[0, 0, 0]	n/a	FR1	4	R1230J
2902.317	0.917	2913071	WORD_OFF	n/a	n/a	CUBE	9	15	[0, 0, 0]	n/a	FR1	4	R1230J
2903.234	1.616	2913988	WORD	n/a	wordpools/wordpool_EN.txt	LAWN	10	15	[0, 0, 0]	n/a	FR1	4	R1230J
2904.85	0.934	2915604	WORD_OFF	n/a	n/a	LAWN	10	15	[0, 0, 0]	n/a	FR1	4	R1230J
2905.784	1.617	2916538	WORD	n/a	wordpools/wordpool_EN.txt	NOSE	11	15	[0, 0, 0]	n/a	FR1	4	R1230J
2907.401	0.95	2918155	WORD_OFF	n/a	n/a	NOSE	11	15	[0, 0, 0]	n/a	FR1	4	R1230J
2908.351	1.617	2919105	WORD	n/a	wordpools/wordpool_EN.txt	EGG	12	15	[0, 0, 0]	n/a	FR1	4	R1230J
2909.968	0.0	2920722	WORD_OFF	n/a	n/a	EGG	12	15	[0, 0, 0]	n/a	FR1	4	R1230J
2909.968	0.0	2920722	DISTRACT_START	n/a	n/a	n/a	-999	15	[0, 0, 0]	n/a	FR1	4	R1230J
2909.968	0.016	2920722	START	n/a	n/a	n/a	-999	15	[-999, -999, -999]	n/a	FR1	4	R1230J
2909.984	3.5	2920738	PROB	3.5	n/a	n/a	-999	15	[7, 1, 5]	13	FR1	4	R1230J
2913.484	2.851	2924238	PROB	2.851	n/a	n/a	-999	15	[8, 1, 6]	15	FR1	4	R1230J
2916.335	2.717	2927089	PROB	2.717	n/a	n/a	-999	15	[6, 8, 6]	20	FR1	4	R1230J
2919.052	3.934	2929806	PROB	3.934	n/a	n/a	-999	15	[9, 8, 9]	26	FR1	4	R1230J
2922.986	2.384	2933740	PROB	2.384	n/a	n/a	-999	15	[8, 6, 1]	15	FR1	4	R1230J
2925.37	3.083	2936124	PROB	3.083	n/a	n/a	-999	15	[4, 9, 9]	22	FR1	4	R1230J
2928.453	2.855	2939207	PROB	2.855	n/a	n/a	-999	15	[9, 1, 5]	15	FR1	4	R1230J
2931.308	0.012	2942062	STOP	n/a	n/a	n/a	-999	15	[-999, -999, -999]	n/a	FR1	4	R1230J
2931.32	0.684	2942074	DISTRACT_END	n/a	n/a	n/a	-999	15	[0, 0, 0]	n/a	FR1	4	R1230J
2932.004	0.516	2942758	RETRIEVAL_ORIENT	n/a	n/a	n/a	-999	15	[0, 0, 0]	n/a	FR1	4	R1230J
2932.52	2.068	2943274	REC_START	n/a	n/a	n/a	-999	15	[0, 0, 0]	n/a	FR1	4	R1230J
2934.588	0.075	2945342	REC_WORD_VV	0.075	n/a	<>	-999	15	[0, 0, 0]	n/a	FR1	4	R1230J
2934.663	21.377	2945417	REC_WORD	21.377	n/a	FLAG	1	15	[0, 0, 0]	n/a	FR1	4	R1230J
2956.04	1.0	2966794	REC_WORD_VV	1.0	n/a	<>	-999	15	[0, 0, 0]	n/a	FR1	4	R1230J
2957.04	5.491	2967794	REC_WORD_VV	5.491	n/a	<>	-999	15	[0, 0, 0]	n/a	FR1	4	R1230J
2962.531	5.194	2973285	REC_END	n/a	n/a	n/a	-999	15	[0, 0, 0]	n/a	FR1	4	R1230J
2967.725	0.5	2978479	TRIAL	n/a	n/a	n/a	-999	16	[0, 0, 0]	n/a	FR1	4	R1230J
2968.225	10.428	2978979	COUNTDOWN_START	n/a	n/a	n/a	-999	16	[0, 0, 0]	n/a	FR1	4	R1230J
2978.653	0.007	2989407	COUNTDOWN_END	n/a	n/a	n/a	-999	16	[0, 0, 0]	n/a	FR1	4	R1230J
2978.66	1.617	2989414	ORIENT	n/a	n/a	n/a	-999	16	[0, 0, 0]	n/a	FR1	4	R1230J
2980.277	2.134	2991031	ORIENT_OFF	n/a	n/a	n/a	-999	16	[0, 0, 0]	n/a	FR1	4	R1230J
2982.411	1.616	2993165	WORD	n/a	wordpools/wordpool_EN.txt	SHIELD	1	16	[0, 0, 0]	n/a	FR1	4	R1230J
2984.027	0.917	2994781	WORD_OFF	n/a	n/a	SHIELD	1	16	[0, 0, 0]	n/a	FR1	4	R1230J
2984.944	1.616	2995698	WORD	n/a	wordpools/wordpool_EN.txt	TREE	2	16	[0, 0, 0]	n/a	FR1	4	R1230J
2986.56	0.9	2997314	WORD_OFF	n/a	n/a	TREE	2	16	[0, 0, 0]	n/a	FR1	4	R1230J
2987.46	1.618	2998214	WORD	n/a	wordpools/wordpool_EN.txt	DOCK	3	16	[0, 0, 0]	n/a	FR1	4	R1230J
2989.078	0.884	2999832	WORD_OFF	n/a	n/a	DOCK	3	16	[0, 0, 0]	n/a	FR1	4	R1230J
2989.962	1.616	3000716	WORD	n/a	wordpools/wordpool_EN.txt	CAT	4	16	[0, 0, 0]	n/a	FR1	4	R1230J
2991.578	0.999	3002332	WORD_OFF	n/a	n/a	CAT	4	16	[0, 0, 0]	n/a	FR1	4	R1230J
2992.577	1.602	3003331	WORD	n/a	wordpools/wordpool_EN.txt	FOAM	5	16	[0, 0, 0]	n/a	FR1	4	R1230J
2994.179	0.883	3004933	WORD_OFF	n/a	n/a	FOAM	5	16	[0, 0, 0]	n/a	FR1	4	R1230J
2995.062	1.617	3005816	WORD	n/a	wordpools/wordpool_EN.txt	EAR	6	16	[0, 0, 0]	n/a	FR1	4	R1230J
2996.679	0.933	3007433	WORD_OFF	n/a	n/a	EAR	6	16	[0, 0, 0]	n/a	FR1	4	R1230J
2997.612	1.601	3008366	WORD	n/a	wordpools/wordpool_EN.txt	BEAN	7	16	[0, 0, 0]	n/a	FR1	4	R1230J
2999.213	0.934	3009967	WORD_OFF	n/a	n/a	BEAN	7	16	[0, 0, 0]	n/a	FR1	4	R1230J
3000.147	1.616	3010900	WORD	n/a	wordpools/wordpool_EN.txt	TRASH	8	16	[0, 0, 0]	n/a	FR1	4	R1230J
3001.763	0.984	3012516	WORD_OFF	n/a	n/a	TRASH	8	16	[0, 0, 0]	n/a	FR1	4	R1230J
3002.747	1.617	3013500	WORD	n/a	wordpools/wordpool_EN.txt	MOOSE	9	16	[0, 0, 0]	n/a	FR1	4	R1230J
3004.364	0.867	3015117	WORD_OFF	n/a	n/a	MOOSE	9	16	[0, 0, 0]	n/a	FR1	4	R1230J
3005.231	1.616	3015984	WORD	n/a	wordpools/wordpool_EN.txt	CASH	10	16	[0, 0, 0]	n/a	FR1	4	R1230J
3006.847	0.917	3017600	WORD_OFF	n/a	n/a	CASH	10	16	[0, 0, 0]	n/a	FR1	4	R1230J
3007.764	1.617	3018517	WORD	n/a	wordpools/wordpool_EN.txt	OWL	11	16	[0, 0, 0]	n/a	FR1	4	R1230J
3009.381	0.784	3020134	WORD_OFF	n/a	n/a	OWL	11	16	[0, 0, 0]	n/a	FR1	4	R1230J
3010.165	1.617	3020918	WORD	n/a	wordpools/wordpool_EN.txt	BAND	12	16	[0, 0, 0]	n/a	FR1	4	R1230J
3011.782	0.0	3022535	WORD_OFF	n/a	n/a	BAND	12	16	[0, 0, 0]	n/a	FR1	4	R1230J
3011.782	0.0	3022535	DISTRACT_START	n/a	n/a	n/a	-999	16	[0, 0, 0]	n/a	FR1	4	R1230J
3011.782	0.016	3022535	START	n/a	n/a	n/a	-999	16	[-999, -999, -999]	n/a	FR1	4	R1230J
3011.798	3.217	3022551	PROB	3.217	n/a	n/a	-999	16	[6, 8, 7]	21	FR1	4	R1230J
3015.015	2.449	3025768	PROB	2.449	n/a	n/a	-999	16	[6, 1, 5]	12	FR1	4	R1230J
3017.464	2.335	3028217	PROB	2.335	n/a	n/a	-999	16	[6, 3, 7]	17	FR1	4	R1230J
3019.799	2.151	3030552	PROB	2.151	n/a	n/a	-999	16	[5, 6, 4]	15	FR1	4	R1230J
3021.95	2.3	3032703	PROB	2.3	n/a	n/a	-999	16	[3, 9, 2]	14	FR1	4	R1230J
3024.25	2.4	3035003	PROB	2.4	n/a	n/a	-999	16	[2, 1, 2]	5	FR1	4	R1230J
3026.65	3.617	3037403	PROB	3.617	n/a	n/a	-999	16	[8, 9, 5]	24	FR1	4	R1230J
3030.267	3.181	3041020	PROB	3.181	n/a	n/a	-999	16	[9, 2, 7]	18	FR1	4	R1230J
3033.448	0.018	3044201	STOP	n/a	n/a	n/a	-999	16	[-999, -999, -999]	n/a	FR1	4	R1230J
3033.466	0.618	3044219	DISTRACT_END	n/a	n/a	n/a	-999	16	[0, 0, 0]	n/a	FR1	4	R1230J
3034.084	0.516	3044837	RETRIEVAL_ORIENT	n/a	n/a	n/a	-999	16	[0, 0, 0]	n/a	FR1	4	R1230J
3034.6	0.925	3045353	REC_START	n/a	n/a	n/a	-999	16	[0, 0, 0]	n/a	FR1	4	R1230J
3035.525	0.761	3046278	REC_WORD	0.761	n/a	SHIELD	1	16	[0, 0, 0]	n/a	FR1	4	R1230J
3036.286	0.934	3047039	REC_WORD	0.934	n/a	TREE	2	16	[0, 0, 0]	n/a	FR1	4	R1230J
3037.22	0.677	3047973	REC_WORD	0.677	n/a	DOCK	3	16	[0, 0, 0]	n/a	FR1	4	R1230J
3037.897	26.715	3048650	REC_WORD	26.715	n/a	HAT	-999	16	[0, 0, 0]	n/a	FR1	4	R1230J
3064.612	4.527	3075365	REC_END	n/a	n/a	n/a	-999	16	[0, 0, 0]	n/a	FR1	4	R1230J
3069.139	0.5	3079892	TRIAL	n/a	n/a	n/a	-999	17	[0, 0, 0]	n/a	FR1	4	R1230J
3069.639	10.428	3080392	COUNTDOWN_START	n/a	n/a	n/a	-999	17	[0, 0, 0]	n/a	FR1	4	R1230J
3080.067	0.007	3090820	COUNTDOWN_END	n/a	n/a	n/a	-999	17	[0, 0, 0]	n/a	FR1	4	R1230J
3080.074	1.617	3090827	ORIENT	n/a	n/a	n/a	-999	17	[0, 0, 0]	n/a	FR1	4	R1230J
3081.691	2.067	3092444	ORIENT_OFF	n/a	n/a	n/a	-999	17	[0, 0, 0]	n/a	FR1	4	R1230J
3083.758	1.616	3094511	WORD	n/a	wordpools/wordpool_EN.txt	COUCH	1	17	[0, 0, 0]	n/a	FR1	4	R1230J
3085.374	0.817	3096127	WORD_OFF	n/a	n/a	COUCH	1	17	[0, 0, 0]	n/a	FR1	4	R1230J
3086.191	1.617	3096944	WORD	n/a	wordpools/wordpool_EN.txt	CORN	2	17	[0, 0, 0]	n/a	FR1	4	R1230J
3087.808	0.917	3098561	WORD_OFF	n/a	n/a	CORN	2	17	[0, 0, 0]	n/a	FR1	4	R1230J
3088.725	1.617	3099478	WORD	n/a	wordpools/wordpool_EN.txt	VINE	3	17	[0, 0, 0]	n/a	FR1	4	R1230J
3090.342	0.984	3101095	WORD_OFF	n/a	n/a	VINE	3	17	[0, 0, 0]	n/a	FR1	4	R1230J
3091.326	1.616	3102079	WORD	n/a	wordpools/wordpool_EN.txt	BARN	4	17	[0, 0, 0]	n/a	FR1	4	R1230J
3092.942	0.884	3103695	WORD_OFF	n/a	n/a	BARN	4	17	[0, 0, 0]	n/a	FR1	4	R1230J
3093.826	1.616	3104579	WORD	n/a	wordpools/wordpool_EN.txt	TOY	5	17	[0, 0, 0]	n/a	FR1	4	R1230J
3095.442	0.934	3106195	WORD_OFF	n/a	n/a	TOY	5	17	[0, 0, 0]	n/a	FR1	4	R1230J
3096.376	1.617	3107129	WORD	n/a	wordpools/wordpool_EN.txt	SPONGE	6	17	[0, 0, 0]	n/a	FR1	4	R1230J
3097.993	0.983	3108746	WORD_OFF	n/a	n/a	SPONGE	6	17	[0, 0, 0]	n/a	FR1	4	R1230J
3098.976	1.616	3109729	WORD	n/a	wordpools/wordpool_EN.txt	LIP	7	17	[0, 0, 0]	n/a	FR1	4	R1230J
3100.592	0.884	3111345	WORD_OFF	n/a	n/a	LIP	7	17	[0, 0, 0]	n/a	FR1	4	R1230J
3101.476	1.618	3112229	WORD	n/a	wordpools/wordpool_EN.txt	DESK	8	17	[0, 0, 0]	n/a	FR1	4	R1230J
3103.094	0.95	3113847	WORD_OFF	n/a	n/a	DESK	8	17	[0, 0, 0]	n/a	FR1	4	R1230J
3104.044	1.616	3114797	WORD	n/a	wordpools/wordpool_EN.txt	TOE	9	17	[0, 0, 0]	n/a	FR1	4	R1230J
3105.66	0.833	3116413	WORD_OFF	n/a	n/a	TOE	9	17	[0, 0, 0]	n/a	FR1	4	R1230J
3106.493	1.618	3117246	WORD	n/a	wordpools/wordpool_EN.txt	CLOUD	10	17	[0, 0, 0]	n/a	FR1	4	R1230J
3108.111	0.833	3118864	WORD_OFF	n/a	n/a	CLOUD	10	17	[0, 0, 0]	n/a	FR1	4	R1230J
3108.944	1.616	3119697	WORD	n/a	wordpools/wordpool_EN.txt	SINK	11	17	[0, 0, 0]	n/a	FR1	4	R1230J
3110.56	0.967	3121313	WORD_OFF	n/a	n/a	SINK	11	17	[0, 0, 0]	n/a	FR1	4	R1230J
3111.527	1.601	3122280	WORD	n/a	wordpools/wordpool_EN.txt	JAR	12	17	[0, 0, 0]	n/a	FR1	4	R1230J
3113.128	0.0	3123881	WORD_OFF	n/a	n/a	JAR	12	17	[0, 0, 0]	n/a	FR1	4	R1230J
3113.128	0.001	3123881	DISTRACT_START	n/a	n/a	n/a	-999	17	[0, 0, 0]	n/a	FR1	4	R1230J
3113.129	0.016	3123882	START	n/a	n/a	n/a	-999	17	[-999, -999, -999]	n/a	FR1	4	R1230J
3113.145	3.651	3123898	PROB	3.651	n/a	n/a	-999	17	[9, 6, 8]	23	FR1	4	R1230J
3116.796	3.55	3127549	PROB	3.55	n/a	n/a	-999	17	[6, 7, 5]	18	FR1	4	R1230J
3120.346	2.517	3131099	PROB	2.517	n/a	n/a	-999	17	[7, 3, 6]	16	FR1	4	R1230J
3122.863	4.317	3133616	PROB	4.317	n/a	n/a	-999	17	[8, 5, 9]	21	FR1	4	R1230J
3127.18	2.251	3137933	PROB	2.251	n/a	n/a	-999	17	[6, 7, 3]	16	FR1	4	R1230J
3129.431	6.124	3140184	PROB	6.124	n/a	n/a	-999	17	[6, 8, 3]	17	FR1	4	R1230J
3135.555	0.009	3146308	STOP	n/a	n/a	n/a	-999	17	[-999, -999, -999]	n/a	FR1	4	R1230J
3135.564	0.617	3146317	DISTRACT_END	n/a	n/a	n/a	-999	17	[0, 0, 0]	n/a	FR1	4	R1230J
3136.181	0.518	3146934	RETRIEVAL_ORIENT	n/a	n/a	n/a	-999	17	[0, 0, 0]	n/a	FR1	4	R1230J
3136.699	1.532	3147452	REC_START	n/a	n/a	n/a	-999	17	[0, 0, 0]	n/a	FR1	4	R1230J
3138.231	0.105	3148984	REC_WORD_VV	0.105	n/a	<>	-999	17	[0, 0, 0]	n/a	FR1	4	R1230J
3138.336	0.983	3149089	REC_WORD	0.983	n/a	COUCH	1	17	[0, 0, 0]	n/a	FR1	4	R1230J
3139.319	0.125	3150072	REC_WORD_VV	0.125	n/a	<>	-999	17	[0, 0, 0]	n/a	FR1	4	R1230J
3139.444	3.303	3150197	REC_WORD	3.303	n/a	CORNER	-999	17	[0, 0, 0]	n/a	FR1	4	R1230J
3142.747	0.055	3153500	REC_WORD_VV	0.055	n/a	<>	-999	17	[0, 0, 0]	n/a	FR1	4	R1230J
3142.802	9.18	3153555	REC_WORD	9.18	n/a	SHIELD	-999	17	[0, 0, 0]	n/a	FR1	4	R1230J
3151.982	0.135	3162735	REC_WORD_VV	0.135	n/a	<>	-999	17	[0, 0, 0]	n/a	FR1	4	R1230J
3152.117	14.593	3162870	REC_WORD	14.593	n/a	RACCOON	-999	17	[0, 0, 0]	n/a	FR1	4	R1230J
3166.71	6.875	3177463	REC_END	n/a	n/a	n/a	-999	17	[0, 0, 0]	n/a	FR1	4	R1230J
3173.585	0.5	3184338	TRIAL	n/a	n/a	n/a	-999	18	[0, 0, 0]	n/a	FR1	4	R1230J
3174.085	10.428	3184838	COUNTDOWN_START	n/a	n/a	n/a	-999	18	[0, 0, 0]	n/a	FR1	4	R1230J
3184.513	0.007	3195266	COUNTDOWN_END	n/a	n/a	n/a	-999	18	[0, 0, 0]	n/a	FR1	4	R1230J
3184.52	1.618	3195273	ORIENT	n/a	n/a	n/a	-999	18	[0, 0, 0]	n/a	FR1	4	R1230J
3186.138	2.234	3196891	ORIENT_OFF	n/a	n/a	n/a	-999	18	[0, 0, 0]	n/a	FR1	4	R1230J
3188.372	1.617	3199125	WORD	n/a	wordpools/wordpool_EN.txt	PASTE	1	18	[0, 0, 0]	n/a	FR1	4	R1230J
3189.989	0.816	3200742	WORD_OFF	n/a	n/a	PASTE	1	18	[0, 0, 0]	n/a	FR1	4	R1230J
3190.805	1.617	3201558	WORD	n/a	wordpools/wordpool_EN.txt	HOSE	2	18	[0, 0, 0]	n/a	FR1	4	R1230J
3192.422	0.834	3203175	WORD_OFF	n/a	n/a	HOSE	2	18	[0, 0, 0]	n/a	FR1	4	R1230J
3193.256	1.616	3204009	WORD	n/a	wordpools/wordpool_EN.txt	HOOF	3	18	[0, 0, 0]	n/a	FR1	4	R1230J
3194.872	0.934	3205625	WORD_OFF	n/a	n/a	HOOF	3	18	[0, 0, 0]	n/a	FR1	4	R1230J
3195.806	1.617	3206559	WORD	n/a	wordpools/wordpool_EN.txt	MILK	4	18	[0, 0, 0]	n/a	FR1	4	R1230J
3197.423	0.95	3208176	WORD_OFF	n/a	n/a	MILK	4	18	[0, 0, 0]	n/a	FR1	4	R1230J
3198.373	1.617	3209126	WORD	n/a	wordpools/wordpool_EN.txt	TENT	5	18	[0, 0, 0]	n/a	FR1	4	R1230J
3199.99	0.8	3210743	WORD_OFF	n/a	n/a	TENT	5	18	[0, 0, 0]	n/a	FR1	4	R1230J
3200.79	1.617	3211543	WORD	n/a	wordpools/wordpool_EN.txt	VEST	6	18	[0, 0, 0]	n/a	FR1	4	R1230J
3202.407	0.9	3213160	WORD_OFF	n/a	n/a	VEST	6	18	[0, 0, 0]	n/a	FR1	4	R1230J
3203.307	1.617	3214060	WORD	n/a	wordpools/wordpool_EN.txt	DEER	7	18	[0, 0, 0]	n/a	FR1	4	R1230J
3204.924	0.966	3215677	WORD_OFF	n/a	n/a	DEER	7	18	[0, 0, 0]	n/a	FR1	4	R1230J
3205.89	1.616	3216643	WORD	n/a	wordpools/wordpool_EN.txt	GATE	8	18	[0, 0, 0]	n/a	FR1	4	R1230J
3207.506	1.0	3218259	WORD_OFF	n/a	n/a	GATE	8	18	[0, 0, 0]	n/a	FR1	4	R1230J
3208.506	1.618	3219259	WORD	n/a	wordpools/wordpool_EN.txt	SPARK	9	18	[0, 0, 0]	n/a	FR1	4	R1230J
3210.124	1.001	3220877	WORD_OFF	n/a	n/a	SPARK	9	18	[0, 0, 0]	n/a	FR1	4	R1230J
3211.125	1.617	3221878	WORD	n/a	wordpools/wordpool_EN.txt	THUMB	10	18	[0, 0, 0]	n/a	FR1	4	R1230J
3212.742	0.933	3223495	WORD_OFF	n/a	n/a	THUMB	10	18	[0, 0, 0]	n/a	FR1	4	R1230J
3213.675	1.617	3224428	WORD	n/a	wordpools/wordpool_EN.txt	JUICE	11	18	[0, 0, 0]	n/a	FR1	4	R1230J
3215.292	0.916	3226045	WORD_OFF	n/a	n/a	JUICE	11	18	[0, 0, 0]	n/a	FR1	4	R1230J
3216.208	1.617	3226961	WORD	n/a	wordpools/wordpool_EN.txt	CUP	12	18	[0, 0, 0]	n/a	FR1	4	R1230J
3217.825	0.0	3228578	WORD_OFF	n/a	n/a	CUP	12	18	[0, 0, 0]	n/a	FR1	4	R1230J
3217.825	0.001	3228578	DISTRACT_START	n/a	n/a	n/a	-999	18	[0, 0, 0]	n/a	FR1	4	R1230J
3217.826	0.016	3228579	START	n/a	n/a	n/a	-999	18	[-999, -999, -999]	n/a	FR1	4	R1230J
3217.842	3.101	3228595	PROB	3.101	n/a	n/a	-999	18	[7, 3, 2]	12	FR1	4	R1230J
3220.943	3.916	3231696	PROB	3.916	n/a	n/a	-999	18	[5, 7, 6]	18	FR1	4	R1230J
3224.859	3.683	3235612	PROB	3.683	n/a	n/a	-999	18	[6, 7, 5]	18	FR1	4	R1230J
3228.542	1.967	3239294	PROB	1.967	n/a	n/a	-999	18	[7, 7, 7]	21	FR1	4	R1230J
3230.509	4.319	3241261	PROB	4.319	n/a	n/a	-999	18	[5, 3, 2]	10	FR1	4	R1230J
3234.828	2.217	3245580	PROB	2.217	n/a	n/a	-999	18	[2, 9, 1]	12	FR1	4	R1230J
3237.045	2.692	3247797	PROB	2.692	n/a	n/a	-999	18	[3, 1, 6]	10	FR1	4	R1230J
3239.737	0.008	3250489	STOP	n/a	n/a	n/a	-999	18	[-999, -999, -999]	n/a	FR1	4	R1230J
3239.745	0.634	3250497	DISTRACT_END	n/a	n/a	n/a	-999	18	[0, 0, 0]	n/a	FR1	4	R1230J
3240.379	0.517	3251131	RETRIEVAL_ORIENT	n/a	n/a	n/a	-999	18	[0, 0, 0]	n/a	FR1	4	R1230J
3240.896	30.0	3251648	REC_START	n/a	n/a	n/a	-999	18	[0, 0, 0]	n/a	FR1	4	R1230J
3270.896	0.011	3281648	REC_WORD_VV	0.011	n/a	<>	-999	18	[0, 0, 0]	n/a	FR1	4	R1230J
3270.907	4.476	3281659	REC_END	n/a	n/a	n/a	-999	18	[0, 0, 0]	n/a	FR1	4	R1230J
3275.383	0.5	3286135	TRIAL	n/a	n/a	n/a	-999	19	[0, 0, 0]	n/a	FR1	4	R1230J
3275.883	10.428	3286635	COUNTDOWN_START	n/a	n/a	n/a	-999	19	[0, 0, 0]	n/a	FR1	4	R1230J
3286.311	0.007	3297063	COUNTDOWN_END	n/a	n/a	n/a	-999	19	[0, 0, 0]	n/a	FR1	4	R1230J
3286.318	1.617	3297070	ORIENT	n/a	n/a	n/a	-999	19	[0, 0, 0]	n/a	FR1	4	R1230J
3287.935	1.933	3298687	ORIENT_OFF	n/a	n/a	n/a	-999	19	[0, 0, 0]	n/a	FR1	4	R1230J
3289.868	1.616	3300620	WORD	n/a	wordpools/wordpool_EN.txt	FISH	1	19	[0, 0, 0]	n/a	FR1	4	R1230J
3291.484	0.768	3302236	WORD_OFF	n/a	n/a	FISH	1	19	[0, 0, 0]	n/a	FR1	4	R1230J
3292.252	1.617	3303004	WORD	n/a	wordpools/wordpool_EN.txt	POLE	2	19	[0, 0, 0]	n/a	FR1	4	R1230J
3293.869	0.85	3304621	WORD_OFF	n/a	n/a	POLE	2	19	[0, 0, 0]	n/a	FR1	4	R1230J
3294.719	1.617	3305471	WORD	n/a	wordpools/wordpool_EN.txt	PIPE	3	19	[0, 0, 0]	n/a	FR1	4	R1230J
3296.336	0.834	3307088	WORD_OFF	n/a	n/a	PIPE	3	19	[0, 0, 0]	n/a	FR1	4	R1230J
3297.17	1.616	3307922	WORD	n/a	wordpools/wordpool_EN.txt	JAIL	4	19	[0, 0, 0]	n/a	FR1	4	R1230J
3298.786	1.001	3309538	WORD_OFF	n/a	n/a	JAIL	4	19	[0, 0, 0]	n/a	FR1	4	R1230J
3299.787	1.617	3310539	WORD	n/a	wordpools/wordpool_EN.txt	HAT	5	19	[0, 0, 0]	n/a	FR1	4	R1230J
3301.404	0.9	3312156	WORD_OFF	n/a	n/a	HAT	5	19	[0, 0, 0]	n/a	FR1	4	R1230J
3302.304	1.616	3313056	WORD	n/a	wordpools/wordpool_EN.txt	HOUSE	6	19	[0, 0, 0]	n/a	FR1	4	R1230J
3303.92	0.9	3314672	WORD_OFF	n/a	n/a	HOUSE	6	19	[0, 0, 0]	n/a	FR1	4	R1230J
3304.82	1.617	3315572	WORD	n/a	wordpools/wordpool_EN.txt	GRAPE	7	19	[0, 0, 0]	n/a	FR1	4	R1230J
3306.437	0.834	3317189	WORD_OFF	n/a	n/a	GRAPE	7	19	[0, 0, 0]	n/a	FR1	4	R1230J
3307.271	1.617	3318023	WORD	n/a	wordpools/wordpool_EN.txt	THREAD	8	19	[0, 0, 0]	n/a	FR1	4	R1230J
3308.888	0.833	3319640	WORD_OFF	n/a	n/a	THREAD	8	19	[0, 0, 0]	n/a	FR1	4	R1230J
3309.721	1.617	3320473	WORD	n/a	wordpools/wordpool_EN.txt	WHALE	9	19	[0, 0, 0]	n/a	FR1	4	R1230J
3311.338	0.8	3322090	WORD_OFF	n/a	n/a	WHALE	9	19	[0, 0, 0]	n/a	FR1	4	R1230J
3312.138	1.617	3322890	WORD	n/a	wordpools/wordpool_EN.txt	JUDGE	10	19	[0, 0, 0]	n/a	FR1	4	R1230J
3313.755	0.766	3324507	WORD_OFF	n/a	n/a	JUDGE	10	19	[0, 0, 0]	n/a	FR1	4	R1230J
3314.521	1.618	3325273	WORD	n/a	wordpools/wordpool_EN.txt	BOAT	11	19	[0, 0, 0]	n/a	FR1	4	R1230J
3316.139	0.8	3326891	WORD_OFF	n/a	n/a	BOAT	11	19	[0, 0, 0]	n/a	FR1	4	R1230J
3316.939	1.616	3327691	WORD	n/a	wordpools/wordpool_EN.txt	FOG	12	19	[0, 0, 0]	n/a	FR1	4	R1230J
3318.555	0.0	3329307	WORD_OFF	n/a	n/a	FOG	12	19	[0, 0, 0]	n/a	FR1	4	R1230J
3318.555	0.0	3329307	DISTRACT_START	n/a	n/a	n/a	-999	19	[0, 0, 0]	n/a	FR1	4	R1230J
3318.555	0.016	3329307	START	n/a	n/a	n/a	-999	19	[-999, -999, -999]	n/a	FR1	4	R1230J
3318.571	3.885	3329323	PROB	3.885	n/a	n/a	-999	19	[6, 8, 1]	15	FR1	4	R1230J
3322.456	3.0	3333208	PROB	3.0	n/a	n/a	-999	19	[3, 6, 2]	11	FR1	4	R1230J
3325.456	2.451	3336208	PROB	2.451	n/a	n/a	-999	19	[8, 4, 6]	18	FR1	4	R1230J
3327.907	3.184	3338659	PROB	3.184	n/a	n/a	-999	19	[8, 4, 5]	17	FR1	4	R1230J
3331.091	3.382	3341843	PROB	3.382	n/a	n/a	-999	19	[6, 2, 9]	17	FR1	4	R1230J
3334.473	3.318	3345225	PROB	3.318	n/a	n/a	-999	19	[3, 6, 1]	10	FR1	4	R1230J
3337.791	2.366	3348543	PROB	2.366	n/a	n/a	-999	19	[1, 2, 2]	5	FR1	4	R1230J
3340.157	0.018	3350909	STOP	n/a	n/a	n/a	-999	19	[-999, -999, -999]	n/a	FR1	4	R1230J
3340.175	0.517	3350927	DISTRACT_END	n/a	n/a	n/a	-999	19	[0, 0, 0]	n/a	FR1	4	R1230J
3340.692	0.518	3351444	RETRIEVAL_ORIENT	n/a	n/a	n/a	-999	19	[0, 0, 0]	n/a	FR1	4	R1230J
3341.21	0.987	3351962	REC_START	n/a	n/a	n/a	-999	19	[0, 0, 0]	n/a	FR1	4	R1230J
3342.197	0.779	3352949	REC_WORD	0.779	n/a	FISH	1	19	[0, 0, 0]	n/a	FR1	4	R1230J
3342.976	0.637	3353728	REC_WORD	0.637	n/a	POLE	2	19	[0, 0, 0]	n/a	FR1	4	R1230J
3343.613	3.907	3354365	REC_WORD	3.907	n/a	JAIL	4	19	[0, 0, 0]	n/a	FR1	4	R1230J
3347.52	23.7	3358272	REC_WORD	23.7	n/a	TOTEM	-999	19	[0, 0, 0]	n/a	FR1	4	R1230J
3371.22	9.027	3381972	REC_END	n/a	n/a	n/a	-999	19	[0, 0, 0]	n/a	FR1	4	R1230J
3380.247	0.5	3390999	TRIAL	n/a	n/a	n/a	-999	20	[0, 0, 0]	n/a	FR1	4	R1230J
3380.747	10.428	3391499	COUNTDOWN_START	n/a	n/a	n/a	-999	20	[0, 0, 0]	n/a	FR1	4	R1230J
3391.175	0.007	3401927	COUNTDOWN_END	n/a	n/a	n/a	-999	20	[0, 0, 0]	n/a	FR1	4	R1230J
3391.182	1.617	3401934	ORIENT	n/a	n/a	n/a	-999	20	[0, 0, 0]	n/a	FR1	4	R1230J
3392.799	2.267	3403551	ORIENT_OFF	n/a	n/a	n/a	-999	20	[0, 0, 0]	n/a	FR1	4	R1230J
3395.066	1.617	3405818	WORD	n/a	wordpools/wordpool_EN.txt	ARK	1	20	[0, 0, 0]	n/a	FR1	4	R1230J
3396.683	0.916	3407435	WORD_OFF	n/a	n/a	ARK	1	20	[0, 0, 0]	n/a	FR1	4	R1230J
3397.599	1.617	3408351	WORD	n/a	wordpools/wordpool_EN.txt	ANT	2	20	[0, 0, 0]	n/a	FR1	4	R1230J
3399.216	0.767	3409968	WORD_OFF	n/a	n/a	ANT	2	20	[0, 0, 0]	n/a	FR1	4	R1230J
3399.983	1.616	3410735	WORD	n/a	wordpools/wordpool_EN.txt	MOLE	3	20	[0, 0, 0]	n/a	FR1	4	R1230J
3401.599	0.9	3412351	WORD_OFF	n/a	n/a	MOLE	3	20	[0, 0, 0]	n/a	FR1	4	R1230J
3402.499	1.601	3413251	WORD	n/a	wordpools/wordpool_EN.txt	MUD	4	20	[0, 0, 0]	n/a	FR1	4	R1230J
3404.1	0.784	3414852	WORD_OFF	n/a	n/a	MUD	4	20	[0, 0, 0]	n/a	FR1	4	R1230J
3404.884	1.616	3415636	WORD	n/a	wordpools/wordpool_EN.txt	MUG	5	20	[0, 0, 0]	n/a	FR1	4	R1230J
3406.5	0.951	3417252	WORD_OFF	n/a	n/a	MUG	5	20	[0, 0, 0]	n/a	FR1	4	R1230J
3407.451	1.617	3418203	WORD	n/a	wordpools/wordpool_EN.txt	SKI	6	20	[0, 0, 0]	n/a	FR1	4	R1230J
3409.068	1.017	3419820	WORD_OFF	n/a	n/a	SKI	6	20	[0, 0, 0]	n/a	FR1	4	R1230J
3410.085	1.616	3420837	WORD	n/a	wordpools/wordpool_EN.txt	GLOVE	7	20	[0, 0, 0]	n/a	FR1	4	R1230J
3411.701	0.984	3422453	WORD_OFF	n/a	n/a	GLOVE	7	20	[0, 0, 0]	n/a	FR1	4	R1230J
3412.685	1.617	3423437	WORD	n/a	wordpools/wordpool_EN.txt	FLAME	8	20	[0, 0, 0]	n/a	FR1	4	R1230J
3414.302	0.867	3425054	WORD_OFF	n/a	n/a	FLAME	8	20	[0, 0, 0]	n/a	FR1	4	R1230J
3415.169	1.617	3425921	WORD	n/a	wordpools/wordpool_EN.txt	CONE	9	20	[0, 0, 0]	n/a	FR1	4	R1230J
3416.786	0.883	3427538	WORD_OFF	n/a	n/a	CONE	9	20	[0, 0, 0]	n/a	FR1	4	R1230J
3417.669	1.617	3428421	WORD	n/a	wordpools/wordpool_EN.txt	BEE	10	20	[0, 0, 0]	n/a	FR1	4	R1230J
3419.286	0.9	3430038	WORD_OFF	n/a	n/a	BEE	10	20	[0, 0, 0]	n/a	FR1	4	R1230J
3420.186	1.617	3430938	WORD	n/a	wordpools/wordpool_EN.txt	CHIEF	11	20	[0, 0, 0]	n/a	FR1	4	R1230J
3421.803	0.9	3432555	WORD_OFF	n/a	n/a	CHIEF	11	20	[0, 0, 0]	n/a	FR1	4	R1230J
3422.703	1.617	3433455	WORD	n/a	wordpools/wordpool_EN.txt	WOOD	12	20	[0, 0, 0]	n/a	FR1	4	R1230J
3424.32	0.0	3435072	WORD_OFF	n/a	n/a	WOOD	12	20	[0, 0, 0]	n/a	FR1	4	R1230J
3424.32	0.001	3435072	DISTRACT_START	n/a	n/a	n/a	-999	20	[0, 0, 0]	n/a	FR1	4	R1230J
3424.321	0.016	3435073	START	n/a	n/a	n/a	-999	20	[-999, -999, -999]	n/a	FR1	4	R1230J
3424.337	3.534	3435089	PROB	3.534	n/a	n/a	-999	20	[5, 4, 2]	11	FR1	4	R1230J
3427.871	2.467	3438623	PROB	2.467	n/a	n/a	-999	20	[8, 6, 2]	16	FR1	4	R1230J
3430.338	2.467	3441090	PROB	2.467	n/a	n/a	-999	20	[7, 7, 2]	16	FR1	4	R1230J
3432.805	3.316	3443557	PROB	3.316	n/a	n/a	-999	20	[4, 8, 9]	21	FR1	4	R1230J
3436.121	1.934	3446873	PROB	1.934	n/a	n/a	-999	20	[7, 5, 5]	17	FR1	4	R1230J
3438.055	2.401	3448807	PROB	2.401	n/a	n/a	-999	20	[3, 3, 9]	15	FR1	4	R1230J
3440.456	3.132	3451208	PROB	3.132	n/a	n/a	-999	20	[2, 4, 2]	8	FR1	4	R1230J
3443.588	2.086	3454340	PROB	2.086	n/a	n/a	-999	20	[2, 2, 2]	6	FR1	4	R1230J
3445.674	0.015	3456426	STOP	n/a	n/a	n/a	-999	20	[-999, -999, -999]	n/a	FR1	4	R1230J
3445.689	0.567	3456441	DISTRACT_END	n/a	n/a	n/a	-999	20	[0, 0, 0]	n/a	FR1	4	R1230J
3446.256	0.518	3457008	RETRIEVAL_ORIENT	n/a	n/a	n/a	-999	20	[0, 0, 0]	n/a	FR1	4	R1230J
3446.774	0.382	3457526	REC_START	n/a	n/a	n/a	-999	20	[0, 0, 0]	n/a	FR1	4	R1230J
3447.156	0.609	3457908	REC_WORD	0.609	n/a	ANT	2	20	[0, 0, 0]	n/a	FR1	4	R1230J
3447.765	0.896	3458517	REC_WORD	0.896	n/a	MOLE	3	20	[0, 0, 0]	n/a	FR1	4	R1230J
3448.661	1.957	3459413	REC_WORD	1.957	n/a	MUG	5	20	[0, 0, 0]	n/a	FR1	4	R1230J
3450.618	2.794	3461370	REC_WORD	2.794	n/a	TRAILER	-999	20	[0, 0, 0]	n/a	FR1	4	R1230J
3453.412	3.883	3464164	REC_WORD	3.883	n/a	FLAME	8	20	[0, 0, 0]	n/a	FR1	4	R1230J
3457.295	4.026	3468046	REC_WORD_VV	4.026	n/a	<>	-999	20	[0, 0, 0]	n/a	FR1	4	R1230J
3461.321	15.465	3472072	REC_WORD	15.465	n/a	GLARE	-999	20	[0, 0, 0]	n/a	FR1	4	R1230J
3476.786	4.575	3487537	REC_END	n/a	n/a	n/a	-999	20	[0, 0, 0]	n/a	FR1	4	R1230J
3481.361	0.5	3492112	TRIAL	n/a	n/a	n/a	-999	21	[0, 0, 0]	n/a	FR1	4	R1230J
3481.861	10.428	3492612	COUNTDOWN_START	n/a	n/a	n/a	-999	21	[0, 0, 0]	n/a	FR1	4	R1230J
3492.289	0.007	3503040	COUNTDOWN_END	n/a	n/a	n/a	-999	21	[0, 0, 0]	n/a	FR1	4	R1230J
3492.296	1.617	3503047	ORIENT	n/a	n/a	n/a	-999	21	[0, 0, 0]	n/a	FR1	4	R1230J
3493.913	1.9	3504664	ORIENT_OFF	n/a	n/a	n/a	-999	21	[0, 0, 0]	n/a	FR1	4	R1230J
3495.813	1.617	3506564	WORD	n/a	wordpools/wordpool_EN.txt	VASE	1	21	[0, 0, 0]	n/a	FR1	4	R1230J
3497.43	0.883	3508181	WORD_OFF	n/a	n/a	VASE	1	21	[0, 0, 0]	n/a	FR1	4	R1230J
3498.313	1.617	3509064	WORD	n/a	wordpools/wordpool_EN.txt	SHARK	2	21	[0, 0, 0]	n/a	FR1	4	R1230J
3499.93	0.817	3510681	WORD_OFF	n/a	n/a	SHARK	2	21	[0, 0, 0]	n/a	FR1	4	R1230J
3500.747	1.617	3511498	WORD	n/a	wordpools/wordpool_EN.txt	GEESE	3	21	[0, 0, 0]	n/a	FR1	4	R1230J
3502.364	0.867	3513115	WORD_OFF	n/a	n/a	GEESE	3	21	[0, 0, 0]	n/a	FR1	4	R1230J
3503.231	1.616	3513982	WORD	n/a	wordpools/wordpool_EN.txt	FORT	4	21	[0, 0, 0]	n/a	FR1	4	R1230J
3504.847	0.934	3515598	WORD_OFF	n/a	n/a	FORT	4	21	[0, 0, 0]	n/a	FR1	4	R1230J
3505.781	1.617	3516532	WORD	n/a	wordpools/wordpool_EN.txt	RUG	5	21	[0, 0, 0]	n/a	FR1	4	R1230J
3507.398	1.017	3518149	WORD_OFF	n/a	n/a	RUG	5	21	[0, 0, 0]	n/a	FR1	4	R1230J
3508.415	1.617	3519166	WORD	n/a	wordpools/wordpool_EN.txt	DITCH	6	21	[0, 0, 0]	n/a	FR1	4	R1230J
3510.032	0.816	3520783	WORD_OFF	n/a	n/a	DITCH	6	21	[0, 0, 0]	n/a	FR1	4	R1230J
3510.848	1.616	3521599	WORD	n/a	wordpools/wordpool_EN.txt	TEETH	7	21	[0, 0, 0]	n/a	FR1	4	R1230J
3512.464	0.785	3523215	WORD_OFF	n/a	n/a	TEETH	7	21	[0, 0, 0]	n/a	FR1	4	R1230J
3513.249	1.616	3524000	WORD	n/a	wordpools/wordpool_EN.txt	POND	8	21	[0, 0, 0]	n/a	FR1	4	R1230J
3514.865	0.884	3525616	WORD_OFF	n/a	n/a	POND	8	21	[0, 0, 0]	n/a	FR1	4	R1230J
3515.749	1.617	3526500	WORD	n/a	wordpools/wordpool_EN.txt	PIE	9	21	[0, 0, 0]	n/a	FR1	4	R1230J
3517.366	0.783	3528117	WORD_OFF	n/a	n/a	PIE	9	21	[0, 0, 0]	n/a	FR1	4	R1230J
3518.149	1.617	3528900	WORD	n/a	wordpools/wordpool_EN.txt	PLATE	10	21	[0, 0, 0]	n/a	FR1	4	R1230J
3519.766	0.849	3530517	WORD_OFF	n/a	n/a	PLATE	10	21	[0, 0, 0]	n/a	FR1	4	R1230J
3520.615	1.618	3531366	WORD	n/a	wordpools/wordpool_EN.txt	LEG	11	21	[0, 0, 0]	n/a	FR1	4	R1230J
3522.233	0.85	3532984	WORD_OFF	n/a	n/a	LEG	11	21	[0, 0, 0]	n/a	FR1	4	R1230J
3523.083	1.617	3533834	WORD	n/a	wordpools/wordpool_EN.txt	PALM	12	21	[0, 0, 0]	n/a	FR1	4	R1230J
3524.7	0.0	3535451	WORD_OFF	n/a	n/a	PALM	12	21	[0, 0, 0]	n/a	FR1	4	R1230J
3524.7	0.0	3535451	DISTRACT_START	n/a	n/a	n/a	-999	21	[0, 0, 0]	n/a	FR1	4	R1230J
3524.7	0.017	3535451	START	n/a	n/a	n/a	-999	21	[-999, -999, -999]	n/a	FR1	4	R1230J
3524.717	5.367	3535468	PROB	5.367	n/a	n/a	-999	21	[3, 4, 4]	11	FR1	4	R1230J
3530.084	2.751	3540835	PROB	2.751	n/a	n/a	-999	21	[6, 6, 8]	20	FR1	4	R1230J
3532.835	2.533	3543586	PROB	2.533	n/a	n/a	-999	21	[3, 7, 6]	16	FR1	4	R1230J
3535.368	2.984	3546119	PROB	2.984	n/a	n/a	-999	21	[6, 2, 1]	9	FR1	4	R1230J
3538.352	4.051	3549103	PROB	4.051	n/a	n/a	-999	21	[6, 8, 3]	17	FR1	4	R1230J
3542.403	2.564	3553154	PROB	2.564	n/a	n/a	-999	21	[5, 2, 9]	16	FR1	4	R1230J
3544.967	0.019	3555718	STOP	n/a	n/a	n/a	-999	21	[-999, -999, -999]	n/a	FR1	4	R1230J
3544.986	0.533	3555737	DISTRACT_END	n/a	n/a	n/a	-999	21	[0, 0, 0]	n/a	FR1	4	R1230J
3545.519	0.518	3556270	RETRIEVAL_ORIENT	n/a	n/a	n/a	-999	21	[0, 0, 0]	n/a	FR1	4	R1230J
3546.037	3.794	3556788	REC_START	n/a	n/a	n/a	-999	21	[0, 0, 0]	n/a	FR1	4	R1230J
3549.831	2.91	3560582	REC_WORD	2.91	n/a	POOL	-999	21	[0, 0, 0]	n/a	FR1	4	R1230J
3552.741	6.916	3563492	REC_WORD	6.916	n/a	SLIDE	-999	21	[0, 0, 0]	n/a	FR1	4	R1230J
3559.657	2.717	3570408	REC_WORD	2.717	n/a	STICK	-999	21	[0, 0, 0]	n/a	FR1	4	R1230J
3562.374	13.674	3573125	REC_WORD	13.674	n/a	GUARD	-999	21	[0, 0, 0]	n/a	FR1	4	R1230J
3576.048	4.492	3586799	REC_END	n/a	n/a	n/a	-999	21	[0, 0, 0]	n/a	FR1	4	R1230J
3580.54	0.5	3591291	TRIAL	n/a	n/a	n/a	-999	22	[0, 0, 0]	n/a	FR1	4	R1230J
3581.04	10.428	3591791	COUNTDOWN_START	n/a	n/a	n/a	-999	22	[0, 0, 0]	n/a	FR1	4	R1230J
3591.468	0.007	3602219	COUNTDOWN_END	n/a	n/a	n/a	-999	22	[0, 0, 0]	n/a	FR1	4	R1230J
3591.475	1.618	3602226	ORIENT	n/a	n/a	n/a	-999	22	[0, 0, 0]	n/a	FR1	4	R1230J
3593.093	2.15	3603844	ORIENT_OFF	n/a	n/a	n/a	-999	22	[0, 0, 0]	n/a	FR1	4	R1230J
3595.243	1.617	3605994	WORD	n/a	wordpools/wordpool_EN.txt	CRANE	1	22	[0, 0, 0]	n/a	FR1	4	R1230J
3596.86	0.9	3607611	WORD_OFF	n/a	n/a	CRANE	1	22	[0, 0, 0]	n/a	FR1	4	R1230J
3597.76	1.617	3608511	WORD	n/a	wordpools/wordpool_EN.txt	HORN	2	22	[0, 0, 0]	n/a	FR1	4	R1230J
3599.377	0.95	3610128	WORD_OFF	n/a	n/a	HORN	2	22	[0, 0, 0]	n/a	FR1	4	R1230J
3600.327	1.617	3611078	WORD	n/a	wordpools/wordpool_EN.txt	CLOWN	3	22	[0, 0, 0]	n/a	FR1	4	R1230J
3601.944	0.817	3612695	WORD_OFF	n/a	n/a	CLOWN	3	22	[0, 0, 0]	n/a	FR1	4	R1230J
3602.761	1.617	3613512	WORD	n/a	wordpools/wordpool_EN.txt	BIRD	4	22	[0, 0, 0]	n/a	FR1	4	R1230J
3604.378	0.816	3615129	WORD_OFF	n/a	n/a	BIRD	4	22	[0, 0, 0]	n/a	FR1	4	R1230J
3605.194	1.617	3615945	WORD	n/a	wordpools/wordpool_EN.txt	HEART	5	22	[0, 0, 0]	n/a	FR1	4	R1230J
3606.811	0.867	3617562	WORD_OFF	n/a	n/a	HEART	5	22	[0, 0, 0]	n/a	FR1	4	R1230J
3607.678	1.617	3618429	WORD	n/a	wordpools/wordpool_EN.txt	RAKE	6	22	[0, 0, 0]	n/a	FR1	4	R1230J
3609.295	0.85	3620046	WORD_OFF	n/a	n/a	RAKE	6	22	[0, 0, 0]	n/a	FR1	4	R1230J
3610.145	1.617	3620896	WORD	n/a	wordpools/wordpool_EN.txt	SAIL	7	22	[0, 0, 0]	n/a	FR1	4	R1230J
3611.762	0.866	3622513	WORD_OFF	n/a	n/a	SAIL	7	22	[0, 0, 0]	n/a	FR1	4	R1230J
3612.628	1.617	3623379	WORD	n/a	wordpools/wordpool_EN.txt	SLIME	8	22	[0, 0, 0]	n/a	FR1	4	R1230J
3614.245	0.851	3624996	WORD_OFF	n/a	n/a	SLIME	8	22	[0, 0, 0]	n/a	FR1	4	R1230J
3615.096	1.617	3625847	WORD	n/a	wordpools/wordpool_EN.txt	WHEEL	9	22	[0, 0, 0]	n/a	FR1	4	R1230J
3616.713	0.815	3627464	WORD_OFF	n/a	n/a	WHEEL	9	22	[0, 0, 0]	n/a	FR1	4	R1230J
3617.528	1.601	3628279	WORD	n/a	wordpools/wordpool_EN.txt	STEM	10	22	[0, 0, 0]	n/a	FR1	4	R1230J
3619.129	0.867	3629880	WORD_OFF	n/a	n/a	STEM	10	22	[0, 0, 0]	n/a	FR1	4	R1230J
3619.996	1.616	3630747	WORD	n/a	wordpools/wordpool_EN.txt	STONE	11	22	[0, 0, 0]	n/a	FR1	4	R1230J
3621.612	0.884	3632363	WORD_OFF	n/a	n/a	STONE	11	22	[0, 0, 0]	n/a	FR1	4	R1230J
3622.496	1.617	3633247	WORD	n/a	wordpools/wordpool_EN.txt	SEAL	12	22	[0, 0, 0]	n/a	FR1	4	R1230J
3624.113	0.0	3634864	WORD_OFF	n/a	n/a	SEAL	12	22	[0, 0, 0]	n/a	FR1	4	R1230J
3624.113	0.001	3634864	DISTRACT_START	n/a	n/a	n/a	-999	22	[0, 0, 0]	n/a	FR1	4	R1230J
3624.114	0.016	3634865	START	n/a	n/a	n/a	-999	22	[-999, -999, -999]	n/a	FR1	4	R1230J
3624.13	3.301	3634881	PROB	3.301	n/a	n/a	-999	22	[9, 4, 5]	18	FR1	4	R1230J
3627.431	2.683	3638182	PROB	2.683	n/a	n/a	-999	22	[4, 1, 9]	14	FR1	4	R1230J
3630.114	2.751	3640865	PROB	2.751	n/a	n/a	-999	22	[5, 2, 5]	12	FR1	4	R1230J
3632.865	2.983	3643616	PROB	2.983	n/a	n/a	-999	22	[7, 1, 1]	9	FR1	4	R1230J
3635.848	2.234	3646599	PROB	2.234	n/a	n/a	-999	22	[6, 3, 1]	10	FR1	4	R1230J
3638.082	2.65	3648833	PROB	2.65	n/a	n/a	-999	22	[2, 3, 9]	14	FR1	4	R1230J
3640.732	1.783	3651483	PROB	1.783	n/a	n/a	-999	22	[2, 6, 3]	11	FR1	4	R1230J
3642.515	2.672	3653266	PROB	2.672	n/a	n/a	-999	22	[8, 1, 9]	18	FR1	4	R1230J
3645.187	0.013	3655938	STOP	n/a	n/a	n/a	-999	22	[-999, -999, -999]	n/a	FR1	4	R1230J
3645.2	0.6	3655951	DISTRACT_END	n/a	n/a	n/a	-999	22	[0, 0, 0]	n/a	FR1	4	R1230J
3645.8	0.517	3656551	RETRIEVAL_ORIENT	n/a	n/a	n/a	-999	22	[0, 0, 0]	n/a	FR1	4	R1230J
3646.317	2.898	3657068	REC_START	n/a	n/a	n/a	-999	22	[0, 0, 0]	n/a	FR1	4	R1230J
3649.215	0.844	3659966	REC_WORD	0.844	n/a	CLOWN	3	22	[0, 0, 0]	n/a	FR1	4	R1230J
3650.059	0.065	3660810	REC_WORD_VV	0.065	n/a	<>	-999	22	[0, 0, 0]	n/a	FR1	4	R1230J
3650.124	0.756	3660875	REC_WORD	0.756	n/a	FLAME	-999	22	[0, 0, 0]	n/a	FR1	4	R1230J
3650.88	0.12	3661631	REC_WORD_VV	0.12	n/a	<>	-999	22	[0, 0, 0]	n/a	FR1	4	R1230J
3651.0	7.316	3661751	REC_WORD	7.316	n/a	HORN	2	22	[0, 0, 0]	n/a	FR1	4	R1230J
3658.316	5.875	3669067	REC_WORD	5.875	n/a	TEA	-999	22	[0, 0, 0]	n/a	FR1	4	R1230J
3664.191	0.07	3674942	REC_WORD_VV	0.07	n/a	<>	-999	22	[0, 0, 0]	n/a	FR1	4	R1230J
3664.261	12.067	3675012	REC_WORD	12.067	n/a	HOUSE	-999	22	[0, 0, 0]	n/a	FR1	4	R1230J
3676.328	4.393	3687079	REC_END	n/a	n/a	n/a	-999	22	[0, 0, 0]	n/a	FR1	4	R1230J
3680.721	0.5	3691472	TRIAL	n/a	n/a	n/a	-999	23	[0, 0, 0]	n/a	FR1	4	R1230J
3681.221	10.428	3691972	COUNTDOWN_START	n/a	n/a	n/a	-999	23	[0, 0, 0]	n/a	FR1	4	R1230J
3691.649	0.007	3702399	COUNTDOWN_END	n/a	n/a	n/a	-999	23	[0, 0, 0]	n/a	FR1	4	R1230J
3691.656	1.617	3702406	ORIENT	n/a	n/a	n/a	-999	23	[0, 0, 0]	n/a	FR1	4	R1230J
3693.273	2.167	3704023	ORIENT_OFF	n/a	n/a	n/a	-999	23	[0, 0, 0]	n/a	FR1	4	R1230J
3695.44	1.617	3706190	WORD	n/a	wordpools/wordpool_EN.txt	STREET	1	23	[0, 0, 0]	n/a	FR1	4	R1230J
3697.057	1.0	3707807	WORD_OFF	n/a	n/a	STREET	1	23	[0, 0, 0]	n/a	FR1	4	R1230J
3698.057	1.617	3708807	WORD	n/a	wordpools/wordpool_EN.txt	WAND	2	23	[0, 0, 0]	n/a	FR1	4	R1230J
3699.674	0.799	3710424	WORD_OFF	n/a	n/a	WAND	2	23	[0, 0, 0]	n/a	FR1	4	R1230J
3700.473	1.618	3711223	WORD	n/a	wordpools/wordpool_EN.txt	FOOD	3	23	[0, 0, 0]	n/a	FR1	4	R1230J
3702.091	0.917	3712841	WORD_OFF	n/a	n/a	FOOD	3	23	[0, 0, 0]	n/a	FR1	4	R1230J
3703.008	1.615	3713758	WORD	n/a	wordpools/wordpool_EN.txt	MAT	4	23	[0, 0, 0]	n/a	FR1	4	R1230J
3704.623	0.917	3715373	WORD_OFF	n/a	n/a	MAT	4	23	[0, 0, 0]	n/a	FR1	4	R1230J
3705.54	1.618	3716290	WORD	n/a	wordpools/wordpool_EN.txt	TOOL	5	23	[0, 0, 0]	n/a	FR1	4	R1230J
3707.158	0.883	3717908	WORD_OFF	n/a	n/a	TOOL	5	23	[0, 0, 0]	n/a	FR1	4	R1230J
3708.041	1.617	3718791	WORD	n/a	wordpools/wordpool_EN.txt	WING	6	23	[0, 0, 0]	n/a	FR1	4	R1230J
3709.658	0.767	3720408	WORD_OFF	n/a	n/a	WING	6	23	[0, 0, 0]	n/a	FR1	4	R1230J
3710.425	1.617	3721175	WORD	n/a	wordpools/wordpool_EN.txt	SKUNK	7	23	[0, 0, 0]	n/a	FR1	4	R1230J
3712.042	0.767	3722792	WORD_OFF	n/a	n/a	SKUNK	7	23	[0, 0, 0]	n/a	FR1	4	R1230J
3712.809	1.617	3723559	WORD	n/a	wordpools/wordpool_EN.txt	STORE	8	23	[0, 0, 0]	n/a	FR1	4	R1230J
3714.426	0.767	3725176	WORD_OFF	n/a	n/a	STORE	8	23	[0, 0, 0]	n/a	FR1	4	R1230J
3715.193	1.617	3725943	WORD	n/a	wordpools/wordpool_EN.txt	CAKE	9	23	[0, 0, 0]	n/a	FR1	4	R1230J
3716.81	1.0	3727560	WORD_OFF	n/a	n/a	CAKE	9	23	[0, 0, 0]	n/a	FR1	4	R1230J
3717.81	1.617	3728560	WORD	n/a	wordpools/wordpool_EN.txt	BROOM	10	23	[0, 0, 0]	n/a	FR1	4	R1230J
3719.427	0.9	3730177	WORD_OFF	n/a	n/a	BROOM	10	23	[0, 0, 0]	n/a	FR1	4	R1230J
3720.327	1.617	3731077	WORD	n/a	wordpools/wordpool_EN.txt	ARM	11	23	[0, 0, 0]	n/a	FR1	4	R1230J
3721.944	0.817	3732694	WORD_OFF	n/a	n/a	ARM	11	23	[0, 0, 0]	n/a	FR1	4	R1230J
3722.761	1.616	3733511	WORD	n/a	wordpools/wordpool_EN.txt	FACE	12	23	[0, 0, 0]	n/a	FR1	4	R1230J
3724.377	0.0	3735127	WORD_OFF	n/a	n/a	FACE	12	23	[0, 0, 0]	n/a	FR1	4	R1230J
3724.377	0.0	3735127	DISTRACT_START	n/a	n/a	n/a	-999	23	[0, 0, 0]	n/a	FR1	4	R1230J
3724.377	0.017	3735127	START	n/a	n/a	n/a	-999	23	[-999, -999, -999]	n/a	FR1	4	R1230J
3724.394	3.95	3735144	PROB	3.95	n/a	n/a	-999	23	[7, 7, 9]	21	FR1	4	R1230J
3728.344	3.068	3739094	PROB	3.068	n/a	n/a	-999	23	[2, 2, 6]	10	FR1	4	R1230J
3731.412	2.65	3742162	PROB	2.65	n/a	n/a	-999	23	[1, 2, 7]	10	FR1	4	R1230J
3734.062	2.267	3744812	PROB	2.267	n/a	n/a	-999	23	[2, 5, 7]	14	FR1	4	R1230J
3736.329	5.451	3747079	PROB	5.451	n/a	n/a	-999	23	[8, 9, 9]	27	FR1	4	R1230J
3741.78	2.033	3752530	PROB	2.033	n/a	n/a	-999	23	[5, 5, 5]	15	FR1	4	R1230J
3743.813	3.225	3754563	PROB	3.225	n/a	n/a	-999	23	[9, 2, 1]	12	FR1	4	R1230J
3747.038	0.009	3757788	STOP	n/a	n/a	n/a	-999	23	[-999, -999, -999]	n/a	FR1	4	R1230J
3747.047	0.7	3757797	DISTRACT_END	n/a	n/a	n/a	-999	23	[0, 0, 0]	n/a	FR1	4	R1230J
3747.747	0.518	3758497	RETRIEVAL_ORIENT	n/a	n/a	n/a	-999	23	[0, 0, 0]	n/a	FR1	4	R1230J
3748.265	6.441	3759015	REC_START	n/a	n/a	n/a	-999	23	[0, 0, 0]	n/a	FR1	4	R1230J
3754.706	9.489	3765456	REC_WORD_VV	9.489	n/a	<>	-999	23	[0, 0, 0]	n/a	FR1	4	R1230J
3764.195	2.704	3774945	REC_WORD	2.704	n/a	BEAR	-999	23	[0, 0, 0]	n/a	FR1	4	R1230J
3766.899	1.766	3777649	REC_WORD	1.766	n/a	BAT	-999	23	[0, 0, 0]	n/a	FR1	4	R1230J
3768.665	0.2	3779415	REC_WORD_VV	0.2	n/a	<>	-999	23	[0, 0, 0]	n/a	FR1	4	R1230J
3768.865	1.977	3779615	REC_WORD	1.977	n/a	BEE	-999	23	[0, 0, 0]	n/a	FR1	4	R1230J
3770.842	7.435	3781592	REC_WORD_VV	7.435	n/a	<>	-999	23	[0, 0, 0]	n/a	FR1	4	R1230J
3778.277	4.525	3789027	REC_END	n/a	n/a	n/a	-999	23	[0, 0, 0]	n/a	FR1	4	R1230J
3782.802	0.5	3793552	TRIAL	n/a	n/a	n/a	-999	24	[0, 0, 0]	n/a	FR1	4	R1230J
3783.302	10.428	3794052	COUNTDOWN_START	n/a	n/a	n/a	-999	24	[0, 0, 0]	n/a	FR1	4	R1230J
3793.73	0.006	3804480	COUNTDOWN_END	n/a	n/a	n/a	-999	24	[0, 0, 0]	n/a	FR1	4	R1230J
3793.736	1.617	3804486	ORIENT	n/a	n/a	n/a	-999	24	[0, 0, 0]	n/a	FR1	4	R1230J
3795.353	1.934	3806103	ORIENT_OFF	n/a	n/a	n/a	-999	24	[0, 0, 0]	n/a	FR1	4	R1230J
3797.287	1.617	3808037	WORD	n/a	wordpools/wordpool_EN.txt	DRUM	1	24	[0, 0, 0]	n/a	FR1	4	R1230J
3798.904	0.983	3809654	WORD_OFF	n/a	n/a	DRUM	1	24	[0, 0, 0]	n/a	FR1	4	R1230J
3799.887	1.616	3810637	WORD	n/a	wordpools/wordpool_EN.txt	LAKE	2	24	[0, 0, 0]	n/a	FR1	4	R1230J
3801.503	0.885	3812253	WORD_OFF	n/a	n/a	LAKE	2	24	[0, 0, 0]	n/a	FR1	4	R1230J
3802.388	1.616	3813138	WORD	n/a	wordpools/wordpool_EN.txt	CROW	3	24	[0, 0, 0]	n/a	FR1	4	R1230J
3804.004	0.951	3814754	WORD_OFF	n/a	n/a	CROW	3	24	[0, 0, 0]	n/a	FR1	4	R1230J
3804.955	1.615	3815705	WORD	n/a	wordpools/wordpool_EN.txt	LAMB	4	24	[0, 0, 0]	n/a	FR1	4	R1230J
3806.57	0.818	3817320	WORD_OFF	n/a	n/a	LAMB	4	24	[0, 0, 0]	n/a	FR1	4	R1230J
3807.388	1.617	3818138	WORD	n/a	wordpools/wordpool_EN.txt	SNOW	5	24	[0, 0, 0]	n/a	FR1	4	R1230J
3809.005	0.85	3819755	WORD_OFF	n/a	n/a	SNOW	5	24	[0, 0, 0]	n/a	FR1	4	R1230J
3809.855	1.616	3820605	WORD	n/a	wordpools/wordpool_EN.txt	CHAIR	6	24	[0, 0, 0]	n/a	FR1	4	R1230J
3811.471	1.001	3822221	WORD_OFF	n/a	n/a	CHAIR	6	24	[0, 0, 0]	n/a	FR1	4	R1230J
3812.472	1.617	3823222	WORD	n/a	wordpools/wordpool_EN.txt	MAP	7	24	[0, 0, 0]	n/a	FR1	4	R1230J
3814.089	0.883	3824839	WORD_OFF	n/a	n/a	MAP	7	24	[0, 0, 0]	n/a	FR1	4	R1230J
3814.972	1.616	3825722	WORD	n/a	wordpools/wordpool_EN.txt	RICE	8	24	[0, 0, 0]	n/a	FR1	4	R1230J
3816.588	0.984	3827338	WORD_OFF	n/a	n/a	RICE	8	24	[0, 0, 0]	n/a	FR1	4	R1230J
3817.572	1.618	3828322	WORD	n/a	wordpools/wordpool_EN.txt	PIN	9	24	[0, 0, 0]	n/a	FR1	4	R1230J
3819.19	0.783	3829940	WORD_OFF	n/a	n/a	PIN	9	24	[0, 0, 0]	n/a	FR1	4	R1230J
3819.973	1.616	3830723	WORD	n/a	wordpools/wordpool_EN.txt	APE	10	24	[0, 0, 0]	n/a	FR1	4	R1230J
3821.589	0.868	3832339	WORD_OFF	n/a	n/a	APE	10	24	[0, 0, 0]	n/a	FR1	4	R1230J
3822.457	1.617	3833207	WORD	n/a	wordpools/wordpool_EN.txt	CHIN	11	24	[0, 0, 0]	n/a	FR1	4	R1230J
3824.074	0.883	3834824	WORD_OFF	n/a	n/a	CHIN	11	24	[0, 0, 0]	n/a	FR1	4	R1230J
3824.957	1.616	3835707	WORD	n/a	wordpools/wordpool_EN.txt	GRASS	12	24	[0, 0, 0]	n/a	FR1	4	R1230J
3826.573	0.0	3837323	DISTRACT_START	n/a	n/a	n/a	-999	24	[0, 0, 0]	n/a	FR1	4	R1230J
3826.573	0.001	3837323	WORD_OFF	n/a	n/a	GRASS	12	24	[0, 0, 0]	n/a	FR1	4	R1230J
3826.574	0.016	3837324	START	n/a	n/a	n/a	-999	24	[-999, -999, -999]	n/a	FR1	4	R1230J
3826.59	3.835	3837340	PROB	3.835	n/a	n/a	-999	24	[9, 8, 7]	23	FR1	4	R1230J
3830.425	2.917	3841175	PROB	2.917	n/a	n/a	-999	24	[4, 5, 7]	17	FR1	4	R1230J
3833.342	3.4	3844092	PROB	3.4	n/a	n/a	-999	24	[4, 3, 6]	13	FR1	4	R1230J
3836.742	3.101	3847492	PROB	3.101	n/a	n/a	-999	24	[9, 8, 9]	27	FR1	4	R1230J
3839.843	4.267	3850593	PROB	4.267	n/a	n/a	-999	24	[6, 6, 8]	20	FR1	4	R1230J
3844.11	3.678	3854860	PROB	3.678	n/a	n/a	-999	24	[1, 5, 7]	13	FR1	4	R1230J
3847.788	0.022	3858538	STOP	n/a	n/a	n/a	-999	24	[-999, -999, -999]	n/a	FR1	4	R1230J
3847.81	0.617	3858560	DISTRACT_END	n/a	n/a	n/a	-999	24	[0, 0, 0]	n/a	FR1	4	R1230J
3848.427	0.518	3859177	RETRIEVAL_ORIENT	n/a	n/a	n/a	-999	24	[0, 0, 0]	n/a	FR1	4	R1230J
3848.945	2.25	3859695	REC_START	n/a	n/a	n/a	-999	24	[0, 0, 0]	n/a	FR1	4	R1230J
3851.195	0.08	3861945	REC_WORD_VV	0.08	n/a	<>	-999	24	[0, 0, 0]	n/a	FR1	4	R1230J
3851.275	0.976	3862025	REC_WORD	0.976	n/a	MAT	-999	24	[0, 0, 0]	n/a	FR1	4	R1230J
3852.251	0.149	3863001	REC_WORD_VV	0.149	n/a	<>	-999	24	[0, 0, 0]	n/a	FR1	4	R1230J
3852.4	6.94	3863150	REC_WORD	6.94	n/a	CHIN	11	24	[0, 0, 0]	n/a	FR1	4	R1230J
3859.34	0.05	3870090	REC_WORD_VV	0.05	n/a	<>	-999	24	[0, 0, 0]	n/a	FR1	4	R1230J
3859.39	19.566	3870140	REC_WORD	19.566	n/a	FLARE	-999	24	[0, 0, 0]	n/a	FR1	4	R1230J
3878.956	4.759	3889706	REC_END	n/a	n/a	n/a	-999	24	[0, 0, 0]	n/a	FR1	4	R1230J
3883.715	0.5	3894465	TRIAL	n/a	n/a	n/a	-999	25	[0, 0, 0]	n/a	FR1	4	R1230J
3884.215	10.428	3894965	COUNTDOWN_START	n/a	n/a	n/a	-999	25	[0, 0, 0]	n/a	FR1	4	R1230J
3894.643	0.007	3905393	COUNTDOWN_END	n/a	n/a	n/a	-999	25	[0, 0, 0]	n/a	FR1	4	R1230J
3894.65	1.617	3905400	ORIENT	n/a	n/a	n/a	-999	25	[0, 0, 0]	n/a	FR1	4	R1230J
3896.267	2.084	3907017	ORIENT_OFF	n/a	n/a	n/a	-999	25	[0, 0, 0]	n/a	FR1	4	R1230J
3898.351	1.616	3909101	WORD	n/a	wordpools/wordpool_EN.txt	SLUSH	1	25	[0, 0, 0]	n/a	FR1	4	R1230J
3899.967	0.784	3910717	WORD_OFF	n/a	n/a	SLUSH	1	25	[0, 0, 0]	n/a	FR1	4	R1230J
3900.751	1.617	3911501	WORD	n/a	wordpools/wordpool_EN.txt	BOY	2	25	[0, 0, 0]	n/a	FR1	4	R1230J
3902.368	0.917	3913118	WORD_OFF	n/a	n/a	BOY	2	25	[0, 0, 0]	n/a	FR1	4	R1230J
3903.285	1.616	3914035	WORD	n/a	wordpools/wordpool_EN.txt	FOOT	3	25	[0, 0, 0]	n/a	FR1	4	R1230J
3904.901	0.984	3915651	WORD_OFF	n/a	n/a	FOOT	3	25	[0, 0, 0]	n/a	FR1	4	R1230J
3905.885	1.616	3916635	WORD	n/a	wordpools/wordpool_EN.txt	DUCK	4	25	[0, 0, 0]	n/a	FR1	4	R1230J
