onset	duration	sample	trial_type	response_time	stim_file	item_name	serialpos	list	test	answer	experiment	session	subject
0.0	0.0	17086	INSTRUCT_START	n/a	n/a	n/a	-999	-999	[0, 0, 0]	n/a	FR1	1	R1193T
0.0	10.907	17086	INSTRUCT_END	n/a	n/a	n/a	-999	-999	[0, 0, 0]	n/a	FR1	1	R1193T
10.907	0.0	27992	SESS_START	n/a	n/a	n/a	-999	-999	[0, 0, 0]	n/a	FR1	1	R1193T
10.907	44.0	27992	MIC_TEST	n/a	n/a	n/a	-999	-999	[0, 0, 0]	n/a	FR1	1	R1193T
54.907	38.893	71990	PRACTICE_TRIAL	n/a	n/a	n/a	-999	-1	[0, 0, 0]	n/a	FR1	1	R1193T
93.8	10.428	110881	COUNTDOWN_START	n/a	n/a	n/a	-999	-1	[0, 0, 0]	n/a	FR1	1	R1193T
104.228	0.008	121308	COUNTDOWN_END	n/a	n/a	n/a	-999	-1	[0, 0, 0]	n/a	FR1	1	R1193T
104.236	1.617	121316	PRACTICE_ORIENT	n/a	n/a	n/a	-999	-1	[0, 0, 0]	n/a	FR1	1	R1193T
105.853	2.167	122933	PRACTICE_ORIENT_OFF	n/a	n/a	n/a	-999	-1	[0, 0, 0]	n/a	FR1	1	R1193T
108.02	1.617	125100	PRACTICE_WORD	n/a	n/a	CAMEL	1	-1	[0, 0, 0]	n/a	FR1	1	R1193T
109.637	0.849	126717	PRACTICE_WORD_OFF	n/a	n/a	CAMEL	-999	-1	[0, 0, 0]	n/a	FR1	1	R1193T
110.486	1.618	127566	PRACTICE_WORD	n/a	n/a	ATTIC	2	-1	[0, 0, 0]	n/a	FR1	1	R1193T
112.104	0.867	129183	PRACTICE_WORD_OFF	n/a	n/a	ATTIC	-999	-1	[0, 0, 0]	n/a	FR1	1	R1193T
112.971	1.616	130050	PRACTICE_WORD	n/a	n/a	WATCH	3	-1	[0, 0, 0]	n/a	FR1	1	R1193T
114.587	0.767	131666	PRACTICE_WORD_OFF	n/a	n/a	WATCH	-999	-1	[0, 0, 0]	n/a	FR1	1	R1193T
115.354	1.617	132433	PRACTICE_WORD	n/a	n/a	RHINO	4	-1	[0, 0, 0]	n/a	FR1	1	R1193T
116.971	0.967	134050	PRACTICE_WORD_OFF	n/a	n/a	RHINO	-999	-1	[0, 0, 0]	n/a	FR1	1	R1193T
117.938	1.616	135017	PRACTICE_WORD	n/a	n/a	COTTON	5	-1	[0, 0, 0]	n/a	FR1	1	R1193T
119.554	0.801	136633	PRACTICE_WORD_OFF	n/a	n/a	COTTON	-999	-1	[0, 0, 0]	n/a	FR1	1	R1193T
120.355	1.617	137434	PRACTICE_WORD	n/a	n/a	BEAM	6	-1	[0, 0, 0]	n/a	FR1	1	R1193T
121.972	0.901	139051	PRACTICE_WORD_OFF	n/a	n/a	BEAM	-999	-1	[0, 0, 0]	n/a	FR1	1	R1193T
122.873	1.615	139952	PRACTICE_WORD	n/a	n/a	FLOOD	7	-1	[0, 0, 0]	n/a	FR1	1	R1193T
124.488	0.802	141567	PRACTICE_WORD_OFF	n/a	n/a	FLOOD	-999	-1	[0, 0, 0]	n/a	FR1	1	R1193T
125.29	1.617	142369	PRACTICE_WORD	n/a	n/a	RING	8	-1	[0, 0, 0]	n/a	FR1	1	R1193T
126.907	0.966	143986	PRACTICE_WORD_OFF	n/a	n/a	RING	-999	-1	[0, 0, 0]	n/a	FR1	1	R1193T
127.873	1.616	144952	PRACTICE_WORD	n/a	n/a	WAGON	9	-1	[0, 0, 0]	n/a	FR1	1	R1193T
129.489	0.885	146567	PRACTICE_WORD_OFF	n/a	n/a	WAGON	-999	-1	[0, 0, 0]	n/a	FR1	1	R1193T
130.374	1.617	147452	PRACTICE_WORD	n/a	n/a	TONGUE	10	-1	[0, 0, 0]	n/a	FR1	1	R1193T
131.991	0.933	149069	PRACTICE_WORD_OFF	n/a	n/a	TONGUE	-999	-1	[0, 0, 0]	n/a	FR1	1	R1193T
132.924	1.616	150002	PRACTICE_WORD	n/a	n/a	CHEST	11	-1	[0, 0, 0]	n/a	FR1	1	R1193T
134.54	0.934	151618	PRACTICE_WORD_OFF	n/a	n/a	CHEST	-999	-1	[0, 0, 0]	n/a	FR1	1	R1193T
135.474	1.618	152552	PRACTICE_WORD	n/a	n/a	IRON	12	-1	[0, 0, 0]	n/a	FR1	1	R1193T
137.092	0.0	154170	PRACTICE_WORD_OFF	n/a	n/a	IRON	-999	-1	[0, 0, 0]	n/a	FR1	1	R1193T
137.092	0.0	154170	DISTRACT_START	n/a	n/a	n/a	-999	-1	[0, 0, 0]	n/a	FR1	1	R1193T
137.092	0.016	154170	START	n/a	n/a	n/a	-999	-1	[-999, -999, -999]	n/a	FR1	1	R1193T
137.108	13.469	154186	PROB	13.469	n/a	n/a	-999	-1	[5, 3, 1]	531	FR1	1	R1193T
150.577	10.163	167654	PROB	10.163	n/a	n/a	-999	-1	[4, 3, 4]	434	FR1	1	R1193T
160.74	0.006	177817	STOP	n/a	n/a	n/a	-999	-1	[-999, -999, -999]	n/a	FR1	1	R1193T
160.746	0.516	177823	DISTRACT_END	n/a	n/a	n/a	-999	-1	[0, 0, 0]	n/a	FR1	1	R1193T
161.262	0.518	178339	RETRIEVAL_ORIENT	n/a	n/a	n/a	-999	-1	[0, 0, 0]	n/a	FR1	1	R1193T
161.78	30.012	178857	PRACTICE_REC_START	n/a	n/a	n/a	-999	-1	[0, 0, 0]	n/a	FR1	1	R1193T
191.792	55.37	208867	PRACTICE_REC_END	n/a	n/a	n/a	-999	-1	[0, 0, 0]	n/a	FR1	1	R1193T
247.162	0.5	264233	TRIAL	n/a	n/a	n/a	-999	1	[0, 0, 0]	n/a	FR1	1	R1193T
247.662	10.428	264733	COUNTDOWN_START	n/a	n/a	n/a	-999	1	[0, 0, 0]	n/a	FR1	1	R1193T
258.09	0.007	275161	COUNTDOWN_END	n/a	n/a	n/a	-999	1	[0, 0, 0]	n/a	FR1	1	R1193T
258.097	1.617	275168	ORIENT	n/a	n/a	n/a	-999	1	[0, 0, 0]	n/a	FR1	1	R1193T
259.714	2.15	276785	ORIENT_OFF	n/a	n/a	n/a	-999	1	[0, 0, 0]	n/a	FR1	1	R1193T
261.864	1.616	278935	WORD	n/a	wordpools/wordpool_EN.txt	CAR	1	1	[0, 0, 0]	n/a	FR1	1	R1193T
263.48	0.851	280551	WORD_OFF	n/a	n/a	CAR	1	1	[0, 0, 0]	n/a	FR1	1	R1193T
264.331	1.617	281401	WORD	n/a	wordpools/wordpool_EN.txt	JUDGE	2	1	[0, 0, 0]	n/a	FR1	1	R1193T
265.948	0.934	283018	WORD_OFF	n/a	n/a	JUDGE	2	1	[0, 0, 0]	n/a	FR1	1	R1193T
266.882	1.616	283952	WORD	n/a	wordpools/wordpool_EN.txt	FILM	3	1	[0, 0, 0]	n/a	FR1	1	R1193T
268.498	0.768	285568	WORD_OFF	n/a	n/a	FILM	3	1	[0, 0, 0]	n/a	FR1	1	R1193T
269.266	1.617	286336	WORD	n/a	wordpools/wordpool_EN.txt	CASH	4	1	[0, 0, 0]	n/a	FR1	1	R1193T
270.883	0.85	287953	WORD_OFF	n/a	n/a	CASH	4	1	[0, 0, 0]	n/a	FR1	1	R1193T
271.733	1.617	288803	WORD	n/a	wordpools/wordpool_EN.txt	INK	5	1	[0, 0, 0]	n/a	FR1	1	R1193T
273.35	1.0	290420	WORD_OFF	n/a	n/a	INK	5	1	[0, 0, 0]	n/a	FR1	1	R1193T
274.35	1.617	291420	WORD	n/a	wordpools/wordpool_EN.txt	FLAG	6	1	[0, 0, 0]	n/a	FR1	1	R1193T
275.967	0.967	293037	WORD_OFF	n/a	n/a	FLAG	6	1	[0, 0, 0]	n/a	FR1	1	R1193T
276.934	1.616	294004	WORD	n/a	wordpools/wordpool_EN.txt	BRANCH	7	1	[0, 0, 0]	n/a	FR1	1	R1193T
278.55	1.017	295620	WORD_OFF	n/a	n/a	BRANCH	7	1	[0, 0, 0]	n/a	FR1	1	R1193T
279.567	1.618	296637	WORD	n/a	wordpools/wordpool_EN.txt	BANK	8	1	[0, 0, 0]	n/a	FR1	1	R1193T
281.185	0.833	298254	WORD_OFF	n/a	n/a	BANK	8	1	[0, 0, 0]	n/a	FR1	1	R1193T
282.018	1.617	299087	WORD	n/a	wordpools/wordpool_EN.txt	EEL	9	1	[0, 0, 0]	n/a	FR1	1	R1193T
283.635	0.783	300704	WORD_OFF	n/a	n/a	EEL	9	1	[0, 0, 0]	n/a	FR1	1	R1193T
284.418	1.617	301487	WORD	n/a	wordpools/wordpool_EN.txt	FARM	10	1	[0, 0, 0]	n/a	FR1	1	R1193T
286.035	0.884	303104	WORD_OFF	n/a	n/a	FARM	10	1	[0, 0, 0]	n/a	FR1	1	R1193T
286.919	1.616	303988	WORD	n/a	wordpools/wordpool_EN.txt	DRUM	11	1	[0, 0, 0]	n/a	FR1	1	R1193T
288.535	0.818	305604	WORD_OFF	n/a	n/a	DRUM	11	1	[0, 0, 0]	n/a	FR1	1	R1193T
289.353	1.617	306422	WORD	n/a	wordpools/wordpool_EN.txt	SHEET	12	1	[0, 0, 0]	n/a	FR1	1	R1193T
290.97	0.0	308039	WORD_OFF	n/a	n/a	SHEET	12	1	[0, 0, 0]	n/a	FR1	1	R1193T
290.97	0.0	308039	DISTRACT_START	n/a	n/a	n/a	-999	1	[0, 0, 0]	n/a	FR1	1	R1193T
290.97	0.016	308039	START	n/a	n/a	n/a	-999	1	[-999, -999, -999]	n/a	FR1	1	R1193T
290.986	14.786	308055	PROB	14.786	n/a	n/a	-999	1	[1, 1, 4]	114	FR1	1	R1193T
305.772	11.913	322840	PROB	11.913	n/a	n/a	-999	1	[2, 6, 4]	264	FR1	1	R1193T
317.685	0.006	334752	STOP	n/a	n/a	n/a	-999	1	[-999, -999, -999]	n/a	FR1	1	R1193T
317.691	0.6	334758	DISTRACT_END	n/a	n/a	n/a	-999	1	[0, 0, 0]	n/a	FR1	1	R1193T
318.291	0.518	335358	RETRIEVAL_ORIENT	n/a	n/a	n/a	-999	1	[0, 0, 0]	n/a	FR1	1	R1193T
318.809	0.793	335876	REC_START	n/a	n/a	n/a	-999	1	[0, 0, 0]	n/a	FR1	1	R1193T
319.602	0.704	336669	REC_WORD	0.704	n/a	CAR	-999	1	[0, 0, 0]	n/a	FR1	1	R1193T
320.306	28.515	337373	REC_WORD	28.515	n/a	JUDGE	-999	1	[0, 0, 0]	n/a	FR1	1	R1193T
348.821	6.06	365886	REC_END	n/a	n/a	n/a	-999	1	[0, 0, 0]	n/a	FR1	1	R1193T
354.881	0.5	371946	TRIAL	n/a	n/a	n/a	-999	2	[0, 0, 0]	n/a	FR1	1	R1193T
355.381	10.428	372446	COUNTDOWN_START	n/a	n/a	n/a	-999	2	[0, 0, 0]	n/a	FR1	1	R1193T
365.809	0.007	382873	COUNTDOWN_END	n/a	n/a	n/a	-999	2	[0, 0, 0]	n/a	FR1	1	R1193T
365.816	1.617	382880	ORIENT	n/a	n/a	n/a	-999	2	[0, 0, 0]	n/a	FR1	1	R1193T
367.433	1.884	384497	ORIENT_OFF	n/a	n/a	n/a	-999	2	[0, 0, 0]	n/a	FR1	1	R1193T
369.317	1.617	386381	WORD	n/a	wordpools/wordpool_EN.txt	MAIL	1	2	[0, 0, 0]	n/a	FR1	1	R1193T
370.934	0.967	387998	WORD_OFF	n/a	n/a	MAIL	1	2	[0, 0, 0]	n/a	FR1	1	R1193T
371.901	1.616	388965	WORD	n/a	wordpools/wordpool_EN.txt	HEART	2	2	[0, 0, 0]	n/a	FR1	1	R1193T
373.517	0.868	390581	WORD_OFF	n/a	n/a	HEART	2	2	[0, 0, 0]	n/a	FR1	1	R1193T
374.385	1.617	391449	WORD	n/a	wordpools/wordpool_EN.txt	BED	3	2	[0, 0, 0]	n/a	FR1	1	R1193T
376.002	1.0	393066	WORD_OFF	n/a	n/a	BED	3	2	[0, 0, 0]	n/a	FR1	1	R1193T
377.002	1.616	394066	WORD	n/a	wordpools/wordpool_EN.txt	PEARL	4	2	[0, 0, 0]	n/a	FR1	1	R1193T
378.618	0.833	395682	WORD_OFF	n/a	n/a	PEARL	4	2	[0, 0, 0]	n/a	FR1	1	R1193T
379.451	1.601	396515	WORD	n/a	wordpools/wordpool_EN.txt	BEACH	5	2	[0, 0, 0]	n/a	FR1	1	R1193T
381.052	0.934	398116	WORD_OFF	n/a	n/a	BEACH	5	2	[0, 0, 0]	n/a	FR1	1	R1193T
381.986	1.616	399050	WORD	n/a	wordpools/wordpool_EN.txt	SHELL	6	2	[0, 0, 0]	n/a	FR1	1	R1193T
383.602	0.817	400665	WORD_OFF	n/a	n/a	SHELL	6	2	[0, 0, 0]	n/a	FR1	1	R1193T
384.419	1.601	401482	WORD	n/a	wordpools/wordpool_EN.txt	SHIP	7	2	[0, 0, 0]	n/a	FR1	1	R1193T
386.02	0.767	403083	WORD_OFF	n/a	n/a	SHIP	7	2	[0, 0, 0]	n/a	FR1	1	R1193T
386.787	1.617	403850	WORD	n/a	wordpools/wordpool_EN.txt	EGG	8	2	[0, 0, 0]	n/a	FR1	1	R1193T
388.404	0.967	405467	WORD_OFF	n/a	n/a	EGG	8	2	[0, 0, 0]	n/a	FR1	1	R1193T
389.371	1.617	406434	WORD	n/a	wordpools/wordpool_EN.txt	SEA	9	2	[0, 0, 0]	n/a	FR1	1	R1193T
390.988	0.95	408051	WORD_OFF	n/a	n/a	SEA	9	2	[0, 0, 0]	n/a	FR1	1	R1193T
391.938	1.616	409001	WORD	n/a	wordpools/wordpool_EN.txt	SALT	10	2	[0, 0, 0]	n/a	FR1	1	R1193T
393.554	0.784	410617	WORD_OFF	n/a	n/a	SALT	10	2	[0, 0, 0]	n/a	FR1	1	R1193T
394.338	1.617	411401	WORD	n/a	wordpools/wordpool_EN.txt	HOOF	11	2	[0, 0, 0]	n/a	FR1	1	R1193T
395.955	0.767	413018	WORD_OFF	n/a	n/a	HOOF	11	2	[0, 0, 0]	n/a	FR1	1	R1193T
396.722	1.617	413785	WORD	n/a	wordpools/wordpool_EN.txt	TRAIN	12	2	[0, 0, 0]	n/a	FR1	1	R1193T
398.339	0.0	415402	DISTRACT_START	n/a	n/a	n/a	-999	2	[0, 0, 0]	n/a	FR1	1	R1193T
398.339	0.001	415402	WORD_OFF	n/a	n/a	TRAIN	12	2	[0, 0, 0]	n/a	FR1	1	R1193T
398.34	0.016	415403	START	n/a	n/a	n/a	-999	2	[-999, -999, -999]	n/a	FR1	1	R1193T
398.356	6.868	415419	PROB	6.868	n/a	n/a	-999	2	[1, 1, 3]	113	FR1	1	R1193T
405.224	10.334	422286	PROB	10.334	n/a	n/a	-999	2	[1, 9, 7]	197	FR1	1	R1193T
415.558	8.422	432620	PROB	8.422	n/a	n/a	-999	2	[7, 6, 5]	765	FR1	1	R1193T
423.98	0.014	441041	STOP	n/a	n/a	n/a	-999	2	[-999, -999, -999]	n/a	FR1	1	R1193T
423.994	0.582	441055	DISTRACT_END	n/a	n/a	n/a	-999	2	[0, 0, 0]	n/a	FR1	1	R1193T
424.576	0.519	441637	RETRIEVAL_ORIENT	n/a	n/a	n/a	-999	2	[0, 0, 0]	n/a	FR1	1	R1193T
425.095	2.103	442156	REC_START	n/a	n/a	n/a	-999	2	[0, 0, 0]	n/a	FR1	1	R1193T
427.198	1.453	444259	REC_WORD	1.453	n/a	SHELL	-999	2	[0, 0, 0]	n/a	FR1	1	R1193T
428.651	2.694	445712	REC_WORD	2.694	n/a	BEACH	-999	2	[0, 0, 0]	n/a	FR1	1	R1193T
431.345	12.648	448406	REC_WORD	12.648	n/a	SHIP	-999	2	[0, 0, 0]	n/a	FR1	1	R1193T
443.993	11.114	461053	REC_WORD	11.114	n/a	PEARL	-999	2	[0, 0, 0]	n/a	FR1	1	R1193T
455.107	14.477	472166	REC_END	n/a	n/a	n/a	-999	2	[0, 0, 0]	n/a	FR1	1	R1193T
469.584	0.5	486642	TRIAL	n/a	n/a	n/a	-999	3	[0, 0, 0]	n/a	FR1	1	R1193T
470.084	10.428	487142	COUNTDOWN_START	n/a	n/a	n/a	-999	3	[0, 0, 0]	n/a	FR1	1	R1193T
480.512	0.008	497570	COUNTDOWN_END	n/a	n/a	n/a	-999	3	[0, 0, 0]	n/a	FR1	1	R1193T
480.52	1.618	497578	ORIENT	n/a	n/a	n/a	-999	3	[0, 0, 0]	n/a	FR1	1	R1193T
482.138	1.967	499196	ORIENT_OFF	n/a	n/a	n/a	-999	3	[0, 0, 0]	n/a	FR1	1	R1193T
484.105	1.617	501162	WORD	n/a	wordpools/wordpool_EN.txt	ROSE	1	3	[0, 0, 0]	n/a	FR1	1	R1193T
485.722	0.782	502779	WORD_OFF	n/a	n/a	ROSE	1	3	[0, 0, 0]	n/a	FR1	1	R1193T
486.504	1.601	503561	WORD	n/a	wordpools/wordpool_EN.txt	SPOON	2	3	[0, 0, 0]	n/a	FR1	1	R1193T
488.105	0.817	505162	WORD_OFF	n/a	n/a	SPOON	2	3	[0, 0, 0]	n/a	FR1	1	R1193T
488.922	1.616	505979	WORD	n/a	wordpools/wordpool_EN.txt	RUG	3	3	[0, 0, 0]	n/a	FR1	1	R1193T
490.538	0.785	507595	WORD_OFF	n/a	n/a	RUG	3	3	[0, 0, 0]	n/a	FR1	1	R1193T
491.323	1.617	508380	WORD	n/a	wordpools/wordpool_EN.txt	ARM	4	3	[0, 0, 0]	n/a	FR1	1	R1193T
492.94	0.883	509997	WORD_OFF	n/a	n/a	ARM	4	3	[0, 0, 0]	n/a	FR1	1	R1193T
493.823	1.616	510880	WORD	n/a	wordpools/wordpool_EN.txt	SLUSH	5	3	[0, 0, 0]	n/a	FR1	1	R1193T
495.439	0.968	512496	WORD_OFF	n/a	n/a	SLUSH	5	3	[0, 0, 0]	n/a	FR1	1	R1193T
496.407	1.617	513464	WORD	n/a	wordpools/wordpool_EN.txt	MUG	6	3	[0, 0, 0]	n/a	FR1	1	R1193T
498.024	0.8	515081	WORD_OFF	n/a	n/a	MUG	6	3	[0, 0, 0]	n/a	FR1	1	R1193T
498.824	1.616	515881	WORD	n/a	wordpools/wordpool_EN.txt	FOOT	7	3	[0, 0, 0]	n/a	FR1	1	R1193T
500.44	0.868	517497	WORD_OFF	n/a	n/a	FOOT	7	3	[0, 0, 0]	n/a	FR1	1	R1193T
501.308	1.617	518364	WORD	n/a	wordpools/wordpool_EN.txt	BOOK	8	3	[0, 0, 0]	n/a	FR1	1	R1193T
502.925	0.833	519981	WORD_OFF	n/a	n/a	BOOK	8	3	[0, 0, 0]	n/a	FR1	1	R1193T
503.758	1.617	520814	WORD	n/a	wordpools/wordpool_EN.txt	WALL	9	3	[0, 0, 0]	n/a	FR1	1	R1193T
505.375	0.8	522431	WORD_OFF	n/a	n/a	WALL	9	3	[0, 0, 0]	n/a	FR1	1	R1193T
506.175	1.617	523231	WORD	n/a	wordpools/wordpool_EN.txt	PARK	10	3	[0, 0, 0]	n/a	FR1	1	R1193T
507.792	0.816	524848	WORD_OFF	n/a	n/a	PARK	10	3	[0, 0, 0]	n/a	FR1	1	R1193T
508.608	1.618	525664	WORD	n/a	wordpools/wordpool_EN.txt	GLOVE	11	3	[0, 0, 0]	n/a	FR1	1	R1193T
510.226	0.85	527282	WORD_OFF	n/a	n/a	GLOVE	11	3	[0, 0, 0]	n/a	FR1	1	R1193T
511.076	1.617	528132	WORD	n/a	wordpools/wordpool_EN.txt	PANTS	12	3	[0, 0, 0]	n/a	FR1	1	R1193T
512.693	0.0	529749	WORD_OFF	n/a	n/a	PANTS	12	3	[0, 0, 0]	n/a	FR1	1	R1193T
512.693	0.001	529749	DISTRACT_START	n/a	n/a	n/a	-999	3	[0, 0, 0]	n/a	FR1	1	R1193T
512.694	0.016	529750	START	n/a	n/a	n/a	-999	3	[-999, -999, -999]	n/a	FR1	1	R1193T
512.71	11.335	529766	PROB	11.335	n/a	n/a	-999	3	[3, 2, 5]	325	FR1	1	R1193T
524.045	8.967	541100	PROB	8.967	n/a	n/a	-999	3	[4, 5, 9]	459	FR1	1	R1193T
533.012	0.018	550067	STOP	n/a	n/a	n/a	-999	3	[-999, -999, -999]	n/a	FR1	1	R1193T
533.03	0.516	550085	DISTRACT_END	n/a	n/a	n/a	-999	3	[0, 0, 0]	n/a	FR1	1	R1193T
533.546	0.518	550601	RETRIEVAL_ORIENT	n/a	n/a	n/a	-999	3	[0, 0, 0]	n/a	FR1	1	R1193T
534.064	5.174	551119	REC_START	n/a	n/a	n/a	-999	3	[0, 0, 0]	n/a	FR1	1	R1193T
539.238	6.36	556292	REC_WORD	6.36	n/a	BOOK	-999	3	[0, 0, 0]	n/a	FR1	1	R1193T
545.598	1.0	562652	REC_WORD	1.0	n/a	SPLASH	-999	3	[0, 0, 0]	n/a	FR1	1	R1193T
546.598	17.478	563652	REC_WORD_VV	17.478	n/a	<>	-999	3	[0, 0, 0]	n/a	FR1	1	R1193T
564.076	5.861	581129	REC_END	n/a	n/a	n/a	-999	3	[0, 0, 0]	n/a	FR1	1	R1193T
569.937	0.5	586989	TRIAL	n/a	n/a	n/a	-999	4	[0, 0, 0]	n/a	FR1	1	R1193T
570.437	10.428	587489	COUNTDOWN_START	n/a	n/a	n/a	-999	4	[0, 0, 0]	n/a	FR1	1	R1193T
580.865	0.007	597917	COUNTDOWN_END	n/a	n/a	n/a	-999	4	[0, 0, 0]	n/a	FR1	1	R1193T
580.872	1.616	597924	ORIENT	n/a	n/a	n/a	-999	4	[0, 0, 0]	n/a	FR1	1	R1193T
582.488	2.268	599540	ORIENT_OFF	n/a	n/a	n/a	-999	4	[0, 0, 0]	n/a	FR1	1	R1193T
584.756	1.617	601808	WORD	n/a	wordpools/wordpool_EN.txt	DRESS	1	4	[0, 0, 0]	n/a	FR1	1	R1193T
586.373	1.0	603424	WORD_OFF	n/a	n/a	DRESS	1	4	[0, 0, 0]	n/a	FR1	1	R1193T
587.373	1.617	604424	WORD	n/a	wordpools/wordpool_EN.txt	SKUNK	2	4	[0, 0, 0]	n/a	FR1	1	R1193T
588.99	0.934	606041	WORD_OFF	n/a	n/a	SKUNK	2	4	[0, 0, 0]	n/a	FR1	1	R1193T
589.924	1.616	606975	WORD	n/a	wordpools/wordpool_EN.txt	BARN	3	4	[0, 0, 0]	n/a	FR1	1	R1193T
591.54	1.0	608591	WORD_OFF	n/a	n/a	BARN	3	4	[0, 0, 0]	n/a	FR1	1	R1193T
592.54	1.618	609591	WORD	n/a	wordpools/wordpool_EN.txt	CHEEK	4	4	[0, 0, 0]	n/a	FR1	1	R1193T
594.158	1.017	611209	WORD_OFF	n/a	n/a	CHEEK	4	4	[0, 0, 0]	n/a	FR1	1	R1193T
595.175	1.617	612226	WORD	n/a	wordpools/wordpool_EN.txt	CHAIR	5	4	[0, 0, 0]	n/a	FR1	1	R1193T
596.792	0.766	613843	WORD_OFF	n/a	n/a	CHAIR	5	4	[0, 0, 0]	n/a	FR1	1	R1193T
597.558	1.618	614609	WORD	n/a	wordpools/wordpool_EN.txt	BOWL	6	4	[0, 0, 0]	n/a	FR1	1	R1193T
599.176	0.933	616227	WORD_OFF	n/a	n/a	BOWL	6	4	[0, 0, 0]	n/a	FR1	1	R1193T
600.109	1.617	617160	WORD	n/a	wordpools/wordpool_EN.txt	GRASS	7	4	[0, 0, 0]	n/a	FR1	1	R1193T
601.726	0.866	618777	WORD_OFF	n/a	n/a	GRASS	7	4	[0, 0, 0]	n/a	FR1	1	R1193T
602.592	1.601	619642	WORD	n/a	wordpools/wordpool_EN.txt	LAMB	8	4	[0, 0, 0]	n/a	FR1	1	R1193T
604.193	0.767	621243	WORD_OFF	n/a	n/a	LAMB	8	4	[0, 0, 0]	n/a	FR1	1	R1193T
604.96	1.616	622010	WORD	n/a	wordpools/wordpool_EN.txt	CAKE	9	4	[0, 0, 0]	n/a	FR1	1	R1193T
606.576	1.0	623626	WORD_OFF	n/a	n/a	CAKE	9	4	[0, 0, 0]	n/a	FR1	1	R1193T
607.576	1.618	624626	WORD	n/a	wordpools/wordpool_EN.txt	CAGE	10	4	[0, 0, 0]	n/a	FR1	1	R1193T
609.194	1.0	626244	WORD_OFF	n/a	n/a	CAGE	10	4	[0, 0, 0]	n/a	FR1	1	R1193T
610.194	1.617	627244	WORD	n/a	wordpools/wordpool_EN.txt	ARK	11	4	[0, 0, 0]	n/a	FR1	1	R1193T
611.811	0.783	628861	WORD_OFF	n/a	n/a	ARK	11	4	[0, 0, 0]	n/a	FR1	1	R1193T
612.594	1.618	629644	WORD	n/a	wordpools/wordpool_EN.txt	PIE	12	4	[0, 0, 0]	n/a	FR1	1	R1193T
614.212	0.0	631262	DISTRACT_START	n/a	n/a	n/a	-999	4	[0, 0, 0]	n/a	FR1	1	R1193T
614.212	0.001	631262	WORD_OFF	n/a	n/a	PIE	12	4	[0, 0, 0]	n/a	FR1	1	R1193T
614.213	0.015	631263	START	n/a	n/a	n/a	-999	4	[-999, -999, -999]	n/a	FR1	1	R1193T
614.228	18.12	631278	PROB	18.12	n/a	n/a	-999	4	[2, 4, 2]	242	FR1	1	R1193T
632.348	15.681	649397	PROB	15.681	n/a	n/a	-999	4	[4, 8, 6]	486	FR1	1	R1193T
648.029	0.022	665077	STOP	n/a	n/a	n/a	-999	4	[-999, -999, -999]	n/a	FR1	1	R1193T
648.051	0.65	665099	DISTRACT_END	n/a	n/a	n/a	-999	4	[0, 0, 0]	n/a	FR1	1	R1193T
648.701	0.518	665749	RETRIEVAL_ORIENT	n/a	n/a	n/a	-999	4	[0, 0, 0]	n/a	FR1	1	R1193T
649.219	3.673	666267	REC_START	n/a	n/a	n/a	-999	4	[0, 0, 0]	n/a	FR1	1	R1193T
652.892	1.462	669939	REC_WORD	1.462	n/a	CHECK	-999	4	[0, 0, 0]	n/a	FR1	1	R1193T
654.354	3.895	671401	REC_WORD	3.895	n/a	BRAIN	-999	4	[0, 0, 0]	n/a	FR1	1	R1193T
658.249	3.759	675296	REC_WORD	3.759	n/a	DRESS	-999	4	[0, 0, 0]	n/a	FR1	1	R1193T
662.008	17.222	679055	REC_WORD	17.222	n/a	GRASS	-999	4	[0, 0, 0]	n/a	FR1	1	R1193T
679.23	6.595	696276	REC_END	n/a	n/a	n/a	-999	4	[0, 0, 0]	n/a	FR1	1	R1193T
685.825	0.5	702871	TRIAL	n/a	n/a	n/a	-999	5	[0, 0, 0]	n/a	FR1	1	R1193T
686.325	10.428	703371	COUNTDOWN_START	n/a	n/a	n/a	-999	5	[0, 0, 0]	n/a	FR1	1	R1193T
696.753	0.007	713798	COUNTDOWN_END	n/a	n/a	n/a	-999	5	[0, 0, 0]	n/a	FR1	1	R1193T
696.76	1.617	713805	ORIENT	n/a	n/a	n/a	-999	5	[0, 0, 0]	n/a	FR1	1	R1193T
698.377	1.934	715422	ORIENT_OFF	n/a	n/a	n/a	-999	5	[0, 0, 0]	n/a	FR1	1	R1193T
700.311	1.617	717356	WORD	n/a	wordpools/wordpool_EN.txt	TRASH	1	5	[0, 0, 0]	n/a	FR1	1	R1193T
701.928	0.866	718973	WORD_OFF	n/a	n/a	TRASH	1	5	[0, 0, 0]	n/a	FR1	1	R1193T
702.794	1.617	719839	WORD	n/a	wordpools/wordpool_EN.txt	BOMB	2	5	[0, 0, 0]	n/a	FR1	1	R1193T
704.411	0.967	721455	WORD_OFF	n/a	n/a	BOMB	2	5	[0, 0, 0]	n/a	FR1	1	R1193T
705.378	1.617	722422	WORD	n/a	wordpools/wordpool_EN.txt	STORE	3	5	[0, 0, 0]	n/a	FR1	1	R1193T
706.995	1.017	724039	WORD_OFF	n/a	n/a	STORE	3	5	[0, 0, 0]	n/a	FR1	1	R1193T
708.012	1.616	725056	WORD	n/a	wordpools/wordpool_EN.txt	CORD	4	5	[0, 0, 0]	n/a	FR1	1	R1193T
709.628	0.967	726672	WORD_OFF	n/a	n/a	CORD	4	5	[0, 0, 0]	n/a	FR1	1	R1193T
710.595	1.618	727639	WORD	n/a	wordpools/wordpool_EN.txt	STAR	5	5	[0, 0, 0]	n/a	FR1	1	R1193T
712.213	0.8	729257	WORD_OFF	n/a	n/a	STAR	5	5	[0, 0, 0]	n/a	FR1	1	R1193T
713.013	1.616	730057	WORD	n/a	wordpools/wordpool_EN.txt	WAVE	6	5	[0, 0, 0]	n/a	FR1	1	R1193T
714.629	0.833	731673	WORD_OFF	n/a	n/a	WAVE	6	5	[0, 0, 0]	n/a	FR1	1	R1193T
715.462	1.618	732506	WORD	n/a	wordpools/wordpool_EN.txt	HORSE	7	5	[0, 0, 0]	n/a	FR1	1	R1193T
717.08	0.834	734124	WORD_OFF	n/a	n/a	HORSE	7	5	[0, 0, 0]	n/a	FR1	1	R1193T
717.914	1.616	734958	WORD	n/a	wordpools/wordpool_EN.txt	BEAR	8	5	[0, 0, 0]	n/a	FR1	1	R1193T
719.53	0.9	736574	WORD_OFF	n/a	n/a	BEAR	8	5	[0, 0, 0]	n/a	FR1	1	R1193T
720.43	1.601	737473	WORD	n/a	wordpools/wordpool_EN.txt	NET	9	5	[0, 0, 0]	n/a	FR1	1	R1193T
722.031	0.784	739074	WORD_OFF	n/a	n/a	NET	9	5	[0, 0, 0]	n/a	FR1	1	R1193T
722.815	1.616	739858	WORD	n/a	wordpools/wordpool_EN.txt	WAND	10	5	[0, 0, 0]	n/a	FR1	1	R1193T
724.431	0.851	741474	WORD_OFF	n/a	n/a	WAND	10	5	[0, 0, 0]	n/a	FR1	1	R1193T
725.282	1.617	742325	WORD	n/a	wordpools/wordpool_EN.txt	JAIL	11	5	[0, 0, 0]	n/a	FR1	1	R1193T
726.899	0.867	743942	WORD_OFF	n/a	n/a	JAIL	11	5	[0, 0, 0]	n/a	FR1	1	R1193T
727.766	1.617	744809	WORD	n/a	wordpools/wordpool_EN.txt	SEED	12	5	[0, 0, 0]	n/a	FR1	1	R1193T
729.383	0.0	746426	WORD_OFF	n/a	n/a	SEED	12	5	[0, 0, 0]	n/a	FR1	1	R1193T
729.383	0.001	746426	DISTRACT_START	n/a	n/a	n/a	-999	5	[0, 0, 0]	n/a	FR1	1	R1193T
729.384	0.015	746427	START	n/a	n/a	n/a	-999	5	[-999, -999, -999]	n/a	FR1	1	R1193T
729.399	14.336	746442	PROB	14.336	n/a	n/a	-999	5	[4, 1, 3]	413	FR1	1	R1193T
743.735	10.349	760777	PROB	10.349	n/a	n/a	-999	5	[1, 3, 2]	132	FR1	1	R1193T
754.084	0.02	771126	STOP	n/a	n/a	n/a	-999	5	[-999, -999, -999]	n/a	FR1	1	R1193T
754.104	0.55	771146	DISTRACT_END	n/a	n/a	n/a	-999	5	[0, 0, 0]	n/a	FR1	1	R1193T
754.654	0.518	771695	RETRIEVAL_ORIENT	n/a	n/a	n/a	-999	5	[0, 0, 0]	n/a	FR1	1	R1193T
755.172	2.59	772213	REC_START	n/a	n/a	n/a	-999	5	[0, 0, 0]	n/a	FR1	1	R1193T
757.762	27.421	774803	REC_WORD	27.421	n/a	JAIL	-999	5	[0, 0, 0]	n/a	FR1	1	R1193T
785.183	5.343	802223	REC_END	n/a	n/a	n/a	-999	5	[0, 0, 0]	n/a	FR1	1	R1193T
790.526	0.5	807565	TRIAL	n/a	n/a	n/a	-999	6	[0, 0, 0]	n/a	FR1	1	R1193T
791.026	10.428	808065	COUNTDOWN_START	n/a	n/a	n/a	-999	6	[0, 0, 0]	n/a	FR1	1	R1193T
801.454	0.007	818493	COUNTDOWN_END	n/a	n/a	n/a	-999	6	[0, 0, 0]	n/a	FR1	1	R1193T
801.461	1.618	818500	ORIENT	n/a	n/a	n/a	-999	6	[0, 0, 0]	n/a	FR1	1	R1193T
803.079	2.184	820118	ORIENT_OFF	n/a	n/a	n/a	-999	6	[0, 0, 0]	n/a	FR1	1	R1193T
805.263	1.617	822301	WORD	n/a	wordpools/wordpool_EN.txt	SIGN	1	6	[0, 0, 0]	n/a	FR1	1	R1193T
806.88	0.85	823918	WORD_OFF	n/a	n/a	SIGN	1	6	[0, 0, 0]	n/a	FR1	1	R1193T
807.73	1.617	824768	WORD	n/a	wordpools/wordpool_EN.txt	DITCH	2	6	[0, 0, 0]	n/a	FR1	1	R1193T
809.347	0.85	826385	WORD_OFF	n/a	n/a	DITCH	2	6	[0, 0, 0]	n/a	FR1	1	R1193T
810.197	1.617	827235	WORD	n/a	wordpools/wordpool_EN.txt	STICK	3	6	[0, 0, 0]	n/a	FR1	1	R1193T
811.814	1.0	828852	WORD_OFF	n/a	n/a	STICK	3	6	[0, 0, 0]	n/a	FR1	1	R1193T
812.814	1.616	829852	WORD	n/a	wordpools/wordpool_EN.txt	SEAT	4	6	[0, 0, 0]	n/a	FR1	1	R1193T
814.43	0.835	831468	WORD_OFF	n/a	n/a	SEAT	4	6	[0, 0, 0]	n/a	FR1	1	R1193T
815.265	1.617	832303	WORD	n/a	wordpools/wordpool_EN.txt	LAWN	5	6	[0, 0, 0]	n/a	FR1	1	R1193T
816.882	0.95	833920	WORD_OFF	n/a	n/a	LAWN	5	6	[0, 0, 0]	n/a	FR1	1	R1193T
817.832	1.616	834870	WORD	n/a	wordpools/wordpool_EN.txt	BOX	6	6	[0, 0, 0]	n/a	FR1	1	R1193T
819.448	0.968	836486	WORD_OFF	n/a	n/a	BOX	6	6	[0, 0, 0]	n/a	FR1	1	R1193T
820.416	1.617	837454	WORD	n/a	wordpools/wordpool_EN.txt	DOOR	7	6	[0, 0, 0]	n/a	FR1	1	R1193T
822.033	0.9	839070	WORD_OFF	n/a	n/a	DOOR	7	6	[0, 0, 0]	n/a	FR1	1	R1193T
822.933	1.616	839970	WORD	n/a	wordpools/wordpool_EN.txt	BEAK	8	6	[0, 0, 0]	n/a	FR1	1	R1193T
824.549	0.883	841586	WORD_OFF	n/a	n/a	BEAK	8	6	[0, 0, 0]	n/a	FR1	1	R1193T
825.432	1.602	842469	WORD	n/a	wordpools/wordpool_EN.txt	PIN	9	6	[0, 0, 0]	n/a	FR1	1	R1193T
827.034	0.966	844071	WORD_OFF	n/a	n/a	PIN	9	6	[0, 0, 0]	n/a	FR1	1	R1193T
828.0	1.617	845037	WORD	n/a	wordpools/wordpool_EN.txt	SHOE	10	6	[0, 0, 0]	n/a	FR1	1	R1193T
829.617	1.0	846654	WORD_OFF	n/a	n/a	SHOE	10	6	[0, 0, 0]	n/a	FR1	1	R1193T
830.617	1.618	847654	WORD	n/a	wordpools/wordpool_EN.txt	SMILE	11	6	[0, 0, 0]	n/a	FR1	1	R1193T
832.235	0.833	849272	WORD_OFF	n/a	n/a	SMILE	11	6	[0, 0, 0]	n/a	FR1	1	R1193T
833.068	1.617	850105	WORD	n/a	wordpools/wordpool_EN.txt	MULE	12	6	[0, 0, 0]	n/a	FR1	1	R1193T
834.685	0.0	851722	WORD_OFF	n/a	n/a	MULE	12	6	[0, 0, 0]	n/a	FR1	1	R1193T
834.685	0.001	851722	DISTRACT_START	n/a	n/a	n/a	-999	6	[0, 0, 0]	n/a	FR1	1	R1193T
834.686	0.016	851723	START	n/a	n/a	n/a	-999	6	[-999, -999, -999]	n/a	FR1	1	R1193T
834.702	13.119	851739	PROB	13.119	n/a	n/a	-999	6	[2, 4, 2]	242	FR1	1	R1193T
847.821	10.215	864857	PROB	10.215	n/a	n/a	-999	6	[8, 3, 3]	833	FR1	1	R1193T
858.036	0.02	875071	STOP	n/a	n/a	n/a	-999	6	[-999, -999, -999]	n/a	FR1	1	R1193T
858.056	0.549	875091	DISTRACT_END	n/a	n/a	n/a	-999	6	[0, 0, 0]	n/a	FR1	1	R1193T
858.605	0.518	875640	RETRIEVAL_ORIENT	n/a	n/a	n/a	-999	6	[0, 0, 0]	n/a	FR1	1	R1193T
859.123	4.996	876158	REC_START	n/a	n/a	n/a	-999	6	[0, 0, 0]	n/a	FR1	1	R1193T
864.119	3.828	881154	REC_WORD	3.828	n/a	SIGN	-999	6	[0, 0, 0]	n/a	FR1	1	R1193T
867.947	6.073	884982	REC_WORD	6.073	n/a	STICK	-999	6	[0, 0, 0]	n/a	FR1	1	R1193T
874.02	15.116	891054	REC_WORD	15.116	n/a	MULE	-999	6	[0, 0, 0]	n/a	FR1	1	R1193T
889.136	7.244	906170	REC_END	n/a	n/a	n/a	-999	6	[0, 0, 0]	n/a	FR1	1	R1193T
896.38	0.5	913413	TRIAL	n/a	n/a	n/a	-999	7	[0, 0, 0]	n/a	FR1	1	R1193T
896.88	10.428	913913	COUNTDOWN_START	n/a	n/a	n/a	-999	7	[0, 0, 0]	n/a	FR1	1	R1193T
907.308	0.007	924340	COUNTDOWN_END	n/a	n/a	n/a	-999	7	[0, 0, 0]	n/a	FR1	1	R1193T
907.315	1.617	924347	ORIENT	n/a	n/a	n/a	-999	7	[0, 0, 0]	n/a	FR1	1	R1193T
908.932	2.1	925964	ORIENT_OFF	n/a	n/a	n/a	-999	7	[0, 0, 0]	n/a	FR1	1	R1193T
911.032	1.617	928064	WORD	n/a	wordpools/wordpool_EN.txt	CART	1	7	[0, 0, 0]	n/a	FR1	1	R1193T
912.649	0.866	929681	WORD_OFF	n/a	n/a	CART	1	7	[0, 0, 0]	n/a	FR1	1	R1193T
913.515	1.618	930547	WORD	n/a	wordpools/wordpool_EN.txt	ROPE	2	7	[0, 0, 0]	n/a	FR1	1	R1193T
915.133	0.884	932165	WORD_OFF	n/a	n/a	ROPE	2	7	[0, 0, 0]	n/a	FR1	1	R1193T
916.017	1.615	933049	WORD	n/a	wordpools/wordpool_EN.txt	BLUSH	3	7	[0, 0, 0]	n/a	FR1	1	R1193T
917.632	0.901	934664	WORD_OFF	n/a	n/a	BLUSH	3	7	[0, 0, 0]	n/a	FR1	1	R1193T
918.533	1.618	935565	WORD	n/a	wordpools/wordpool_EN.txt	FLOOR	4	7	[0, 0, 0]	n/a	FR1	1	R1193T
920.151	0.966	937183	WORD_OFF	n/a	n/a	FLOOR	4	7	[0, 0, 0]	n/a	FR1	1	R1193T
921.117	1.617	938149	WORD	n/a	wordpools/wordpool_EN.txt	HAND	5	7	[0, 0, 0]	n/a	FR1	1	R1193T
922.734	0.967	939766	WORD_OFF	n/a	n/a	HAND	5	7	[0, 0, 0]	n/a	FR1	1	R1193T
923.701	1.617	940732	WORD	n/a	wordpools/wordpool_EN.txt	STRAW	6	7	[0, 0, 0]	n/a	FR1	1	R1193T
925.318	0.767	942349	WORD_OFF	n/a	n/a	STRAW	6	7	[0, 0, 0]	n/a	FR1	1	R1193T
926.085	1.617	943116	WORD	n/a	wordpools/wordpool_EN.txt	BRICK	7	7	[0, 0, 0]	n/a	FR1	1	R1193T
927.702	0.983	944733	WORD_OFF	n/a	n/a	BRICK	7	7	[0, 0, 0]	n/a	FR1	1	R1193T
928.685	1.617	945716	WORD	n/a	wordpools/wordpool_EN.txt	BAG	8	7	[0, 0, 0]	n/a	FR1	1	R1193T
930.302	0.867	947333	WORD_OFF	n/a	n/a	BAG	8	7	[0, 0, 0]	n/a	FR1	1	R1193T
931.169	1.617	948200	WORD	n/a	wordpools/wordpool_EN.txt	TRUCK	9	7	[0, 0, 0]	n/a	FR1	1	R1193T
932.786	0.833	949817	WORD_OFF	n/a	n/a	TRUCK	9	7	[0, 0, 0]	n/a	FR1	1	R1193T
933.619	1.618	950650	WORD	n/a	wordpools/wordpool_EN.txt	MUD	10	7	[0, 0, 0]	n/a	FR1	1	R1193T
935.237	0.883	952268	WORD_OFF	n/a	n/a	MUD	10	7	[0, 0, 0]	n/a	FR1	1	R1193T
936.12	1.617	953151	WORD	n/a	wordpools/wordpool_EN.txt	HOUSE	11	7	[0, 0, 0]	n/a	FR1	1	R1193T
937.737	1.0	954768	WORD_OFF	n/a	n/a	HOUSE	11	7	[0, 0, 0]	n/a	FR1	1	R1193T
938.737	1.617	955768	WORD	n/a	wordpools/wordpool_EN.txt	STAIR	12	7	[0, 0, 0]	n/a	FR1	1	R1193T
940.354	0.0	957385	WORD_OFF	n/a	n/a	STAIR	12	7	[0, 0, 0]	n/a	FR1	1	R1193T
940.354	0.001	957385	DISTRACT_START	n/a	n/a	n/a	-999	7	[0, 0, 0]	n/a	FR1	1	R1193T
940.355	0.016	957386	START	n/a	n/a	n/a	-999	7	[-999, -999, -999]	n/a	FR1	1	R1193T
940.371	38.978	957402	PROB	38.978	n/a	n/a	-999	7	[8, 6, 8]	868	FR1	1	R1193T
979.349	0.012	996377	STOP	n/a	n/a	n/a	-999	7	[-999, -999, -999]	n/a	FR1	1	R1193T
979.361	0.567	996389	DISTRACT_END	n/a	n/a	n/a	-999	7	[0, 0, 0]	n/a	FR1	1	R1193T
979.928	0.516	996956	RETRIEVAL_ORIENT	n/a	n/a	n/a	-999	7	[0, 0, 0]	n/a	FR1	1	R1193T
980.444	2.498	997472	REC_START	n/a	n/a	n/a	-999	7	[0, 0, 0]	n/a	FR1	1	R1193T
982.942	7.014	999970	REC_WORD	7.014	n/a	CART	-999	7	[0, 0, 0]	n/a	FR1	1	R1193T
989.956	5.061	1006984	REC_WORD	5.061	n/a	FLOOR	-999	7	[0, 0, 0]	n/a	FR1	1	R1193T
995.017	4.22	1012044	REC_WORD	4.22	n/a	HAND	-999	7	[0, 0, 0]	n/a	FR1	1	R1193T
999.237	11.218	1016264	REC_WORD	11.218	n/a	STRAW	-999	7	[0, 0, 0]	n/a	FR1	1	R1193T
1010.455	7.963	1027481	REC_END	n/a	n/a	n/a	-999	7	[0, 0, 0]	n/a	FR1	1	R1193T
1018.418	0.5	1035444	TRIAL	n/a	n/a	n/a	-999	8	[0, 0, 0]	n/a	FR1	1	R1193T
1018.918	10.428	1035944	COUNTDOWN_START	n/a	n/a	n/a	-999	8	[0, 0, 0]	n/a	FR1	1	R1193T
1029.346	0.008	1046371	COUNTDOWN_END	n/a	n/a	n/a	-999	8	[0, 0, 0]	n/a	FR1	1	R1193T
1029.354	1.617	1046379	ORIENT	n/a	n/a	n/a	-999	8	[0, 0, 0]	n/a	FR1	1	R1193T
1030.971	2.15	1047996	ORIENT_OFF	n/a	n/a	n/a	-999	8	[0, 0, 0]	n/a	FR1	1	R1193T
1033.121	1.617	1050146	WORD	n/a	wordpools/wordpool_EN.txt	MOON	1	8	[0, 0, 0]	n/a	FR1	1	R1193T
1034.738	1.0	1051763	WORD_OFF	n/a	n/a	MOON	1	8	[0, 0, 0]	n/a	FR1	1	R1193T
1035.738	1.617	1052763	WORD	n/a	wordpools/wordpool_EN.txt	SPONGE	2	8	[0, 0, 0]	n/a	FR1	1	R1193T
1037.355	0.817	1054380	WORD_OFF	n/a	n/a	SPONGE	2	8	[0, 0, 0]	n/a	FR1	1	R1193T
1038.172	1.617	1055197	WORD	n/a	wordpools/wordpool_EN.txt	POND	3	8	[0, 0, 0]	n/a	FR1	1	R1193T
1039.789	0.9	1056814	WORD_OFF	n/a	n/a	POND	3	8	[0, 0, 0]	n/a	FR1	1	R1193T
1040.689	1.617	1057714	WORD	n/a	wordpools/wordpool_EN.txt	FROG	4	8	[0, 0, 0]	n/a	FR1	1	R1193T
1042.306	0.984	1059330	WORD_OFF	n/a	n/a	FROG	4	8	[0, 0, 0]	n/a	FR1	1	R1193T
1043.29	1.617	1060314	WORD	n/a	wordpools/wordpool_EN.txt	GLASS	5	8	[0, 0, 0]	n/a	FR1	1	R1193T
1044.907	1.016	1061931	WORD_OFF	n/a	n/a	GLASS	5	8	[0, 0, 0]	n/a	FR1	1	R1193T
1045.923	1.616	1062947	WORD	n/a	wordpools/wordpool_EN.txt	TANK	6	8	[0, 0, 0]	n/a	FR1	1	R1193T
1047.539	1.017	1064563	WORD_OFF	n/a	n/a	TANK	6	8	[0, 0, 0]	n/a	FR1	1	R1193T
1048.556	1.601	1065580	WORD	n/a	wordpools/wordpool_EN.txt	PIPE	7	8	[0, 0, 0]	n/a	FR1	1	R1193T
1050.157	0.951	1067181	WORD_OFF	n/a	n/a	PIPE	7	8	[0, 0, 0]	n/a	FR1	1	R1193T
1051.108	1.617	1068132	WORD	n/a	wordpools/wordpool_EN.txt	DEER	8	8	[0, 0, 0]	n/a	FR1	1	R1193T
1052.725	0.799	1069749	WORD_OFF	n/a	n/a	DEER	8	8	[0, 0, 0]	n/a	FR1	1	R1193T
1053.524	1.601	1070548	WORD	n/a	wordpools/wordpool_EN.txt	SHRIMP	9	8	[0, 0, 0]	n/a	FR1	1	R1193T
1055.125	0.884	1072149	WORD_OFF	n/a	n/a	SHRIMP	9	8	[0, 0, 0]	n/a	FR1	1	R1193T
1056.009	1.616	1073033	WORD	n/a	wordpools/wordpool_EN.txt	JET	10	8	[0, 0, 0]	n/a	FR1	1	R1193T
1057.625	0.95	1074649	WORD_OFF	n/a	n/a	JET	10	8	[0, 0, 0]	n/a	FR1	1	R1193T
1058.575	1.601	1075599	WORD	n/a	wordpools/wordpool_EN.txt	SKY	11	8	[0, 0, 0]	n/a	FR1	1	R1193T
1060.176	0.933	1077199	WORD_OFF	n/a	n/a	SKY	11	8	[0, 0, 0]	n/a	FR1	1	R1193T
1061.109	1.618	1078132	WORD	n/a	wordpools/wordpool_EN.txt	FISH	12	8	[0, 0, 0]	n/a	FR1	1	R1193T
1062.727	0.0	1079750	WORD_OFF	n/a	n/a	FISH	12	8	[0, 0, 0]	n/a	FR1	1	R1193T
1062.727	0.0	1079750	DISTRACT_START	n/a	n/a	n/a	-999	8	[0, 0, 0]	n/a	FR1	1	R1193T
1062.727	0.016	1079750	START	n/a	n/a	n/a	-999	8	[-999, -999, -999]	n/a	FR1	1	R1193T
1062.743	21.581	1079766	PROB	21.581	n/a	n/a	-999	8	[5, 8, 2]	582	FR1	1	R1193T
1084.324	0.006	1101346	STOP	n/a	n/a	n/a	-999	8	[-999, -999, -999]	n/a	FR1	1	R1193T
1084.33	0.551	1101352	DISTRACT_END	n/a	n/a	n/a	-999	8	[0, 0, 0]	n/a	FR1	1	R1193T
1084.881	0.517	1101903	RETRIEVAL_ORIENT	n/a	n/a	n/a	-999	8	[0, 0, 0]	n/a	FR1	1	R1193T
1085.398	1.636	1102420	REC_START	n/a	n/a	n/a	-999	8	[0, 0, 0]	n/a	FR1	1	R1193T
1087.034	4.122	1104056	REC_WORD	4.122	n/a	MOON	-999	8	[0, 0, 0]	n/a	FR1	1	R1193T
1091.156	4.159	1108178	REC_WORD	4.159	n/a	TANK	-999	8	[0, 0, 0]	n/a	FR1	1	R1193T
1095.315	2.42	1112336	REC_WORD	2.42	n/a	FROG	-999	8	[0, 0, 0]	n/a	FR1	1	R1193T
1097.735	2.468	1114756	REC_WORD	2.468	n/a	POND	-999	8	[0, 0, 0]	n/a	FR1	1	R1193T
1100.203	2.176	1117224	REC_WORD	2.176	n/a	GLASS	-999	8	[0, 0, 0]	n/a	FR1	1	R1193T
1102.379	13.03	1119400	REC_WORD	13.03	n/a	PIPE	-999	8	[0, 0, 0]	n/a	FR1	1	R1193T
1115.409	10.095	1132429	REC_END	n/a	n/a	n/a	-999	8	[0, 0, 0]	n/a	FR1	1	R1193T
1125.504	0.5	1142524	TRIAL	n/a	n/a	n/a	-999	9	[0, 0, 0]	n/a	FR1	1	R1193T
1126.004	10.428	1143024	COUNTDOWN_START	n/a	n/a	n/a	-999	9	[0, 0, 0]	n/a	FR1	1	R1193T
1136.432	0.007	1153451	COUNTDOWN_END	n/a	n/a	n/a	-999	9	[0, 0, 0]	n/a	FR1	1	R1193T
1136.439	1.618	1153458	ORIENT	n/a	n/a	n/a	-999	9	[0, 0, 0]	n/a	FR1	1	R1193T
1138.057	2.217	1155076	ORIENT_OFF	n/a	n/a	n/a	-999	9	[0, 0, 0]	n/a	FR1	1	R1193T
1140.274	1.617	1157293	WORD	n/a	wordpools/wordpool_EN.txt	WORM	1	9	[0, 0, 0]	n/a	FR1	1	R1193T
1141.891	0.8	1158910	WORD_OFF	n/a	n/a	WORM	1	9	[0, 0, 0]	n/a	FR1	1	R1193T
1142.691	1.617	1159710	WORD	n/a	wordpools/wordpool_EN.txt	CAT	2	9	[0, 0, 0]	n/a	FR1	1	R1193T
1144.308	0.783	1161326	WORD_OFF	n/a	n/a	CAT	2	9	[0, 0, 0]	n/a	FR1	1	R1193T
1145.091	1.617	1162109	WORD	n/a	wordpools/wordpool_EN.txt	TOOL	3	9	[0, 0, 0]	n/a	FR1	1	R1193T
1146.708	0.783	1163726	WORD_OFF	n/a	n/a	TOOL	3	9	[0, 0, 0]	n/a	FR1	1	R1193T
1147.491	1.618	1164509	WORD	n/a	wordpools/wordpool_EN.txt	TEETH	4	9	[0, 0, 0]	n/a	FR1	1	R1193T
1149.109	0.883	1166127	WORD_OFF	n/a	n/a	TEETH	4	9	[0, 0, 0]	n/a	FR1	1	R1193T
1149.992	1.616	1167010	WORD	n/a	wordpools/wordpool_EN.txt	PEAR	5	9	[0, 0, 0]	n/a	FR1	1	R1193T
1151.608	0.884	1168626	WORD_OFF	n/a	n/a	PEAR	5	9	[0, 0, 0]	n/a	FR1	1	R1193T
1152.492	1.618	1169510	WORD	n/a	wordpools/wordpool_EN.txt	SQUARE	6	9	[0, 0, 0]	n/a	FR1	1	R1193T
1154.11	0.983	1171128	WORD_OFF	n/a	n/a	SQUARE	6	9	[0, 0, 0]	n/a	FR1	1	R1193T
1155.093	1.617	1172111	WORD	n/a	wordpools/wordpool_EN.txt	ROCK	7	9	[0, 0, 0]	n/a	FR1	1	R1193T
1156.71	0.833	1173728	WORD_OFF	n/a	n/a	ROCK	7	9	[0, 0, 0]	n/a	FR1	1	R1193T
1157.543	1.601	1174561	WORD	n/a	wordpools/wordpool_EN.txt	PLANE	8	9	[0, 0, 0]	n/a	FR1	1	R1193T
1159.144	0.984	1176162	WORD_OFF	n/a	n/a	PLANE	8	9	[0, 0, 0]	n/a	FR1	1	R1193T
1160.128	1.617	1177146	WORD	n/a	wordpools/wordpool_EN.txt	RAT	9	9	[0, 0, 0]	n/a	FR1	1	R1193T
1161.745	0.983	1178762	WORD_OFF	n/a	n/a	RAT	9	9	[0, 0, 0]	n/a	FR1	1	R1193T
1162.728	1.617	1179745	WORD	n/a	wordpools/wordpool_EN.txt	CAPE	10	9	[0, 0, 0]	n/a	FR1	1	R1193T
1164.345	1.0	1181362	WORD_OFF	n/a	n/a	CAPE	10	9	[0, 0, 0]	n/a	FR1	1	R1193T
1165.345	1.617	1182362	WORD	n/a	wordpools/wordpool_EN.txt	CONE	11	9	[0, 0, 0]	n/a	FR1	1	R1193T
1166.962	0.917	1183979	WORD_OFF	n/a	n/a	CONE	11	9	[0, 0, 0]	n/a	FR1	1	R1193T
1167.879	1.616	1184896	WORD	n/a	wordpools/wordpool_EN.txt	TOY	12	9	[0, 0, 0]	n/a	FR1	1	R1193T
1169.495	0.0	1186512	WORD_OFF	n/a	n/a	TOY	12	9	[0, 0, 0]	n/a	FR1	1	R1193T
1169.495	0.0	1186512	DISTRACT_START	n/a	n/a	n/a	-999	9	[0, 0, 0]	n/a	FR1	1	R1193T
1169.495	0.017	1186512	START	n/a	n/a	n/a	-999	9	[-999, -999, -999]	n/a	FR1	1	R1193T
1169.512	15.87	1186529	PROB	15.87	n/a	n/a	-999	9	[2, 3, 7]	237	FR1	1	R1193T
1185.382	13.391	1202398	PROB	13.391	n/a	n/a	-999	9	[7, 2, 7]	772	FR1	1	R1193T
1198.773	0.012	1215788	STOP	n/a	n/a	n/a	-999	9	[-999, -999, -999]	n/a	FR1	1	R1193T
1198.785	0.6	1215800	DISTRACT_END	n/a	n/a	n/a	-999	9	[0, 0, 0]	n/a	FR1	1	R1193T
1199.385	0.517	1216400	RETRIEVAL_ORIENT	n/a	n/a	n/a	-999	9	[0, 0, 0]	n/a	FR1	1	R1193T
1199.902	4.047	1216917	REC_START	n/a	n/a	n/a	-999	9	[0, 0, 0]	n/a	FR1	1	R1193T
1203.949	1.141	1220964	REC_WORD	1.141	n/a	PEARL	-999	9	[0, 0, 0]	n/a	FR1	1	R1193T
1205.09	2.293	1222105	REC_WORD	2.293	n/a	CAT	-999	9	[0, 0, 0]	n/a	FR1	1	R1193T
1207.383	22.532	1224398	REC_WORD	22.532	n/a	RAT	-999	9	[0, 0, 0]	n/a	FR1	1	R1193T
1229.915	9.643	1246928	REC_END	n/a	n/a	n/a	-999	9	[0, 0, 0]	n/a	FR1	1	R1193T
1239.558	0.5	1256571	TRIAL	n/a	n/a	n/a	-999	10	[0, 0, 0]	n/a	FR1	1	R1193T
1240.058	10.428	1257071	COUNTDOWN_START	n/a	n/a	n/a	-999	10	[0, 0, 0]	n/a	FR1	1	R1193T
1250.486	0.007	1267498	COUNTDOWN_END	n/a	n/a	n/a	-999	10	[0, 0, 0]	n/a	FR1	1	R1193T
1250.493	1.618	1267505	ORIENT	n/a	n/a	n/a	-999	10	[0, 0, 0]	n/a	FR1	1	R1193T
1252.111	2.117	1269123	ORIENT_OFF	n/a	n/a	n/a	-999	10	[0, 0, 0]	n/a	FR1	1	R1193T
1254.228	1.617	1271240	WORD	n/a	wordpools/wordpool_EN.txt	AXE	1	10	[0, 0, 0]	n/a	FR1	1	R1193T
1255.845	0.9	1272857	WORD_OFF	n/a	n/a	AXE	1	10	[0, 0, 0]	n/a	FR1	1	R1193T
1256.745	1.617	1273757	WORD	n/a	wordpools/wordpool_EN.txt	SUN	2	10	[0, 0, 0]	n/a	FR1	1	R1193T
1258.362	0.884	1275374	WORD_OFF	n/a	n/a	SUN	2	10	[0, 0, 0]	n/a	FR1	1	R1193T
1259.246	1.617	1276258	WORD	n/a	wordpools/wordpool_EN.txt	FOAM	3	10	[0, 0, 0]	n/a	FR1	1	R1193T
1260.863	0.9	1277875	WORD_OFF	n/a	n/a	FOAM	3	10	[0, 0, 0]	n/a	FR1	1	R1193T
1261.763	1.617	1278775	WORD	n/a	wordpools/wordpool_EN.txt	HOOK	4	10	[0, 0, 0]	n/a	FR1	1	R1193T
1263.38	0.85	1280391	WORD_OFF	n/a	n/a	HOOK	4	10	[0, 0, 0]	n/a	FR1	1	R1193T
1264.23	1.617	1281241	WORD	n/a	wordpools/wordpool_EN.txt	WEB	5	10	[0, 0, 0]	n/a	FR1	1	R1193T
1265.847	0.95	1282858	WORD_OFF	n/a	n/a	WEB	5	10	[0, 0, 0]	n/a	FR1	1	R1193T
1266.797	1.617	1283808	WORD	n/a	wordpools/wordpool_EN.txt	SNOW	6	10	[0, 0, 0]	n/a	FR1	1	R1193T
1268.414	0.917	1285425	WORD_OFF	n/a	n/a	SNOW	6	10	[0, 0, 0]	n/a	FR1	1	R1193T
1269.331	1.617	1286342	WORD	n/a	wordpools/wordpool_EN.txt	FOG	7	10	[0, 0, 0]	n/a	FR1	1	R1193T
1270.948	1.0	1287959	WORD_OFF	n/a	n/a	FOG	7	10	[0, 0, 0]	n/a	FR1	1	R1193T
1271.948	1.616	1288959	WORD	n/a	wordpools/wordpool_EN.txt	ICE	8	10	[0, 0, 0]	n/a	FR1	1	R1193T
1273.564	0.867	1290575	WORD_OFF	n/a	n/a	ICE	8	10	[0, 0, 0]	n/a	FR1	1	R1193T
1274.431	1.618	1291442	WORD	n/a	wordpools/wordpool_EN.txt	FUDGE	9	10	[0, 0, 0]	n/a	FR1	1	R1193T
1276.049	0.833	1293060	WORD_OFF	n/a	n/a	FUDGE	9	10	[0, 0, 0]	n/a	FR1	1	R1193T
1276.882	1.616	1293893	WORD	n/a	wordpools/wordpool_EN.txt	RAIN	10	10	[0, 0, 0]	n/a	FR1	1	R1193T
1278.498	0.818	1295509	WORD_OFF	n/a	n/a	RAIN	10	10	[0, 0, 0]	n/a	FR1	1	R1193T
1279.316	1.617	1296326	WORD	n/a	wordpools/wordpool_EN.txt	WING	11	10	[0, 0, 0]	n/a	FR1	1	R1193T
1280.933	0.867	1297943	WORD_OFF	n/a	n/a	WING	11	10	[0, 0, 0]	n/a	FR1	1	R1193T
1281.8	1.617	1298810	WORD	n/a	wordpools/wordpool_EN.txt	CLOUD	12	10	[0, 0, 0]	n/a	FR1	1	R1193T
1283.417	0.0	1300427	DISTRACT_START	n/a	n/a	n/a	-999	10	[0, 0, 0]	n/a	FR1	1	R1193T
1283.417	0.0	1300427	WORD_OFF	n/a	n/a	CLOUD	12	10	[0, 0, 0]	n/a	FR1	1	R1193T
1283.417	0.015	1300427	START	n/a	n/a	n/a	-999	10	[-999, -999, -999]	n/a	FR1	1	R1193T
1283.432	26.789	1300442	PROB	26.789	n/a	n/a	-999	10	[6, 5, 2]	652	FR1	1	R1193T
1310.221	0.017	1327230	STOP	n/a	n/a	n/a	-999	10	[-999, -999, -999]	n/a	FR1	1	R1193T
1310.238	0.517	1327247	DISTRACT_END	n/a	n/a	n/a	-999	10	[0, 0, 0]	n/a	FR1	1	R1193T
1310.755	0.517	1327764	RETRIEVAL_ORIENT	n/a	n/a	n/a	-999	10	[0, 0, 0]	n/a	FR1	1	R1193T
1311.272	2.214	1328281	REC_START	n/a	n/a	n/a	-999	10	[0, 0, 0]	n/a	FR1	1	R1193T
1313.486	1.131	1330494	REC_WORD	1.131	n/a	ICE	-999	10	[0, 0, 0]	n/a	FR1	1	R1193T
1314.617	2.733	1331625	REC_WORD	2.733	n/a	CUBE	-999	10	[0, 0, 0]	n/a	FR1	1	R1193T
1317.35	2.247	1334358	REC_WORD	2.247	n/a	FUDGE	-999	10	[0, 0, 0]	n/a	FR1	1	R1193T
1319.597	2.219	1336605	REC_WORD	2.219	n/a	RAIN	-999	10	[0, 0, 0]	n/a	FR1	1	R1193T
1321.816	1.908	1338824	REC_WORD	1.908	n/a	COLD	-999	10	[0, 0, 0]	n/a	FR1	1	R1193T
1323.724	17.561	1340732	REC_WORD	17.561	n/a	HOOK	-999	10	[0, 0, 0]	n/a	FR1	1	R1193T
1341.285	9.159	1358292	REC_END	n/a	n/a	n/a	-999	10	[0, 0, 0]	n/a	FR1	1	R1193T
1350.444	0.5	1367450	TRIAL	n/a	n/a	n/a	-999	11	[0, 0, 0]	n/a	FR1	1	R1193T
1350.944	10.428	1367950	COUNTDOWN_START	n/a	n/a	n/a	-999	11	[0, 0, 0]	n/a	FR1	1	R1193T
1361.372	0.009	1378378	COUNTDOWN_END	n/a	n/a	n/a	-999	11	[0, 0, 0]	n/a	FR1	1	R1193T
1361.381	1.617	1378387	ORIENT	n/a	n/a	n/a	-999	11	[0, 0, 0]	n/a	FR1	1	R1193T
1362.998	2.067	1380004	ORIENT_OFF	n/a	n/a	n/a	-999	11	[0, 0, 0]	n/a	FR1	1	R1193T
1365.065	1.617	1382070	WORD	n/a	wordpools/wordpool_EN.txt	CLIFF	1	11	[0, 0, 0]	n/a	FR1	1	R1193T
1366.682	1.016	1383687	WORD_OFF	n/a	n/a	CLIFF	1	11	[0, 0, 0]	n/a	FR1	1	R1193T
1367.698	1.601	1384703	WORD	n/a	wordpools/wordpool_EN.txt	MOTH	2	11	[0, 0, 0]	n/a	FR1	1	R1193T
1369.299	0.933	1386304	WORD_OFF	n/a	n/a	MOTH	2	11	[0, 0, 0]	n/a	FR1	1	R1193T
1370.232	1.617	1387237	WORD	n/a	wordpools/wordpool_EN.txt	MOLE	3	11	[0, 0, 0]	n/a	FR1	1	R1193T
1371.849	0.934	1388854	WORD_OFF	n/a	n/a	MOLE	3	11	[0, 0, 0]	n/a	FR1	1	R1193T
1372.783	1.617	1389788	WORD	n/a	wordpools/wordpool_EN.txt	TOE	4	11	[0, 0, 0]	n/a	FR1	1	R1193T
1374.4	0.783	1391405	WORD_OFF	n/a	n/a	TOE	4	11	[0, 0, 0]	n/a	FR1	1	R1193T
1375.183	1.617	1392188	WORD	n/a	wordpools/wordpool_EN.txt	COW	5	11	[0, 0, 0]	n/a	FR1	1	R1193T
1376.8	0.867	1393805	WORD_OFF	n/a	n/a	COW	5	11	[0, 0, 0]	n/a	FR1	1	R1193T
1377.667	1.617	1394672	WORD	n/a	wordpools/wordpool_EN.txt	SNAIL	6	11	[0, 0, 0]	n/a	FR1	1	R1193T
1379.284	0.834	1396289	WORD_OFF	n/a	n/a	SNAIL	6	11	[0, 0, 0]	n/a	FR1	1	R1193T
1380.118	1.617	1397123	WORD	n/a	wordpools/wordpool_EN.txt	FACE	7	11	[0, 0, 0]	n/a	FR1	1	R1193T
1381.735	0.966	1398739	WORD_OFF	n/a	n/a	FACE	7	11	[0, 0, 0]	n/a	FR1	1	R1193T
1382.701	1.617	1399705	WORD	n/a	wordpools/wordpool_EN.txt	STONE	8	11	[0, 0, 0]	n/a	FR1	1	R1193T
1384.318	0.884	1401322	WORD_OFF	n/a	n/a	STONE	8	11	[0, 0, 0]	n/a	FR1	1	R1193T
1385.202	1.617	1402206	WORD	n/a	wordpools/wordpool_EN.txt	WORLD	9	11	[0, 0, 0]	n/a	FR1	1	R1193T
1386.819	0.9	1403823	WORD_OFF	n/a	n/a	WORLD	9	11	[0, 0, 0]	n/a	FR1	1	R1193T
1387.719	1.617	1404723	WORD	n/a	wordpools/wordpool_EN.txt	FOX	10	11	[0, 0, 0]	n/a	FR1	1	R1193T
1389.336	0.9	1406340	WORD_OFF	n/a	n/a	FOX	10	11	[0, 0, 0]	n/a	FR1	1	R1193T
1390.236	1.617	1407240	WORD	n/a	wordpools/wordpool_EN.txt	NEST	11	11	[0, 0, 0]	n/a	FR1	1	R1193T
1391.853	0.817	1408857	WORD_OFF	n/a	n/a	NEST	11	11	[0, 0, 0]	n/a	FR1	1	R1193T
1392.67	1.617	1409674	WORD	n/a	wordpools/wordpool_EN.txt	ANT	12	11	[0, 0, 0]	n/a	FR1	1	R1193T
1394.287	0.0	1411291	WORD_OFF	n/a	n/a	ANT	12	11	[0, 0, 0]	n/a	FR1	1	R1193T
1394.287	0.0	1411291	DISTRACT_START	n/a	n/a	n/a	-999	11	[0, 0, 0]	n/a	FR1	1	R1193T
1394.287	0.017	1411291	START	n/a	n/a	n/a	-999	11	[-999, -999, -999]	n/a	FR1	1	R1193T
1394.304	10.635	1411308	PROB	10.635	n/a	n/a	-999	11	[4, 4, 6]	446	FR1	1	R1193T
1404.939	11.442	1421942	PROB	11.442	n/a	n/a	-999	11	[1, 9, 6]	196	FR1	1	R1193T
1416.381	0.01	1433383	STOP	n/a	n/a	n/a	-999	11	[-999, -999, -999]	n/a	FR1	1	R1193T
1416.391	0.517	1433393	DISTRACT_END	n/a	n/a	n/a	-999	11	[0, 0, 0]	n/a	FR1	1	R1193T
1416.908	0.516	1433910	RETRIEVAL_ORIENT	n/a	n/a	n/a	-999	11	[0, 0, 0]	n/a	FR1	1	R1193T
1417.424	4.559	1434426	REC_START	n/a	n/a	n/a	-999	11	[0, 0, 0]	n/a	FR1	1	R1193T
1421.983	2.096	1438985	REC_WORD	2.096	n/a	MOLE	-999	11	[0, 0, 0]	n/a	FR1	1	R1193T
1424.079	16.49	1441081	REC_WORD	16.49	n/a	CLIFF	-999	11	[0, 0, 0]	n/a	FR1	1	R1193T
1440.569	6.867	1457570	REC_WORD	6.867	n/a	TROLL	-999	11	[0, 0, 0]	n/a	FR1	1	R1193T
1447.436	6.328	1464437	REC_END	n/a	n/a	n/a	-999	11	[0, 0, 0]	n/a	FR1	1	R1193T
1453.764	0.5	1470764	TRIAL	n/a	n/a	n/a	-999	12	[0, 0, 0]	n/a	FR1	1	R1193T
1454.264	10.428	1471264	COUNTDOWN_START	n/a	n/a	n/a	-999	12	[0, 0, 0]	n/a	FR1	1	R1193T
1464.692	0.008	1481692	COUNTDOWN_END	n/a	n/a	n/a	-999	12	[0, 0, 0]	n/a	FR1	1	R1193T
1464.7	1.617	1481700	ORIENT	n/a	n/a	n/a	-999	12	[0, 0, 0]	n/a	FR1	1	R1193T
1466.317	2.033	1483316	ORIENT_OFF	n/a	n/a	n/a	-999	12	[0, 0, 0]	n/a	FR1	1	R1193T
1468.35	1.617	1485349	WORD	n/a	wordpools/wordpool_EN.txt	TAIL	1	12	[0, 0, 0]	n/a	FR1	1	R1193T
1469.967	0.917	1486966	WORD_OFF	n/a	n/a	TAIL	1	12	[0, 0, 0]	n/a	FR1	1	R1193T
1470.884	1.616	1487883	WORD	n/a	wordpools/wordpool_EN.txt	BOARD	2	12	[0, 0, 0]	n/a	FR1	1	R1193T
1472.5	0.967	1489499	WORD_OFF	n/a	n/a	BOARD	2	12	[0, 0, 0]	n/a	FR1	1	R1193T
1473.467	1.618	1490466	WORD	n/a	wordpools/wordpool_EN.txt	BREAD	3	12	[0, 0, 0]	n/a	FR1	1	R1193T
1475.085	0.867	1492084	WORD_OFF	n/a	n/a	BREAD	3	12	[0, 0, 0]	n/a	FR1	1	R1193T
1475.952	1.616	1492951	WORD	n/a	wordpools/wordpool_EN.txt	PIG	4	12	[0, 0, 0]	n/a	FR1	1	R1193T
1477.568	0.95	1494567	WORD_OFF	n/a	n/a	PIG	4	12	[0, 0, 0]	n/a	FR1	1	R1193T
1478.518	1.618	1495517	WORD	n/a	wordpools/wordpool_EN.txt	CALF	5	12	[0, 0, 0]	n/a	FR1	1	R1193T
1480.136	1.0	1497135	WORD_OFF	n/a	n/a	CALF	5	12	[0, 0, 0]	n/a	FR1	1	R1193T
1481.136	1.617	1498135	WORD	n/a	wordpools/wordpool_EN.txt	THUMB	6	12	[0, 0, 0]	n/a	FR1	1	R1193T
1482.753	0.95	1499751	WORD_OFF	n/a	n/a	THUMB	6	12	[0, 0, 0]	n/a	FR1	1	R1193T
1483.703	1.617	1500701	WORD	n/a	wordpools/wordpool_EN.txt	JUICE	7	12	[0, 0, 0]	n/a	FR1	1	R1193T
1485.32	0.8	1502318	WORD_OFF	n/a	n/a	JUICE	7	12	[0, 0, 0]	n/a	FR1	1	R1193T
1486.12	1.617	1503118	WORD	n/a	wordpools/wordpool_EN.txt	WOOD	8	12	[0, 0, 0]	n/a	FR1	1	R1193T
1487.737	0.849	1504735	WORD_OFF	n/a	n/a	WOOD	8	12	[0, 0, 0]	n/a	FR1	1	R1193T
1488.586	1.601	1505584	WORD	n/a	wordpools/wordpool_EN.txt	KITE	9	12	[0, 0, 0]	n/a	FR1	1	R1193T
1490.187	0.934	1507185	WORD_OFF	n/a	n/a	KITE	9	12	[0, 0, 0]	n/a	FR1	1	R1193T
1491.121	1.617	1508119	WORD	n/a	wordpools/wordpool_EN.txt	GOAT	10	12	[0, 0, 0]	n/a	FR1	1	R1193T
1492.738	0.816	1509736	WORD_OFF	n/a	n/a	GOAT	10	12	[0, 0, 0]	n/a	FR1	1	R1193T
1493.554	1.618	1510552	WORD	n/a	wordpools/wordpool_EN.txt	JAR	11	12	[0, 0, 0]	n/a	FR1	1	R1193T
1495.172	0.883	1512170	WORD_OFF	n/a	n/a	JAR	11	12	[0, 0, 0]	n/a	FR1	1	R1193T
1496.055	1.617	1513053	WORD	n/a	wordpools/wordpool_EN.txt	BENCH	12	12	[0, 0, 0]	n/a	FR1	1	R1193T
1497.672	0.0	1514670	WORD_OFF	n/a	n/a	BENCH	12	12	[0, 0, 0]	n/a	FR1	1	R1193T
1497.672	0.001	1514670	DISTRACT_START	n/a	n/a	n/a	-999	12	[0, 0, 0]	n/a	FR1	1	R1193T
1497.673	0.016	1514671	START	n/a	n/a	n/a	-999	12	[-999, -999, -999]	n/a	FR1	1	R1193T
1497.689	22.395	1514687	PROB	22.395	n/a	n/a	-999	12	[3, 8, 5]	385	FR1	1	R1193T
1520.084	0.009	1537080	STOP	n/a	n/a	n/a	-999	12	[-999, -999, -999]	n/a	FR1	1	R1193T
1520.093	0.617	1537089	DISTRACT_END	n/a	n/a	n/a	-999	12	[0, 0, 0]	n/a	FR1	1	R1193T
1520.71	0.517	1537706	RETRIEVAL_ORIENT	n/a	n/a	n/a	-999	12	[0, 0, 0]	n/a	FR1	1	R1193T
1521.227	9.242	1538223	REC_START	n/a	n/a	n/a	-999	12	[0, 0, 0]	n/a	FR1	1	R1193T
1530.469	2.457	1547465	REC_WORD	2.457	n/a	WOOD	-999	12	[0, 0, 0]	n/a	FR1	1	R1193T
1532.926	18.313	1549921	REC_WORD	18.313	n/a	KITTY	-999	12	[0, 0, 0]	n/a	FR1	1	R1193T
1551.239	5.276	1568233	REC_END	n/a	n/a	n/a	-999	12	[0, 0, 0]	n/a	FR1	1	R1193T
1556.515	0.5	1573509	TRIAL	n/a	n/a	n/a	-999	13	[0, 0, 0]	n/a	FR1	1	R1193T
1557.015	10.428	1574009	COUNTDOWN_START	n/a	n/a	n/a	-999	13	[0, 0, 0]	n/a	FR1	1	R1193T
1567.443	0.008	1584436	COUNTDOWN_END	n/a	n/a	n/a	-999	13	[0, 0, 0]	n/a	FR1	1	R1193T
1567.451	1.618	1584444	ORIENT	n/a	n/a	n/a	-999	13	[0, 0, 0]	n/a	FR1	1	R1193T
1569.069	1.917	1586062	ORIENT_OFF	n/a	n/a	n/a	-999	13	[0, 0, 0]	n/a	FR1	1	R1193T
1570.986	1.616	1587979	WORD	n/a	wordpools/wordpool_EN.txt	MAP	1	13	[0, 0, 0]	n/a	FR1	1	R1193T
1572.602	0.784	1589595	WORD_OFF	n/a	n/a	MAP	1	13	[0, 0, 0]	n/a	FR1	1	R1193T
1573.386	1.617	1590379	WORD	n/a	wordpools/wordpool_EN.txt	POLE	2	13	[0, 0, 0]	n/a	FR1	1	R1193T
1575.003	0.867	1591996	WORD_OFF	n/a	n/a	POLE	2	13	[0, 0, 0]	n/a	FR1	1	R1193T
1575.87	1.616	1592863	WORD	n/a	wordpools/wordpool_EN.txt	KEY	3	13	[0, 0, 0]	n/a	FR1	1	R1193T
1577.486	0.967	1594479	WORD_OFF	n/a	n/a	KEY	3	13	[0, 0, 0]	n/a	FR1	1	R1193T
1578.453	1.618	1595446	WORD	n/a	wordpools/wordpool_EN.txt	BALL	4	13	[0, 0, 0]	n/a	FR1	1	R1193T
1580.071	0.916	1597064	WORD_OFF	n/a	n/a	BALL	4	13	[0, 0, 0]	n/a	FR1	1	R1193T
1580.987	1.616	1597980	WORD	n/a	wordpools/wordpool_EN.txt	FUR	5	13	[0, 0, 0]	n/a	FR1	1	R1193T
1582.603	1.017	1599596	WORD_OFF	n/a	n/a	FUR	5	13	[0, 0, 0]	n/a	FR1	1	R1193T
1583.62	1.618	1600612	WORD	n/a	wordpools/wordpool_EN.txt	COIN	6	13	[0, 0, 0]	n/a	FR1	1	R1193T
1585.238	0.984	1602230	WORD_OFF	n/a	n/a	COIN	6	13	[0, 0, 0]	n/a	FR1	1	R1193T
1586.222	1.617	1603214	WORD	n/a	wordpools/wordpool_EN.txt	PEA	7	13	[0, 0, 0]	n/a	FR1	1	R1193T
1587.839	0.917	1604831	WORD_OFF	n/a	n/a	PEA	7	13	[0, 0, 0]	n/a	FR1	1	R1193T
1588.756	1.616	1605748	WORD	n/a	wordpools/wordpool_EN.txt	STORM	8	13	[0, 0, 0]	n/a	FR1	1	R1193T
1590.372	0.867	1607364	WORD_OFF	n/a	n/a	STORM	8	13	[0, 0, 0]	n/a	FR1	1	R1193T
1591.239	1.617	1608231	WORD	n/a	wordpools/wordpool_EN.txt	BAT	9	13	[0, 0, 0]	n/a	FR1	1	R1193T
1592.856	0.817	1609848	WORD_OFF	n/a	n/a	BAT	9	13	[0, 0, 0]	n/a	FR1	1	R1193T
1593.673	1.617	1610665	WORD	n/a	wordpools/wordpool_EN.txt	NAIL	10	13	[0, 0, 0]	n/a	FR1	1	R1193T
1595.29	0.784	1612282	WORD_OFF	n/a	n/a	NAIL	10	13	[0, 0, 0]	n/a	FR1	1	R1193T
1596.074	1.617	1613066	WORD	n/a	wordpools/wordpool_EN.txt	SAIL	11	13	[0, 0, 0]	n/a	FR1	1	R1193T
1597.691	0.815	1614683	WORD_OFF	n/a	n/a	SAIL	11	13	[0, 0, 0]	n/a	FR1	1	R1193T
1598.506	1.618	1615498	WORD	n/a	wordpools/wordpool_EN.txt	EAR	12	13	[0, 0, 0]	n/a	FR1	1	R1193T
1600.124	0.0	1617116	WORD_OFF	n/a	n/a	EAR	12	13	[0, 0, 0]	n/a	FR1	1	R1193T
1600.124	0.001	1617116	DISTRACT_START	n/a	n/a	n/a	-999	13	[0, 0, 0]	n/a	FR1	1	R1193T
1600.125	0.016	1617117	START	n/a	n/a	n/a	-999	13	[-999, -999, -999]	n/a	FR1	1	R1193T
1600.141	16.836	1617133	PROB	16.836	n/a	n/a	-999	13	[5, 2, 7]	527	FR1	1	R1193T
1616.977	14.963	1633968	PROB	14.963	n/a	n/a	-999	13	[5, 4, 5]	545	FR1	1	R1193T
1631.94	0.006	1648930	STOP	n/a	n/a	n/a	-999	13	[-999, -999, -999]	n/a	FR1	1	R1193T
1631.946	0.701	1648936	DISTRACT_END	n/a	n/a	n/a	-999	13	[0, 0, 0]	n/a	FR1	1	R1193T
1632.647	0.517	1649637	RETRIEVAL_ORIENT	n/a	n/a	n/a	-999	13	[0, 0, 0]	n/a	FR1	1	R1193T
1633.164	20.91	1650154	REC_START	n/a	n/a	n/a	-999	13	[0, 0, 0]	n/a	FR1	1	R1193T
1654.074	9.102	1671062	REC_WORD	9.102	n/a	SALT	-999	13	[0, 0, 0]	n/a	FR1	1	R1193T
1663.176	7.211	1680164	REC_END	n/a	n/a	n/a	-999	13	[0, 0, 0]	n/a	FR1	1	R1193T
1670.387	0.5	1687374	TRIAL	n/a	n/a	n/a	-999	14	[0, 0, 0]	n/a	FR1	1	R1193T
1670.887	10.428	1687874	COUNTDOWN_START	n/a	n/a	n/a	-999	14	[0, 0, 0]	n/a	FR1	1	R1193T
1681.315	0.007	1698302	COUNTDOWN_END	n/a	n/a	n/a	-999	14	[0, 0, 0]	n/a	FR1	1	R1193T
1681.322	1.617	1698309	ORIENT	n/a	n/a	n/a	-999	14	[0, 0, 0]	n/a	FR1	1	R1193T
1682.939	2.001	1699926	ORIENT_OFF	n/a	n/a	n/a	-999	14	[0, 0, 0]	n/a	FR1	1	R1193T
1684.94	1.616	1701926	WORD	n/a	wordpools/wordpool_EN.txt	CHALK	1	14	[0, 0, 0]	n/a	FR1	1	R1193T
1686.556	0.883	1703542	WORD_OFF	n/a	n/a	CHALK	1	14	[0, 0, 0]	n/a	FR1	1	R1193T
1687.439	1.618	1704425	WORD	n/a	wordpools/wordpool_EN.txt	MOOSE	2	14	[0, 0, 0]	n/a	FR1	1	R1193T
1689.057	0.8	1706043	WORD_OFF	n/a	n/a	MOOSE	2	14	[0, 0, 0]	n/a	FR1	1	R1193T
1689.857	1.616	1706843	WORD	n/a	wordpools/wordpool_EN.txt	OWL	3	14	[0, 0, 0]	n/a	FR1	1	R1193T
1691.473	0.984	1708459	WORD_OFF	n/a	n/a	OWL	3	14	[0, 0, 0]	n/a	FR1	1	R1193T
1692.457	1.618	1709443	WORD	n/a	wordpools/wordpool_EN.txt	DOG	4	14	[0, 0, 0]	n/a	FR1	1	R1193T
1694.075	0.933	1711061	WORD_OFF	n/a	n/a	DOG	4	14	[0, 0, 0]	n/a	FR1	1	R1193T
1695.008	1.616	1711994	WORD	n/a	wordpools/wordpool_EN.txt	PET	5	14	[0, 0, 0]	n/a	FR1	1	R1193T
1696.624	0.784	1713610	WORD_OFF	n/a	n/a	PET	5	14	[0, 0, 0]	n/a	FR1	1	R1193T
1697.408	1.618	1714394	WORD	n/a	wordpools/wordpool_EN.txt	FLEA	6	14	[0, 0, 0]	n/a	FR1	1	R1193T
1699.026	0.95	1716012	WORD_OFF	n/a	n/a	FLEA	6	14	[0, 0, 0]	n/a	FR1	1	R1193T
1699.976	1.616	1716962	WORD	n/a	wordpools/wordpool_EN.txt	PEN	7	14	[0, 0, 0]	n/a	FR1	1	R1193T
1701.592	0.933	1718578	WORD_OFF	n/a	n/a	PEN	7	14	[0, 0, 0]	n/a	FR1	1	R1193T
1702.525	1.618	1719510	WORD	n/a	wordpools/wordpool_EN.txt	ZOO	8	14	[0, 0, 0]	n/a	FR1	1	R1193T
1704.143	0.95	1721128	WORD_OFF	n/a	n/a	ZOO	8	14	[0, 0, 0]	n/a	FR1	1	R1193T
1705.093	1.617	1722078	WORD	n/a	wordpools/wordpool_EN.txt	HEN	9	14	[0, 0, 0]	n/a	FR1	1	R1193T
1706.71	0.984	1723695	WORD_OFF	n/a	n/a	HEN	9	14	[0, 0, 0]	n/a	FR1	1	R1193T
1707.694	1.617	1724679	WORD	n/a	wordpools/wordpool_EN.txt	POOL	10	14	[0, 0, 0]	n/a	FR1	1	R1193T
1709.311	0.9	1726296	WORD_OFF	n/a	n/a	POOL	10	14	[0, 0, 0]	n/a	FR1	1	R1193T
1710.211	1.617	1727196	WORD	n/a	wordpools/wordpool_EN.txt	HAWK	11	14	[0, 0, 0]	n/a	FR1	1	R1193T
1711.828	0.799	1728813	WORD_OFF	n/a	n/a	HAWK	11	14	[0, 0, 0]	n/a	FR1	1	R1193T
1712.627	1.601	1729612	WORD	n/a	wordpools/wordpool_EN.txt	DUCK	12	14	[0, 0, 0]	n/a	FR1	1	R1193T
1714.228	0.0	1731213	DISTRACT_START	n/a	n/a	n/a	-999	14	[0, 0, 0]	n/a	FR1	1	R1193T
1714.228	0.001	1731213	WORD_OFF	n/a	n/a	DUCK	12	14	[0, 0, 0]	n/a	FR1	1	R1193T
1714.229	0.016	1731214	START	n/a	n/a	n/a	-999	14	[-999, -999, -999]	n/a	FR1	1	R1193T
1714.245	7.735	1731230	PROB	7.735	n/a	n/a	-999	14	[3, 3, 3]	333	FR1	1	R1193T
1721.98	18.456	1738964	PROB	18.456	n/a	n/a	-999	14	[4, 2, 9]	429	FR1	1	R1193T
1740.436	0.013	1757419	STOP	n/a	n/a	n/a	-999	14	[-999, -999, -999]	n/a	FR1	1	R1193T
1740.449	0.551	1757432	DISTRACT_END	n/a	n/a	n/a	-999	14	[0, 0, 0]	n/a	FR1	1	R1193T
1741.0	0.516	1757983	RETRIEVAL_ORIENT	n/a	n/a	n/a	-999	14	[0, 0, 0]	n/a	FR1	1	R1193T
1741.516	3.211	1758499	REC_START	n/a	n/a	n/a	-999	14	[0, 0, 0]	n/a	FR1	1	R1193T
1744.727	1.778	1761710	REC_WORD	1.778	n/a	CAT	-999	14	[0, 0, 0]	n/a	FR1	1	R1193T
1746.505	2.408	1763488	REC_WORD	2.408	n/a	MOUSE	-999	14	[0, 0, 0]	n/a	FR1	1	R1193T
1748.913	2.616	1765896	REC_WORD	2.616	n/a	DOG	-999	14	[0, 0, 0]	n/a	FR1	1	R1193T
1751.529	2.547	1768512	REC_WORD	2.547	n/a	PET	-999	14	[0, 0, 0]	n/a	FR1	1	R1193T
1754.076	17.452	1771058	REC_WORD	17.452	n/a	ZOO	-999	14	[0, 0, 0]	n/a	FR1	1	R1193T
1771.528	5.578	1788509	REC_END	n/a	n/a	n/a	-999	14	[0, 0, 0]	n/a	FR1	1	R1193T
1777.106	0.5	1794087	TRIAL	n/a	n/a	n/a	-999	15	[0, 0, 0]	n/a	FR1	1	R1193T
1777.606	10.428	1794587	COUNTDOWN_START	n/a	n/a	n/a	-999	15	[0, 0, 0]	n/a	FR1	1	R1193T
1788.034	0.008	1805014	COUNTDOWN_END	n/a	n/a	n/a	-999	15	[0, 0, 0]	n/a	FR1	1	R1193T
1788.042	1.617	1805022	ORIENT	n/a	n/a	n/a	-999	15	[0, 0, 0]	n/a	FR1	1	R1193T
1789.659	1.849	1806639	ORIENT_OFF	n/a	n/a	n/a	-999	15	[0, 0, 0]	n/a	FR1	1	R1193T
1791.508	1.618	1808488	WORD	n/a	wordpools/wordpool_EN.txt	BOOT	1	15	[0, 0, 0]	n/a	FR1	1	R1193T
1793.126	0.984	1810106	WORD_OFF	n/a	n/a	BOOT	1	15	[0, 0, 0]	n/a	FR1	1	R1193T
1794.11	1.616	1811090	WORD	n/a	wordpools/wordpool_EN.txt	TOOTH	2	15	[0, 0, 0]	n/a	FR1	1	R1193T
1795.726	0.883	1812706	WORD_OFF	n/a	n/a	TOOTH	2	15	[0, 0, 0]	n/a	FR1	1	R1193T
1796.609	1.618	1813589	WORD	n/a	wordpools/wordpool_EN.txt	CROWN	3	15	[0, 0, 0]	n/a	FR1	1	R1193T
1798.227	0.934	1815207	WORD_OFF	n/a	n/a	CROWN	3	15	[0, 0, 0]	n/a	FR1	1	R1193T
1799.161	1.616	1816141	WORD	n/a	wordpools/wordpool_EN.txt	CROW	4	15	[0, 0, 0]	n/a	FR1	1	R1193T
1800.777	0.951	1817757	WORD_OFF	n/a	n/a	CROW	4	15	[0, 0, 0]	n/a	FR1	1	R1193T
1801.728	1.617	1818708	WORD	n/a	wordpools/wordpool_EN.txt	HOSE	5	15	[0, 0, 0]	n/a	FR1	1	R1193T
1803.345	0.783	1820324	WORD_OFF	n/a	n/a	HOSE	5	15	[0, 0, 0]	n/a	FR1	1	R1193T
1804.128	1.617	1821107	WORD	n/a	wordpools/wordpool_EN.txt	SHARK	6	15	[0, 0, 0]	n/a	FR1	1	R1193T
1805.745	0.783	1822724	WORD_OFF	n/a	n/a	SHARK	6	15	[0, 0, 0]	n/a	FR1	1	R1193T
1806.528	1.618	1823507	WORD	n/a	wordpools/wordpool_EN.txt	PRINCE	7	15	[0, 0, 0]	n/a	FR1	1	R1193T
1808.146	0.916	1825125	WORD_OFF	n/a	n/a	PRINCE	7	15	[0, 0, 0]	n/a	FR1	1	R1193T
1809.062	1.617	1826041	WORD	n/a	wordpools/wordpool_EN.txt	SPRING	8	15	[0, 0, 0]	n/a	FR1	1	R1193T
1810.679	0.799	1827658	WORD_OFF	n/a	n/a	SPRING	8	15	[0, 0, 0]	n/a	FR1	1	R1193T
1811.478	1.602	1828457	WORD	n/a	wordpools/wordpool_EN.txt	SLEEVE	9	15	[0, 0, 0]	n/a	FR1	1	R1193T
1813.08	1.0	1830059	WORD_OFF	n/a	n/a	SLEEVE	9	15	[0, 0, 0]	n/a	FR1	1	R1193T
1814.08	1.617	1831059	WORD	n/a	wordpools/wordpool_EN.txt	TREE	10	15	[0, 0, 0]	n/a	FR1	1	R1193T
1815.697	0.849	1832676	WORD_OFF	n/a	n/a	TREE	10	15	[0, 0, 0]	n/a	FR1	1	R1193T
1816.546	1.618	1833525	WORD	n/a	wordpools/wordpool_EN.txt	BLOOM	11	15	[0, 0, 0]	n/a	FR1	1	R1193T
1818.164	0.983	1835143	WORD_OFF	n/a	n/a	BLOOM	11	15	[0, 0, 0]	n/a	FR1	1	R1193T
1819.147	1.617	1836126	WORD	n/a	wordpools/wordpool_EN.txt	RAKE	12	15	[0, 0, 0]	n/a	FR1	1	R1193T
1820.764	0.0	1837742	WORD_OFF	n/a	n/a	RAKE	12	15	[0, 0, 0]	n/a	FR1	1	R1193T
1820.764	0.001	1837742	DISTRACT_START	n/a	n/a	n/a	-999	15	[0, 0, 0]	n/a	FR1	1	R1193T
1820.765	0.016	1837743	START	n/a	n/a	n/a	-999	15	[-999, -999, -999]	n/a	FR1	1	R1193T
1820.781	28.446	1837759	PROB	28.446	n/a	n/a	-999	15	[1, 6, 9]	169	FR1	1	R1193T
1849.227	0.009	1866204	STOP	n/a	n/a	n/a	-999	15	[-999, -999, -999]	n/a	FR1	1	R1193T
1849.236	0.55	1866213	DISTRACT_END	n/a	n/a	n/a	-999	15	[0, 0, 0]	n/a	FR1	1	R1193T
1849.786	0.518	1866763	RETRIEVAL_ORIENT	n/a	n/a	n/a	-999	15	[0, 0, 0]	n/a	FR1	1	R1193T
1850.304	25.233	1867281	REC_START	n/a	n/a	n/a	-999	15	[0, 0, 0]	n/a	FR1	1	R1193T
1875.537	4.78	1892512	REC_WORD	4.78	n/a	BOOT	-999	15	[0, 0, 0]	n/a	FR1	1	R1193T
1880.317	7.876	1897292	REC_END	n/a	n/a	n/a	-999	15	[0, 0, 0]	n/a	FR1	1	R1193T
1888.193	0.5	1905167	TRIAL	n/a	n/a	n/a	-999	16	[0, 0, 0]	n/a	FR1	1	R1193T
1888.693	10.428	1905667	COUNTDOWN_START	n/a	n/a	n/a	-999	16	[0, 0, 0]	n/a	FR1	1	R1193T
1899.121	0.008	1916095	COUNTDOWN_END	n/a	n/a	n/a	-999	16	[0, 0, 0]	n/a	FR1	1	R1193T
1899.129	1.617	1916103	ORIENT	n/a	n/a	n/a	-999	16	[0, 0, 0]	n/a	FR1	1	R1193T
1900.746	2.067	1917720	ORIENT_OFF	n/a	n/a	n/a	-999	16	[0, 0, 0]	n/a	FR1	1	R1193T
1902.813	1.616	1919787	WORD	n/a	wordpools/wordpool_EN.txt	WOLF	1	16	[0, 0, 0]	n/a	FR1	1	R1193T
1904.429	0.784	1921403	WORD_OFF	n/a	n/a	WOLF	1	16	[0, 0, 0]	n/a	FR1	1	R1193T
1905.213	1.617	1922186	WORD	n/a	wordpools/wordpool_EN.txt	GEESE	2	16	[0, 0, 0]	n/a	FR1	1	R1193T
1906.83	0.933	1923803	WORD_OFF	n/a	n/a	GEESE	2	16	[0, 0, 0]	n/a	FR1	1	R1193T
1907.763	1.601	1924736	WORD	n/a	wordpools/wordpool_EN.txt	BEE	3	16	[0, 0, 0]	n/a	FR1	1	R1193T
1909.364	0.8	1926337	WORD_OFF	n/a	n/a	BEE	3	16	[0, 0, 0]	n/a	FR1	1	R1193T
1910.164	1.617	1927137	WORD	n/a	wordpools/wordpool_EN.txt	TOAD	4	16	[0, 0, 0]	n/a	FR1	1	R1193T
1911.781	0.933	1928754	WORD_OFF	n/a	n/a	TOAD	4	16	[0, 0, 0]	n/a	FR1	1	R1193T
1912.714	1.617	1929687	WORD	n/a	wordpools/wordpool_EN.txt	SOAP	5	16	[0, 0, 0]	n/a	FR1	1	R1193T
1914.331	0.817	1931304	WORD_OFF	n/a	n/a	SOAP	5	16	[0, 0, 0]	n/a	FR1	1	R1193T
1915.148	1.617	1932121	WORD	n/a	wordpools/wordpool_EN.txt	MOUSE	6	16	[0, 0, 0]	n/a	FR1	1	R1193T
1916.765	0.866	1933738	WORD_OFF	n/a	n/a	MOUSE	6	16	[0, 0, 0]	n/a	FR1	1	R1193T
1917.631	1.618	1934604	WORD	n/a	wordpools/wordpool_EN.txt	CHIEF	7	16	[0, 0, 0]	n/a	FR1	1	R1193T
1919.249	0.984	1936222	WORD_OFF	n/a	n/a	CHIEF	7	16	[0, 0, 0]	n/a	FR1	1	R1193T
1920.233	1.617	1937206	WORD	n/a	wordpools/wordpool_EN.txt	BIRD	8	16	[0, 0, 0]	n/a	FR1	1	R1193T
1921.85	0.816	1938822	WORD_OFF	n/a	n/a	BIRD	8	16	[0, 0, 0]	n/a	FR1	1	R1193T
1922.666	1.617	1939638	WORD	n/a	wordpools/wordpool_EN.txt	WEED	9	16	[0, 0, 0]	n/a	FR1	1	R1193T
1924.283	0.85	1941255	WORD_OFF	n/a	n/a	WEED	9	16	[0, 0, 0]	n/a	FR1	1	R1193T
1925.133	1.617	1942105	WORD	n/a	wordpools/wordpool_EN.txt	SNAKE	10	16	[0, 0, 0]	n/a	FR1	1	R1193T
1926.75	0.816	1943722	WORD_OFF	n/a	n/a	SNAKE	10	16	[0, 0, 0]	n/a	FR1	1	R1193T
1927.566	1.618	1944538	WORD	n/a	wordpools/wordpool_EN.txt	BOY	11	16	[0, 0, 0]	n/a	FR1	1	R1193T
1929.184	0.984	1946156	WORD_OFF	n/a	n/a	BOY	11	16	[0, 0, 0]	n/a	FR1	1	R1193T
1930.168	1.617	1947140	WORD	n/a	wordpools/wordpool_EN.txt	MILK	12	16	[0, 0, 0]	n/a	FR1	1	R1193T
1931.785	0.0	1948757	WORD_OFF	n/a	n/a	MILK	12	16	[0, 0, 0]	n/a	FR1	1	R1193T
1931.785	0.0	1948757	DISTRACT_START	n/a	n/a	n/a	-999	16	[0, 0, 0]	n/a	FR1	1	R1193T
1931.785	0.016	1948757	START	n/a	n/a	n/a	-999	16	[-999, -999, -999]	n/a	FR1	1	R1193T
1931.801	14.785	1948773	PROB	14.785	n/a	n/a	-999	16	[3, 5, 8]	358	FR1	1	R1193T
1946.586	14.402	1963557	PROB	14.402	n/a	n/a	-999	16	[1, 7, 9]	179	FR1	1	R1193T
1960.988	0.019	1977958	STOP	n/a	n/a	n/a	-999	16	[-999, -999, -999]	n/a	FR1	1	R1193T
1961.007	0.515	1977977	DISTRACT_END	n/a	n/a	n/a	-999	16	[0, 0, 0]	n/a	FR1	1	R1193T
1961.522	0.519	1978492	RETRIEVAL_ORIENT	n/a	n/a	n/a	-999	16	[0, 0, 0]	n/a	FR1	1	R1193T
1962.041	4.645	1979011	REC_START	n/a	n/a	n/a	-999	16	[0, 0, 0]	n/a	FR1	1	R1193T
1966.686	22.499	1983656	REC_WORD	22.499	n/a	WEED	-999	16	[0, 0, 0]	n/a	FR1	1	R1193T
1989.185	2.867	2006154	REC_WORD	2.867	n/a	BRUSH	-999	16	[0, 0, 0]	n/a	FR1	1	R1193T
1992.052	6.978	2009020	REC_END	n/a	n/a	n/a	-999	16	[0, 0, 0]	n/a	FR1	1	R1193T
1999.03	0.5	2015998	TRIAL	n/a	n/a	n/a	-999	17	[0, 0, 0]	n/a	FR1	1	R1193T
1999.53	10.428	2016498	COUNTDOWN_START	n/a	n/a	n/a	-999	17	[0, 0, 0]	n/a	FR1	1	R1193T
2009.958	0.008	2026925	COUNTDOWN_END	n/a	n/a	n/a	-999	17	[0, 0, 0]	n/a	FR1	1	R1193T
2009.966	1.615	2026933	ORIENT	n/a	n/a	n/a	-999	17	[0, 0, 0]	n/a	FR1	1	R1193T
2011.581	2.302	2028548	ORIENT_OFF	n/a	n/a	n/a	-999	17	[0, 0, 0]	n/a	FR1	1	R1193T
2013.883	1.616	2030850	WORD	n/a	wordpools/wordpool_EN.txt	MAZE	1	17	[0, 0, 0]	n/a	FR1	1	R1193T
2015.499	0.851	2032466	WORD_OFF	n/a	n/a	MAZE	1	17	[0, 0, 0]	n/a	FR1	1	R1193T
2016.35	1.617	2033317	WORD	n/a	wordpools/wordpool_EN.txt	HAT	2	17	[0, 0, 0]	n/a	FR1	1	R1193T
2017.967	0.817	2034934	WORD_OFF	n/a	n/a	HAT	2	17	[0, 0, 0]	n/a	FR1	1	R1193T
2018.784	1.617	2035751	WORD	n/a	wordpools/wordpool_EN.txt	ROAD	3	17	[0, 0, 0]	n/a	FR1	1	R1193T
2020.401	0.883	2037368	WORD_OFF	n/a	n/a	ROAD	3	17	[0, 0, 0]	n/a	FR1	1	R1193T
2021.284	1.617	2038251	WORD	n/a	wordpools/wordpool_EN.txt	FENCE	4	17	[0, 0, 0]	n/a	FR1	1	R1193T
2022.901	0.917	2039868	WORD_OFF	n/a	n/a	FENCE	4	17	[0, 0, 0]	n/a	FR1	1	R1193T
2023.818	1.616	2040784	WORD	n/a	wordpools/wordpool_EN.txt	SWORD	5	17	[0, 0, 0]	n/a	FR1	1	R1193T
2025.434	0.934	2042400	WORD_OFF	n/a	n/a	SWORD	5	17	[0, 0, 0]	n/a	FR1	1	R1193T
2026.368	1.617	2043334	WORD	n/a	wordpools/wordpool_EN.txt	GUARD	6	17	[0, 0, 0]	n/a	FR1	1	R1193T
2027.985	0.951	2044951	WORD_OFF	n/a	n/a	GUARD	6	17	[0, 0, 0]	n/a	FR1	1	R1193T
2028.936	1.616	2045902	WORD	n/a	wordpools/wordpool_EN.txt	HORN	7	17	[0, 0, 0]	n/a	FR1	1	R1193T
2030.552	1.0	2047518	WORD_OFF	n/a	n/a	HORN	7	17	[0, 0, 0]	n/a	FR1	1	R1193T
2031.552	1.618	2048518	WORD	n/a	wordpools/wordpool_EN.txt	HILL	8	17	[0, 0, 0]	n/a	FR1	1	R1193T
2033.17	0.783	2050136	WORD_OFF	n/a	n/a	HILL	8	17	[0, 0, 0]	n/a	FR1	1	R1193T
2033.953	1.616	2050919	WORD	n/a	wordpools/wordpool_EN.txt	NOSE	9	17	[0, 0, 0]	n/a	FR1	1	R1193T
2035.569	0.801	2052535	WORD_OFF	n/a	n/a	NOSE	9	17	[0, 0, 0]	n/a	FR1	1	R1193T
2036.37	1.617	2053336	WORD	n/a	wordpools/wordpool_EN.txt	VEST	10	17	[0, 0, 0]	n/a	FR1	1	R1193T
2037.987	0.967	2054953	WORD_OFF	n/a	n/a	VEST	10	17	[0, 0, 0]	n/a	FR1	1	R1193T
2038.954	1.616	2055920	WORD	n/a	wordpools/wordpool_EN.txt	FLAME	11	17	[0, 0, 0]	n/a	FR1	1	R1193T
2040.57	0.785	2057535	WORD_OFF	n/a	n/a	FLAME	11	17	[0, 0, 0]	n/a	FR1	1	R1193T
2041.355	1.617	2058320	WORD	n/a	wordpools/wordpool_EN.txt	RIB	12	17	[0, 0, 0]	n/a	FR1	1	R1193T
2042.972	0.0	2059937	WORD_OFF	n/a	n/a	RIB	12	17	[0, 0, 0]	n/a	FR1	1	R1193T
2042.972	0.0	2059937	DISTRACT_START	n/a	n/a	n/a	-999	17	[0, 0, 0]	n/a	FR1	1	R1193T
2042.972	0.016	2059937	START	n/a	n/a	n/a	-999	17	[-999, -999, -999]	n/a	FR1	1	R1193T
2042.988	17.187	2059953	PROB	17.187	n/a	n/a	-999	17	[7, 3, 5]	735	FR1	1	R1193T
2060.175	20.765	2077139	PROB	20.765	n/a	n/a	-999	17	[6, 8, 8]	688	FR1	1	R1193T
2080.94	0.022	2097903	STOP	n/a	n/a	n/a	-999	17	[-999, -999, -999]	n/a	FR1	1	R1193T
2080.962	0.532	2097925	DISTRACT_END	n/a	n/a	n/a	-999	17	[0, 0, 0]	n/a	FR1	1	R1193T
2081.494	0.519	2098457	RETRIEVAL_ORIENT	n/a	n/a	n/a	-999	17	[0, 0, 0]	n/a	FR1	1	R1193T
2082.013	1.278	2098976	REC_START	n/a	n/a	n/a	-999	17	[0, 0, 0]	n/a	FR1	1	R1193T
2083.291	2.58	2100254	REC_WORD	2.58	n/a	MAZE	-999	17	[0, 0, 0]	n/a	FR1	1	R1193T
2085.871	1.055	2102834	REC_WORD	1.055	n/a	RAT	-999	17	[0, 0, 0]	n/a	FR1	1	R1193T
2086.926	25.1	2103889	REC_WORD	25.1	n/a	ROAD	-999	17	[0, 0, 0]	n/a	FR1	1	R1193T
2112.026	10.476	2128987	REC_END	n/a	n/a	n/a	-999	17	[0, 0, 0]	n/a	FR1	1	R1193T
2122.502	0.5	2139463	TRIAL	n/a	n/a	n/a	-999	18	[0, 0, 0]	n/a	FR1	1	R1193T
2123.002	10.428	2139963	COUNTDOWN_START	n/a	n/a	n/a	-999	18	[0, 0, 0]	n/a	FR1	1	R1193T
2133.43	0.007	2150390	COUNTDOWN_END	n/a	n/a	n/a	-999	18	[0, 0, 0]	n/a	FR1	1	R1193T
2133.437	1.618	2150397	ORIENT	n/a	n/a	n/a	-999	18	[0, 0, 0]	n/a	FR1	1	R1193T
2135.055	2.05	2152015	ORIENT_OFF	n/a	n/a	n/a	-999	18	[0, 0, 0]	n/a	FR1	1	R1193T
2137.105	1.617	2154065	WORD	n/a	wordpools/wordpool_EN.txt	SWAMP	1	18	[0, 0, 0]	n/a	FR1	1	R1193T
2138.722	0.984	2155682	WORD_OFF	n/a	n/a	SWAMP	1	18	[0, 0, 0]	n/a	FR1	1	R1193T
2139.706	1.617	2156666	WORD	n/a	wordpools/wordpool_EN.txt	GATE	2	18	[0, 0, 0]	n/a	FR1	1	R1193T
2141.323	1.0	2158283	WORD_OFF	n/a	n/a	GATE	2	18	[0, 0, 0]	n/a	FR1	1	R1193T
2142.323	1.617	2159282	WORD	n/a	wordpools/wordpool_EN.txt	PIT	3	18	[0, 0, 0]	n/a	FR1	1	R1193T
2143.94	0.9	2160899	WORD_OFF	n/a	n/a	PIT	3	18	[0, 0, 0]	n/a	FR1	1	R1193T
2144.84	1.616	2161799	WORD	n/a	wordpools/wordpool_EN.txt	SINK	4	18	[0, 0, 0]	n/a	FR1	1	R1193T
2146.456	0.901	2163415	WORD_OFF	n/a	n/a	SINK	4	18	[0, 0, 0]	n/a	FR1	1	R1193T
2147.357	1.617	2164316	WORD	n/a	wordpools/wordpool_EN.txt	STOVE	5	18	[0, 0, 0]	n/a	FR1	1	R1193T
2148.974	0.884	2165933	WORD_OFF	n/a	n/a	STOVE	5	18	[0, 0, 0]	n/a	FR1	1	R1193T
2149.858	1.616	2166817	WORD	n/a	wordpools/wordpool_EN.txt	ELF	6	18	[0, 0, 0]	n/a	FR1	1	R1193T
2151.474	0.901	2168433	WORD_OFF	n/a	n/a	ELF	6	18	[0, 0, 0]	n/a	FR1	1	R1193T
2152.375	1.617	2169334	WORD	n/a	wordpools/wordpool_EN.txt	TENT	7	18	[0, 0, 0]	n/a	FR1	1	R1193T
2153.992	0.967	2170951	WORD_OFF	n/a	n/a	TENT	7	18	[0, 0, 0]	n/a	FR1	1	R1193T
2154.959	1.616	2171918	WORD	n/a	wordpools/wordpool_EN.txt	LIP	8	18	[0, 0, 0]	n/a	FR1	1	R1193T
2156.575	0.95	2173534	WORD_OFF	n/a	n/a	LIP	8	18	[0, 0, 0]	n/a	FR1	1	R1193T
2157.525	1.618	2174484	WORD	n/a	wordpools/wordpool_EN.txt	BROOM	9	18	[0, 0, 0]	n/a	FR1	1	R1193T
2159.143	0.833	2176101	WORD_OFF	n/a	n/a	BROOM	9	18	[0, 0, 0]	n/a	FR1	1	R1193T
2159.976	1.616	2176934	WORD	n/a	wordpools/wordpool_EN.txt	MOUTH	10	18	[0, 0, 0]	n/a	FR1	1	R1193T
2161.592	0.917	2178550	WORD_OFF	n/a	n/a	MOUTH	10	18	[0, 0, 0]	n/a	FR1	1	R1193T
2162.509	1.601	2179467	WORD	n/a	wordpools/wordpool_EN.txt	DOLL	11	18	[0, 0, 0]	n/a	FR1	1	R1193T
2164.11	0.817	2181068	WORD_OFF	n/a	n/a	DOLL	11	18	[0, 0, 0]	n/a	FR1	1	R1193T
2164.927	1.616	2181885	WORD	n/a	wordpools/wordpool_EN.txt	MAT	12	18	[0, 0, 0]	n/a	FR1	1	R1193T
2166.543	0.0	2183501	WORD_OFF	n/a	n/a	MAT	12	18	[0, 0, 0]	n/a	FR1	1	R1193T
2166.543	0.001	2183501	DISTRACT_START	n/a	n/a	n/a	-999	18	[0, 0, 0]	n/a	FR1	1	R1193T
2166.544	0.016	2183502	START	n/a	n/a	n/a	-999	18	[-999, -999, -999]	n/a	FR1	1	R1193T
2166.56	22.837	2183518	PROB	22.837	n/a	n/a	-999	18	[2, 8, 4]	284	FR1	1	R1193T
2189.397	0.018	2206354	STOP	n/a	n/a	n/a	-999	18	[-999, -999, -999]	n/a	FR1	1	R1193T
2189.415	0.567	2206372	DISTRACT_END	n/a	n/a	n/a	-999	18	[0, 0, 0]	n/a	FR1	1	R1193T
2189.982	0.516	2206939	RETRIEVAL_ORIENT	n/a	n/a	n/a	-999	18	[0, 0, 0]	n/a	FR1	1	R1193T
2190.498	2.843	2207455	REC_START	n/a	n/a	n/a	-999	18	[0, 0, 0]	n/a	FR1	1	R1193T
2193.341	27.168	2210297	REC_WORD	27.168	n/a	GATE	-999	18	[0, 0, 0]	n/a	FR1	1	R1193T
2220.509	6.945	2237464	REC_END	n/a	n/a	n/a	-999	18	[0, 0, 0]	n/a	FR1	1	R1193T
2227.454	0.5	2244408	TRIAL	n/a	n/a	n/a	-999	19	[0, 0, 0]	n/a	FR1	1	R1193T
2227.954	10.428	2244908	COUNTDOWN_START	n/a	n/a	n/a	-999	19	[0, 0, 0]	n/a	FR1	1	R1193T
2238.382	0.008	2255336	COUNTDOWN_END	n/a	n/a	n/a	-999	19	[0, 0, 0]	n/a	FR1	1	R1193T
2238.39	1.617	2255344	ORIENT	n/a	n/a	n/a	-999	19	[0, 0, 0]	n/a	FR1	1	R1193T
2240.007	2.101	2256961	ORIENT_OFF	n/a	n/a	n/a	-999	19	[0, 0, 0]	n/a	FR1	1	R1193T
2242.108	1.617	2259062	WORD	n/a	wordpools/wordpool_EN.txt	GRAPE	1	19	[0, 0, 0]	n/a	FR1	1	R1193T
2243.725	1.0	2260678	WORD_OFF	n/a	n/a	GRAPE	1	19	[0, 0, 0]	n/a	FR1	1	R1193T
2244.725	1.617	2261678	WORD	n/a	wordpools/wordpool_EN.txt	STEAK	2	19	[0, 0, 0]	n/a	FR1	1	R1193T
2246.342	0.883	2263295	WORD_OFF	n/a	n/a	STEAK	2	19	[0, 0, 0]	n/a	FR1	1	R1193T
2247.225	1.617	2264178	WORD	n/a	wordpools/wordpool_EN.txt	VASE	3	19	[0, 0, 0]	n/a	FR1	1	R1193T
2248.842	0.867	2265795	WORD_OFF	n/a	n/a	VASE	3	19	[0, 0, 0]	n/a	FR1	1	R1193T
2249.709	1.617	2266662	WORD	n/a	wordpools/wordpool_EN.txt	CLOTH	4	19	[0, 0, 0]	n/a	FR1	1	R1193T
2251.326	0.934	2268279	WORD_OFF	n/a	n/a	CLOTH	4	19	[0, 0, 0]	n/a	FR1	1	R1193T
2252.26	1.617	2269213	WORD	n/a	wordpools/wordpool_EN.txt	HOLE	5	19	[0, 0, 0]	n/a	FR1	1	R1193T
2253.877	0.866	2270830	WORD_OFF	n/a	n/a	HOLE	5	19	[0, 0, 0]	n/a	FR1	1	R1193T
2254.743	1.617	2271696	WORD	n/a	wordpools/wordpool_EN.txt	DART	6	19	[0, 0, 0]	n/a	FR1	1	R1193T
2256.36	0.767	2273313	WORD_OFF	n/a	n/a	DART	6	19	[0, 0, 0]	n/a	FR1	1	R1193T
2257.127	1.617	2274080	WORD	n/a	wordpools/wordpool_EN.txt	PASTE	7	19	[0, 0, 0]	n/a	FR1	1	R1193T
2258.744	0.967	2275697	WORD_OFF	n/a	n/a	PASTE	7	19	[0, 0, 0]	n/a	FR1	1	R1193T
2259.711	1.617	2276664	WORD	n/a	wordpools/wordpool_EN.txt	FRUIT	8	19	[0, 0, 0]	n/a	FR1	1	R1193T
2261.328	0.917	2278280	WORD_OFF	n/a	n/a	FRUIT	8	19	[0, 0, 0]	n/a	FR1	1	R1193T
2262.245	1.617	2279197	WORD	n/a	wordpools/wordpool_EN.txt	FAN	9	19	[0, 0, 0]	n/a	FR1	1	R1193T
2263.862	0.783	2280814	WORD_OFF	n/a	n/a	FAN	9	19	[0, 0, 0]	n/a	FR1	1	R1193T
2264.645	1.617	2281597	WORD	n/a	wordpools/wordpool_EN.txt	BATH	10	19	[0, 0, 0]	n/a	FR1	1	R1193T
2266.262	0.767	2283214	WORD_OFF	n/a	n/a	BATH	10	19	[0, 0, 0]	n/a	FR1	1	R1193T
2267.029	1.617	2283981	WORD	n/a	wordpools/wordpool_EN.txt	ROOT	11	19	[0, 0, 0]	n/a	FR1	1	R1193T
2268.646	0.816	2285598	WORD_OFF	n/a	n/a	ROOT	11	19	[0, 0, 0]	n/a	FR1	1	R1193T
2269.462	1.618	2286414	WORD	n/a	wordpools/wordpool_EN.txt	VINE	12	19	[0, 0, 0]	n/a	FR1	1	R1193T
2271.08	0.0	2288032	WORD_OFF	n/a	n/a	VINE	12	19	[0, 0, 0]	n/a	FR1	1	R1193T
2271.08	0.0	2288032	DISTRACT_START	n/a	n/a	n/a	-999	19	[0, 0, 0]	n/a	FR1	1	R1193T
2271.08	0.016	2288032	START	n/a	n/a	n/a	-999	19	[-999, -999, -999]	n/a	FR1	1	R1193T
2271.096	27.483	2288048	PROB	27.483	n/a	n/a	-999	19	[7, 4, 8]	748	FR1	1	R1193T
2298.579	0.021	2315529	STOP	n/a	n/a	n/a	-999	19	[-999, -999, -999]	n/a	FR1	1	R1193T
2298.6	0.568	2315550	DISTRACT_END	n/a	n/a	n/a	-999	19	[0, 0, 0]	n/a	FR1	1	R1193T
2299.168	0.518	2316118	RETRIEVAL_ORIENT	n/a	n/a	n/a	-999	19	[0, 0, 0]	n/a	FR1	1	R1193T
2299.686	30.0	2316636	REC_START	n/a	n/a	n/a	-999	19	[0, 0, 0]	n/a	FR1	1	R1193T
2329.686	0.013	2346634	REC_WORD_VV	0.013	n/a	<>	-999	19	[0, 0, 0]	n/a	FR1	1	R1193T
2329.699	7.725	2346647	REC_END	n/a	n/a	n/a	-999	19	[0, 0, 0]	n/a	FR1	1	R1193T
2337.424	0.5	2354372	TRIAL	n/a	n/a	n/a	-999	20	[0, 0, 0]	n/a	FR1	1	R1193T
2337.924	10.428	2354872	COUNTDOWN_START	n/a	n/a	n/a	-999	20	[0, 0, 0]	n/a	FR1	1	R1193T
2348.352	0.008	2365299	COUNTDOWN_END	n/a	n/a	n/a	-999	20	[0, 0, 0]	n/a	FR1	1	R1193T
2348.36	1.617	2365307	ORIENT	n/a	n/a	n/a	-999	20	[0, 0, 0]	n/a	FR1	1	R1193T
2349.977	2.034	2366924	ORIENT_OFF	n/a	n/a	n/a	-999	20	[0, 0, 0]	n/a	FR1	1	R1193T
2352.011	1.616	2368958	WORD	n/a	wordpools/wordpool_EN.txt	PLATE	1	20	[0, 0, 0]	n/a	FR1	1	R1193T
2353.627	0.768	2370574	WORD_OFF	n/a	n/a	PLATE	1	20	[0, 0, 0]	n/a	FR1	1	R1193T
2354.395	1.617	2371342	WORD	n/a	wordpools/wordpool_EN.txt	LEG	2	20	[0, 0, 0]	n/a	FR1	1	R1193T
2356.012	0.9	2372959	WORD_OFF	n/a	n/a	LEG	2	20	[0, 0, 0]	n/a	FR1	1	R1193T
2356.912	1.616	2373859	WORD	n/a	wordpools/wordpool_EN.txt	COUCH	3	20	[0, 0, 0]	n/a	FR1	1	R1193T
2358.528	0.868	2375475	WORD_OFF	n/a	n/a	COUCH	3	20	[0, 0, 0]	n/a	FR1	1	R1193T
2359.396	1.617	2376343	WORD	n/a	wordpools/wordpool_EN.txt	CUP	4	20	[0, 0, 0]	n/a	FR1	1	R1193T
2361.013	0.917	2377960	WORD_OFF	n/a	n/a	CUP	4	20	[0, 0, 0]	n/a	FR1	1	R1193T
2361.93	1.616	2378876	WORD	n/a	wordpools/wordpool_EN.txt	PURSE	5	20	[0, 0, 0]	n/a	FR1	1	R1193T
2363.546	0.784	2380492	WORD_OFF	n/a	n/a	PURSE	5	20	[0, 0, 0]	n/a	FR1	1	R1193T
2364.33	1.617	2381276	WORD	n/a	wordpools/wordpool_EN.txt	STRING	6	20	[0, 0, 0]	n/a	FR1	1	R1193T
2365.947	1.017	2382893	WORD_OFF	n/a	n/a	STRING	6	20	[0, 0, 0]	n/a	FR1	1	R1193T
2366.964	1.616	2383910	WORD	n/a	wordpools/wordpool_EN.txt	FORK	7	20	[0, 0, 0]	n/a	FR1	1	R1193T
2368.58	0.967	2385526	WORD_OFF	n/a	n/a	FORK	7	20	[0, 0, 0]	n/a	FR1	1	R1193T
2369.547	1.618	2386493	WORD	n/a	wordpools/wordpool_EN.txt	TRAY	8	20	[0, 0, 0]	n/a	FR1	1	R1193T
2371.165	0.833	2388111	WORD_OFF	n/a	n/a	TRAY	8	20	[0, 0, 0]	n/a	FR1	1	R1193T
2371.998	1.616	2388944	WORD	n/a	wordpools/wordpool_EN.txt	TIE	9	20	[0, 0, 0]	n/a	FR1	1	R1193T
2373.614	0.967	2390560	WORD_OFF	n/a	n/a	TIE	9	20	[0, 0, 0]	n/a	FR1	1	R1193T
2374.581	1.618	2391527	WORD	n/a	wordpools/wordpool_EN.txt	CHIN	10	20	[0, 0, 0]	n/a	FR1	1	R1193T
2376.199	0.867	2393145	WORD_OFF	n/a	n/a	CHIN	10	20	[0, 0, 0]	n/a	FR1	1	R1193T
2377.066	1.617	2394012	WORD	n/a	wordpools/wordpool_EN.txt	OAR	11	20	[0, 0, 0]	n/a	FR1	1	R1193T
2378.683	1.0	2395628	WORD_OFF	n/a	n/a	OAR	11	20	[0, 0, 0]	n/a	FR1	1	R1193T
2379.683	1.617	2396628	WORD	n/a	wordpools/wordpool_EN.txt	SHIRT	12	20	[0, 0, 0]	n/a	FR1	1	R1193T
2381.3	0.0	2398245	WORD_OFF	n/a	n/a	SHIRT	12	20	[0, 0, 0]	n/a	FR1	1	R1193T
2381.3	0.0	2398245	DISTRACT_START	n/a	n/a	n/a	-999	20	[0, 0, 0]	n/a	FR1	1	R1193T
2381.3	0.016	2398245	START	n/a	n/a	n/a	-999	20	[-999, -999, -999]	n/a	FR1	1	R1193T
2381.316	15.286	2398261	PROB	15.286	n/a	n/a	-999	20	[3, 9, 8]	398	FR1	1	R1193T
2396.602	11.89	2413546	PROB	11.89	n/a	n/a	-999	20	[5, 9, 2]	592	FR1	1	R1193T
2408.492	0.012	2425436	STOP	n/a	n/a	n/a	-999	20	[-999, -999, -999]	n/a	FR1	1	R1193T
2408.504	0.601	2425448	DISTRACT_END	n/a	n/a	n/a	-999	20	[0, 0, 0]	n/a	FR1	1	R1193T
2409.105	0.516	2426049	RETRIEVAL_ORIENT	n/a	n/a	n/a	-999	20	[0, 0, 0]	n/a	FR1	1	R1193T
2409.621	2.065	2426565	REC_START	n/a	n/a	n/a	-999	20	[0, 0, 0]	n/a	FR1	1	R1193T
2411.686	27.949	2428630	REC_WORD	27.949	n/a	PLANT	-999	20	[0, 0, 0]	n/a	FR1	1	R1193T
2439.635	5.992	2456577	REC_END	n/a	n/a	n/a	-999	20	[0, 0, 0]	n/a	FR1	1	R1193T
2445.627	0.5	2462569	TRIAL	n/a	n/a	n/a	-999	21	[0, 0, 0]	n/a	FR1	1	R1193T
2446.127	10.428	2463069	COUNTDOWN_START	n/a	n/a	n/a	-999	21	[0, 0, 0]	n/a	FR1	1	R1193T
2456.555	0.007	2473496	COUNTDOWN_END	n/a	n/a	n/a	-999	21	[0, 0, 0]	n/a	FR1	1	R1193T
2456.562	1.618	2473503	ORIENT	n/a	n/a	n/a	-999	21	[0, 0, 0]	n/a	FR1	1	R1193T
2458.18	2.051	2475121	ORIENT_OFF	n/a	n/a	n/a	-999	21	[0, 0, 0]	n/a	FR1	1	R1193T
2460.231	1.617	2477172	WORD	n/a	wordpools/wordpool_EN.txt	SCHOOL	1	21	[0, 0, 0]	n/a	FR1	1	R1193T
2461.848	0.983	2478789	WORD_OFF	n/a	n/a	SCHOOL	1	21	[0, 0, 0]	n/a	FR1	1	R1193T
2462.831	1.616	2479772	WORD	n/a	wordpools/wordpool_EN.txt	CANE	2	21	[0, 0, 0]	n/a	FR1	1	R1193T
2464.447	0.885	2481387	WORD_OFF	n/a	n/a	CANE	2	21	[0, 0, 0]	n/a	FR1	1	R1193T
2465.332	1.617	2482272	WORD	n/a	wordpools/wordpool_EN.txt	DESK	3	21	[0, 0, 0]	n/a	FR1	1	R1193T
2466.949	0.85	2483889	WORD_OFF	n/a	n/a	DESK	3	21	[0, 0, 0]	n/a	FR1	1	R1193T
2467.799	1.617	2484739	WORD	n/a	wordpools/wordpool_EN.txt	TOAST	4	21	[0, 0, 0]	n/a	FR1	1	R1193T
2469.416	0.983	2486356	WORD_OFF	n/a	n/a	TOAST	4	21	[0, 0, 0]	n/a	FR1	1	R1193T
2470.399	1.617	2487339	WORD	n/a	wordpools/wordpool_EN.txt	TEA	5	21	[0, 0, 0]	n/a	FR1	1	R1193T
2472.016	0.784	2488956	WORD_OFF	n/a	n/a	TEA	5	21	[0, 0, 0]	n/a	FR1	1	R1193T
2472.8	1.617	2489740	WORD	n/a	wordpools/wordpool_EN.txt	OAK	6	21	[0, 0, 0]	n/a	FR1	1	R1193T
2474.417	0.917	2491357	WORD_OFF	n/a	n/a	OAK	6	21	[0, 0, 0]	n/a	FR1	1	R1193T
2475.334	1.617	2492274	WORD	n/a	wordpools/wordpool_EN.txt	SUIT	7	21	[0, 0, 0]	n/a	FR1	1	R1193T
2476.951	0.866	2493891	WORD_OFF	n/a	n/a	SUIT	7	21	[0, 0, 0]	n/a	FR1	1	R1193T
2477.817	1.616	2494757	WORD	n/a	wordpools/wordpool_EN.txt	DIME	8	21	[0, 0, 0]	n/a	FR1	1	R1193T
2479.433	0.985	2496373	WORD_OFF	n/a	n/a	DIME	8	21	[0, 0, 0]	n/a	FR1	1	R1193T
2480.418	1.617	2497357	WORD	n/a	wordpools/wordpool_EN.txt	PEACH	9	21	[0, 0, 0]	n/a	FR1	1	R1193T
2482.035	0.883	2498974	WORD_OFF	n/a	n/a	PEACH	9	21	[0, 0, 0]	n/a	FR1	1	R1193T
2482.918	1.616	2499857	WORD	n/a	wordpools/wordpool_EN.txt	SLIME	10	21	[0, 0, 0]	n/a	FR1	1	R1193T
2484.534	1.0	2501473	WORD_OFF	n/a	n/a	SLIME	10	21	[0, 0, 0]	n/a	FR1	1	R1193T
2485.534	1.601	2502473	WORD	n/a	wordpools/wordpool_EN.txt	PALM	11	21	[0, 0, 0]	n/a	FR1	1	R1193T
2487.135	0.834	2504074	WORD_OFF	n/a	n/a	PALM	11	21	[0, 0, 0]	n/a	FR1	1	R1193T
2487.969	1.616	2504908	WORD	n/a	wordpools/wordpool_EN.txt	SOCK	12	21	[0, 0, 0]	n/a	FR1	1	R1193T
2489.585	0.0	2506524	WORD_OFF	n/a	n/a	SOCK	12	21	[0, 0, 0]	n/a	FR1	1	R1193T
2489.585	0.001	2506524	DISTRACT_START	n/a	n/a	n/a	-999	21	[0, 0, 0]	n/a	FR1	1	R1193T
2489.586	0.016	2506525	START	n/a	n/a	n/a	-999	21	[-999, -999, -999]	n/a	FR1	1	R1193T
2489.602	20.45	2506541	PROB	20.45	n/a	n/a	-999	21	[2, 2, 1]	221	FR1	1	R1193T
2510.052	0.021	2526990	STOP	n/a	n/a	n/a	-999	21	[-999, -999, -999]	n/a	FR1	1	R1193T
2510.073	0.549	2527011	DISTRACT_END	n/a	n/a	n/a	-999	21	[0, 0, 0]	n/a	FR1	1	R1193T
2510.622	0.519	2527560	RETRIEVAL_ORIENT	n/a	n/a	n/a	-999	21	[0, 0, 0]	n/a	FR1	1	R1193T
2511.141	1.795	2528079	REC_START	n/a	n/a	n/a	-999	21	[0, 0, 0]	n/a	FR1	1	R1193T
2512.936	7.564	2529874	REC_WORD	7.564	n/a	SCHOOL	-999	21	[0, 0, 0]	n/a	FR1	1	R1193T
2520.5	5.105	2537437	REC_WORD	5.105	n/a	DESK	-999	21	[0, 0, 0]	n/a	FR1	1	R1193T
2525.605	2.877	2542542	REC_WORD	2.877	n/a	OAK	-999	21	[0, 0, 0]	n/a	FR1	1	R1193T
2528.482	12.671	2545419	REC_WORD	12.671	n/a	TOAST	-999	21	[0, 0, 0]	n/a	FR1	1	R1193T
2541.153	9.911	2558089	REC_END	n/a	n/a	n/a	-999	21	[0, 0, 0]	n/a	FR1	1	R1193T
2551.064	0.5	2567999	TRIAL	n/a	n/a	n/a	-999	22	[0, 0, 0]	n/a	FR1	1	R1193T
2551.564	10.428	2568499	COUNTDOWN_START	n/a	n/a	n/a	-999	22	[0, 0, 0]	n/a	FR1	1	R1193T
2561.992	0.007	2578927	COUNTDOWN_END	n/a	n/a	n/a	-999	22	[0, 0, 0]	n/a	FR1	1	R1193T
2561.999	1.616	2578934	ORIENT	n/a	n/a	n/a	-999	22	[0, 0, 0]	n/a	FR1	1	R1193T
2563.615	1.984	2580550	ORIENT_OFF	n/a	n/a	n/a	-999	22	[0, 0, 0]	n/a	FR1	1	R1193T
2565.599	1.618	2582533	WORD	n/a	wordpools/wordpool_EN.txt	CLAY	1	22	[0, 0, 0]	n/a	FR1	1	R1193T
2567.217	1.0	2584151	WORD_OFF	n/a	n/a	CLAY	1	22	[0, 0, 0]	n/a	FR1	1	R1193T
2568.217	1.617	2585151	WORD	n/a	wordpools/wordpool_EN.txt	SPEAR	2	22	[0, 0, 0]	n/a	FR1	1	R1193T
2569.834	0.834	2586768	WORD_OFF	n/a	n/a	SPEAR	2	22	[0, 0, 0]	n/a	FR1	1	R1193T
2570.668	1.617	2587602	WORD	n/a	wordpools/wordpool_EN.txt	SHIELD	3	22	[0, 0, 0]	n/a	FR1	1	R1193T
2572.285	0.85	2589219	WORD_OFF	n/a	n/a	SHIELD	3	22	[0, 0, 0]	n/a	FR1	1	R1193T
2573.135	1.617	2590069	WORD	n/a	wordpools/wordpool_EN.txt	FORT	4	22	[0, 0, 0]	n/a	FR1	1	R1193T
2574.752	0.782	2591686	WORD_OFF	n/a	n/a	FORT	4	22	[0, 0, 0]	n/a	FR1	1	R1193T
2575.534	1.618	2592468	WORD	n/a	wordpools/wordpool_EN.txt	CAVE	5	22	[0, 0, 0]	n/a	FR1	1	R1193T
2577.152	0.983	2594086	WORD_OFF	n/a	n/a	CAVE	5	22	[0, 0, 0]	n/a	FR1	1	R1193T
2578.135	1.618	2595069	WORD	n/a	wordpools/wordpool_EN.txt	WHALE	6	22	[0, 0, 0]	n/a	FR1	1	R1193T
2579.753	0.95	2596687	WORD_OFF	n/a	n/a	WHALE	6	22	[0, 0, 0]	n/a	FR1	1	R1193T
2580.703	1.617	2597637	WORD	n/a	wordpools/wordpool_EN.txt	CORN	7	22	[0, 0, 0]	n/a	FR1	1	R1193T
2582.32	0.916	2599253	WORD_OFF	n/a	n/a	CORN	7	22	[0, 0, 0]	n/a	FR1	1	R1193T
2583.236	1.617	2600169	WORD	n/a	wordpools/wordpool_EN.txt	LAND	8	22	[0, 0, 0]	n/a	FR1	1	R1193T
2584.853	1.001	2601786	WORD_OFF	n/a	n/a	LAND	8	22	[0, 0, 0]	n/a	FR1	1	R1193T
2585.854	1.616	2602787	WORD	n/a	wordpools/wordpool_EN.txt	GOLD	9	22	[0, 0, 0]	n/a	FR1	1	R1193T
2587.47	0.95	2604403	WORD_OFF	n/a	n/a	GOLD	9	22	[0, 0, 0]	n/a	FR1	1	R1193T
2588.42	1.618	2605353	WORD	n/a	wordpools/wordpool_EN.txt	SKI	10	22	[0, 0, 0]	n/a	FR1	1	R1193T
2590.038	0.967	2606971	WORD_OFF	n/a	n/a	SKI	10	22	[0, 0, 0]	n/a	FR1	1	R1193T
2591.005	1.616	2607938	WORD	n/a	wordpools/wordpool_EN.txt	JEEP	11	22	[0, 0, 0]	n/a	FR1	1	R1193T
2592.621	0.784	2609554	WORD_OFF	n/a	n/a	JEEP	11	22	[0, 0, 0]	n/a	FR1	1	R1193T
2593.405	1.617	2610338	WORD	n/a	wordpools/wordpool_EN.txt	SEAL	12	22	[0, 0, 0]	n/a	FR1	1	R1193T
2595.022	0.0	2611955	WORD_OFF	n/a	n/a	SEAL	12	22	[0, 0, 0]	n/a	FR1	1	R1193T
2595.022	0.001	2611955	DISTRACT_START	n/a	n/a	n/a	-999	22	[0, 0, 0]	n/a	FR1	1	R1193T
2595.023	0.016	2611956	START	n/a	n/a	n/a	-999	22	[-999, -999, -999]	n/a	FR1	1	R1193T
2595.039	29.918	2611972	PROB	29.918	n/a	n/a	-999	22	[1, 7, 4]	174	FR1	1	R1193T
2624.957	0.02	2641888	STOP	n/a	n/a	n/a	-999	22	[-999, -999, -999]	n/a	FR1	1	R1193T
2624.977	0.566	2641908	DISTRACT_END	n/a	n/a	n/a	-999	22	[0, 0, 0]	n/a	FR1	1	R1193T
2625.543	0.519	2642474	RETRIEVAL_ORIENT	n/a	n/a	n/a	-999	22	[0, 0, 0]	n/a	FR1	1	R1193T
2626.062	1.778	2642993	REC_START	n/a	n/a	n/a	-999	22	[0, 0, 0]	n/a	FR1	1	R1193T
2627.84	4.53	2644771	REC_WORD	4.53	n/a	CLAY	-999	22	[0, 0, 0]	n/a	FR1	1	R1193T
2632.37	1.782	2649300	REC_WORD	1.782	n/a	GOLD	-999	22	[0, 0, 0]	n/a	FR1	1	R1193T
2634.152	21.92	2651082	REC_WORD	21.92	n/a	JEEP	-999	22	[0, 0, 0]	n/a	FR1	1	R1193T
2656.072	8.428	2673001	REC_END	n/a	n/a	n/a	-999	22	[0, 0, 0]	n/a	FR1	1	R1193T
2664.5	0.5	2681429	TRIAL	n/a	n/a	n/a	-999	23	[0, 0, 0]	n/a	FR1	1	R1193T
2665.0	10.428	2681929	COUNTDOWN_START	n/a	n/a	n/a	-999	23	[0, 0, 0]	n/a	FR1	1	R1193T
2675.428	0.008	2692356	COUNTDOWN_END	n/a	n/a	n/a	-999	23	[0, 0, 0]	n/a	FR1	1	R1193T
2675.436	1.618	2692364	ORIENT	n/a	n/a	n/a	-999	23	[0, 0, 0]	n/a	FR1	1	R1193T
2677.054	1.983	2693982	ORIENT_OFF	n/a	n/a	n/a	-999	23	[0, 0, 0]	n/a	FR1	1	R1193T
2679.037	1.617	2695965	WORD	n/a	wordpools/wordpool_EN.txt	CUBE	1	23	[0, 0, 0]	n/a	FR1	1	R1193T
2680.654	0.933	2697582	WORD_OFF	n/a	n/a	CUBE	1	23	[0, 0, 0]	n/a	FR1	1	R1193T
2681.587	1.618	2698515	WORD	n/a	wordpools/wordpool_EN.txt	STOOL	2	23	[0, 0, 0]	n/a	FR1	1	R1193T
2683.205	0.933	2700132	WORD_OFF	n/a	n/a	STOOL	2	23	[0, 0, 0]	n/a	FR1	1	R1193T
2684.138	1.617	2701065	WORD	n/a	wordpools/wordpool_EN.txt	SHEEP	3	23	[0, 0, 0]	n/a	FR1	1	R1193T
2685.755	0.967	2702682	WORD_OFF	n/a	n/a	SHEEP	3	23	[0, 0, 0]	n/a	FR1	1	R1193T
2686.722	1.617	2703649	WORD	n/a	wordpools/wordpool_EN.txt	PLANT	4	23	[0, 0, 0]	n/a	FR1	1	R1193T
2688.339	0.867	2705266	WORD_OFF	n/a	n/a	PLANT	4	23	[0, 0, 0]	n/a	FR1	1	R1193T
2689.206	1.617	2706133	WORD	n/a	wordpools/wordpool_EN.txt	FOOD	5	23	[0, 0, 0]	n/a	FR1	1	R1193T
2690.823	0.866	2707750	WORD_OFF	n/a	n/a	FOOD	5	23	[0, 0, 0]	n/a	FR1	1	R1193T
2691.689	1.618	2708616	WORD	n/a	wordpools/wordpool_EN.txt	LEAF	6	23	[0, 0, 0]	n/a	FR1	1	R1193T
2693.307	0.933	2710234	WORD_OFF	n/a	n/a	LEAF	6	23	[0, 0, 0]	n/a	FR1	1	R1193T
2694.24	1.617	2711167	WORD	n/a	wordpools/wordpool_EN.txt	SOUP	7	23	[0, 0, 0]	n/a	FR1	1	R1193T
2695.857	0.983	2712784	WORD_OFF	n/a	n/a	SOUP	7	23	[0, 0, 0]	n/a	FR1	1	R1193T
2696.84	1.616	2713767	WORD	n/a	wordpools/wordpool_EN.txt	RICE	8	23	[0, 0, 0]	n/a	FR1	1	R1193T
2698.456	0.935	2715383	WORD_OFF	n/a	n/a	RICE	8	23	[0, 0, 0]	n/a	FR1	1	R1193T
2699.391	1.617	2716318	WORD	n/a	wordpools/wordpool_EN.txt	BEAN	9	23	[0, 0, 0]	n/a	FR1	1	R1193T
2701.008	0.95	2717934	WORD_OFF	n/a	n/a	BEAN	9	23	[0, 0, 0]	n/a	FR1	1	R1193T
2701.958	1.616	2718884	WORD	n/a	wordpools/wordpool_EN.txt	PHONE	10	23	[0, 0, 0]	n/a	FR1	1	R1193T
2703.574	0.967	2720500	WORD_OFF	n/a	n/a	PHONE	10	23	[0, 0, 0]	n/a	FR1	1	R1193T
2704.541	1.601	2721467	WORD	n/a	wordpools/wordpool_EN.txt	THREAD	11	23	[0, 0, 0]	n/a	FR1	1	R1193T
2706.142	0.783	2723068	WORD_OFF	n/a	n/a	THREAD	11	23	[0, 0, 0]	n/a	FR1	1	R1193T
2706.925	1.617	2723851	WORD	n/a	wordpools/wordpool_EN.txt	STEM	12	23	[0, 0, 0]	n/a	FR1	1	R1193T
2708.542	0.0	2725468	WORD_OFF	n/a	n/a	STEM	12	23	[0, 0, 0]	n/a	FR1	1	R1193T
2708.542	0.0	2725468	DISTRACT_START	n/a	n/a	n/a	-999	23	[0, 0, 0]	n/a	FR1	1	R1193T
2708.542	0.016	2725468	START	n/a	n/a	n/a	-999	23	[-999, -999, -999]	n/a	FR1	1	R1193T
2708.558	30.254	2725484	PROB	30.254	n/a	n/a	-999	23	[6, 2, 8]	628	FR1	1	R1193T
2738.812	0.019	2755736	STOP	n/a	n/a	n/a	-999	23	[-999, -999, -999]	n/a	FR1	1	R1193T
2738.831	0.616	2755755	DISTRACT_END	n/a	n/a	n/a	-999	23	[0, 0, 0]	n/a	FR1	1	R1193T
2739.447	0.519	2756371	RETRIEVAL_ORIENT	n/a	n/a	n/a	-999	23	[0, 0, 0]	n/a	FR1	1	R1193T
2739.966	30.0	2756890	REC_START	n/a	n/a	n/a	-999	23	[0, 0, 0]	n/a	FR1	1	R1193T
2769.966	0.011	2786888	REC_WORD_VV	0.011	n/a	<>	-999	23	[0, 0, 0]	n/a	FR1	1	R1193T
2769.977	7.845	2786899	REC_END	n/a	n/a	n/a	-999	23	[0, 0, 0]	n/a	FR1	1	R1193T
2777.822	0.5	2794744	TRIAL	n/a	n/a	n/a	-999	24	[0, 0, 0]	n/a	FR1	1	R1193T
2778.322	10.428	2795244	COUNTDOWN_START	n/a	n/a	n/a	-999	24	[0, 0, 0]	n/a	FR1	1	R1193T
2788.75	0.007	2805671	COUNTDOWN_END	n/a	n/a	n/a	-999	24	[0, 0, 0]	n/a	FR1	1	R1193T
2788.757	1.617	2805678	ORIENT	n/a	n/a	n/a	-999	24	[0, 0, 0]	n/a	FR1	1	R1193T
2790.374	2.384	2807295	ORIENT_OFF	n/a	n/a	n/a	-999	24	[0, 0, 0]	n/a	FR1	1	R1193T
2792.758	1.617	2809679	WORD	n/a	wordpools/wordpool_EN.txt	VAN	1	24	[0, 0, 0]	n/a	FR1	1	R1193T
2794.375	0.867	2811296	WORD_OFF	n/a	n/a	VAN	1	24	[0, 0, 0]	n/a	FR1	1	R1193T
2795.242	1.617	2812163	WORD	n/a	wordpools/wordpool_EN.txt	BAND	2	24	[0, 0, 0]	n/a	FR1	1	R1193T
2796.859	0.9	2813780	WORD_OFF	n/a	n/a	BAND	2	24	[0, 0, 0]	n/a	FR1	1	R1193T
2797.759	1.617	2814680	WORD	n/a	wordpools/wordpool_EN.txt	ROOM	3	24	[0, 0, 0]	n/a	FR1	1	R1193T
2799.376	0.85	2816297	WORD_OFF	n/a	n/a	ROOM	3	24	[0, 0, 0]	n/a	FR1	1	R1193T
2800.226	1.617	2817147	WORD	n/a	wordpools/wordpool_EN.txt	STREET	4	24	[0, 0, 0]	n/a	FR1	1	R1193T
2801.843	1.0	2818763	WORD_OFF	n/a	n/a	STREET	4	24	[0, 0, 0]	n/a	FR1	1	R1193T
2802.843	1.616	2819763	WORD	n/a	wordpools/wordpool_EN.txt	CLOWN	5	24	[0, 0, 0]	n/a	FR1	1	R1193T
2804.459	1.017	2821379	WORD_OFF	n/a	n/a	CLOWN	5	24	[0, 0, 0]	n/a	FR1	1	R1193T
2805.476	1.618	2822396	WORD	n/a	wordpools/wordpool_EN.txt	CLOCK	6	24	[0, 0, 0]	n/a	FR1	1	R1193T
2807.094	0.783	2824014	WORD_OFF	n/a	n/a	CLOCK	6	24	[0, 0, 0]	n/a	FR1	1	R1193T
2807.877	1.616	2824797	WORD	n/a	wordpools/wordpool_EN.txt	FLUTE	7	24	[0, 0, 0]	n/a	FR1	1	R1193T
2809.493	0.967	2826413	WORD_OFF	n/a	n/a	FLUTE	7	24	[0, 0, 0]	n/a	FR1	1	R1193T
2810.46	1.601	2827380	WORD	n/a	wordpools/wordpool_EN.txt	BADGE	8	24	[0, 0, 0]	n/a	FR1	1	R1193T
2812.061	0.784	2828981	WORD_OFF	n/a	n/a	BADGE	8	24	[0, 0, 0]	n/a	FR1	1	R1193T
2812.845	1.616	2829765	WORD	n/a	wordpools/wordpool_EN.txt	BUSH	9	24	[0, 0, 0]	n/a	FR1	1	R1193T
2814.461	0.983	2831381	WORD_OFF	n/a	n/a	BUSH	9	24	[0, 0, 0]	n/a	FR1	1	R1193T
2815.444	1.601	2832364	WORD	n/a	wordpools/wordpool_EN.txt	LAMP	10	24	[0, 0, 0]	n/a	FR1	1	R1193T
2817.045	0.967	2833965	WORD_OFF	n/a	n/a	LAMP	10	24	[0, 0, 0]	n/a	FR1	1	R1193T
2818.012	1.616	2834932	WORD	n/a	wordpools/wordpool_EN.txt	WHEEL	11	24	[0, 0, 0]	n/a	FR1	1	R1193T
2819.628	0.917	2836547	WORD_OFF	n/a	n/a	WHEEL	11	24	[0, 0, 0]	n/a	FR1	1	R1193T
2820.545	1.618	2837464	WORD	n/a	wordpools/wordpool_EN.txt	YARD	12	24	[0, 0, 0]	n/a	FR1	1	R1193T
2822.163	0.0	2839082	WORD_OFF	n/a	n/a	YARD	12	24	[0, 0, 0]	n/a	FR1	1	R1193T
2822.163	0.001	2839082	DISTRACT_START	n/a	n/a	n/a	-999	24	[0, 0, 0]	n/a	FR1	1	R1193T
2822.164	0.016	2839083	START	n/a	n/a	n/a	-999	24	[-999, -999, -999]	n/a	FR1	1	R1193T
2822.18	33.897	2839099	PROB	33.897	n/a	n/a	-999	24	[7, 3, 1]	731	FR1	1	R1193T
2856.077	0.009	2872994	STOP	n/a	n/a	n/a	-999	24	[-999, -999, -999]	n/a	FR1	1	R1193T
2856.086	0.55	2873003	DISTRACT_END	n/a	n/a	n/a	-999	24	[0, 0, 0]	n/a	FR1	1	R1193T
2856.636	0.518	2873553	RETRIEVAL_ORIENT	n/a	n/a	n/a	-999	24	[0, 0, 0]	n/a	FR1	1	R1193T
2857.154	30.0	2874071	REC_START	n/a	n/a	n/a	-999	24	[0, 0, 0]	n/a	FR1	1	R1193T
2887.154	0.013	2904069	REC_WORD_VV	0.013	n/a	<>	-999	24	[0, 0, 0]	n/a	FR1	1	R1193T
2887.167	10.743	2904082	REC_END	n/a	n/a	n/a	-999	24	[0, 0, 0]	n/a	FR1	1	R1193T
2897.91	0.5	2914825	TRIAL	n/a	n/a	n/a	-999	25	[0, 0, 0]	n/a	FR1	1	R1193T
2898.41	10.428	2915325	COUNTDOWN_START	n/a	n/a	n/a	-999	25	[0, 0, 0]	n/a	FR1	1	R1193T
2908.838	0.008	2925752	COUNTDOWN_END	n/a	n/a	n/a	-999	25	[0, 0, 0]	n/a	FR1	1	R1193T
2908.846	1.616	2925760	ORIENT	n/a	n/a	n/a	-999	25	[0, 0, 0]	n/a	FR1	1	R1193T
2910.462	1.918	2927376	ORIENT_OFF	n/a	n/a	n/a	-999	25	[0, 0, 0]	n/a	FR1	1	R1193T
2912.38	1.617	2929294	WORD	n/a	wordpools/wordpool_EN.txt	BRIDGE	1	25	[0, 0, 0]	n/a	FR1	1	R1193T
2913.997	0.966	2930911	WORD_OFF	n/a	n/a	BRIDGE	1	25	[0, 0, 0]	n/a	FR1	1	R1193T
2914.963	1.616	2931877	WORD	n/a	wordpools/wordpool_EN.txt	SMOKE	2	25	[0, 0, 0]	n/a	FR1	1	R1193T
2916.579	0.951	2933493	WORD_OFF	n/a	n/a	SMOKE	2	25	[0, 0, 0]	n/a	FR1	1	R1193T
2917.53	1.618	2934444	WORD	n/a	wordpools/wordpool_EN.txt	BOAT	3	25	[0, 0, 0]	n/a	FR1	1	R1193T
2919.148	0.8	2936062	WORD_OFF	n/a	n/a	BOAT	3	25	[0, 0, 0]	n/a	FR1	1	R1193T
2919.948	1.616	2936861	WORD	n/a	wordpools/wordpool_EN.txt	SPARK	4	25	[0, 0, 0]	n/a	FR1	1	R1193T
2921.564	1.0	2938477	WORD_OFF	n/a	n/a	SPARK	4	25	[0, 0, 0]	n/a	FR1	1	R1193T
2922.564	1.618	2939477	WORD	n/a	wordpools/wordpool_EN.txt	APE	5	25	[0, 0, 0]	n/a	FR1	1	R1193T
2924.182	0.783	2941095	WORD_OFF	n/a	n/a	APE	5	25	[0, 0, 0]	n/a	FR1	1	R1193T
2924.965	1.616	2941878	WORD	n/a	wordpools/wordpool_EN.txt	LOCK	6	25	[0, 0, 0]	n/a	FR1	1	R1193T
2926.581	0.785	2943494	WORD_OFF	n/a	n/a	LOCK	6	25	[0, 0, 0]	n/a	FR1	1	R1193T
2927.366	1.617	2944279	WORD	n/a	wordpools/wordpool_EN.txt	ROOF	7	25	[0, 0, 0]	n/a	FR1	1	R1193T
2928.983	0.833	2945896	WORD_OFF	n/a	n/a	ROOF	7	25	[0, 0, 0]	n/a	FR1	1	R1193T
2929.816	1.616	2946729	WORD	n/a	wordpools/wordpool_EN.txt	LAKE	8	25	[0, 0, 0]	n/a	FR1	1	R1193T
2931.432	0.868	2948345	WORD_OFF	n/a	n/a	LAKE	8	25	[0, 0, 0]	n/a	FR1	1	R1193T
2932.3	1.617	2949213	WORD	n/a	wordpools/wordpool_EN.txt	DOCK	9	25	[0, 0, 0]	n/a	FR1	1	R1193T
2933.917	0.833	2950830	WORD_OFF	n/a	n/a	DOCK	9	25	[0, 0, 0]	n/a	FR1	1	R1193T
2934.75	1.617	2951663	WORD	n/a	wordpools/wordpool_EN.txt	CRANE	10	25	[0, 0, 0]	n/a	FR1	1	R1193T
2936.367	0.8	2953280	WORD_OFF	n/a	n/a	CRANE	10	25	[0, 0, 0]	n/a	FR1	1	R1193T
2937.167	1.617	2954079	WORD	n/a	wordpools/wordpool_EN.txt	BRUSH	11	25	[0, 0, 0]	n/a	FR1	1	R1193T
2938.784	0.984	2955696	WORD_OFF	n/a	n/a	BRUSH	11	25	[0, 0, 0]	n/a	FR1	1	R1193T
2939.768	1.617	2956680	WORD	n/a	wordpools/wordpool_EN.txt	STEAM	12	25	[0, 0, 0]	n/a	FR1	1	R1193T
2941.385	0.0	2958297	WORD_OFF	n/a	n/a	STEAM	12	25	[0, 0, 0]	n/a	FR1	1	R1193T
2941.385	0.001	2958297	DISTRACT_START	n/a	n/a	n/a	-999	25	[0, 0, 0]	n/a	FR1	1	R1193T
2941.386	0.015	2958298	START	n/a	n/a	n/a	-999	25	[-999, -999, -999]	n/a	FR1	1	R1193T
2941.401	8.269	2958313	PROB	8.269	n/a	n/a	-999	25	[1, 1, 9]	119	FR1	1	R1193T
2949.67	7.701	2966582	PROB	7.701	n/a	n/a	-999	25	[6, 6, 7]	667	FR1	1	R1193T
2957.371	9.674	2974282	PROB	9.674	n/a	n/a	-999	25	[3, 6, 9]	369	FR1	1	R1193T
2967.045	0.011	2983956	STOP	n/a	n/a	n/a	-999	25	[-999, -999, -999]	n/a	FR1	1	R1193T
2967.056	0.533	2983967	DISTRACT_END	n/a	n/a	n/a	-999	25	[0, 0, 0]	n/a	FR1	1	R1193T
2967.589	0.518	2984500	RETRIEVAL_ORIENT	n/a	n/a	n/a	-999	25	[0, 0, 0]	n/a	FR1	1	R1193T
2968.107	4.402	2985018	REC_START	n/a	n/a	n/a	-999	25	[0, 0, 0]	n/a	FR1	1	R1193T
2972.509	1.629	2989419	REC_WORD	1.629	n/a	SMOKE	-999	25	[0, 0, 0]	n/a	FR1	1	R1193T
2974.138	23.98	2991048	REC_WORD	23.98	n/a	BOAT	-999	25	[0, 0, 0]	n/a	FR1	1	R1193T
2998.118	0.0	3015027	REC_END	n/a	n/a	n/a	-999	25	[0, 0, 0]	n/a	FR1	1	R1193T
