onset	duration	sample	trial_type	response_time	stim_file	item_name	serialpos	list	test	answer	experiment	session	subject
0.0	398.526	849	INSTRUCT_START	n/a	n/a	n/a	-999	-999	[0, 0, 0]	n/a	FR1	0	R1349T
398.526	2.633	399358	INSTRUCT_END	n/a	n/a	n/a	-999	-999	[0, 0, 0]	n/a	FR1	0	R1349T
401.159	11.382	401990	MIC TEST_START	n/a	n/a	n/a	-999	-999	[0, 0, 0]	n/a	FR1	0	R1349T
412.541	0.011	413372	MIC TEST_END	n/a	n/a	n/a	-999	-999	[0, 0, 0]	n/a	FR1	0	R1349T
412.552	0.0	413383	TRIAL_START	n/a	n/a	n/a	-999	-1	[0, 0, 0]	n/a	FR1	0	R1349T
412.552	0.0	413383	TRIAL	n/a	n/a	n/a	-999	-1	[0, 0, 0]	n/a	FR1	0	R1349T
412.552	10.045	413383	WAITING_START	n/a	n/a	n/a	-999	-1	[0, 0, 0]	n/a	FR1	0	R1349T
422.597	0.001	423428	WAITING_END	n/a	n/a	n/a	-999	-1	[0, 0, 0]	n/a	FR1	0	R1349T
422.598	10.429	423429	COUNTDOWN_START	n/a	n/a	n/a	-999	-1	[0, 0, 0]	n/a	FR1	0	R1349T
433.027	0.0	433857	COUNTDOWN_END	n/a	n/a	n/a	-999	-1	[0, 0, 0]	n/a	FR1	0	R1349T
433.027	1.137	433857	ORIENT_START	n/a	n/a	n/a	-999	-1	[0, 0, 0]	n/a	FR1	0	R1349T
434.164	0.0	434994	ORIENT_END	n/a	n/a	n/a	-999	-1	[0, 0, 0]	n/a	FR1	0	R1349T
434.164	1.093	434994	ENCODING_START	n/a	n/a	n/a	-999	-1	[0, 0, 0]	n/a	FR1	0	R1349T
435.257	1.626	436087	WORD	n/a	n/a	IMAGE	1	-1	[0, 0, 0]	n/a	FR1	0	R1349T
436.883	0.984	437713	WORD_OFF	n/a	n/a	IMAGE	1	-1	[0, 0, 0]	n/a	FR1	0	R1349T
437.867	1.633	438697	WORD	n/a	n/a	CAMEL	2	-1	[0, 0, 0]	n/a	FR1	0	R1349T
439.5	0.996	440330	WORD_OFF	n/a	n/a	CAMEL	2	-1	[0, 0, 0]	n/a	FR1	0	R1349T
440.496	1.637	441326	WORD	n/a	n/a	WAGON	3	-1	[0, 0, 0]	n/a	FR1	0	R1349T
442.133	0.94	442963	WORD_OFF	n/a	n/a	WAGON	3	-1	[0, 0, 0]	n/a	FR1	0	R1349T
443.073	1.628	443903	WORD	n/a	n/a	TONGUE	4	-1	[0, 0, 0]	n/a	FR1	0	R1349T
444.701	1.075	445531	WORD_OFF	n/a	n/a	TONGUE	4	-1	[0, 0, 0]	n/a	FR1	0	R1349T
445.776	1.625	446606	WORD	n/a	n/a	BEAM	5	-1	[0, 0, 0]	n/a	FR1	0	R1349T
447.401	0.798	448230	WORD_OFF	n/a	n/a	BEAM	5	-1	[0, 0, 0]	n/a	FR1	0	R1349T
448.199	1.636	449028	WORD	n/a	n/a	COTTON	6	-1	[0, 0, 0]	n/a	FR1	0	R1349T
449.835	1.054	450664	WORD_OFF	n/a	n/a	COTTON	6	-1	[0, 0, 0]	n/a	FR1	0	R1349T
450.889	1.63	451718	WORD	n/a	n/a	BABY	7	-1	[0, 0, 0]	n/a	FR1	0	R1349T
452.519	1.054	453348	WORD_OFF	n/a	n/a	BABY	7	-1	[0, 0, 0]	n/a	FR1	0	R1349T
453.573	1.629	454402	WORD	n/a	n/a	RHINO	8	-1	[0, 0, 0]	n/a	FR1	0	R1349T
455.202	0.84	456031	WORD_OFF	n/a	n/a	RHINO	8	-1	[0, 0, 0]	n/a	FR1	0	R1349T
456.042	1.628	456871	WORD	n/a	n/a	WATCH	9	-1	[0, 0, 0]	n/a	FR1	0	R1349T
457.67	0.921	458499	WORD_OFF	n/a	n/a	WATCH	9	-1	[0, 0, 0]	n/a	FR1	0	R1349T
458.591	1.628	459420	WORD	n/a	n/a	CHEST	10	-1	[0, 0, 0]	n/a	FR1	0	R1349T
460.219	1.069	461048	WORD_OFF	n/a	n/a	CHEST	10	-1	[0, 0, 0]	n/a	FR1	0	R1349T
461.288	1.633	462117	WORD	n/a	n/a	RING	11	-1	[0, 0, 0]	n/a	FR1	0	R1349T
462.921	1.006	463750	WORD_OFF	n/a	n/a	RING	11	-1	[0, 0, 0]	n/a	FR1	0	R1349T
463.927	1.628	464756	WORD	n/a	n/a	FLOOD	12	-1	[0, 0, 0]	n/a	FR1	0	R1349T
465.555	0.0	466384	DISTRACT_START	n/a	n/a	n/a	-999	-1	[0, 0, 0]	n/a	FR1	0	R1349T
465.555	0.0	466384	WORD_OFF	n/a	n/a	FLOOD	12	-1	[0, 0, 0]	n/a	FR1	0	R1349T
465.555	0.001	466384	ENCODING_END	n/a	n/a	n/a	-999	-1	[0, 0, 0]	n/a	FR1	0	R1349T
465.556	0.015	466385	START	n/a	n/a	n/a	-999	-1	[-999, -999, -999]	n/a	FR1	0	R1349T
465.571	8.435	466400	PROB	8.435	n/a	n/a	-999	-1	[8, 3, 5]	16	FR1	0	R1349T
474.006	4.401	474834	PROB	4.401	n/a	n/a	-999	-1	[4, 3, 8]	15	FR1	0	R1349T
478.407	3.866	479235	PROB	3.866	n/a	n/a	-999	-1	[1, 7, 6]	14	FR1	0	R1349T
482.273	4.376	483101	PROB	4.376	n/a	n/a	-999	-1	[5, 6, 8]	19	FR1	0	R1349T
486.649	0.009	487477	STOP	n/a	n/a	n/a	-999	-1	[-999, -999, -999]	n/a	FR1	0	R1349T
486.658	0.623	487486	DISTRACT_END	n/a	n/a	n/a	-999	-1	[0, 0, 0]	n/a	FR1	0	R1349T
487.281	1.678	488109	RETRIEVAL_ORIENT_START	n/a	n/a	n/a	-999	-1	[0, 0, 0]	n/a	FR1	0	R1349T
488.959	0.0	489787	RETRIEVAL_ORIENT_END	n/a	n/a	n/a	-999	-1	[0, 0, 0]	n/a	FR1	0	R1349T
488.959	4.181	489787	REC_START	n/a	n/a	n/a	-999	-1	[0, 0, 0]	n/a	FR1	0	R1349T
493.14	1.011	493968	REC_WORD_VV	1.011	n/a	<>	-999	-1	[0, 0, 0]	n/a	FR1	0	R1349T
494.151	1.351	494978	REC_WORD	1.351	n/a	COTTON	-999	-1	[0, 0, 0]	n/a	FR1	0	R1349T
495.502	1.451	496329	REC_WORD	1.451	n/a	RHINO	-999	-1	[0, 0, 0]	n/a	FR1	0	R1349T
496.953	1.329	497780	REC_WORD	1.329	n/a	BEAM	-999	-1	[0, 0, 0]	n/a	FR1	0	R1349T
498.282	12.382	499109	REC_WORD	12.382	n/a	IMAGE	-999	-1	[0, 0, 0]	n/a	FR1	0	R1349T
510.664	2.384	511491	REC_WORD	2.384	n/a	WAGON	-999	-1	[0, 0, 0]	n/a	FR1	0	R1349T
513.048	5.925	513875	REC_WORD	5.925	n/a	CAMEL	-999	-1	[0, 0, 0]	n/a	FR1	0	R1349T
518.973	0.0	519799	REC_END	n/a	n/a	n/a	-999	-1	[0, 0, 0]	n/a	FR1	0	R1349T
518.973	64.887	519799	PRACTICE_POST_INSTRUCT_START	n/a	n/a	n/a	-999	-1	[0, 0, 0]	n/a	FR1	0	R1349T
583.86	0.001	584684	PRACTICE_POST_INSTRUCT_END	n/a	n/a	n/a	-999	-1	[0, 0, 0]	n/a	FR1	0	R1349T
583.861	0.017	584685	TRIAL_END	n/a	n/a	n/a	-999	-1	[0, 0, 0]	n/a	FR1	0	R1349T
583.878	0.001	584702	TRIAL_START	n/a	n/a	n/a	-999	1	[0, 0, 0]	n/a	FR1	0	R1349T
583.879	0.0	584703	WAITING_START	n/a	n/a	n/a	-999	1	[0, 0, 0]	n/a	FR1	0	R1349T
583.879	16.9	584703	TRIAL	n/a	n/a	n/a	-999	1	[0, 0, 0]	n/a	FR1	0	R1349T
600.779	0.001	601602	WAITING_END	n/a	n/a	n/a	-999	1	[0, 0, 0]	n/a	FR1	0	R1349T
600.78	10.43	601603	COUNTDOWN_START	n/a	n/a	n/a	-999	1	[0, 0, 0]	n/a	FR1	0	R1349T
611.21	0.0	612032	COUNTDOWN_END	n/a	n/a	n/a	-999	1	[0, 0, 0]	n/a	FR1	0	R1349T
611.21	1.171	612032	ORIENT_START	n/a	n/a	n/a	-999	1	[0, 0, 0]	n/a	FR1	0	R1349T
612.381	0.0	613203	ORIENT_END	n/a	n/a	n/a	-999	1	[0, 0, 0]	n/a	FR1	0	R1349T
612.381	0.793	613203	ENCODING_START	n/a	n/a	n/a	-999	1	[0, 0, 0]	n/a	FR1	0	R1349T
613.174	1.624	613996	WORD	n/a	wordpools/wordpool_EN.txt	DESK	1	1	[0, 0, 0]	n/a	FR1	0	R1349T
614.798	0.909	615620	WORD_OFF	n/a	n/a	DESK	1	1	[0, 0, 0]	n/a	FR1	0	R1349T
615.707	1.624	616529	WORD	n/a	wordpools/wordpool_EN.txt	CASH	2	1	[0, 0, 0]	n/a	FR1	0	R1349T
617.331	0.851	618153	WORD_OFF	n/a	n/a	CASH	2	1	[0, 0, 0]	n/a	FR1	0	R1349T
618.182	1.634	619004	WORD	n/a	wordpools/wordpool_EN.txt	CHALK	3	1	[0, 0, 0]	n/a	FR1	0	R1349T
619.816	1.085	620638	WORD_OFF	n/a	n/a	CHALK	3	1	[0, 0, 0]	n/a	FR1	0	R1349T
620.901	1.632	621723	WORD	n/a	wordpools/wordpool_EN.txt	BOWL	4	1	[0, 0, 0]	n/a	FR1	0	R1349T
622.533	0.796	623355	WORD_OFF	n/a	n/a	BOWL	4	1	[0, 0, 0]	n/a	FR1	0	R1349T
623.329	1.638	624151	WORD	n/a	wordpools/wordpool_EN.txt	SLEEVE	5	1	[0, 0, 0]	n/a	FR1	0	R1349T
624.967	0.764	625789	WORD_OFF	n/a	n/a	SLEEVE	5	1	[0, 0, 0]	n/a	FR1	0	R1349T
625.731	1.635	626553	WORD	n/a	wordpools/wordpool_EN.txt	CLAY	6	1	[0, 0, 0]	n/a	FR1	0	R1349T
627.366	0.896	628188	WORD_OFF	n/a	n/a	CLAY	6	1	[0, 0, 0]	n/a	FR1	0	R1349T
628.262	1.639	629084	WORD	n/a	wordpools/wordpool_EN.txt	PHONE	7	1	[0, 0, 0]	n/a	FR1	0	R1349T
629.901	0.848	630723	WORD_OFF	n/a	n/a	PHONE	7	1	[0, 0, 0]	n/a	FR1	0	R1349T
630.749	1.636	631571	WORD	n/a	wordpools/wordpool_EN.txt	PALM	8	1	[0, 0, 0]	n/a	FR1	0	R1349T
632.385	0.756	633207	WORD_OFF	n/a	n/a	PALM	8	1	[0, 0, 0]	n/a	FR1	0	R1349T
633.141	1.611	633962	WORD	n/a	wordpools/wordpool_EN.txt	FACE	9	1	[0, 0, 0]	n/a	FR1	0	R1349T
634.752	0.87	635573	WORD_OFF	n/a	n/a	FACE	9	1	[0, 0, 0]	n/a	FR1	0	R1349T
635.622	1.629	636443	WORD	n/a	wordpools/wordpool_EN.txt	STAIR	10	1	[0, 0, 0]	n/a	FR1	0	R1349T
637.251	0.815	638072	WORD_OFF	n/a	n/a	STAIR	10	1	[0, 0, 0]	n/a	FR1	0	R1349T
638.066	1.637	638887	WORD	n/a	wordpools/wordpool_EN.txt	NET	11	1	[0, 0, 0]	n/a	FR1	0	R1349T
639.703	1.096	640524	WORD_OFF	n/a	n/a	NET	11	1	[0, 0, 0]	n/a	FR1	0	R1349T
640.799	1.638	641620	WORD	n/a	wordpools/wordpool_EN.txt	WHEEL	12	1	[0, 0, 0]	n/a	FR1	0	R1349T
642.437	0.0	643258	WORD_OFF	n/a	n/a	WHEEL	12	1	[0, 0, 0]	n/a	FR1	0	R1349T
642.437	0.0	643258	ENCODING_END	n/a	n/a	n/a	-999	1	[0, 0, 0]	n/a	FR1	0	R1349T
642.437	0.0	643258	DISTRACT_START	n/a	n/a	n/a	-999	1	[0, 0, 0]	n/a	FR1	0	R1349T
642.437	0.016	643258	START	n/a	n/a	n/a	-999	1	[-999, -999, -999]	n/a	FR1	0	R1349T
642.453	6.485	643274	PROB	6.485	n/a	n/a	-999	1	[4, 4, 3]	11	FR1	0	R1349T
648.938	3.15	649759	PROB	3.15	n/a	n/a	-999	1	[3, 8, 2]	13	FR1	0	R1349T
652.088	3.717	652909	PROB	3.717	n/a	n/a	-999	1	[5, 6, 9]	20	FR1	0	R1349T
655.805	3.168	656626	PROB	3.168	n/a	n/a	-999	1	[8, 5, 5]	18	FR1	0	R1349T
658.973	3.283	659793	PROB	3.283	n/a	n/a	-999	1	[7, 3, 9]	19	FR1	0	R1349T
662.256	4.261	663076	PROB	4.261	n/a	n/a	-999	1	[7, 9, 1]	17	FR1	0	R1349T
666.517	0.007	667337	STOP	n/a	n/a	n/a	-999	1	[-999, -999, -999]	n/a	FR1	0	R1349T
666.524	0.579	667344	DISTRACT_END	n/a	n/a	n/a	-999	1	[0, 0, 0]	n/a	FR1	0	R1349T
667.103	1.555	667923	RETRIEVAL_ORIENT_START	n/a	n/a	n/a	-999	1	[0, 0, 0]	n/a	FR1	0	R1349T
668.658	0.0	669478	REC_START	n/a	n/a	n/a	-999	1	[0, 0, 0]	n/a	FR1	0	R1349T
668.658	1.326	669478	RETRIEVAL_ORIENT_END	n/a	n/a	n/a	-999	1	[0, 0, 0]	n/a	FR1	0	R1349T
669.984	1.18	670804	REC_WORD	1.18	n/a	CASH	2	1	[0, 0, 0]	n/a	FR1	0	R1349T
671.164	1.145	671984	REC_WORD	1.145	n/a	DESK	1	1	[0, 0, 0]	n/a	FR1	0	R1349T
672.309	4.58	673129	REC_WORD	4.58	n/a	SLEEVE	5	1	[0, 0, 0]	n/a	FR1	0	R1349T
676.889	1.223	677709	REC_WORD	1.223	n/a	PLAY	-999	1	[0, 0, 0]	n/a	FR1	0	R1349T
678.112	1.164	678932	REC_WORD_VV	1.164	n/a	<>	-999	1	[0, 0, 0]	n/a	FR1	0	R1349T
679.276	19.395	680096	REC_WORD	19.395	n/a	CLAY	6	1	[0, 0, 0]	n/a	FR1	0	R1349T
698.671	0.001	699490	REC_END	n/a	n/a	n/a	-999	1	[0, 0, 0]	n/a	FR1	0	R1349T
698.672	0.014	699491	TRIAL_END	n/a	n/a	n/a	-999	1	[0, 0, 0]	n/a	FR1	0	R1349T
698.686	0.0	699505	TRIAL_START	n/a	n/a	n/a	-999	2	[0, 0, 0]	n/a	FR1	0	R1349T
698.686	0.0	699505	TRIAL	n/a	n/a	n/a	-999	2	[0, 0, 0]	n/a	FR1	0	R1349T
698.686	11.38	699505	WAITING_START	n/a	n/a	n/a	-999	2	[0, 0, 0]	n/a	FR1	0	R1349T
710.066	0.0	710884	WAITING_END	n/a	n/a	n/a	-999	2	[0, 0, 0]	n/a	FR1	0	R1349T
710.066	10.428	710884	COUNTDOWN_START	n/a	n/a	n/a	-999	2	[0, 0, 0]	n/a	FR1	0	R1349T
720.494	0.0	721312	COUNTDOWN_END	n/a	n/a	n/a	-999	2	[0, 0, 0]	n/a	FR1	0	R1349T
720.494	1.024	721312	ORIENT_START	n/a	n/a	n/a	-999	2	[0, 0, 0]	n/a	FR1	0	R1349T
721.518	0.0	722336	ENCODING_START	n/a	n/a	n/a	-999	2	[0, 0, 0]	n/a	FR1	0	R1349T
721.518	0.838	722336	ORIENT_END	n/a	n/a	n/a	-999	2	[0, 0, 0]	n/a	FR1	0	R1349T
722.356	1.629	723174	WORD	n/a	wordpools/wordpool_EN.txt	KITE	1	2	[0, 0, 0]	n/a	FR1	0	R1349T
723.985	1.137	724803	WORD_OFF	n/a	n/a	KITE	1	2	[0, 0, 0]	n/a	FR1	0	R1349T
725.122	1.613	725940	WORD	n/a	wordpools/wordpool_EN.txt	GRAPE	2	2	[0, 0, 0]	n/a	FR1	0	R1349T
726.735	1.026	727552	WORD_OFF	n/a	n/a	GRAPE	2	2	[0, 0, 0]	n/a	FR1	0	R1349T
727.761	1.625	728578	WORD	n/a	wordpools/wordpool_EN.txt	CROW	3	2	[0, 0, 0]	n/a	FR1	0	R1349T
729.386	1.135	730203	WORD_OFF	n/a	n/a	CROW	3	2	[0, 0, 0]	n/a	FR1	0	R1349T
730.521	1.631	731338	WORD	n/a	wordpools/wordpool_EN.txt	COUCH	4	2	[0, 0, 0]	n/a	FR1	0	R1349T
732.152	0.932	732969	WORD_OFF	n/a	n/a	COUCH	4	2	[0, 0, 0]	n/a	FR1	0	R1349T
733.084	1.636	733901	WORD	n/a	wordpools/wordpool_EN.txt	JAIL	5	2	[0, 0, 0]	n/a	FR1	0	R1349T
734.72	0.763	735537	WORD_OFF	n/a	n/a	JAIL	5	2	[0, 0, 0]	n/a	FR1	0	R1349T
735.483	1.621	736300	WORD	n/a	wordpools/wordpool_EN.txt	KEY	6	2	[0, 0, 0]	n/a	FR1	0	R1349T
737.104	0.93	737921	WORD_OFF	n/a	n/a	KEY	6	2	[0, 0, 0]	n/a	FR1	0	R1349T
738.034	1.637	738851	WORD	n/a	wordpools/wordpool_EN.txt	SKY	7	2	[0, 0, 0]	n/a	FR1	0	R1349T
739.671	0.792	740488	WORD_OFF	n/a	n/a	SKY	7	2	[0, 0, 0]	n/a	FR1	0	R1349T
740.463	1.625	741280	WORD	n/a	wordpools/wordpool_EN.txt	CLOCK	8	2	[0, 0, 0]	n/a	FR1	0	R1349T
742.088	1.119	742905	WORD_OFF	n/a	n/a	CLOCK	8	2	[0, 0, 0]	n/a	FR1	0	R1349T
743.207	1.615	744024	WORD	n/a	wordpools/wordpool_EN.txt	SMILE	9	2	[0, 0, 0]	n/a	FR1	0	R1349T
744.822	1.002	745639	WORD_OFF	n/a	n/a	SMILE	9	2	[0, 0, 0]	n/a	FR1	0	R1349T
745.824	1.632	746641	WORD	n/a	wordpools/wordpool_EN.txt	SHELL	10	2	[0, 0, 0]	n/a	FR1	0	R1349T
747.456	0.902	748273	WORD_OFF	n/a	n/a	SHELL	10	2	[0, 0, 0]	n/a	FR1	0	R1349T
748.358	1.615	749175	WORD	n/a	wordpools/wordpool_EN.txt	PLANT	11	2	[0, 0, 0]	n/a	FR1	0	R1349T
749.973	0.811	750789	WORD_OFF	n/a	n/a	PLANT	11	2	[0, 0, 0]	n/a	FR1	0	R1349T
750.784	1.606	751600	WORD	n/a	wordpools/wordpool_EN.txt	PEAR	12	2	[0, 0, 0]	n/a	FR1	0	R1349T
752.39	0.0	753206	WORD_OFF	n/a	n/a	PEAR	12	2	[0, 0, 0]	n/a	FR1	0	R1349T
752.39	0.001	753206	ENCODING_END	n/a	n/a	n/a	-999	2	[0, 0, 0]	n/a	FR1	0	R1349T
752.391	0.0	753207	DISTRACT_START	n/a	n/a	n/a	-999	2	[0, 0, 0]	n/a	FR1	0	R1349T
752.391	0.015	753207	START	n/a	n/a	n/a	-999	2	[-999, -999, -999]	n/a	FR1	0	R1349T
752.406	4.184	753222	PROB	4.184	n/a	n/a	-999	2	[8, 1, 6]	15	FR1	0	R1349T
756.59	3.684	757406	PROB	3.684	n/a	n/a	-999	2	[4, 1, 3]	8	FR1	0	R1349T
760.274	3.334	761090	PROB	3.334	n/a	n/a	-999	2	[6, 4, 5]	15	FR1	0	R1349T
763.608	4.7	764424	PROB	4.7	n/a	n/a	-999	2	[3, 6, 5]	14	FR1	0	R1349T
768.308	2.735	769124	PROB	2.735	n/a	n/a	-999	2	[6, 1, 4]	11	FR1	0	R1349T
771.043	3.914	771859	PROB	3.914	n/a	n/a	-999	2	[4, 7, 1]	12	FR1	0	R1349T
774.957	0.02	775772	STOP	n/a	n/a	n/a	-999	2	[-999, -999, -999]	n/a	FR1	0	R1349T
774.977	0.669	775792	DISTRACT_END	n/a	n/a	n/a	-999	2	[0, 0, 0]	n/a	FR1	0	R1349T
775.646	1.714	776461	RETRIEVAL_ORIENT_START	n/a	n/a	n/a	-999	2	[0, 0, 0]	n/a	FR1	0	R1349T
777.36	0.0	778175	REC_START	n/a	n/a	n/a	-999	2	[0, 0, 0]	n/a	FR1	0	R1349T
777.36	2.18	778175	RETRIEVAL_ORIENT_END	n/a	n/a	n/a	-999	2	[0, 0, 0]	n/a	FR1	0	R1349T
779.54	1.71	780355	REC_WORD	1.71	n/a	KITE	1	2	[0, 0, 0]	n/a	FR1	0	R1349T
781.25	6.979	782065	REC_WORD	6.979	n/a	CLOCK	8	2	[0, 0, 0]	n/a	FR1	0	R1349T
788.229	8.214	789044	REC_WORD	8.214	n/a	PEAR	12	2	[0, 0, 0]	n/a	FR1	0	R1349T
796.443	10.931	797257	REC_WORD	10.931	n/a	SKY	7	2	[0, 0, 0]	n/a	FR1	0	R1349T
807.374	0.0	808188	REC_END	n/a	n/a	n/a	-999	2	[0, 0, 0]	n/a	FR1	0	R1349T
807.374	0.017	808188	TRIAL_END	n/a	n/a	n/a	-999	2	[0, 0, 0]	n/a	FR1	0	R1349T
807.391	0.0	808205	TRIAL	n/a	n/a	n/a	-999	3	[0, 0, 0]	n/a	FR1	0	R1349T
807.391	0.0	808205	TRIAL_START	n/a	n/a	n/a	-999	3	[0, 0, 0]	n/a	FR1	0	R1349T
807.391	10.644	808205	WAITING_START	n/a	n/a	n/a	-999	3	[0, 0, 0]	n/a	FR1	0	R1349T
818.035	0.001	818849	WAITING_END	n/a	n/a	n/a	-999	3	[0, 0, 0]	n/a	FR1	0	R1349T
818.036	10.428	818850	COUNTDOWN_START	n/a	n/a	n/a	-999	3	[0, 0, 0]	n/a	FR1	0	R1349T
828.464	0.0	829277	COUNTDOWN_END	n/a	n/a	n/a	-999	3	[0, 0, 0]	n/a	FR1	0	R1349T
828.464	1.023	829277	ORIENT_START	n/a	n/a	n/a	-999	3	[0, 0, 0]	n/a	FR1	0	R1349T
829.487	0.001	830300	ORIENT_END	n/a	n/a	n/a	-999	3	[0, 0, 0]	n/a	FR1	0	R1349T
829.488	1.059	830301	ENCODING_START	n/a	n/a	n/a	-999	3	[0, 0, 0]	n/a	FR1	0	R1349T
830.547	1.623	831360	WORD	n/a	wordpools/wordpool_EN.txt	WAVE	1	3	[0, 0, 0]	n/a	FR1	0	R1349T
832.17	0.755	832983	WORD_OFF	n/a	n/a	WAVE	1	3	[0, 0, 0]	n/a	FR1	0	R1349T
832.925	1.63	833738	WORD	n/a	wordpools/wordpool_EN.txt	MUD	2	3	[0, 0, 0]	n/a	FR1	0	R1349T
834.555	1.115	835368	WORD_OFF	n/a	n/a	MUD	2	3	[0, 0, 0]	n/a	FR1	0	R1349T
835.67	1.634	836483	WORD	n/a	wordpools/wordpool_EN.txt	PANTS	3	3	[0, 0, 0]	n/a	FR1	0	R1349T
837.304	0.93	838117	WORD_OFF	n/a	n/a	PANTS	3	3	[0, 0, 0]	n/a	FR1	0	R1349T
838.234	1.622	839047	WORD	n/a	wordpools/wordpool_EN.txt	OWL	4	3	[0, 0, 0]	n/a	FR1	0	R1349T
839.856	1.041	840669	WORD_OFF	n/a	n/a	OWL	4	3	[0, 0, 0]	n/a	FR1	0	R1349T
840.897	1.626	841710	WORD	n/a	wordpools/wordpool_EN.txt	SEA	5	3	[0, 0, 0]	n/a	FR1	0	R1349T
842.523	1.118	843336	WORD_OFF	n/a	n/a	SEA	5	3	[0, 0, 0]	n/a	FR1	0	R1349T
843.641	1.632	844453	WORD	n/a	wordpools/wordpool_EN.txt	FOX	6	3	[0, 0, 0]	n/a	FR1	0	R1349T
845.273	0.887	846085	WORD_OFF	n/a	n/a	FOX	6	3	[0, 0, 0]	n/a	FR1	0	R1349T
846.16	1.631	846972	WORD	n/a	wordpools/wordpool_EN.txt	SOAP	7	3	[0, 0, 0]	n/a	FR1	0	R1349T
847.791	0.847	848603	WORD_OFF	n/a	n/a	SOAP	7	3	[0, 0, 0]	n/a	FR1	0	R1349T
848.638	1.635	849450	WORD	n/a	wordpools/wordpool_EN.txt	HOLE	8	3	[0, 0, 0]	n/a	FR1	0	R1349T
850.273	0.994	851085	WORD_OFF	n/a	n/a	HOLE	8	3	[0, 0, 0]	n/a	FR1	0	R1349T
851.267	1.608	852079	WORD	n/a	wordpools/wordpool_EN.txt	TANK	9	3	[0, 0, 0]	n/a	FR1	0	R1349T
852.875	1.123	853687	WORD_OFF	n/a	n/a	TANK	9	3	[0, 0, 0]	n/a	FR1	0	R1349T
853.998	1.627	854810	WORD	n/a	wordpools/wordpool_EN.txt	BRIDGE	10	3	[0, 0, 0]	n/a	FR1	0	R1349T
855.625	1.033	856437	WORD_OFF	n/a	n/a	BRIDGE	10	3	[0, 0, 0]	n/a	FR1	0	R1349T
856.658	1.634	857470	WORD	n/a	wordpools/wordpool_EN.txt	FOOD	11	3	[0, 0, 0]	n/a	FR1	0	R1349T
858.292	1.117	859104	WORD_OFF	n/a	n/a	FOOD	11	3	[0, 0, 0]	n/a	FR1	0	R1349T
859.409	1.634	860221	WORD	n/a	wordpools/wordpool_EN.txt	SEAT	12	3	[0, 0, 0]	n/a	FR1	0	R1349T
861.043	0.0	861855	WORD_OFF	n/a	n/a	SEAT	12	3	[0, 0, 0]	n/a	FR1	0	R1349T
861.043	0.001	861855	ENCODING_END	n/a	n/a	n/a	-999	3	[0, 0, 0]	n/a	FR1	0	R1349T
861.044	0.0	861856	DISTRACT_START	n/a	n/a	n/a	-999	3	[0, 0, 0]	n/a	FR1	0	R1349T
861.044	0.015	861856	START	n/a	n/a	n/a	-999	3	[-999, -999, -999]	n/a	FR1	0	R1349T
861.059	5.2	861871	PROB	5.2	n/a	n/a	-999	3	[7, 2, 7]	16	FR1	0	R1349T
866.259	3.068	867071	PROB	3.068	n/a	n/a	-999	3	[1, 5, 8]	14	FR1	0	R1349T
869.327	2.601	870138	PROB	2.601	n/a	n/a	-999	3	[1, 5, 5]	11	FR1	0	R1349T
871.928	3.3	872739	PROB	3.3	n/a	n/a	-999	3	[9, 2, 3]	14	FR1	0	R1349T
875.228	3.017	876039	PROB	3.017	n/a	n/a	-999	3	[9, 4, 9]	22	FR1	0	R1349T
878.245	3.744	879056	PROB	3.744	n/a	n/a	-999	3	[9, 5, 4]	18	FR1	0	R1349T
881.989	0.008	882800	STOP	n/a	n/a	n/a	-999	3	[-999, -999, -999]	n/a	FR1	0	R1349T
881.997	0.684	882808	DISTRACT_END	n/a	n/a	n/a	-999	3	[0, 0, 0]	n/a	FR1	0	R1349T
882.681	1.7	883492	RETRIEVAL_ORIENT_START	n/a	n/a	n/a	-999	3	[0, 0, 0]	n/a	FR1	0	R1349T
884.381	0.0	885192	RETRIEVAL_ORIENT_END	n/a	n/a	n/a	-999	3	[0, 0, 0]	n/a	FR1	0	R1349T
884.381	1.066	885192	REC_START	n/a	n/a	n/a	-999	3	[0, 0, 0]	n/a	FR1	0	R1349T
885.447	1.064	886258	REC_WORD	1.064	n/a	MUD	2	3	[0, 0, 0]	n/a	FR1	0	R1349T
886.511	7.102	887322	REC_WORD	7.102	n/a	WAVE	1	3	[0, 0, 0]	n/a	FR1	0	R1349T
893.613	2.888	894423	REC_WORD	2.888	n/a	KITE	-999	3	[0, 0, 0]	n/a	FR1	0	R1349T
896.501	2.636	897311	REC_WORD	2.636	n/a	PANTS	3	3	[0, 0, 0]	n/a	FR1	0	R1349T
899.137	6.777	899947	REC_WORD	6.777	n/a	BRIDGE	10	3	[0, 0, 0]	n/a	FR1	0	R1349T
905.914	5.049	906724	REC_WORD	5.049	n/a	COUCH	-999	3	[0, 0, 0]	n/a	FR1	0	R1349T
910.963	2.491	911773	REC_WORD	2.491	n/a	TOOL	-999	3	[0, 0, 0]	n/a	FR1	0	R1349T
913.454	0.939	914263	REC_WORD_VV	0.939	n/a	<>	-999	3	[0, 0, 0]	n/a	FR1	0	R1349T
914.393	0.0	915202	REC_END	n/a	n/a	n/a	-999	3	[0, 0, 0]	n/a	FR1	0	R1349T
914.393	0.014	915202	TRIAL_END	n/a	n/a	n/a	-999	3	[0, 0, 0]	n/a	FR1	0	R1349T
914.407	0.0	915216	WAITING_START	n/a	n/a	n/a	-999	4	[0, 0, 0]	n/a	FR1	0	R1349T
914.407	0.0	915216	TRIAL_START	n/a	n/a	n/a	-999	4	[0, 0, 0]	n/a	FR1	0	R1349T
914.407	7.03	915216	TRIAL	n/a	n/a	n/a	-999	4	[0, 0, 0]	n/a	FR1	0	R1349T
921.437	0.001	922246	WAITING_END	n/a	n/a	n/a	-999	4	[0, 0, 0]	n/a	FR1	0	R1349T
921.438	10.428	922247	COUNTDOWN_START	n/a	n/a	n/a	-999	4	[0, 0, 0]	n/a	FR1	0	R1349T
931.866	0.001	932675	COUNTDOWN_END	n/a	n/a	n/a	-999	4	[0, 0, 0]	n/a	FR1	0	R1349T
931.867	1.122	932676	ORIENT_START	n/a	n/a	n/a	-999	4	[0, 0, 0]	n/a	FR1	0	R1349T
932.989	0.001	933798	ORIENT_END	n/a	n/a	n/a	-999	4	[0, 0, 0]	n/a	FR1	0	R1349T
932.99	0.925	933799	ENCODING_START	n/a	n/a	n/a	-999	4	[0, 0, 0]	n/a	FR1	0	R1349T
933.915	1.625	934724	WORD	n/a	wordpools/wordpool_EN.txt	SAIL	1	4	[0, 0, 0]	n/a	FR1	0	R1349T
935.54	0.862	936349	WORD_OFF	n/a	n/a	SAIL	1	4	[0, 0, 0]	n/a	FR1	0	R1349T
936.402	1.622	937210	WORD	n/a	wordpools/wordpool_EN.txt	FOOT	2	4	[0, 0, 0]	n/a	FR1	0	R1349T
938.024	0.782	938832	WORD_OFF	n/a	n/a	FOOT	2	4	[0, 0, 0]	n/a	FR1	0	R1349T
938.806	1.635	939614	WORD	n/a	wordpools/wordpool_EN.txt	SPOON	3	4	[0, 0, 0]	n/a	FR1	0	R1349T
940.441	0.908	941249	WORD_OFF	n/a	n/a	SPOON	3	4	[0, 0, 0]	n/a	FR1	0	R1349T
941.349	1.609	942157	WORD	n/a	wordpools/wordpool_EN.txt	BAG	4	4	[0, 0, 0]	n/a	FR1	0	R1349T
942.958	0.809	943766	WORD_OFF	n/a	n/a	BAG	4	4	[0, 0, 0]	n/a	FR1	0	R1349T
943.767	1.625	944575	WORD	n/a	wordpools/wordpool_EN.txt	TEETH	5	4	[0, 0, 0]	n/a	FR1	0	R1349T
945.392	0.754	946200	WORD_OFF	n/a	n/a	TEETH	5	4	[0, 0, 0]	n/a	FR1	0	R1349T
946.146	1.613	946954	WORD	n/a	wordpools/wordpool_EN.txt	SEED	6	4	[0, 0, 0]	n/a	FR1	0	R1349T
947.759	0.855	948567	WORD_OFF	n/a	n/a	SEED	6	4	[0, 0, 0]	n/a	FR1	0	R1349T
948.614	1.628	949422	WORD	n/a	wordpools/wordpool_EN.txt	CHIN	7	4	[0, 0, 0]	n/a	FR1	0	R1349T
950.242	0.882	951050	WORD_OFF	n/a	n/a	CHIN	7	4	[0, 0, 0]	n/a	FR1	0	R1349T
951.124	1.636	951932	WORD	n/a	wordpools/wordpool_EN.txt	WEB	8	4	[0, 0, 0]	n/a	FR1	0	R1349T
952.76	0.801	953568	WORD_OFF	n/a	n/a	WEB	8	4	[0, 0, 0]	n/a	FR1	0	R1349T
953.561	1.631	954369	WORD	n/a	wordpools/wordpool_EN.txt	SHEET	9	4	[0, 0, 0]	n/a	FR1	0	R1349T
955.192	0.815	956000	WORD_OFF	n/a	n/a	SHEET	9	4	[0, 0, 0]	n/a	FR1	0	R1349T
956.007	1.637	956815	WORD	n/a	wordpools/wordpool_EN.txt	SWORD	10	4	[0, 0, 0]	n/a	FR1	0	R1349T
957.644	0.802	958452	WORD_OFF	n/a	n/a	SWORD	10	4	[0, 0, 0]	n/a	FR1	0	R1349T
958.446	1.632	959254	WORD	n/a	wordpools/wordpool_EN.txt	SPARK	11	4	[0, 0, 0]	n/a	FR1	0	R1349T
960.078	0.932	960885	WORD_OFF	n/a	n/a	SPARK	11	4	[0, 0, 0]	n/a	FR1	0	R1349T
961.01	1.635	961817	WORD	n/a	wordpools/wordpool_EN.txt	HAND	12	4	[0, 0, 0]	n/a	FR1	0	R1349T
962.645	0.0	963452	WORD_OFF	n/a	n/a	HAND	12	4	[0, 0, 0]	n/a	FR1	0	R1349T
962.645	0.001	963452	ENCODING_END	n/a	n/a	n/a	-999	4	[0, 0, 0]	n/a	FR1	0	R1349T
962.646	0.0	963453	DISTRACT_START	n/a	n/a	n/a	-999	4	[0, 0, 0]	n/a	FR1	0	R1349T
962.646	0.015	963453	START	n/a	n/a	n/a	-999	4	[-999, -999, -999]	n/a	FR1	0	R1349T
962.661	4.583	963468	PROB	4.583	n/a	n/a	-999	4	[7, 6, 6]	19	FR1	0	R1349T
967.244	3.369	968051	PROB	3.369	n/a	n/a	-999	4	[5, 8, 5]	18	FR1	0	R1349T
970.613	3.934	971420	PROB	3.934	n/a	n/a	-999	4	[5, 8, 1]	14	FR1	0	R1349T
974.547	5.284	975354	PROB	5.284	n/a	n/a	-999	4	[2, 9, 4]	17	FR1	0	R1349T
979.831	4.981	980638	PROB	4.981	n/a	n/a	-999	4	[9, 7, 2]	18	FR1	0	R1349T
984.812	0.02	985618	STOP	n/a	n/a	n/a	-999	4	[-999, -999, -999]	n/a	FR1	0	R1349T
984.832	0.676	985638	DISTRACT_END	n/a	n/a	n/a	-999	4	[0, 0, 0]	n/a	FR1	0	R1349T
985.508	1.724	986314	RETRIEVAL_ORIENT_START	n/a	n/a	n/a	-999	4	[0, 0, 0]	n/a	FR1	0	R1349T
987.232	0.0	988038	REC_START	n/a	n/a	n/a	-999	4	[0, 0, 0]	n/a	FR1	0	R1349T
987.232	3.877	988038	RETRIEVAL_ORIENT_END	n/a	n/a	n/a	-999	4	[0, 0, 0]	n/a	FR1	0	R1349T
991.109	0.84	991915	REC_WORD_VV	0.84	n/a	<>	-999	4	[0, 0, 0]	n/a	FR1	0	R1349T
991.949	3.648	992755	REC_WORD	3.648	n/a	SPARK	11	4	[0, 0, 0]	n/a	FR1	0	R1349T
995.597	1.118	996403	REC_WORD	1.118	n/a	TEETH	5	4	[0, 0, 0]	n/a	FR1	0	R1349T
996.715	8.276	997521	REC_WORD	8.276	n/a	SMILE	-999	4	[0, 0, 0]	n/a	FR1	0	R1349T
1004.991	12.253	1005797	REC_WORD	12.253	n/a	POLE	-999	4	[0, 0, 0]	n/a	FR1	0	R1349T
1017.244	0.0	1018049	TRIAL_END	n/a	n/a	n/a	-999	4	[0, 0, 0]	n/a	FR1	0	R1349T
1017.244	0.016	1018049	REC_END	n/a	n/a	n/a	-999	4	[0, 0, 0]	n/a	FR1	0	R1349T
1017.26	0.0	1018065	WAITING_START	n/a	n/a	n/a	-999	5	[0, 0, 0]	n/a	FR1	0	R1349T
1017.26	0.0	1018065	TRIAL	n/a	n/a	n/a	-999	5	[0, 0, 0]	n/a	FR1	0	R1349T
1017.26	10.313	1018065	TRIAL_START	n/a	n/a	n/a	-999	5	[0, 0, 0]	n/a	FR1	0	R1349T
1027.573	0.001	1028378	WAITING_END	n/a	n/a	n/a	-999	5	[0, 0, 0]	n/a	FR1	0	R1349T
1027.574	10.428	1028379	COUNTDOWN_START	n/a	n/a	n/a	-999	5	[0, 0, 0]	n/a	FR1	0	R1349T
1038.002	0.001	1038806	COUNTDOWN_END	n/a	n/a	n/a	-999	5	[0, 0, 0]	n/a	FR1	0	R1349T
1038.003	1.171	1038807	ORIENT_START	n/a	n/a	n/a	-999	5	[0, 0, 0]	n/a	FR1	0	R1349T
1039.174	0.001	1039978	ORIENT_END	n/a	n/a	n/a	-999	5	[0, 0, 0]	n/a	FR1	0	R1349T
1039.175	0.982	1039979	ENCODING_START	n/a	n/a	n/a	-999	5	[0, 0, 0]	n/a	FR1	0	R1349T
1040.157	1.619	1040961	WORD	n/a	wordpools/wordpool_EN.txt	SINK	1	5	[0, 0, 0]	n/a	FR1	0	R1349T
1041.776	1.097	1042580	WORD_OFF	n/a	n/a	SINK	1	5	[0, 0, 0]	n/a	FR1	0	R1349T
1042.873	1.636	1043677	WORD	n/a	wordpools/wordpool_EN.txt	BAND	2	5	[0, 0, 0]	n/a	FR1	0	R1349T
1044.509	0.801	1045313	WORD_OFF	n/a	n/a	BAND	2	5	[0, 0, 0]	n/a	FR1	0	R1349T
1045.31	1.633	1046114	WORD	n/a	wordpools/wordpool_EN.txt	FLUTE	3	5	[0, 0, 0]	n/a	FR1	0	R1349T
1046.943	1.137	1047747	WORD_OFF	n/a	n/a	FLUTE	3	5	[0, 0, 0]	n/a	FR1	0	R1349T
1048.08	1.631	1048884	WORD	n/a	wordpools/wordpool_EN.txt	SUIT	4	5	[0, 0, 0]	n/a	FR1	0	R1349T
1049.711	1.135	1050515	WORD_OFF	n/a	n/a	SUIT	4	5	[0, 0, 0]	n/a	FR1	0	R1349T
1050.846	1.632	1051650	WORD	n/a	wordpools/wordpool_EN.txt	ROOF	5	5	[0, 0, 0]	n/a	FR1	0	R1349T
1052.478	0.896	1053282	WORD_OFF	n/a	n/a	ROOF	5	5	[0, 0, 0]	n/a	FR1	0	R1349T
1053.374	1.638	1054177	WORD	n/a	wordpools/wordpool_EN.txt	SIGN	6	5	[0, 0, 0]	n/a	FR1	0	R1349T
1055.012	0.985	1055815	WORD_OFF	n/a	n/a	SIGN	6	5	[0, 0, 0]	n/a	FR1	0	R1349T
1055.997	1.632	1056800	WORD	n/a	wordpools/wordpool_EN.txt	STRAW	7	5	[0, 0, 0]	n/a	FR1	0	R1349T
1057.629	0.864	1058432	WORD_OFF	n/a	n/a	STRAW	7	5	[0, 0, 0]	n/a	FR1	0	R1349T
1058.493	1.635	1059296	WORD	n/a	wordpools/wordpool_EN.txt	FISH	8	5	[0, 0, 0]	n/a	FR1	0	R1349T
1060.128	1.107	1060931	WORD_OFF	n/a	n/a	FISH	8	5	[0, 0, 0]	n/a	FR1	0	R1349T
1061.235	1.628	1062038	WORD	n/a	wordpools/wordpool_EN.txt	PARK	9	5	[0, 0, 0]	n/a	FR1	0	R1349T
1062.863	1.048	1063666	WORD_OFF	n/a	n/a	PARK	9	5	[0, 0, 0]	n/a	FR1	0	R1349T
1063.911	1.636	1064714	WORD	n/a	wordpools/wordpool_EN.txt	BOX	10	5	[0, 0, 0]	n/a	FR1	0	R1349T
1065.547	0.841	1066350	WORD_OFF	n/a	n/a	BOX	10	5	[0, 0, 0]	n/a	FR1	0	R1349T
1066.388	1.626	1067191	WORD	n/a	wordpools/wordpool_EN.txt	OAR	11	5	[0, 0, 0]	n/a	FR1	0	R1349T
1068.014	1.13	1068817	WORD_OFF	n/a	n/a	OAR	11	5	[0, 0, 0]	n/a	FR1	0	R1349T
1069.144	1.637	1069947	WORD	n/a	wordpools/wordpool_EN.txt	ZOO	12	5	[0, 0, 0]	n/a	FR1	0	R1349T
1070.781	0.001	1071584	WORD_OFF	n/a	n/a	ZOO	12	5	[0, 0, 0]	n/a	FR1	0	R1349T
1070.782	0.0	1071585	ENCODING_END	n/a	n/a	n/a	-999	5	[0, 0, 0]	n/a	FR1	0	R1349T
1070.782	0.0	1071585	DISTRACT_START	n/a	n/a	n/a	-999	5	[0, 0, 0]	n/a	FR1	0	R1349T
1070.782	0.016	1071585	START	n/a	n/a	n/a	-999	5	[-999, -999, -999]	n/a	FR1	0	R1349T
1070.798	4.516	1071601	PROB	4.516	n/a	n/a	-999	5	[3, 1, 1]	5	FR1	0	R1349T
1075.314	2.867	1076117	PROB	2.867	n/a	n/a	-999	5	[5, 1, 1]	7	FR1	0	R1349T
1078.181	4.335	1078983	PROB	4.335	n/a	n/a	-999	5	[7, 6, 7]	20	FR1	0	R1349T
1082.516	3.667	1083318	PROB	3.667	n/a	n/a	-999	5	[7, 4, 7]	18	FR1	0	R1349T
1086.183	3.167	1086985	PROB	3.167	n/a	n/a	-999	5	[3, 3, 4]	10	FR1	0	R1349T
1089.35	3.154	1090152	PROB	3.154	n/a	n/a	-999	5	[1, 2, 5]	8	FR1	0	R1349T
1092.504	0.014	1093306	STOP	n/a	n/a	n/a	-999	5	[-999, -999, -999]	n/a	FR1	0	R1349T
1092.518	0.536	1093320	DISTRACT_END	n/a	n/a	n/a	-999	5	[0, 0, 0]	n/a	FR1	0	R1349T
1093.054	1.598	1093856	RETRIEVAL_ORIENT_START	n/a	n/a	n/a	-999	5	[0, 0, 0]	n/a	FR1	0	R1349T
1094.652	0.0	1095454	RETRIEVAL_ORIENT_END	n/a	n/a	n/a	-999	5	[0, 0, 0]	n/a	FR1	0	R1349T
1094.652	1.306	1095454	REC_START	n/a	n/a	n/a	-999	5	[0, 0, 0]	n/a	FR1	0	R1349T
1095.958	2.222	1096760	REC_WORD	2.222	n/a	STRAW	7	5	[0, 0, 0]	n/a	FR1	0	R1349T
1098.18	2.371	1098982	REC_WORD	2.371	n/a	BAND	2	5	[0, 0, 0]	n/a	FR1	0	R1349T
1100.551	2.613	1101352	REC_WORD	2.613	n/a	SHEET	-999	5	[0, 0, 0]	n/a	FR1	0	R1349T
1103.164	5.381	1103965	REC_WORD	5.381	n/a	FLUTE	3	5	[0, 0, 0]	n/a	FR1	0	R1349T
1108.545	15.571	1109346	REC_WORD	15.571	n/a	SINK	1	5	[0, 0, 0]	n/a	FR1	0	R1349T
1124.116	0.55	1124916	REC_WORD	0.55	n/a	OAR	11	5	[0, 0, 0]	n/a	FR1	0	R1349T
1124.666	0.0	1125466	REC_END	n/a	n/a	n/a	-999	5	[0, 0, 0]	n/a	FR1	0	R1349T
1124.666	0.016	1125466	TRIAL_END	n/a	n/a	n/a	-999	5	[0, 0, 0]	n/a	FR1	0	R1349T
1124.682	0.0	1125482	TRIAL	n/a	n/a	n/a	-999	6	[0, 0, 0]	n/a	FR1	0	R1349T
1124.682	0.001	1125482	TRIAL_START	n/a	n/a	n/a	-999	6	[0, 0, 0]	n/a	FR1	0	R1349T
1124.683	13.144	1125483	WAITING_START	n/a	n/a	n/a	-999	6	[0, 0, 0]	n/a	FR1	0	R1349T
1137.827	0.0	1138627	WAITING_END	n/a	n/a	n/a	-999	6	[0, 0, 0]	n/a	FR1	0	R1349T
1137.827	10.428	1138627	COUNTDOWN_START	n/a	n/a	n/a	-999	6	[0, 0, 0]	n/a	FR1	0	R1349T
1148.255	0.001	1149054	COUNTDOWN_END	n/a	n/a	n/a	-999	6	[0, 0, 0]	n/a	FR1	0	R1349T
1148.256	1.223	1149055	ORIENT_START	n/a	n/a	n/a	-999	6	[0, 0, 0]	n/a	FR1	0	R1349T
1149.479	0.0	1150278	ORIENT_END	n/a	n/a	n/a	-999	6	[0, 0, 0]	n/a	FR1	0	R1349T
1149.479	0.858	1150278	ENCODING_START	n/a	n/a	n/a	-999	6	[0, 0, 0]	n/a	FR1	0	R1349T
1150.337	1.609	1151136	WORD	n/a	wordpools/wordpool_EN.txt	LEAF	1	6	[0, 0, 0]	n/a	FR1	0	R1349T
1151.946	1.003	1152745	WORD_OFF	n/a	n/a	LEAF	1	6	[0, 0, 0]	n/a	FR1	0	R1349T
1152.949	1.631	1153748	WORD	n/a	wordpools/wordpool_EN.txt	BOOT	2	6	[0, 0, 0]	n/a	FR1	0	R1349T
1154.58	0.822	1155379	WORD_OFF	n/a	n/a	BOOT	2	6	[0, 0, 0]	n/a	FR1	0	R1349T
1155.402	1.628	1156201	WORD	n/a	wordpools/wordpool_EN.txt	PEA	3	6	[0, 0, 0]	n/a	FR1	0	R1349T
1157.03	0.92	1157829	WORD_OFF	n/a	n/a	PEA	3	6	[0, 0, 0]	n/a	FR1	0	R1349T
1157.95	1.631	1158749	WORD	n/a	wordpools/wordpool_EN.txt	MAZE	4	6	[0, 0, 0]	n/a	FR1	0	R1349T
1159.581	0.833	1160380	WORD_OFF	n/a	n/a	MAZE	4	6	[0, 0, 0]	n/a	FR1	0	R1349T
1160.414	1.634	1161213	WORD	n/a	wordpools/wordpool_EN.txt	ROOT	5	6	[0, 0, 0]	n/a	FR1	0	R1349T
1162.048	0.891	1162847	WORD_OFF	n/a	n/a	ROOT	5	6	[0, 0, 0]	n/a	FR1	0	R1349T
1162.939	1.626	1163738	WORD	n/a	wordpools/wordpool_EN.txt	RAKE	6	6	[0, 0, 0]	n/a	FR1	0	R1349T
1164.565	0.838	1165364	WORD_OFF	n/a	n/a	RAKE	6	6	[0, 0, 0]	n/a	FR1	0	R1349T
1165.403	1.629	1166202	WORD	n/a	wordpools/wordpool_EN.txt	TOOL	7	6	[0, 0, 0]	n/a	FR1	0	R1349T
1167.032	0.988	1167831	WORD_OFF	n/a	n/a	TOOL	7	6	[0, 0, 0]	n/a	FR1	0	R1349T
1168.02	1.629	1168819	WORD	n/a	wordpools/wordpool_EN.txt	RUG	8	6	[0, 0, 0]	n/a	FR1	0	R1349T
1169.649	0.767	1170447	WORD_OFF	n/a	n/a	RUG	8	6	[0, 0, 0]	n/a	FR1	0	R1349T
1170.416	1.633	1171214	WORD	n/a	wordpools/wordpool_EN.txt	PLATE	9	6	[0, 0, 0]	n/a	FR1	0	R1349T
1172.049	1.083	1172847	WORD_OFF	n/a	n/a	PLATE	9	6	[0, 0, 0]	n/a	FR1	0	R1349T
1173.132	1.635	1173930	WORD	n/a	wordpools/wordpool_EN.txt	HILL	10	6	[0, 0, 0]	n/a	FR1	0	R1349T
1174.767	1.071	1175565	WORD_OFF	n/a	n/a	HILL	10	6	[0, 0, 0]	n/a	FR1	0	R1349T
1175.838	1.629	1176636	WORD	n/a	wordpools/wordpool_EN.txt	EAR	11	6	[0, 0, 0]	n/a	FR1	0	R1349T
1177.467	0.878	1178265	WORD_OFF	n/a	n/a	EAR	11	6	[0, 0, 0]	n/a	FR1	0	R1349T
1178.345	1.623	1179143	WORD	n/a	wordpools/wordpool_EN.txt	BIRD	12	6	[0, 0, 0]	n/a	FR1	0	R1349T
1179.968	0.0	1180766	WORD_OFF	n/a	n/a	BIRD	12	6	[0, 0, 0]	n/a	FR1	0	R1349T
1179.968	0.0	1180766	ENCODING_END	n/a	n/a	n/a	-999	6	[0, 0, 0]	n/a	FR1	0	R1349T
1179.968	0.0	1180766	DISTRACT_START	n/a	n/a	n/a	-999	6	[0, 0, 0]	n/a	FR1	0	R1349T
1179.968	0.016	1180766	START	n/a	n/a	n/a	-999	6	[-999, -999, -999]	n/a	FR1	0	R1349T
1179.984	3.651	1180782	PROB	3.651	n/a	n/a	-999	6	[1, 1, 5]	7	FR1	0	R1349T
1183.635	3.549	1184433	PROB	3.549	n/a	n/a	-999	6	[1, 6, 9]	16	FR1	0	R1349T
1187.184	3.034	1187982	PROB	3.034	n/a	n/a	-999	6	[5, 2, 3]	10	FR1	0	R1349T
1190.218	2.918	1191016	PROB	2.918	n/a	n/a	-999	6	[4, 7, 2]	13	FR1	0	R1349T
1193.136	3.351	1193933	PROB	3.351	n/a	n/a	-999	6	[6, 7, 2]	15	FR1	0	R1349T
1196.487	2.783	1197284	PROB	2.783	n/a	n/a	-999	6	[1, 5, 1]	7	FR1	0	R1349T
1199.27	2.96	1200067	PROB	2.96	n/a	n/a	-999	6	[6, 4, 3]	13	FR1	0	R1349T
1202.23	0.007	1203027	STOP	n/a	n/a	n/a	-999	6	[-999, -999, -999]	n/a	FR1	0	R1349T
1202.237	0.658	1203034	DISTRACT_END	n/a	n/a	n/a	-999	6	[0, 0, 0]	n/a	FR1	0	R1349T
1202.895	1.544	1203692	RETRIEVAL_ORIENT_START	n/a	n/a	n/a	-999	6	[0, 0, 0]	n/a	FR1	0	R1349T
1204.439	0.0	1205236	REC_START	n/a	n/a	n/a	-999	6	[0, 0, 0]	n/a	FR1	0	R1349T
1204.439	0.996	1205236	RETRIEVAL_ORIENT_END	n/a	n/a	n/a	-999	6	[0, 0, 0]	n/a	FR1	0	R1349T
1205.435	6.58	1206232	REC_WORD	6.58	n/a	RUG	8	6	[0, 0, 0]	n/a	FR1	0	R1349T
1212.015	3.832	1212812	REC_WORD	3.832	n/a	BIRD	12	6	[0, 0, 0]	n/a	FR1	0	R1349T
1215.847	3.695	1216644	REC_WORD	3.695	n/a	EAR	11	6	[0, 0, 0]	n/a	FR1	0	R1349T
1219.542	14.911	1220338	REC_WORD	14.911	n/a	TEETH	-999	6	[0, 0, 0]	n/a	FR1	0	R1349T
1234.453	0.001	1235249	REC_END	n/a	n/a	n/a	-999	6	[0, 0, 0]	n/a	FR1	0	R1349T
1234.454	0.014	1235250	TRIAL_END	n/a	n/a	n/a	-999	6	[0, 0, 0]	n/a	FR1	0	R1349T
1234.468	0.0	1235264	TRIAL	n/a	n/a	n/a	-999	7	[0, 0, 0]	n/a	FR1	0	R1349T
1234.468	0.0	1235264	TRIAL_START	n/a	n/a	n/a	-999	7	[0, 0, 0]	n/a	FR1	0	R1349T
1234.468	21.113	1235264	WAITING_START	n/a	n/a	n/a	-999	7	[0, 0, 0]	n/a	FR1	0	R1349T
1255.581	0.001	1256376	WAITING_END	n/a	n/a	n/a	-999	7	[0, 0, 0]	n/a	FR1	0	R1349T
1255.582	10.429	1256377	COUNTDOWN_START	n/a	n/a	n/a	-999	7	[0, 0, 0]	n/a	FR1	0	R1349T
1266.011	0.0	1266805	COUNTDOWN_END	n/a	n/a	n/a	-999	7	[0, 0, 0]	n/a	FR1	0	R1349T
1266.011	1.155	1266805	ORIENT_START	n/a	n/a	n/a	-999	7	[0, 0, 0]	n/a	FR1	0	R1349T
1267.166	0.0	1267960	ORIENT_END	n/a	n/a	n/a	-999	7	[0, 0, 0]	n/a	FR1	0	R1349T
1267.166	0.852	1267960	ENCODING_START	n/a	n/a	n/a	-999	7	[0, 0, 0]	n/a	FR1	0	R1349T
1268.018	1.633	1268812	WORD	n/a	wordpools/wordpool_EN.txt	PASTE	1	7	[0, 0, 0]	n/a	FR1	0	R1349T
1269.651	1.022	1270445	WORD_OFF	n/a	n/a	PASTE	1	7	[0, 0, 0]	n/a	FR1	0	R1349T
1270.673	1.627	1271467	WORD	n/a	wordpools/wordpool_EN.txt	BEAN	2	7	[0, 0, 0]	n/a	FR1	0	R1349T
1272.3	1.01	1273094	WORD_OFF	n/a	n/a	BEAN	2	7	[0, 0, 0]	n/a	FR1	0	R1349T
1273.31	1.625	1274104	WORD	n/a	wordpools/wordpool_EN.txt	TOAST	3	7	[0, 0, 0]	n/a	FR1	0	R1349T
1274.935	1.007	1275729	WORD_OFF	n/a	n/a	TOAST	3	7	[0, 0, 0]	n/a	FR1	0	R1349T
1275.942	1.627	1276736	WORD	n/a	wordpools/wordpool_EN.txt	MAP	4	7	[0, 0, 0]	n/a	FR1	0	R1349T
1277.569	0.751	1278363	WORD_OFF	n/a	n/a	MAP	4	7	[0, 0, 0]	n/a	FR1	0	R1349T
1278.32	1.632	1279114	WORD	n/a	wordpools/wordpool_EN.txt	SMOKE	5	7	[0, 0, 0]	n/a	FR1	0	R1349T
1279.952	0.969	1280746	WORD_OFF	n/a	n/a	SMOKE	5	7	[0, 0, 0]	n/a	FR1	0	R1349T
1280.921	1.632	1281715	WORD	n/a	wordpools/wordpool_EN.txt	FAN	6	7	[0, 0, 0]	n/a	FR1	0	R1349T
1282.553	1.004	1283347	WORD_OFF	n/a	n/a	FAN	6	7	[0, 0, 0]	n/a	FR1	0	R1349T
1283.557	1.629	1284351	WORD	n/a	wordpools/wordpool_EN.txt	CART	7	7	[0, 0, 0]	n/a	FR1	0	R1349T
1285.186	1.146	1285980	WORD_OFF	n/a	n/a	CART	7	7	[0, 0, 0]	n/a	FR1	0	R1349T
1286.332	1.622	1287125	WORD	n/a	wordpools/wordpool_EN.txt	CUBE	8	7	[0, 0, 0]	n/a	FR1	0	R1349T
1287.954	0.91	1288747	WORD_OFF	n/a	n/a	CUBE	8	7	[0, 0, 0]	n/a	FR1	0	R1349T
1288.864	1.624	1289657	WORD	n/a	wordpools/wordpool_EN.txt	MILK	9	7	[0, 0, 0]	n/a	FR1	0	R1349T
1290.488	1.101	1291281	WORD_OFF	n/a	n/a	MILK	9	7	[0, 0, 0]	n/a	FR1	0	R1349T
1291.589	1.632	1292382	WORD	n/a	wordpools/wordpool_EN.txt	ELF	10	7	[0, 0, 0]	n/a	FR1	0	R1349T
1293.221	0.802	1294014	WORD_OFF	n/a	n/a	ELF	10	7	[0, 0, 0]	n/a	FR1	0	R1349T
1294.023	1.632	1294816	WORD	n/a	wordpools/wordpool_EN.txt	SALT	11	7	[0, 0, 0]	n/a	FR1	0	R1349T
1295.655	1.088	1296448	WORD_OFF	n/a	n/a	SALT	11	7	[0, 0, 0]	n/a	FR1	0	R1349T
1296.743	1.628	1297536	WORD	n/a	wordpools/wordpool_EN.txt	SPEAR	12	7	[0, 0, 0]	n/a	FR1	0	R1349T
1298.371	0.001	1299164	WORD_OFF	n/a	n/a	SPEAR	12	7	[0, 0, 0]	n/a	FR1	0	R1349T
1298.372	0.0	1299165	ENCODING_END	n/a	n/a	n/a	-999	7	[0, 0, 0]	n/a	FR1	0	R1349T
1298.372	0.0	1299165	DISTRACT_START	n/a	n/a	n/a	-999	7	[0, 0, 0]	n/a	FR1	0	R1349T
1298.372	0.017	1299165	START	n/a	n/a	n/a	-999	7	[-999, -999, -999]	n/a	FR1	0	R1349T
1298.389	3.467	1299182	PROB	3.467	n/a	n/a	-999	7	[3, 3, 1]	7	FR1	0	R1349T
1301.856	2.951	1302649	PROB	2.951	n/a	n/a	-999	7	[3, 4, 8]	15	FR1	0	R1349T
1304.807	4.566	1305600	PROB	4.566	n/a	n/a	-999	7	[4, 9, 6]	19	FR1	0	R1349T
1309.373	5.901	1310166	PROB	5.901	n/a	n/a	-999	7	[3, 1, 6]	13	FR1	0	R1349T
1315.274	5.372	1316066	PROB	5.372	n/a	n/a	-999	7	[4, 9, 2]	15	FR1	0	R1349T
1320.646	0.014	1321438	STOP	n/a	n/a	n/a	-999	7	[-999, -999, -999]	n/a	FR1	0	R1349T
1320.66	0.53	1321452	DISTRACT_END	n/a	n/a	n/a	-999	7	[0, 0, 0]	n/a	FR1	0	R1349T
1321.19	1.72	1321982	RETRIEVAL_ORIENT_START	n/a	n/a	n/a	-999	7	[0, 0, 0]	n/a	FR1	0	R1349T
1322.91	0.001	1323702	RETRIEVAL_ORIENT_END	n/a	n/a	n/a	-999	7	[0, 0, 0]	n/a	FR1	0	R1349T
1322.911	2.964	1323703	REC_START	n/a	n/a	n/a	-999	7	[0, 0, 0]	n/a	FR1	0	R1349T
1325.875	27.048	1326667	REC_WORD	27.048	n/a	SPEAR	12	7	[0, 0, 0]	n/a	FR1	0	R1349T
1352.923	0.0	1353714	TRIAL_END	n/a	n/a	n/a	-999	7	[0, 0, 0]	n/a	FR1	0	R1349T
1352.923	0.016	1353714	REC_END	n/a	n/a	n/a	-999	7	[0, 0, 0]	n/a	FR1	0	R1349T
1352.939	0.0	1353730	TRIAL_START	n/a	n/a	n/a	-999	8	[0, 0, 0]	n/a	FR1	0	R1349T
1352.939	0.0	1353730	TRIAL	n/a	n/a	n/a	-999	8	[0, 0, 0]	n/a	FR1	0	R1349T
1352.939	62.955	1353730	WAITING_START	n/a	n/a	n/a	-999	8	[0, 0, 0]	n/a	FR1	0	R1349T
1415.894	0.0	1416682	WAITING_END	n/a	n/a	n/a	-999	8	[0, 0, 0]	n/a	FR1	0	R1349T
1415.894	10.429	1416682	COUNTDOWN_START	n/a	n/a	n/a	-999	8	[0, 0, 0]	n/a	FR1	0	R1349T
1426.323	0.001	1427110	COUNTDOWN_END	n/a	n/a	n/a	-999	8	[0, 0, 0]	n/a	FR1	0	R1349T
1426.324	1.139	1427111	ORIENT_START	n/a	n/a	n/a	-999	8	[0, 0, 0]	n/a	FR1	0	R1349T
1427.463	0.0	1428250	ENCODING_START	n/a	n/a	n/a	-999	8	[0, 0, 0]	n/a	FR1	0	R1349T
1427.463	1.033	1428250	ORIENT_END	n/a	n/a	n/a	-999	8	[0, 0, 0]	n/a	FR1	0	R1349T
1428.496	1.633	1429283	WORD	n/a	wordpools/wordpool_EN.txt	GLOVE	1	8	[0, 0, 0]	n/a	FR1	0	R1349T
1430.129	1.075	1430916	WORD_OFF	n/a	n/a	GLOVE	1	8	[0, 0, 0]	n/a	FR1	0	R1349T
1431.204	1.626	1431991	WORD	n/a	wordpools/wordpool_EN.txt	EEL	2	8	[0, 0, 0]	n/a	FR1	0	R1349T
1432.83	0.894	1433617	WORD_OFF	n/a	n/a	EEL	2	8	[0, 0, 0]	n/a	FR1	0	R1349T
1433.724	1.622	1434511	WORD	n/a	wordpools/wordpool_EN.txt	BARN	3	8	[0, 0, 0]	n/a	FR1	0	R1349T
1435.346	1.094	1436133	WORD_OFF	n/a	n/a	BARN	3	8	[0, 0, 0]	n/a	FR1	0	R1349T
1436.44	1.625	1437227	WORD	n/a	wordpools/wordpool_EN.txt	MOLE	4	8	[0, 0, 0]	n/a	FR1	0	R1349T
1438.065	1.09	1438852	WORD_OFF	n/a	n/a	MOLE	4	8	[0, 0, 0]	n/a	FR1	0	R1349T
1439.155	1.627	1439942	WORD	n/a	wordpools/wordpool_EN.txt	SOUP	5	8	[0, 0, 0]	n/a	FR1	0	R1349T
1440.782	0.929	1441569	WORD_OFF	n/a	n/a	SOUP	5	8	[0, 0, 0]	n/a	FR1	0	R1349T
1441.711	1.62	1442498	WORD	n/a	wordpools/wordpool_EN.txt	PIN	6	8	[0, 0, 0]	n/a	FR1	0	R1349T
1443.331	1.099	1444118	WORD_OFF	n/a	n/a	PIN	6	8	[0, 0, 0]	n/a	FR1	0	R1349T
1444.43	1.636	1445217	WORD	n/a	wordpools/wordpool_EN.txt	CHAIR	7	8	[0, 0, 0]	n/a	FR1	0	R1349T
1446.066	0.989	1446853	WORD_OFF	n/a	n/a	CHAIR	7	8	[0, 0, 0]	n/a	FR1	0	R1349T
1447.055	1.628	1447842	WORD	n/a	wordpools/wordpool_EN.txt	DEER	8	8	[0, 0, 0]	n/a	FR1	0	R1349T
1448.683	1.143	1449470	WORD_OFF	n/a	n/a	DEER	8	8	[0, 0, 0]	n/a	FR1	0	R1349T
1449.826	1.624	1450612	WORD	n/a	wordpools/wordpool_EN.txt	EGG	9	8	[0, 0, 0]	n/a	FR1	0	R1349T
1451.45	0.829	1452236	WORD_OFF	n/a	n/a	EGG	9	8	[0, 0, 0]	n/a	FR1	0	R1349T
1452.279	1.622	1453065	WORD	n/a	wordpools/wordpool_EN.txt	COW	10	8	[0, 0, 0]	n/a	FR1	0	R1349T
1453.901	0.816	1454687	WORD_OFF	n/a	n/a	COW	10	8	[0, 0, 0]	n/a	FR1	0	R1349T
1454.717	1.633	1455503	WORD	n/a	wordpools/wordpool_EN.txt	THUMB	11	8	[0, 0, 0]	n/a	FR1	0	R1349T
1456.35	0.856	1457136	WORD_OFF	n/a	n/a	THUMB	11	8	[0, 0, 0]	n/a	FR1	0	R1349T
1457.206	1.629	1457992	WORD	n/a	wordpools/wordpool_EN.txt	CAT	12	8	[0, 0, 0]	n/a	FR1	0	R1349T
1458.835	0.001	1459621	WORD_OFF	n/a	n/a	CAT	12	8	[0, 0, 0]	n/a	FR1	0	R1349T
1458.836	0.0	1459622	ENCODING_END	n/a	n/a	n/a	-999	8	[0, 0, 0]	n/a	FR1	0	R1349T
1458.836	0.0	1459622	DISTRACT_START	n/a	n/a	n/a	-999	8	[0, 0, 0]	n/a	FR1	0	R1349T
1458.836	0.015	1459622	START	n/a	n/a	n/a	-999	8	[-999, -999, -999]	n/a	FR1	0	R1349T
1458.851	3.768	1459637	PROB	3.768	n/a	n/a	-999	8	[2, 1, 4]	7	FR1	0	R1349T
1462.619	3.217	1463405	PROB	3.217	n/a	n/a	-999	8	[1, 5, 2]	8	FR1	0	R1349T
1465.836	4.017	1466622	PROB	4.017	n/a	n/a	-999	8	[9, 6, 3]	18	FR1	0	R1349T
1469.853	4.051	1470639	PROB	4.051	n/a	n/a	-999	8	[7, 1, 5]	13	FR1	0	R1349T
1473.904	4.417	1474689	PROB	4.417	n/a	n/a	-999	8	[8, 9, 5]	22	FR1	0	R1349T
1478.321	3.176	1479106	PROB	3.176	n/a	n/a	-999	8	[7, 7, 4]	18	FR1	0	R1349T
1481.497	0.009	1482282	STOP	n/a	n/a	n/a	-999	8	[-999, -999, -999]	n/a	FR1	0	R1349T
1481.506	0.654	1482291	DISTRACT_END	n/a	n/a	n/a	-999	8	[0, 0, 0]	n/a	FR1	0	R1349T
1482.16	1.646	1482945	RETRIEVAL_ORIENT_START	n/a	n/a	n/a	-999	8	[0, 0, 0]	n/a	FR1	0	R1349T
1483.806	0.001	1484591	RETRIEVAL_ORIENT_END	n/a	n/a	n/a	-999	8	[0, 0, 0]	n/a	FR1	0	R1349T
1483.807	1.025	1484592	REC_START	n/a	n/a	n/a	-999	8	[0, 0, 0]	n/a	FR1	0	R1349T
1484.832	1.39	1485617	REC_WORD	1.39	n/a	EEL	2	8	[0, 0, 0]	n/a	FR1	0	R1349T
1486.222	1.298	1487007	REC_WORD	1.298	n/a	BARN	3	8	[0, 0, 0]	n/a	FR1	0	R1349T
1487.52	3.585	1488305	REC_WORD	3.585	n/a	THUMB	11	8	[0, 0, 0]	n/a	FR1	0	R1349T
1491.105	1.902	1491890	REC_WORD	1.902	n/a	EGG	9	8	[0, 0, 0]	n/a	FR1	0	R1349T
1493.007	5.051	1493792	REC_WORD	5.051	n/a	COW	10	8	[0, 0, 0]	n/a	FR1	0	R1349T
1498.058	5.417	1498842	REC_WORD	5.417	n/a	GLOVE	1	8	[0, 0, 0]	n/a	FR1	0	R1349T
1503.475	3.226	1504259	REC_WORD	3.226	n/a	CHIN	-999	8	[0, 0, 0]	n/a	FR1	0	R1349T
1506.701	1.017	1507485	REC_WORD	1.017	n/a	THUMB	11	8	[0, 0, 0]	n/a	FR1	0	R1349T
1507.718	6.1	1508502	REC_WORD_VV	6.1	n/a	<>	-999	8	[0, 0, 0]	n/a	FR1	0	R1349T
1513.818	0.0	1514602	REC_END	n/a	n/a	n/a	-999	8	[0, 0, 0]	n/a	FR1	0	R1349T
1513.818	0.014	1514602	TRIAL_END	n/a	n/a	n/a	-999	8	[0, 0, 0]	n/a	FR1	0	R1349T
1513.832	0.0	1514616	TRIAL_START	n/a	n/a	n/a	-999	9	[0, 0, 0]	n/a	FR1	0	R1349T
1513.832	0.0	1514616	TRIAL	n/a	n/a	n/a	-999	9	[0, 0, 0]	n/a	FR1	0	R1349T
1513.832	14.916	1514616	WAITING_START	n/a	n/a	n/a	-999	9	[0, 0, 0]	n/a	FR1	0	R1349T
1528.748	0.0	1529531	COUNTDOWN_START	n/a	n/a	n/a	-999	9	[0, 0, 0]	n/a	FR1	0	R1349T
1528.748	10.429	1529531	WAITING_END	n/a	n/a	n/a	-999	9	[0, 0, 0]	n/a	FR1	0	R1349T
1539.177	0.0	1539960	COUNTDOWN_END	n/a	n/a	n/a	-999	9	[0, 0, 0]	n/a	FR1	0	R1349T
1539.177	1.206	1539960	ORIENT_START	n/a	n/a	n/a	-999	9	[0, 0, 0]	n/a	FR1	0	R1349T
1540.383	0.001	1541166	ORIENT_END	n/a	n/a	n/a	-999	9	[0, 0, 0]	n/a	FR1	0	R1349T
1540.384	0.958	1541167	ENCODING_START	n/a	n/a	n/a	-999	9	[0, 0, 0]	n/a	FR1	0	R1349T
1541.342	1.625	1542125	WORD	n/a	wordpools/wordpool_EN.txt	STAR	1	9	[0, 0, 0]	n/a	FR1	0	R1349T
1542.967	1.056	1543749	WORD_OFF	n/a	n/a	STAR	1	9	[0, 0, 0]	n/a	FR1	0	R1349T
1544.023	1.628	1544805	WORD	n/a	wordpools/wordpool_EN.txt	GUARD	2	9	[0, 0, 0]	n/a	FR1	0	R1349T
1545.651	0.885	1546433	WORD_OFF	n/a	n/a	GUARD	2	9	[0, 0, 0]	n/a	FR1	0	R1349T
1546.536	1.631	1547318	WORD	n/a	wordpools/wordpool_EN.txt	DOLL	3	9	[0, 0, 0]	n/a	FR1	0	R1349T
1548.167	0.961	1548949	WORD_OFF	n/a	n/a	DOLL	3	9	[0, 0, 0]	n/a	FR1	0	R1349T
1549.128	1.624	1549910	WORD	n/a	wordpools/wordpool_EN.txt	CAKE	4	9	[0, 0, 0]	n/a	FR1	0	R1349T
1550.752	1.141	1551534	WORD_OFF	n/a	n/a	CAKE	4	9	[0, 0, 0]	n/a	FR1	0	R1349T
1551.893	1.626	1552675	WORD	n/a	wordpools/wordpool_EN.txt	PET	5	9	[0, 0, 0]	n/a	FR1	0	R1349T
1553.519	1.143	1554301	WORD_OFF	n/a	n/a	PET	5	9	[0, 0, 0]	n/a	FR1	0	R1349T
1554.662	1.623	1555444	WORD	n/a	wordpools/wordpool_EN.txt	WEED	6	9	[0, 0, 0]	n/a	FR1	0	R1349T
1556.285	1.053	1557067	WORD_OFF	n/a	n/a	WEED	6	9	[0, 0, 0]	n/a	FR1	0	R1349T
1557.338	1.632	1558120	WORD	n/a	wordpools/wordpool_EN.txt	PIE	7	9	[0, 0, 0]	n/a	FR1	0	R1349T
1558.97	1.074	1559752	WORD_OFF	n/a	n/a	PIE	7	9	[0, 0, 0]	n/a	FR1	0	R1349T
1560.044	1.626	1560826	WORD	n/a	wordpools/wordpool_EN.txt	ROCK	8	9	[0, 0, 0]	n/a	FR1	0	R1349T
1561.67	0.797	1562452	WORD_OFF	n/a	n/a	ROCK	8	9	[0, 0, 0]	n/a	FR1	0	R1349T
1562.467	1.637	1563249	WORD	n/a	wordpools/wordpool_EN.txt	STOOL	9	9	[0, 0, 0]	n/a	FR1	0	R1349T
1564.104	0.962	1564886	WORD_OFF	n/a	n/a	STOOL	9	9	[0, 0, 0]	n/a	FR1	0	R1349T
1565.066	1.622	1565848	WORD	n/a	wordpools/wordpool_EN.txt	CORD	10	9	[0, 0, 0]	n/a	FR1	0	R1349T
1566.688	1.137	1567469	WORD_OFF	n/a	n/a	CORD	10	9	[0, 0, 0]	n/a	FR1	0	R1349T
1567.825	1.63	1568606	WORD	n/a	wordpools/wordpool_EN.txt	BOOK	11	9	[0, 0, 0]	n/a	FR1	0	R1349T
1569.455	1.026	1570236	WORD_OFF	n/a	n/a	BOOK	11	9	[0, 0, 0]	n/a	FR1	0	R1349T
1570.481	1.624	1571262	WORD	n/a	wordpools/wordpool_EN.txt	DIME	12	9	[0, 0, 0]	n/a	FR1	0	R1349T
1572.105	0.001	1572886	WORD_OFF	n/a	n/a	DIME	12	9	[0, 0, 0]	n/a	FR1	0	R1349T
1572.106	0.0	1572887	DISTRACT_START	n/a	n/a	n/a	-999	9	[0, 0, 0]	n/a	FR1	0	R1349T
1572.106	0.0	1572887	ENCODING_END	n/a	n/a	n/a	-999	9	[0, 0, 0]	n/a	FR1	0	R1349T
1572.106	0.015	1572887	START	n/a	n/a	n/a	-999	9	[-999, -999, -999]	n/a	FR1	0	R1349T
1572.121	6.586	1572902	PROB	6.586	n/a	n/a	-999	9	[7, 6, 8]	21	FR1	0	R1349T
1578.707	2.649	1579488	PROB	2.649	n/a	n/a	-999	9	[2, 3, 1]	6	FR1	0	R1349T
1581.356	3.901	1582137	PROB	3.901	n/a	n/a	-999	9	[9, 6, 5]	20	FR1	0	R1349T
1585.257	3.718	1586038	PROB	3.718	n/a	n/a	-999	9	[7, 2, 6]	15	FR1	0	R1349T
1588.975	3.712	1589756	PROB	3.712	n/a	n/a	-999	9	[1, 3, 9]	13	FR1	0	R1349T
1592.687	0.022	1593467	STOP	n/a	n/a	n/a	-999	9	[-999, -999, -999]	n/a	FR1	0	R1349T
1592.709	0.538	1593489	DISTRACT_END	n/a	n/a	n/a	-999	9	[0, 0, 0]	n/a	FR1	0	R1349T
1593.247	1.679	1594027	RETRIEVAL_ORIENT_START	n/a	n/a	n/a	-999	9	[0, 0, 0]	n/a	FR1	0	R1349T
1594.926	0.001	1595706	RETRIEVAL_ORIENT_END	n/a	n/a	n/a	-999	9	[0, 0, 0]	n/a	FR1	0	R1349T
1594.927	5.51	1595707	REC_START	n/a	n/a	n/a	-999	9	[0, 0, 0]	n/a	FR1	0	R1349T
1600.437	1.0	1601217	REC_WORD_VV	1.0	n/a	<>	-999	9	[0, 0, 0]	n/a	FR1	0	R1349T
1601.437	1.0	1602217	REC_WORD_VV	1.0	n/a	<>	-999	9	[0, 0, 0]	n/a	FR1	0	R1349T
1602.437	1.0	1603217	REC_WORD_VV	1.0	n/a	<>	-999	9	[0, 0, 0]	n/a	FR1	0	R1349T
1603.437	4.989	1604217	REC_WORD_VV	4.989	n/a	<>	-999	9	[0, 0, 0]	n/a	FR1	0	R1349T
1608.426	1.0	1609206	REC_WORD_VV	1.0	n/a	<>	-999	9	[0, 0, 0]	n/a	FR1	0	R1349T
1609.426	1.0	1610206	REC_WORD_VV	1.0	n/a	<>	-999	9	[0, 0, 0]	n/a	FR1	0	R1349T
1610.426	0.535	1611206	REC_WORD_VV	0.535	n/a	<>	-999	9	[0, 0, 0]	n/a	FR1	0	R1349T
1610.961	13.979	1611741	REC_WORD	13.979	n/a	BIKE	-999	9	[0, 0, 0]	n/a	FR1	0	R1349T
1624.94	0.0	1625719	REC_END	n/a	n/a	n/a	-999	9	[0, 0, 0]	n/a	FR1	0	R1349T
1624.94	0.014	1625719	TRIAL_END	n/a	n/a	n/a	-999	9	[0, 0, 0]	n/a	FR1	0	R1349T
1624.954	0.0	1625733	TRIAL	n/a	n/a	n/a	-999	10	[0, 0, 0]	n/a	FR1	0	R1349T
1624.954	0.0	1625733	WAITING_START	n/a	n/a	n/a	-999	10	[0, 0, 0]	n/a	FR1	0	R1349T
1624.954	34.767	1625733	TRIAL_START	n/a	n/a	n/a	-999	10	[0, 0, 0]	n/a	FR1	0	R1349T
1659.721	0.001	1660498	WAITING_END	n/a	n/a	n/a	-999	10	[0, 0, 0]	n/a	FR1	0	R1349T
1659.722	10.428	1660499	COUNTDOWN_START	n/a	n/a	n/a	-999	10	[0, 0, 0]	n/a	FR1	0	R1349T
1670.15	0.001	1670927	COUNTDOWN_END	n/a	n/a	n/a	-999	10	[0, 0, 0]	n/a	FR1	0	R1349T
1670.151	1.055	1670928	ORIENT_START	n/a	n/a	n/a	-999	10	[0, 0, 0]	n/a	FR1	0	R1349T
1671.206	0.0	1671983	ORIENT_END	n/a	n/a	n/a	-999	10	[0, 0, 0]	n/a	FR1	0	R1349T
1671.206	0.766	1671983	ENCODING_START	n/a	n/a	n/a	-999	10	[0, 0, 0]	n/a	FR1	0	R1349T
1671.972	1.635	1672749	WORD	n/a	wordpools/wordpool_EN.txt	RICE	1	10	[0, 0, 0]	n/a	FR1	0	R1349T
1673.607	1.112	1674384	WORD_OFF	n/a	n/a	RICE	1	10	[0, 0, 0]	n/a	FR1	0	R1349T
1674.719	1.621	1675496	WORD	n/a	wordpools/wordpool_EN.txt	PIT	2	10	[0, 0, 0]	n/a	FR1	0	R1349T
1676.34	1.024	1677117	WORD_OFF	n/a	n/a	PIT	2	10	[0, 0, 0]	n/a	FR1	0	R1349T
1677.364	1.611	1678141	WORD	n/a	wordpools/wordpool_EN.txt	LOCK	3	10	[0, 0, 0]	n/a	FR1	0	R1349T
1678.975	0.827	1679752	WORD_OFF	n/a	n/a	LOCK	3	10	[0, 0, 0]	n/a	FR1	0	R1349T
1679.802	1.623	1680579	WORD	n/a	wordpools/wordpool_EN.txt	STICK	4	10	[0, 0, 0]	n/a	FR1	0	R1349T
1681.425	1.017	1682202	WORD_OFF	n/a	n/a	STICK	4	10	[0, 0, 0]	n/a	FR1	0	R1349T
1682.442	1.634	1683219	WORD	n/a	wordpools/wordpool_EN.txt	YARD	5	10	[0, 0, 0]	n/a	FR1	0	R1349T
1684.076	1.124	1684852	WORD_OFF	n/a	n/a	YARD	5	10	[0, 0, 0]	n/a	FR1	0	R1349T
1685.2	1.626	1685976	WORD	n/a	wordpools/wordpool_EN.txt	PEN	6	10	[0, 0, 0]	n/a	FR1	0	R1349T
1686.826	0.803	1687602	WORD_OFF	n/a	n/a	PEN	6	10	[0, 0, 0]	n/a	FR1	0	R1349T
1687.629	1.63	1688405	WORD	n/a	wordpools/wordpool_EN.txt	CLOWN	7	10	[0, 0, 0]	n/a	FR1	0	R1349T
1689.259	1.01	1690035	WORD_OFF	n/a	n/a	CLOWN	7	10	[0, 0, 0]	n/a	FR1	0	R1349T
1690.269	1.625	1691045	WORD	n/a	wordpools/wordpool_EN.txt	TRUCK	8	10	[0, 0, 0]	n/a	FR1	0	R1349T
1691.894	1.033	1692670	WORD_OFF	n/a	n/a	TRUCK	8	10	[0, 0, 0]	n/a	FR1	0	R1349T
1692.927	1.634	1693703	WORD	n/a	wordpools/wordpool_EN.txt	BEACH	9	10	[0, 0, 0]	n/a	FR1	0	R1349T
1694.561	0.915	1695337	WORD_OFF	n/a	n/a	BEACH	9	10	[0, 0, 0]	n/a	FR1	0	R1349T
1695.476	1.636	1696252	WORD	n/a	wordpools/wordpool_EN.txt	CORN	10	10	[0, 0, 0]	n/a	FR1	0	R1349T
1697.112	0.84	1697888	WORD_OFF	n/a	n/a	CORN	10	10	[0, 0, 0]	n/a	FR1	0	R1349T
1697.952	1.627	1698728	WORD	n/a	wordpools/wordpool_EN.txt	BRICK	11	10	[0, 0, 0]	n/a	FR1	0	R1349T
1699.579	1.111	1700355	WORD_OFF	n/a	n/a	BRICK	11	10	[0, 0, 0]	n/a	FR1	0	R1349T
1700.69	1.622	1701466	WORD	n/a	wordpools/wordpool_EN.txt	DRUM	12	10	[0, 0, 0]	n/a	FR1	0	R1349T
1702.312	0.0	1703088	WORD_OFF	n/a	n/a	DRUM	12	10	[0, 0, 0]	n/a	FR1	0	R1349T
1702.312	0.001	1703088	ENCODING_END	n/a	n/a	n/a	-999	10	[0, 0, 0]	n/a	FR1	0	R1349T
1702.313	0.0	1703089	DISTRACT_START	n/a	n/a	n/a	-999	10	[0, 0, 0]	n/a	FR1	0	R1349T
1702.313	0.015	1703089	START	n/a	n/a	n/a	-999	10	[-999, -999, -999]	n/a	FR1	0	R1349T
1702.328	4.368	1703104	PROB	4.368	n/a	n/a	-999	10	[8, 7, 7]	22	FR1	0	R1349T
1706.696	3.934	1707471	PROB	3.934	n/a	n/a	-999	10	[5, 9, 4]	18	FR1	0	R1349T
1710.63	3.201	1711405	PROB	3.201	n/a	n/a	-999	10	[7, 1, 7]	15	FR1	0	R1349T
1713.831	3.184	1714606	PROB	3.184	n/a	n/a	-999	10	[4, 2, 7]	13	FR1	0	R1349T
1717.015	2.917	1717790	PROB	2.917	n/a	n/a	-999	10	[9, 3, 1]	13	FR1	0	R1349T
1719.932	5.476	1720707	PROB	5.476	n/a	n/a	-999	10	[9, 4, 8]	21	FR1	0	R1349T
1725.408	0.009	1726183	STOP	n/a	n/a	n/a	-999	10	[-999, -999, -999]	n/a	FR1	0	R1349T
1725.417	0.639	1726192	DISTRACT_END	n/a	n/a	n/a	-999	10	[0, 0, 0]	n/a	FR1	0	R1349T
1726.056	1.695	1726831	RETRIEVAL_ORIENT_START	n/a	n/a	n/a	-999	10	[0, 0, 0]	n/a	FR1	0	R1349T
1727.751	0.0	1728526	RETRIEVAL_ORIENT_END	n/a	n/a	n/a	-999	10	[0, 0, 0]	n/a	FR1	0	R1349T
1727.751	7.296	1728526	REC_START	n/a	n/a	n/a	-999	10	[0, 0, 0]	n/a	FR1	0	R1349T
1735.047	0.483	1735821	REC_WORD	0.483	n/a	CLOCK	-999	10	[0, 0, 0]	n/a	FR1	0	R1349T
1735.53	0.162	1736304	REC_WORD_VV	0.162	n/a	<>	-999	10	[0, 0, 0]	n/a	FR1	0	R1349T
1735.692	2.362	1736466	REC_WORD	2.362	n/a	CLOWN	7	10	[0, 0, 0]	n/a	FR1	0	R1349T
1738.054	3.22	1738828	REC_WORD	3.22	n/a	BRICK	11	10	[0, 0, 0]	n/a	FR1	0	R1349T
1741.274	2.635	1742048	REC_WORD	2.635	n/a	STICK	4	10	[0, 0, 0]	n/a	FR1	0	R1349T
1743.909	4.275	1744683	REC_WORD	4.275	n/a	SAND	-999	10	[0, 0, 0]	n/a	FR1	0	R1349T
1748.184	2.684	1748958	REC_WORD	2.684	n/a	BEACH	9	10	[0, 0, 0]	n/a	FR1	0	R1349T
1750.868	6.896	1751642	REC_WORD	6.896	n/a	SUN	-999	10	[0, 0, 0]	n/a	FR1	0	R1349T
1757.764	0.0	1758537	REC_END	n/a	n/a	n/a	-999	10	[0, 0, 0]	n/a	FR1	0	R1349T
1757.764	0.014	1758537	TRIAL_END	n/a	n/a	n/a	-999	10	[0, 0, 0]	n/a	FR1	0	R1349T
1757.778	0.0	1758551	WAITING_START	n/a	n/a	n/a	-999	11	[0, 0, 0]	n/a	FR1	0	R1349T
1757.778	0.0	1758551	TRIAL	n/a	n/a	n/a	-999	11	[0, 0, 0]	n/a	FR1	0	R1349T
1757.778	9.98	1758551	TRIAL_START	n/a	n/a	n/a	-999	11	[0, 0, 0]	n/a	FR1	0	R1349T
1767.758	0.0	1768531	WAITING_END	n/a	n/a	n/a	-999	11	[0, 0, 0]	n/a	FR1	0	R1349T
1767.758	10.429	1768531	COUNTDOWN_START	n/a	n/a	n/a	-999	11	[0, 0, 0]	n/a	FR1	0	R1349T
1778.187	0.0	1778959	COUNTDOWN_END	n/a	n/a	n/a	-999	11	[0, 0, 0]	n/a	FR1	0	R1349T
1778.187	1.139	1778959	ORIENT_START	n/a	n/a	n/a	-999	11	[0, 0, 0]	n/a	FR1	0	R1349T
1779.326	0.0	1780098	ORIENT_END	n/a	n/a	n/a	-999	11	[0, 0, 0]	n/a	FR1	0	R1349T
1779.326	0.952	1780098	ENCODING_START	n/a	n/a	n/a	-999	11	[0, 0, 0]	n/a	FR1	0	R1349T
1780.278	1.632	1781050	WORD	n/a	wordpools/wordpool_EN.txt	APE	1	11	[0, 0, 0]	n/a	FR1	0	R1349T
1781.91	0.826	1782682	WORD_OFF	n/a	n/a	APE	1	11	[0, 0, 0]	n/a	FR1	0	R1349T
1782.736	1.624	1783508	WORD	n/a	wordpools/wordpool_EN.txt	ANT	2	11	[0, 0, 0]	n/a	FR1	0	R1349T
1784.36	0.888	1785132	WORD_OFF	n/a	n/a	ANT	2	11	[0, 0, 0]	n/a	FR1	0	R1349T
1785.248	1.63	1786020	WORD	n/a	wordpools/wordpool_EN.txt	FILM	3	11	[0, 0, 0]	n/a	FR1	0	R1349T
1786.878	1.013	1787650	WORD_OFF	n/a	n/a	FILM	3	11	[0, 0, 0]	n/a	FR1	0	R1349T
1787.891	1.637	1788663	WORD	n/a	wordpools/wordpool_EN.txt	CHEEK	4	11	[0, 0, 0]	n/a	FR1	0	R1349T
1789.528	0.825	1790300	WORD_OFF	n/a	n/a	CHEEK	4	11	[0, 0, 0]	n/a	FR1	0	R1349T
1790.353	1.626	1791125	WORD	n/a	wordpools/wordpool_EN.txt	NEST	5	11	[0, 0, 0]	n/a	FR1	0	R1349T
1791.979	1.022	1792751	WORD_OFF	n/a	n/a	NEST	5	11	[0, 0, 0]	n/a	FR1	0	R1349T
1793.001	1.628	1793773	WORD	n/a	wordpools/wordpool_EN.txt	PIPE	6	11	[0, 0, 0]	n/a	FR1	0	R1349T
1794.629	1.047	1795401	WORD_OFF	n/a	n/a	PIPE	6	11	[0, 0, 0]	n/a	FR1	0	R1349T
1795.676	1.636	1796448	WORD	n/a	wordpools/wordpool_EN.txt	STORE	7	11	[0, 0, 0]	n/a	FR1	0	R1349T
1797.312	0.853	1798084	WORD_OFF	n/a	n/a	STORE	7	11	[0, 0, 0]	n/a	FR1	0	R1349T
1798.165	1.632	1798937	WORD	n/a	wordpools/wordpool_EN.txt	TEA	8	11	[0, 0, 0]	n/a	FR1	0	R1349T
1799.797	0.812	1800568	WORD_OFF	n/a	n/a	TEA	8	11	[0, 0, 0]	n/a	FR1	0	R1349T
1800.609	1.621	1801380	WORD	n/a	wordpools/wordpool_EN.txt	MAIL	9	11	[0, 0, 0]	n/a	FR1	0	R1349T
1802.23	1.057	1803001	WORD_OFF	n/a	n/a	MAIL	9	11	[0, 0, 0]	n/a	FR1	0	R1349T
1803.287	1.611	1804058	WORD	n/a	wordpools/wordpool_EN.txt	SNAKE	10	11	[0, 0, 0]	n/a	FR1	0	R1349T
1804.898	0.766	1805669	WORD_OFF	n/a	n/a	SNAKE	10	11	[0, 0, 0]	n/a	FR1	0	R1349T
1805.664	1.633	1806435	WORD	n/a	wordpools/wordpool_EN.txt	ICE	11	11	[0, 0, 0]	n/a	FR1	0	R1349T
1807.297	1.128	1808068	WORD_OFF	n/a	n/a	ICE	11	11	[0, 0, 0]	n/a	FR1	0	R1349T
1808.425	1.624	1809196	WORD	n/a	wordpools/wordpool_EN.txt	WOLF	12	11	[0, 0, 0]	n/a	FR1	0	R1349T
1810.049	0.0	1810820	WORD_OFF	n/a	n/a	WOLF	12	11	[0, 0, 0]	n/a	FR1	0	R1349T
1810.049	0.001	1810820	ENCODING_END	n/a	n/a	n/a	-999	11	[0, 0, 0]	n/a	FR1	0	R1349T
1810.05	0.0	1810821	DISTRACT_START	n/a	n/a	n/a	-999	11	[0, 0, 0]	n/a	FR1	0	R1349T
1810.05	0.015	1810821	START	n/a	n/a	n/a	-999	11	[-999, -999, -999]	n/a	FR1	0	R1349T
1810.065	4.3	1810836	PROB	4.3	n/a	n/a	-999	11	[3, 6, 1]	10	FR1	0	R1349T
1814.365	2.685	1815136	PROB	2.685	n/a	n/a	-999	11	[6, 1, 1]	8	FR1	0	R1349T
1817.05	3.401	1817821	PROB	3.401	n/a	n/a	-999	11	[8, 7, 2]	17	FR1	0	R1349T
1820.451	3.417	1821222	PROB	3.417	n/a	n/a	-999	11	[4, 8, 5]	17	FR1	0	R1349T
1823.868	3.917	1824638	PROB	3.917	n/a	n/a	-999	11	[2, 9, 5]	16	FR1	0	R1349T
1827.785	3.522	1828555	PROB	3.522	n/a	n/a	-999	11	[3, 4, 8]	15	FR1	0	R1349T
1831.307	0.011	1832077	STOP	n/a	n/a	n/a	-999	11	[-999, -999, -999]	n/a	FR1	0	R1349T
1831.318	0.62	1832088	DISTRACT_END	n/a	n/a	n/a	-999	11	[0, 0, 0]	n/a	FR1	0	R1349T
1831.938	1.698	1832708	RETRIEVAL_ORIENT_START	n/a	n/a	n/a	-999	11	[0, 0, 0]	n/a	FR1	0	R1349T
1833.636	0.001	1834406	RETRIEVAL_ORIENT_END	n/a	n/a	n/a	-999	11	[0, 0, 0]	n/a	FR1	0	R1349T
1833.637	0.807	1834407	REC_START	n/a	n/a	n/a	-999	11	[0, 0, 0]	n/a	FR1	0	R1349T
1834.444	1.488	1835214	REC_WORD	1.488	n/a	APE	1	11	[0, 0, 0]	n/a	FR1	0	R1349T
1835.932	1.227	1836702	REC_WORD	1.227	n/a	ANT	2	11	[0, 0, 0]	n/a	FR1	0	R1349T
1837.159	26.49	1837929	REC_WORD	26.49	n/a	WOLF	12	11	[0, 0, 0]	n/a	FR1	0	R1349T
1863.649	0.001	1864418	REC_END	n/a	n/a	n/a	-999	11	[0, 0, 0]	n/a	FR1	0	R1349T
1863.65	0.014	1864419	TRIAL_END	n/a	n/a	n/a	-999	11	[0, 0, 0]	n/a	FR1	0	R1349T
1863.664	0.0	1864433	TRIAL_START	n/a	n/a	n/a	-999	12	[0, 0, 0]	n/a	FR1	0	R1349T
1863.664	0.0	1864433	TRIAL	n/a	n/a	n/a	-999	12	[0, 0, 0]	n/a	FR1	0	R1349T
1863.664	12.264	1864433	WAITING_START	n/a	n/a	n/a	-999	12	[0, 0, 0]	n/a	FR1	0	R1349T
1875.928	0.0	1876696	COUNTDOWN_START	n/a	n/a	n/a	-999	12	[0, 0, 0]	n/a	FR1	0	R1349T
1875.928	10.429	1876696	WAITING_END	n/a	n/a	n/a	-999	12	[0, 0, 0]	n/a	FR1	0	R1349T
1886.357	0.0	1887125	COUNTDOWN_END	n/a	n/a	n/a	-999	12	[0, 0, 0]	n/a	FR1	0	R1349T
1886.357	1.073	1887125	ORIENT_START	n/a	n/a	n/a	-999	12	[0, 0, 0]	n/a	FR1	0	R1349T
1887.43	0.0	1888198	ORIENT_END	n/a	n/a	n/a	-999	12	[0, 0, 0]	n/a	FR1	0	R1349T
1887.43	0.773	1888198	ENCODING_START	n/a	n/a	n/a	-999	12	[0, 0, 0]	n/a	FR1	0	R1349T
1888.203	1.627	1888971	WORD	n/a	wordpools/wordpool_EN.txt	CALF	1	12	[0, 0, 0]	n/a	FR1	0	R1349T
1889.83	0.999	1890598	WORD_OFF	n/a	n/a	CALF	1	12	[0, 0, 0]	n/a	FR1	0	R1349T
1890.829	1.635	1891597	WORD	n/a	wordpools/wordpool_EN.txt	INK	2	12	[0, 0, 0]	n/a	FR1	0	R1349T
1892.464	1.024	1893232	WORD_OFF	n/a	n/a	INK	2	12	[0, 0, 0]	n/a	FR1	0	R1349T
1893.488	1.626	1894255	WORD	n/a	wordpools/wordpool_EN.txt	HORN	3	12	[0, 0, 0]	n/a	FR1	0	R1349T
1895.114	0.915	1895881	WORD_OFF	n/a	n/a	HORN	3	12	[0, 0, 0]	n/a	FR1	0	R1349T
1896.029	1.636	1896796	WORD	n/a	wordpools/wordpool_EN.txt	CHIEF	4	12	[0, 0, 0]	n/a	FR1	0	R1349T
1897.665	1.007	1898432	WORD_OFF	n/a	n/a	CHIEF	4	12	[0, 0, 0]	n/a	FR1	0	R1349T
1898.672	1.625	1899439	WORD	n/a	wordpools/wordpool_EN.txt	CRANE	5	12	[0, 0, 0]	n/a	FR1	0	R1349T
1900.297	0.973	1901064	WORD_OFF	n/a	n/a	CRANE	5	12	[0, 0, 0]	n/a	FR1	0	R1349T
1901.27	1.629	1902037	WORD	n/a	wordpools/wordpool_EN.txt	VASE	6	12	[0, 0, 0]	n/a	FR1	0	R1349T
1902.899	1.089	1903666	WORD_OFF	n/a	n/a	VASE	6	12	[0, 0, 0]	n/a	FR1	0	R1349T
1903.988	1.628	1904755	WORD	n/a	wordpools/wordpool_EN.txt	SHIP	7	12	[0, 0, 0]	n/a	FR1	0	R1349T
1905.616	1.02	1906383	WORD_OFF	n/a	n/a	SHIP	7	12	[0, 0, 0]	n/a	FR1	0	R1349T
1906.636	1.63	1907403	WORD	n/a	wordpools/wordpool_EN.txt	VEST	8	12	[0, 0, 0]	n/a	FR1	0	R1349T
1908.266	1.111	1909033	WORD_OFF	n/a	n/a	VEST	8	12	[0, 0, 0]	n/a	FR1	0	R1349T
1909.377	1.623	1910144	WORD	n/a	wordpools/wordpool_EN.txt	MOTH	9	12	[0, 0, 0]	n/a	FR1	0	R1349T
1911.0	0.907	1911767	WORD_OFF	n/a	n/a	MOTH	9	12	[0, 0, 0]	n/a	FR1	0	R1349T
1911.907	1.627	1912674	WORD	n/a	wordpools/wordpool_EN.txt	STEAK	10	12	[0, 0, 0]	n/a	FR1	0	R1349T
1913.534	0.915	1914301	WORD_OFF	n/a	n/a	STEAK	10	12	[0, 0, 0]	n/a	FR1	0	R1349T
1914.449	1.636	1915216	WORD	n/a	wordpools/wordpool_EN.txt	WING	11	12	[0, 0, 0]	n/a	FR1	0	R1349T
1916.085	0.809	1916851	WORD_OFF	n/a	n/a	WING	11	12	[0, 0, 0]	n/a	FR1	0	R1349T
1916.894	1.625	1917660	WORD	n/a	wordpools/wordpool_EN.txt	BED	12	12	[0, 0, 0]	n/a	FR1	0	R1349T
1918.519	0.0	1919285	DISTRACT_START	n/a	n/a	n/a	-999	12	[0, 0, 0]	n/a	FR1	0	R1349T
1918.519	0.0	1919285	ENCODING_END	n/a	n/a	n/a	-999	12	[0, 0, 0]	n/a	FR1	0	R1349T
1918.519	0.001	1919285	WORD_OFF	n/a	n/a	BED	12	12	[0, 0, 0]	n/a	FR1	0	R1349T
1918.52	0.015	1919286	START	n/a	n/a	n/a	-999	12	[-999, -999, -999]	n/a	FR1	0	R1349T
1918.535	3.917	1919301	PROB	3.917	n/a	n/a	-999	12	[4, 5, 7]	16	FR1	0	R1349T
1922.452	4.051	1923218	PROB	4.051	n/a	n/a	-999	12	[9, 4, 9]	22	FR1	0	R1349T
1926.503	3.117	1927269	PROB	3.117	n/a	n/a	-999	12	[6, 8, 3]	17	FR1	0	R1349T
1929.62	3.134	1930386	PROB	3.134	n/a	n/a	-999	12	[5, 7, 7]	19	FR1	0	R1349T
1932.754	2.6	1933520	PROB	2.6	n/a	n/a	-999	12	[1, 5, 2]	8	FR1	0	R1349T
1935.354	3.068	1936120	PROB	3.068	n/a	n/a	-999	12	[3, 2, 7]	12	FR1	0	R1349T
1938.422	4.456	1939188	PROB	4.456	n/a	n/a	-999	12	[7, 8, 9]	24	FR1	0	R1349T
1942.878	0.011	1943643	STOP	n/a	n/a	n/a	-999	12	[-999, -999, -999]	n/a	FR1	0	R1349T
1942.889	0.664	1943654	DISTRACT_END	n/a	n/a	n/a	-999	12	[0, 0, 0]	n/a	FR1	0	R1349T
1943.553	1.636	1944318	RETRIEVAL_ORIENT_START	n/a	n/a	n/a	-999	12	[0, 0, 0]	n/a	FR1	0	R1349T
1945.189	0.0	1945954	RETRIEVAL_ORIENT_END	n/a	n/a	n/a	-999	12	[0, 0, 0]	n/a	FR1	0	R1349T
1945.189	1.096	1945954	REC_START	n/a	n/a	n/a	-999	12	[0, 0, 0]	n/a	FR1	0	R1349T
1946.285	3.569	1947050	REC_WORD	3.569	n/a	INK	2	12	[0, 0, 0]	n/a	FR1	0	R1349T
1949.854	1.0	1950619	REC_WORD	1.0	n/a	STEAK	10	12	[0, 0, 0]	n/a	FR1	0	R1349T
1950.854	6.634	1951619	REC_WORD_VV	6.634	n/a	<>	-999	12	[0, 0, 0]	n/a	FR1	0	R1349T
1957.488	17.714	1958253	REC_WORD	17.714	n/a	STRAW	-999	12	[0, 0, 0]	n/a	FR1	0	R1349T
1975.202	0.0	1975966	REC_END	n/a	n/a	n/a	-999	12	[0, 0, 0]	n/a	FR1	0	R1349T
1975.202	0.014	1975966	TRIAL_END	n/a	n/a	n/a	-999	12	[0, 0, 0]	n/a	FR1	0	R1349T
1975.216	0.0	1975980	TRIAL_START	n/a	n/a	n/a	-999	13	[0, 0, 0]	n/a	FR1	0	R1349T
1975.216	0.0	1975980	TRIAL	n/a	n/a	n/a	-999	13	[0, 0, 0]	n/a	FR1	0	R1349T
1975.216	17.366	1975980	WAITING_START	n/a	n/a	n/a	-999	13	[0, 0, 0]	n/a	FR1	0	R1349T
1992.582	0.0	1993345	WAITING_END	n/a	n/a	n/a	-999	13	[0, 0, 0]	n/a	FR1	0	R1349T
1992.582	10.429	1993345	COUNTDOWN_START	n/a	n/a	n/a	-999	13	[0, 0, 0]	n/a	FR1	0	R1349T
2003.011	0.0	2003774	ORIENT_START	n/a	n/a	n/a	-999	13	[0, 0, 0]	n/a	FR1	0	R1349T
2003.011	1.256	2003774	COUNTDOWN_END	n/a	n/a	n/a	-999	13	[0, 0, 0]	n/a	FR1	0	R1349T
2004.267	0.0	2005030	ORIENT_END	n/a	n/a	n/a	-999	13	[0, 0, 0]	n/a	FR1	0	R1349T
2004.267	0.926	2005030	ENCODING_START	n/a	n/a	n/a	-999	13	[0, 0, 0]	n/a	FR1	0	R1349T
2005.193	1.625	2005956	WORD	n/a	wordpools/wordpool_EN.txt	SLUSH	1	13	[0, 0, 0]	n/a	FR1	0	R1349T
2006.818	1.09	2007581	WORD_OFF	n/a	n/a	SLUSH	1	13	[0, 0, 0]	n/a	FR1	0	R1349T
2007.908	1.627	2008671	WORD	n/a	wordpools/wordpool_EN.txt	BLOOM	2	13	[0, 0, 0]	n/a	FR1	0	R1349T
2009.535	1.055	2010297	WORD_OFF	n/a	n/a	BLOOM	2	13	[0, 0, 0]	n/a	FR1	0	R1349T
2010.59	1.628	2011352	WORD	n/a	wordpools/wordpool_EN.txt	BAT	3	13	[0, 0, 0]	n/a	FR1	0	R1349T
2012.218	0.884	2012980	WORD_OFF	n/a	n/a	BAT	3	13	[0, 0, 0]	n/a	FR1	0	R1349T
2013.102	1.617	2013864	WORD	n/a	wordpools/wordpool_EN.txt	PEACH	4	13	[0, 0, 0]	n/a	FR1	0	R1349T
2014.719	0.828	2015481	WORD_OFF	n/a	n/a	PEACH	4	13	[0, 0, 0]	n/a	FR1	0	R1349T
2015.547	1.622	2016309	WORD	n/a	wordpools/wordpool_EN.txt	CLOUD	5	13	[0, 0, 0]	n/a	FR1	0	R1349T
2017.169	0.98	2017931	WORD_OFF	n/a	n/a	CLOUD	5	13	[0, 0, 0]	n/a	FR1	0	R1349T
2018.149	1.637	2018911	WORD	n/a	wordpools/wordpool_EN.txt	TENT	6	13	[0, 0, 0]	n/a	FR1	0	R1349T
2019.786	0.815	2020548	WORD_OFF	n/a	n/a	TENT	6	13	[0, 0, 0]	n/a	FR1	0	R1349T
2020.601	1.635	2021363	WORD	n/a	wordpools/wordpool_EN.txt	STORM	7	13	[0, 0, 0]	n/a	FR1	0	R1349T
2022.236	1.14	2022998	WORD_OFF	n/a	n/a	STORM	7	13	[0, 0, 0]	n/a	FR1	0	R1349T
2023.376	1.628	2024138	WORD	n/a	wordpools/wordpool_EN.txt	LIP	8	13	[0, 0, 0]	n/a	FR1	0	R1349T
2025.004	0.988	2025766	WORD_OFF	n/a	n/a	LIP	8	13	[0, 0, 0]	n/a	FR1	0	R1349T
2025.992	1.63	2026754	WORD	n/a	wordpools/wordpool_EN.txt	FORT	9	13	[0, 0, 0]	n/a	FR1	0	R1349T
2027.622	0.83	2028384	WORD_OFF	n/a	n/a	FORT	9	13	[0, 0, 0]	n/a	FR1	0	R1349T
2028.452	1.637	2029214	WORD	n/a	wordpools/wordpool_EN.txt	SCHOOL	10	13	[0, 0, 0]	n/a	FR1	0	R1349T
2030.089	0.897	2030851	WORD_OFF	n/a	n/a	SCHOOL	10	13	[0, 0, 0]	n/a	FR1	0	R1349T
2030.986	1.637	2031748	WORD	n/a	wordpools/wordpool_EN.txt	HOOK	11	13	[0, 0, 0]	n/a	FR1	0	R1349T
2032.623	0.989	2033384	WORD_OFF	n/a	n/a	HOOK	11	13	[0, 0, 0]	n/a	FR1	0	R1349T
2033.612	1.627	2034373	WORD	n/a	wordpools/wordpool_EN.txt	BLUSH	12	13	[0, 0, 0]	n/a	FR1	0	R1349T
2035.239	0.0	2036000	WORD_OFF	n/a	n/a	BLUSH	12	13	[0, 0, 0]	n/a	FR1	0	R1349T
2035.239	0.0	2036000	ENCODING_END	n/a	n/a	n/a	-999	13	[0, 0, 0]	n/a	FR1	0	R1349T
2035.239	0.0	2036000	DISTRACT_START	n/a	n/a	n/a	-999	13	[0, 0, 0]	n/a	FR1	0	R1349T
2035.239	0.016	2036000	START	n/a	n/a	n/a	-999	13	[-999, -999, -999]	n/a	FR1	0	R1349T
2035.255	4.252	2036016	PROB	4.252	n/a	n/a	-999	13	[7, 7, 5]	19	FR1	0	R1349T
2039.507	3.5	2040268	PROB	3.5	n/a	n/a	-999	13	[5, 9, 1]	15	FR1	0	R1349T
2043.007	3.668	2043768	PROB	3.668	n/a	n/a	-999	13	[4, 5, 4]	13	FR1	0	R1349T
2046.675	3.884	2047436	PROB	3.884	n/a	n/a	-999	13	[9, 8, 2]	19	FR1	0	R1349T
2050.559	2.799	2051320	PROB	2.799	n/a	n/a	-999	13	[1, 9, 4]	14	FR1	0	R1349T
2053.358	3.833	2054119	PROB	3.833	n/a	n/a	-999	13	[4, 6, 3]	13	FR1	0	R1349T
2057.191	0.018	2057951	STOP	n/a	n/a	n/a	-999	13	[-999, -999, -999]	n/a	FR1	0	R1349T
2057.209	0.586	2057969	DISTRACT_END	n/a	n/a	n/a	-999	13	[0, 0, 0]	n/a	FR1	0	R1349T
2057.795	1.649	2058555	RETRIEVAL_ORIENT_START	n/a	n/a	n/a	-999	13	[0, 0, 0]	n/a	FR1	0	R1349T
2059.444	0.0	2060204	RETRIEVAL_ORIENT_END	n/a	n/a	n/a	-999	13	[0, 0, 0]	n/a	FR1	0	R1349T
2059.444	2.233	2060204	REC_START	n/a	n/a	n/a	-999	13	[0, 0, 0]	n/a	FR1	0	R1349T
2061.677	8.039	2062437	REC_WORD	8.039	n/a	BLUSH	12	13	[0, 0, 0]	n/a	FR1	0	R1349T
2069.716	12.902	2070476	REC_WORD	12.902	n/a	HOOK	11	13	[0, 0, 0]	n/a	FR1	0	R1349T
2082.618	6.839	2083377	REC_WORD	6.839	n/a	SMOKE	-999	13	[0, 0, 0]	n/a	FR1	0	R1349T
2089.457	0.0	2090216	TRIAL_END	n/a	n/a	n/a	-999	13	[0, 0, 0]	n/a	FR1	0	R1349T
2089.457	0.014	2090216	REC_END	n/a	n/a	n/a	-999	13	[0, 0, 0]	n/a	FR1	0	R1349T
2089.471	0.0	2090230	TRIAL_START	n/a	n/a	n/a	-999	14	[0, 0, 0]	n/a	FR1	0	R1349T
2089.471	0.0	2090230	TRIAL	n/a	n/a	n/a	-999	14	[0, 0, 0]	n/a	FR1	0	R1349T
2089.471	69.391	2090230	WAITING_START	n/a	n/a	n/a	-999	14	[0, 0, 0]	n/a	FR1	0	R1349T
2158.862	0.0	2159618	WAITING_END	n/a	n/a	n/a	-999	14	[0, 0, 0]	n/a	FR1	0	R1349T
2158.862	10.429	2159618	COUNTDOWN_START	n/a	n/a	n/a	-999	14	[0, 0, 0]	n/a	FR1	0	R1349T
2169.291	0.0	2170047	COUNTDOWN_END	n/a	n/a	n/a	-999	14	[0, 0, 0]	n/a	FR1	0	R1349T
2169.291	1.039	2170047	ORIENT_START	n/a	n/a	n/a	-999	14	[0, 0, 0]	n/a	FR1	0	R1349T
2170.33	0.0	2171086	ENCODING_START	n/a	n/a	n/a	-999	14	[0, 0, 0]	n/a	FR1	0	R1349T
2170.33	0.875	2171086	ORIENT_END	n/a	n/a	n/a	-999	14	[0, 0, 0]	n/a	FR1	0	R1349T
2171.205	1.626	2171961	WORD	n/a	wordpools/wordpool_EN.txt	JEEP	1	14	[0, 0, 0]	n/a	FR1	0	R1349T
2172.831	1.128	2173586	WORD_OFF	n/a	n/a	JEEP	1	14	[0, 0, 0]	n/a	FR1	0	R1349T
2173.959	1.639	2174714	WORD	n/a	wordpools/wordpool_EN.txt	SQUARE	2	14	[0, 0, 0]	n/a	FR1	0	R1349T
2175.598	0.894	2176353	WORD_OFF	n/a	n/a	SQUARE	2	14	[0, 0, 0]	n/a	FR1	0	R1349T
2176.492	1.624	2177247	WORD	n/a	wordpools/wordpool_EN.txt	BEAR	3	14	[0, 0, 0]	n/a	FR1	0	R1349T
2178.116	0.79	2178871	WORD_OFF	n/a	n/a	BEAR	3	14	[0, 0, 0]	n/a	FR1	0	R1349T
2178.906	1.627	2179661	WORD	n/a	wordpools/wordpool_EN.txt	CAVE	4	14	[0, 0, 0]	n/a	FR1	0	R1349T
2180.533	0.899	2181288	WORD_OFF	n/a	n/a	CAVE	4	14	[0, 0, 0]	n/a	FR1	0	R1349T
2181.432	1.634	2182187	WORD	n/a	wordpools/wordpool_EN.txt	RIB	5	14	[0, 0, 0]	n/a	FR1	0	R1349T
2183.066	0.768	2183821	WORD_OFF	n/a	n/a	RIB	5	14	[0, 0, 0]	n/a	FR1	0	R1349T
2183.834	1.633	2184589	WORD	n/a	wordpools/wordpool_EN.txt	CONE	6	14	[0, 0, 0]	n/a	FR1	0	R1349T
2185.467	1.151	2186222	WORD_OFF	n/a	n/a	CONE	6	14	[0, 0, 0]	n/a	FR1	0	R1349T
2186.618	1.632	2187373	WORD	n/a	wordpools/wordpool_EN.txt	BOMB	7	14	[0, 0, 0]	n/a	FR1	0	R1349T
2188.25	0.81	2189005	WORD_OFF	n/a	n/a	BOMB	7	14	[0, 0, 0]	n/a	FR1	0	R1349T
2189.06	1.624	2189815	WORD	n/a	wordpools/wordpool_EN.txt	WORLD	8	14	[0, 0, 0]	n/a	FR1	0	R1349T
2190.684	0.931	2191439	WORD_OFF	n/a	n/a	WORLD	8	14	[0, 0, 0]	n/a	FR1	0	R1349T
2191.615	1.636	2192370	WORD	n/a	wordpools/wordpool_EN.txt	JUICE	9	14	[0, 0, 0]	n/a	FR1	0	R1349T
2193.251	1.131	2194006	WORD_OFF	n/a	n/a	JUICE	9	14	[0, 0, 0]	n/a	FR1	0	R1349T
2194.382	1.637	2195137	WORD	n/a	wordpools/wordpool_EN.txt	FUDGE	10	14	[0, 0, 0]	n/a	FR1	0	R1349T
2196.019	1.012	2196773	WORD_OFF	n/a	n/a	FUDGE	10	14	[0, 0, 0]	n/a	FR1	0	R1349T
2197.031	1.622	2197785	WORD	n/a	wordpools/wordpool_EN.txt	CAGE	11	14	[0, 0, 0]	n/a	FR1	0	R1349T
2198.653	1.042	2199407	WORD_OFF	n/a	n/a	CAGE	11	14	[0, 0, 0]	n/a	FR1	0	R1349T
2199.695	1.624	2200449	WORD	n/a	wordpools/wordpool_EN.txt	JUDGE	12	14	[0, 0, 0]	n/a	FR1	0	R1349T
2201.319	0.0	2202073	WORD_OFF	n/a	n/a	JUDGE	12	14	[0, 0, 0]	n/a	FR1	0	R1349T
2201.319	0.0	2202073	ENCODING_END	n/a	n/a	n/a	-999	14	[0, 0, 0]	n/a	FR1	0	R1349T
2201.319	0.001	2202073	DISTRACT_START	n/a	n/a	n/a	-999	14	[0, 0, 0]	n/a	FR1	0	R1349T
2201.32	0.015	2202074	START	n/a	n/a	n/a	-999	14	[-999, -999, -999]	n/a	FR1	0	R1349T
2201.335	4.619	2202089	PROB	4.619	n/a	n/a	-999	14	[5, 2, 5]	12	FR1	0	R1349T
2205.954	2.817	2206708	PROB	2.817	n/a	n/a	-999	14	[5, 2, 2]	9	FR1	0	R1349T
2208.771	3.349	2209525	PROB	3.349	n/a	n/a	-999	14	[4, 9, 2]	15	FR1	0	R1349T
2212.12	4.302	2212874	PROB	4.302	n/a	n/a	-999	14	[2, 9, 8]	19	FR1	0	R1349T
2216.422	3.334	2217176	PROB	3.334	n/a	n/a	-999	14	[8, 1, 9]	18	FR1	0	R1349T
2219.756	3.771	2220509	PROB	3.771	n/a	n/a	-999	14	[8, 2, 2]	12	FR1	0	R1349T
2223.527	0.013	2224280	STOP	n/a	n/a	n/a	-999	14	[-999, -999, -999]	n/a	FR1	0	R1349T
2223.54	0.581	2224293	DISTRACT_END	n/a	n/a	n/a	-999	14	[0, 0, 0]	n/a	FR1	0	R1349T
2224.121	1.62	2224874	RETRIEVAL_ORIENT_START	n/a	n/a	n/a	-999	14	[0, 0, 0]	n/a	FR1	0	R1349T
2225.741	0.0	2226494	RETRIEVAL_ORIENT_END	n/a	n/a	n/a	-999	14	[0, 0, 0]	n/a	FR1	0	R1349T
2225.741	1.441	2226494	REC_START	n/a	n/a	n/a	-999	14	[0, 0, 0]	n/a	FR1	0	R1349T
2227.182	1.815	2227935	REC_WORD	1.815	n/a	CAGE	11	14	[0, 0, 0]	n/a	FR1	0	R1349T
2228.997	1.609	2229750	REC_WORD	1.609	n/a	BOMB	7	14	[0, 0, 0]	n/a	FR1	0	R1349T
2230.606	25.148	2231359	REC_WORD	25.148	n/a	JUICE	9	14	[0, 0, 0]	n/a	FR1	0	R1349T
2255.754	0.0	2256506	REC_END	n/a	n/a	n/a	-999	14	[0, 0, 0]	n/a	FR1	0	R1349T
2255.754	0.015	2256506	TRIAL_END	n/a	n/a	n/a	-999	14	[0, 0, 0]	n/a	FR1	0	R1349T
2255.769	0.0	2256521	WAITING_START	n/a	n/a	n/a	-999	15	[0, 0, 0]	n/a	FR1	0	R1349T
2255.769	0.0	2256521	TRIAL	n/a	n/a	n/a	-999	15	[0, 0, 0]	n/a	FR1	0	R1349T
2255.769	14.23	2256521	TRIAL_START	n/a	n/a	n/a	-999	15	[0, 0, 0]	n/a	FR1	0	R1349T
2269.999	0.0	2270750	WAITING_END	n/a	n/a	n/a	-999	15	[0, 0, 0]	n/a	FR1	0	R1349T
2269.999	10.428	2270750	COUNTDOWN_START	n/a	n/a	n/a	-999	15	[0, 0, 0]	n/a	FR1	0	R1349T
2280.427	0.001	2281178	COUNTDOWN_END	n/a	n/a	n/a	-999	15	[0, 0, 0]	n/a	FR1	0	R1349T
2280.428	1.14	2281179	ORIENT_START	n/a	n/a	n/a	-999	15	[0, 0, 0]	n/a	FR1	0	R1349T
2281.568	0.0	2282319	ORIENT_END	n/a	n/a	n/a	-999	15	[0, 0, 0]	n/a	FR1	0	R1349T
2281.568	1.039	2282319	ENCODING_START	n/a	n/a	n/a	-999	15	[0, 0, 0]	n/a	FR1	0	R1349T
2282.607	1.627	2283358	WORD	n/a	wordpools/wordpool_EN.txt	HAT	1	15	[0, 0, 0]	n/a	FR1	0	R1349T
2284.234	0.993	2284985	WORD_OFF	n/a	n/a	HAT	1	15	[0, 0, 0]	n/a	FR1	0	R1349T
2285.227	1.625	2285978	WORD	n/a	wordpools/wordpool_EN.txt	FOG	2	15	[0, 0, 0]	n/a	FR1	0	R1349T
2286.852	0.84	2287603	WORD_OFF	n/a	n/a	FOG	2	15	[0, 0, 0]	n/a	FR1	0	R1349T
2287.692	1.626	2288443	WORD	n/a	wordpools/wordpool_EN.txt	NOSE	3	15	[0, 0, 0]	n/a	FR1	0	R1349T
2289.318	0.92	2290068	WORD_OFF	n/a	n/a	NOSE	3	15	[0, 0, 0]	n/a	FR1	0	R1349T
2290.238	1.615	2290988	WORD	n/a	wordpools/wordpool_EN.txt	LAMP	4	15	[0, 0, 0]	n/a	FR1	0	R1349T
2291.853	0.835	2292603	WORD_OFF	n/a	n/a	LAMP	4	15	[0, 0, 0]	n/a	FR1	0	R1349T
2292.688	1.631	2293438	WORD	n/a	wordpools/wordpool_EN.txt	FUR	5	15	[0, 0, 0]	n/a	FR1	0	R1349T
2294.319	0.864	2295069	WORD_OFF	n/a	n/a	FUR	5	15	[0, 0, 0]	n/a	FR1	0	R1349T
2295.183	1.621	2295933	WORD	n/a	wordpools/wordpool_EN.txt	ARK	6	15	[0, 0, 0]	n/a	FR1	0	R1349T
2296.804	0.82	2297554	WORD_OFF	n/a	n/a	ARK	6	15	[0, 0, 0]	n/a	FR1	0	R1349T
2297.624	1.629	2298374	WORD	n/a	wordpools/wordpool_EN.txt	TOAD	7	15	[0, 0, 0]	n/a	FR1	0	R1349T
2299.253	0.785	2300003	WORD_OFF	n/a	n/a	TOAD	7	15	[0, 0, 0]	n/a	FR1	0	R1349T
2300.038	1.633	2300788	WORD	n/a	wordpools/wordpool_EN.txt	GRASS	8	15	[0, 0, 0]	n/a	FR1	0	R1349T
2301.671	0.887	2302421	WORD_OFF	n/a	n/a	GRASS	8	15	[0, 0, 0]	n/a	FR1	0	R1349T
2302.558	1.629	2303308	WORD	n/a	wordpools/wordpool_EN.txt	FRUIT	9	15	[0, 0, 0]	n/a	FR1	0	R1349T
2304.187	0.964	2304937	WORD_OFF	n/a	n/a	FRUIT	9	15	[0, 0, 0]	n/a	FR1	0	R1349T
2305.151	1.638	2305901	WORD	n/a	wordpools/wordpool_EN.txt	SPRING	10	15	[0, 0, 0]	n/a	FR1	0	R1349T
2306.789	0.927	2307539	WORD_OFF	n/a	n/a	SPRING	10	15	[0, 0, 0]	n/a	FR1	0	R1349T
2307.716	1.622	2308466	WORD	n/a	wordpools/wordpool_EN.txt	FLOOR	11	15	[0, 0, 0]	n/a	FR1	0	R1349T
2309.338	0.752	2310088	WORD_OFF	n/a	n/a	FLOOR	11	15	[0, 0, 0]	n/a	FR1	0	R1349T
2310.09	1.633	2310840	WORD	n/a	wordpools/wordpool_EN.txt	MAT	12	15	[0, 0, 0]	n/a	FR1	0	R1349T
2311.723	0.0	2312473	WORD_OFF	n/a	n/a	MAT	12	15	[0, 0, 0]	n/a	FR1	0	R1349T
2311.723	0.001	2312473	ENCODING_END	n/a	n/a	n/a	-999	15	[0, 0, 0]	n/a	FR1	0	R1349T
2311.724	0.0	2312474	DISTRACT_START	n/a	n/a	n/a	-999	15	[0, 0, 0]	n/a	FR1	0	R1349T
2311.724	0.016	2312474	START	n/a	n/a	n/a	-999	15	[-999, -999, -999]	n/a	FR1	0	R1349T
2311.74	4.75	2312490	PROB	4.75	n/a	n/a	-999	15	[3, 6, 3]	12	FR1	0	R1349T
2316.49	3.401	2317239	PROB	3.401	n/a	n/a	-999	15	[9, 1, 5]	15	FR1	0	R1349T
2319.891	3.283	2320640	PROB	3.283	n/a	n/a	-999	15	[6, 1, 3]	10	FR1	0	R1349T
2323.174	3.468	2323923	PROB	3.468	n/a	n/a	-999	15	[3, 1, 8]	12	FR1	0	R1349T
2326.642	3.268	2327391	PROB	3.268	n/a	n/a	-999	15	[8, 3, 4]	15	FR1	0	R1349T
2329.91	2.954	2330659	PROB	2.954	n/a	n/a	-999	15	[6, 1, 8]	15	FR1	0	R1349T
2332.864	0.013	2333613	STOP	n/a	n/a	n/a	-999	15	[-999, -999, -999]	n/a	FR1	0	R1349T
2332.877	0.671	2333626	DISTRACT_END	n/a	n/a	n/a	-999	15	[0, 0, 0]	n/a	FR1	0	R1349T
2333.548	1.546	2334297	RETRIEVAL_ORIENT_START	n/a	n/a	n/a	-999	15	[0, 0, 0]	n/a	FR1	0	R1349T
2335.094	0.0	2335843	RETRIEVAL_ORIENT_END	n/a	n/a	n/a	-999	15	[0, 0, 0]	n/a	FR1	0	R1349T
2335.094	3.87	2335843	REC_START	n/a	n/a	n/a	-999	15	[0, 0, 0]	n/a	FR1	0	R1349T
2338.964	3.72	2339712	REC_WORD	3.72	n/a	SPRING	10	15	[0, 0, 0]	n/a	FR1	0	R1349T
2342.684	5.648	2343432	REC_WORD	5.648	n/a	LAMP	4	15	[0, 0, 0]	n/a	FR1	0	R1349T
2348.332	8.463	2349080	REC_WORD	8.463	n/a	TOAD	7	15	[0, 0, 0]	n/a	FR1	0	R1349T
2356.795	4.709	2357543	REC_WORD_VV	4.709	n/a	<>	-999	15	[0, 0, 0]	n/a	FR1	0	R1349T
2361.504	3.603	2362251	REC_WORD	3.603	n/a	FUR	5	15	[0, 0, 0]	n/a	FR1	0	R1349T
2365.107	0.0	2365854	REC_END	n/a	n/a	n/a	-999	15	[0, 0, 0]	n/a	FR1	0	R1349T
2365.107	0.015	2365854	TRIAL_END	n/a	n/a	n/a	-999	15	[0, 0, 0]	n/a	FR1	0	R1349T
2365.122	0.0	2365869	TRIAL_START	n/a	n/a	n/a	-999	16	[0, 0, 0]	n/a	FR1	0	R1349T
2365.122	0.0	2365869	TRIAL	n/a	n/a	n/a	-999	16	[0, 0, 0]	n/a	FR1	0	R1349T
2365.122	12.179	2365869	WAITING_START	n/a	n/a	n/a	-999	16	[0, 0, 0]	n/a	FR1	0	R1349T
2377.301	0.0	2378048	COUNTDOWN_START	n/a	n/a	n/a	-999	16	[0, 0, 0]	n/a	FR1	0	R1349T
2377.301	10.429	2378048	WAITING_END	n/a	n/a	n/a	-999	16	[0, 0, 0]	n/a	FR1	0	R1349T
2387.73	0.001	2388476	COUNTDOWN_END	n/a	n/a	n/a	-999	16	[0, 0, 0]	n/a	FR1	0	R1349T
2387.731	1.106	2388477	ORIENT_START	n/a	n/a	n/a	-999	16	[0, 0, 0]	n/a	FR1	0	R1349T
2388.837	0.0	2389583	ORIENT_END	n/a	n/a	n/a	-999	16	[0, 0, 0]	n/a	FR1	0	R1349T
2388.837	1.127	2389583	ENCODING_START	n/a	n/a	n/a	-999	16	[0, 0, 0]	n/a	FR1	0	R1349T
2389.964	1.624	2390710	WORD	n/a	wordpools/wordpool_EN.txt	MOUSE	1	16	[0, 0, 0]	n/a	FR1	0	R1349T
2391.588	0.993	2392334	WORD_OFF	n/a	n/a	MOUSE	1	16	[0, 0, 0]	n/a	FR1	0	R1349T
2392.581	1.623	2393327	WORD	n/a	wordpools/wordpool_EN.txt	POND	2	16	[0, 0, 0]	n/a	FR1	0	R1349T
2394.204	0.808	2394950	WORD_OFF	n/a	n/a	POND	2	16	[0, 0, 0]	n/a	FR1	0	R1349T
2395.012	1.627	2395758	WORD	n/a	wordpools/wordpool_EN.txt	NAIL	3	16	[0, 0, 0]	n/a	FR1	0	R1349T
2396.639	0.783	2397385	WORD_OFF	n/a	n/a	NAIL	3	16	[0, 0, 0]	n/a	FR1	0	R1349T
2397.422	1.634	2398168	WORD	n/a	wordpools/wordpool_EN.txt	SEAL	4	16	[0, 0, 0]	n/a	FR1	0	R1349T
2399.056	1.051	2399802	WORD_OFF	n/a	n/a	SEAL	4	16	[0, 0, 0]	n/a	FR1	0	R1349T
2400.107	1.632	2400853	WORD	n/a	wordpools/wordpool_EN.txt	STEM	5	16	[0, 0, 0]	n/a	FR1	0	R1349T
2401.739	0.987	2402485	WORD_OFF	n/a	n/a	STEM	5	16	[0, 0, 0]	n/a	FR1	0	R1349T
2402.726	1.63	2403472	WORD	n/a	wordpools/wordpool_EN.txt	SHOE	6	16	[0, 0, 0]	n/a	FR1	0	R1349T
2404.356	1.035	2405102	WORD_OFF	n/a	n/a	SHOE	6	16	[0, 0, 0]	n/a	FR1	0	R1349T
2405.391	1.633	2406137	WORD	n/a	wordpools/wordpool_EN.txt	WHALE	7	16	[0, 0, 0]	n/a	FR1	0	R1349T
2407.024	0.954	2407769	WORD_OFF	n/a	n/a	WHALE	7	16	[0, 0, 0]	n/a	FR1	0	R1349T
2407.978	1.629	2408723	WORD	n/a	wordpools/wordpool_EN.txt	THREAD	8	16	[0, 0, 0]	n/a	FR1	0	R1349T
2409.607	1.012	2410352	WORD_OFF	n/a	n/a	THREAD	8	16	[0, 0, 0]	n/a	FR1	0	R1349T
2410.619	1.621	2411364	WORD	n/a	wordpools/wordpool_EN.txt	FLAME	9	16	[0, 0, 0]	n/a	FR1	0	R1349T
2412.24	0.891	2412985	WORD_OFF	n/a	n/a	FLAME	9	16	[0, 0, 0]	n/a	FR1	0	R1349T
2413.131	1.627	2413876	WORD	n/a	wordpools/wordpool_EN.txt	PRINCE	10	16	[0, 0, 0]	n/a	FR1	0	R1349T
2414.758	1.046	2415503	WORD_OFF	n/a	n/a	PRINCE	10	16	[0, 0, 0]	n/a	FR1	0	R1349T
2415.804	1.622	2416549	WORD	n/a	wordpools/wordpool_EN.txt	FORK	11	16	[0, 0, 0]	n/a	FR1	0	R1349T
2417.426	1.005	2418171	WORD_OFF	n/a	n/a	FORK	11	16	[0, 0, 0]	n/a	FR1	0	R1349T
2418.431	1.628	2419176	WORD	n/a	wordpools/wordpool_EN.txt	RAIN	12	16	[0, 0, 0]	n/a	FR1	0	R1349T
2420.059	0.001	2420804	WORD_OFF	n/a	n/a	RAIN	12	16	[0, 0, 0]	n/a	FR1	0	R1349T
2420.06	0.0	2420805	ENCODING_END	n/a	n/a	n/a	-999	16	[0, 0, 0]	n/a	FR1	0	R1349T
2420.06	0.0	2420805	DISTRACT_START	n/a	n/a	n/a	-999	16	[0, 0, 0]	n/a	FR1	0	R1349T
2420.06	0.016	2420805	START	n/a	n/a	n/a	-999	16	[-999, -999, -999]	n/a	FR1	0	R1349T
2420.076	4.334	2420821	PROB	4.334	n/a	n/a	-999	16	[9, 3, 2]	14	FR1	0	R1349T
2424.41	3.167	2425155	PROB	3.167	n/a	n/a	-999	16	[6, 8, 4]	18	FR1	0	R1349T
2427.577	3.501	2428322	PROB	3.501	n/a	n/a	-999	16	[9, 4, 2]	15	FR1	0	R1349T
2431.078	3.334	2431822	PROB	3.334	n/a	n/a	-999	16	[2, 2, 6]	10	FR1	0	R1349T
2434.412	3.384	2435156	PROB	3.384	n/a	n/a	-999	16	[2, 5, 7]	14	FR1	0	R1349T
2437.796	3.465	2438540	PROB	3.465	n/a	n/a	-999	16	[6, 9, 3]	18	FR1	0	R1349T
2441.261	0.018	2442005	STOP	n/a	n/a	n/a	-999	16	[-999, -999, -999]	n/a	FR1	0	R1349T
2441.279	0.634	2442023	DISTRACT_END	n/a	n/a	n/a	-999	16	[0, 0, 0]	n/a	FR1	0	R1349T
2441.913	1.634	2442657	RETRIEVAL_ORIENT_START	n/a	n/a	n/a	-999	16	[0, 0, 0]	n/a	FR1	0	R1349T
2443.547	0.0	2444291	RETRIEVAL_ORIENT_END	n/a	n/a	n/a	-999	16	[0, 0, 0]	n/a	FR1	0	R1349T
2443.547	6.581	2444291	REC_START	n/a	n/a	n/a	-999	16	[0, 0, 0]	n/a	FR1	0	R1349T
2450.128	1.676	2450872	REC_WORD	1.676	n/a	TOAD	-999	16	[0, 0, 0]	n/a	FR1	0	R1349T
2451.804	6.832	2452548	REC_WORD_VV	6.832	n/a	<>	-999	16	[0, 0, 0]	n/a	FR1	0	R1349T
2458.636	14.924	2459379	REC_WORD	14.924	n/a	WHALE	7	16	[0, 0, 0]	n/a	FR1	0	R1349T
2473.56	0.0	2474303	REC_END	n/a	n/a	n/a	-999	16	[0, 0, 0]	n/a	FR1	0	R1349T
2473.56	0.015	2474303	TRIAL_END	n/a	n/a	n/a	-999	16	[0, 0, 0]	n/a	FR1	0	R1349T
2473.575	0.0	2474318	TRIAL_START	n/a	n/a	n/a	-999	17	[0, 0, 0]	n/a	FR1	0	R1349T
2473.575	0.0	2474318	TRIAL	n/a	n/a	n/a	-999	17	[0, 0, 0]	n/a	FR1	0	R1349T
2473.575	167.141	2474318	WAITING_START	n/a	n/a	n/a	-999	17	[0, 0, 0]	n/a	FR1	0	R1349T
2640.716	0.001	2641451	WAITING_END	n/a	n/a	n/a	-999	17	[0, 0, 0]	n/a	FR1	0	R1349T
2640.717	10.429	2641452	COUNTDOWN_START	n/a	n/a	n/a	-999	17	[0, 0, 0]	n/a	FR1	0	R1349T
2651.146	0.0	2651881	ORIENT_START	n/a	n/a	n/a	-999	17	[0, 0, 0]	n/a	FR1	0	R1349T
2651.146	1.171	2651881	COUNTDOWN_END	n/a	n/a	n/a	-999	17	[0, 0, 0]	n/a	FR1	0	R1349T
2652.317	0.001	2653052	ORIENT_END	n/a	n/a	n/a	-999	17	[0, 0, 0]	n/a	FR1	0	R1349T
2652.318	1.045	2653053	ENCODING_START	n/a	n/a	n/a	-999	17	[0, 0, 0]	n/a	FR1	0	R1349T
2653.363	1.639	2654098	WORD	n/a	wordpools/wordpool_EN.txt	PURSE	1	17	[0, 0, 0]	n/a	FR1	0	R1349T
2655.002	0.805	2655737	WORD_OFF	n/a	n/a	PURSE	1	17	[0, 0, 0]	n/a	FR1	0	R1349T
2655.807	1.629	2656542	WORD	n/a	wordpools/wordpool_EN.txt	CANE	2	17	[0, 0, 0]	n/a	FR1	0	R1349T
2657.436	0.859	2658171	WORD_OFF	n/a	n/a	CANE	2	17	[0, 0, 0]	n/a	FR1	0	R1349T
2658.295	1.608	2659030	WORD	n/a	wordpools/wordpool_EN.txt	TRASH	3	17	[0, 0, 0]	n/a	FR1	0	R1349T
2659.903	1.129	2660638	WORD_OFF	n/a	n/a	TRASH	3	17	[0, 0, 0]	n/a	FR1	0	R1349T
2661.032	1.638	2661767	WORD	n/a	wordpools/wordpool_EN.txt	BRANCH	4	17	[0, 0, 0]	n/a	FR1	0	R1349T
2662.67	0.875	2663404	WORD_OFF	n/a	n/a	BRANCH	4	17	[0, 0, 0]	n/a	FR1	0	R1349T
2663.545	1.625	2664279	WORD	n/a	wordpools/wordpool_EN.txt	SNAIL	5	17	[0, 0, 0]	n/a	FR1	0	R1349T
2665.17	1.011	2665904	WORD_OFF	n/a	n/a	SNAIL	5	17	[0, 0, 0]	n/a	FR1	0	R1349T
2666.181	1.606	2666915	WORD	n/a	wordpools/wordpool_EN.txt	DART	6	17	[0, 0, 0]	n/a	FR1	0	R1349T
2667.787	0.817	2668521	WORD_OFF	n/a	n/a	DART	6	17	[0, 0, 0]	n/a	FR1	0	R1349T
2668.604	1.633	2669338	WORD	n/a	wordpools/wordpool_EN.txt	STREET	7	17	[0, 0, 0]	n/a	FR1	0	R1349T
2670.237	0.914	2670971	WORD_OFF	n/a	n/a	STREET	7	17	[0, 0, 0]	n/a	FR1	0	R1349T
2671.151	1.621	2671885	WORD	n/a	wordpools/wordpool_EN.txt	HOSE	8	17	[0, 0, 0]	n/a	FR1	0	R1349T
2672.772	1.103	2673506	WORD_OFF	n/a	n/a	HOSE	8	17	[0, 0, 0]	n/a	FR1	0	R1349T
2673.875	1.631	2674609	WORD	n/a	wordpools/wordpool_EN.txt	RAT	9	17	[0, 0, 0]	n/a	FR1	0	R1349T
2675.506	0.895	2676240	WORD_OFF	n/a	n/a	RAT	9	17	[0, 0, 0]	n/a	FR1	0	R1349T
2676.401	1.622	2677135	WORD	n/a	wordpools/wordpool_EN.txt	SHIRT	10	17	[0, 0, 0]	n/a	FR1	0	R1349T
2678.023	1.149	2678757	WORD_OFF	n/a	n/a	SHIRT	10	17	[0, 0, 0]	n/a	FR1	0	R1349T
2679.172	1.618	2679906	WORD	n/a	wordpools/wordpool_EN.txt	SKUNK	11	17	[0, 0, 0]	n/a	FR1	0	R1349T
2680.79	1.149	2681524	WORD_OFF	n/a	n/a	SKUNK	11	17	[0, 0, 0]	n/a	FR1	0	R1349T
2681.939	1.635	2682673	WORD	n/a	wordpools/wordpool_EN.txt	CLIFF	12	17	[0, 0, 0]	n/a	FR1	0	R1349T
2683.574	0.0	2684308	WORD_OFF	n/a	n/a	CLIFF	12	17	[0, 0, 0]	n/a	FR1	0	R1349T
2683.574	0.001	2684308	ENCODING_END	n/a	n/a	n/a	-999	17	[0, 0, 0]	n/a	FR1	0	R1349T
2683.575	0.0	2684309	DISTRACT_START	n/a	n/a	n/a	-999	17	[0, 0, 0]	n/a	FR1	0	R1349T
2683.575	0.015	2684309	START	n/a	n/a	n/a	-999	17	[-999, -999, -999]	n/a	FR1	0	R1349T
2683.59	5.001	2684324	PROB	5.001	n/a	n/a	-999	17	[3, 2, 3]	8	FR1	0	R1349T
2688.591	2.517	2689324	PROB	2.517	n/a	n/a	-999	17	[1, 5, 6]	12	FR1	0	R1349T
2691.108	3.434	2691841	PROB	3.434	n/a	n/a	-999	17	[6, 2, 1]	9	FR1	0	R1349T
2694.542	3.051	2695275	PROB	3.051	n/a	n/a	-999	17	[1, 8, 6]	15	FR1	0	R1349T
2697.593	4.401	2698326	PROB	4.401	n/a	n/a	-999	17	[8, 5, 9]	22	FR1	0	R1349T
2701.994	4.047	2702727	PROB	4.047	n/a	n/a	-999	17	[7, 8, 1]	16	FR1	0	R1349T
2706.041	0.02	2706774	STOP	n/a	n/a	n/a	-999	17	[-999, -999, -999]	n/a	FR1	0	R1349T
2706.061	0.68	2706794	DISTRACT_END	n/a	n/a	n/a	-999	17	[0, 0, 0]	n/a	FR1	0	R1349T
2706.741	1.636	2707474	RETRIEVAL_ORIENT_START	n/a	n/a	n/a	-999	17	[0, 0, 0]	n/a	FR1	0	R1349T
2708.377	0.001	2709110	RETRIEVAL_ORIENT_END	n/a	n/a	n/a	-999	17	[0, 0, 0]	n/a	FR1	0	R1349T
2708.378	0.817	2709111	REC_START	n/a	n/a	n/a	-999	17	[0, 0, 0]	n/a	FR1	0	R1349T
2709.195	1.179	2709927	REC_WORD	1.179	n/a	PURSE	1	17	[0, 0, 0]	n/a	FR1	0	R1349T
2710.374	4.078	2711106	REC_WORD	4.078	n/a	SKUNK	11	17	[0, 0, 0]	n/a	FR1	0	R1349T
2714.452	6.248	2715184	REC_WORD	6.248	n/a	TRASH	3	17	[0, 0, 0]	n/a	FR1	0	R1349T
2720.7	1.323	2721432	REC_WORD_VV	1.323	n/a	<>	-999	17	[0, 0, 0]	n/a	FR1	0	R1349T
2722.023	16.368	2722755	REC_WORD	16.368	n/a	LEAF	-999	17	[0, 0, 0]	n/a	FR1	0	R1349T
2738.391	0.0	2739122	REC_END	n/a	n/a	n/a	-999	17	[0, 0, 0]	n/a	FR1	0	R1349T
2738.391	0.014	2739122	TRIAL_END	n/a	n/a	n/a	-999	17	[0, 0, 0]	n/a	FR1	0	R1349T
2738.405	0.0	2739136	TRIAL_START	n/a	n/a	n/a	-999	18	[0, 0, 0]	n/a	FR1	0	R1349T
2738.405	0.0	2739136	TRIAL	n/a	n/a	n/a	-999	18	[0, 0, 0]	n/a	FR1	0	R1349T
2738.405	12.031	2739136	WAITING_START	n/a	n/a	n/a	-999	18	[0, 0, 0]	n/a	FR1	0	R1349T
2750.436	0.001	2751167	WAITING_END	n/a	n/a	n/a	-999	18	[0, 0, 0]	n/a	FR1	0	R1349T
2750.437	10.428	2751168	COUNTDOWN_START	n/a	n/a	n/a	-999	18	[0, 0, 0]	n/a	FR1	0	R1349T
2760.865	0.001	2761595	COUNTDOWN_END	n/a	n/a	n/a	-999	18	[0, 0, 0]	n/a	FR1	0	R1349T
2760.866	1.139	2761596	ORIENT_START	n/a	n/a	n/a	-999	18	[0, 0, 0]	n/a	FR1	0	R1349T
2762.005	0.0	2762735	ORIENT_END	n/a	n/a	n/a	-999	18	[0, 0, 0]	n/a	FR1	0	R1349T
2762.005	0.92	2762735	ENCODING_START	n/a	n/a	n/a	-999	18	[0, 0, 0]	n/a	FR1	0	R1349T
2762.925	1.63	2763655	WORD	n/a	wordpools/wordpool_EN.txt	DITCH	1	18	[0, 0, 0]	n/a	FR1	0	R1349T
2764.555	1.117	2765285	WORD_OFF	n/a	n/a	DITCH	1	18	[0, 0, 0]	n/a	FR1	0	R1349T
2765.672	1.633	2766402	WORD	n/a	wordpools/wordpool_EN.txt	PEARL	2	18	[0, 0, 0]	n/a	FR1	0	R1349T
2767.305	1.075	2768035	WORD_OFF	n/a	n/a	PEARL	2	18	[0, 0, 0]	n/a	FR1	0	R1349T
2768.38	1.626	2769110	WORD	n/a	wordpools/wordpool_EN.txt	ROPE	3	18	[0, 0, 0]	n/a	FR1	0	R1349T
2770.006	0.862	2770736	WORD_OFF	n/a	n/a	ROPE	3	18	[0, 0, 0]	n/a	FR1	0	R1349T
2770.868	1.622	2771598	WORD	n/a	wordpools/wordpool_EN.txt	LAND	4	18	[0, 0, 0]	n/a	FR1	0	R1349T
2772.49	0.791	2773220	WORD_OFF	n/a	n/a	LAND	4	18	[0, 0, 0]	n/a	FR1	0	R1349T
2773.281	1.626	2774011	WORD	n/a	wordpools/wordpool_EN.txt	VINE	5	18	[0, 0, 0]	n/a	FR1	0	R1349T
2774.907	1.018	2775637	WORD_OFF	n/a	n/a	VINE	5	18	[0, 0, 0]	n/a	FR1	0	R1349T
2775.925	1.633	2776655	WORD	n/a	wordpools/wordpool_EN.txt	GLASS	6	18	[0, 0, 0]	n/a	FR1	0	R1349T
2777.558	1.008	2778288	WORD_OFF	n/a	n/a	GLASS	6	18	[0, 0, 0]	n/a	FR1	0	R1349T
2778.566	1.624	2779296	WORD	n/a	wordpools/wordpool_EN.txt	MOON	7	18	[0, 0, 0]	n/a	FR1	0	R1349T
2780.19	0.824	2780919	WORD_OFF	n/a	n/a	MOON	7	18	[0, 0, 0]	n/a	FR1	0	R1349T
2781.014	1.628	2781743	WORD	n/a	wordpools/wordpool_EN.txt	FARM	8	18	[0, 0, 0]	n/a	FR1	0	R1349T
2782.642	0.887	2783371	WORD_OFF	n/a	n/a	FARM	8	18	[0, 0, 0]	n/a	FR1	0	R1349T
2783.529	1.629	2784258	WORD	n/a	wordpools/wordpool_EN.txt	STOVE	9	18	[0, 0, 0]	n/a	FR1	0	R1349T
2785.158	1.14	2785887	WORD_OFF	n/a	n/a	STOVE	9	18	[0, 0, 0]	n/a	FR1	0	R1349T
2786.298	1.628	2787027	WORD	n/a	wordpools/wordpool_EN.txt	BENCH	10	18	[0, 0, 0]	n/a	FR1	0	R1349T
2787.926	0.825	2788655	WORD_OFF	n/a	n/a	BENCH	10	18	[0, 0, 0]	n/a	FR1	0	R1349T
2788.751	1.625	2789480	WORD	n/a	wordpools/wordpool_EN.txt	HAWK	11	18	[0, 0, 0]	n/a	FR1	0	R1349T
2790.376	1.147	2791105	WORD_OFF	n/a	n/a	HAWK	11	18	[0, 0, 0]	n/a	FR1	0	R1349T
2791.523	1.636	2792252	WORD	n/a	wordpools/wordpool_EN.txt	GOLD	12	18	[0, 0, 0]	n/a	FR1	0	R1349T
2793.159	0.001	2793888	WORD_OFF	n/a	n/a	GOLD	12	18	[0, 0, 0]	n/a	FR1	0	R1349T
2793.16	0.0	2793889	DISTRACT_START	n/a	n/a	n/a	-999	18	[0, 0, 0]	n/a	FR1	0	R1349T
2793.16	0.0	2793889	ENCODING_END	n/a	n/a	n/a	-999	18	[0, 0, 0]	n/a	FR1	0	R1349T
2793.16	0.016	2793889	START	n/a	n/a	n/a	-999	18	[-999, -999, -999]	n/a	FR1	0	R1349T
2793.176	4.051	2793905	PROB	4.051	n/a	n/a	-999	18	[8, 4, 4]	16	FR1	0	R1349T
2797.227	4.468	2797956	PROB	4.468	n/a	n/a	-999	18	[7, 2, 6]	15	FR1	0	R1349T
2801.695	3.401	2802424	PROB	3.401	n/a	n/a	-999	18	[4, 4, 2]	10	FR1	0	R1349T
2805.096	2.7	2805824	PROB	2.7	n/a	n/a	-999	18	[8, 3, 4]	15	FR1	0	R1349T
2807.796	3.5	2808524	PROB	3.5	n/a	n/a	-999	18	[7, 5, 6]	18	FR1	0	R1349T
2811.296	3.48	2812024	PROB	3.48	n/a	n/a	-999	18	[4, 8, 4]	16	FR1	0	R1349T
2814.776	0.022	2815504	STOP	n/a	n/a	n/a	-999	18	[-999, -999, -999]	n/a	FR1	0	R1349T
2814.798	0.624	2815526	DISTRACT_END	n/a	n/a	n/a	-999	18	[0, 0, 0]	n/a	FR1	0	R1349T
2815.422	1.526	2816150	RETRIEVAL_ORIENT_START	n/a	n/a	n/a	-999	18	[0, 0, 0]	n/a	FR1	0	R1349T
2816.948	0.0	2817676	RETRIEVAL_ORIENT_END	n/a	n/a	n/a	-999	18	[0, 0, 0]	n/a	FR1	0	R1349T
2816.948	6.247	2817676	REC_START	n/a	n/a	n/a	-999	18	[0, 0, 0]	n/a	FR1	0	R1349T
2823.195	10.297	2823923	REC_WORD_VV	10.297	n/a	<>	-999	18	[0, 0, 0]	n/a	FR1	0	R1349T
2833.492	4.461	2834219	REC_WORD	4.461	n/a	STOOL	-999	18	[0, 0, 0]	n/a	FR1	0	R1349T
2837.953	3.343	2838680	REC_WORD	3.343	n/a	DITCH	1	18	[0, 0, 0]	n/a	FR1	0	R1349T
2841.296	5.666	2842023	REC_WORD	5.666	n/a	PEARL	2	18	[0, 0, 0]	n/a	FR1	0	R1349T
2846.962	0.0	2847689	TRIAL_END	n/a	n/a	n/a	-999	18	[0, 0, 0]	n/a	FR1	0	R1349T
2846.962	0.014	2847689	REC_END	n/a	n/a	n/a	-999	18	[0, 0, 0]	n/a	FR1	0	R1349T
2846.976	0.0	2847703	TRIAL_START	n/a	n/a	n/a	-999	19	[0, 0, 0]	n/a	FR1	0	R1349T
2846.976	0.0	2847703	TRIAL	n/a	n/a	n/a	-999	19	[0, 0, 0]	n/a	FR1	0	R1349T
2846.976	28.733	2847703	WAITING_START	n/a	n/a	n/a	-999	19	[0, 0, 0]	n/a	FR1	0	R1349T
2875.709	0.0	2876434	WAITING_END	n/a	n/a	n/a	-999	19	[0, 0, 0]	n/a	FR1	0	R1349T
2875.709	10.429	2876434	COUNTDOWN_START	n/a	n/a	n/a	-999	19	[0, 0, 0]	n/a	FR1	0	R1349T
2886.138	0.001	2886863	COUNTDOWN_END	n/a	n/a	n/a	-999	19	[0, 0, 0]	n/a	FR1	0	R1349T
2886.139	1.187	2886864	ORIENT_START	n/a	n/a	n/a	-999	19	[0, 0, 0]	n/a	FR1	0	R1349T
2887.326	0.001	2888051	ORIENT_END	n/a	n/a	n/a	-999	19	[0, 0, 0]	n/a	FR1	0	R1349T
2887.327	0.854	2888052	ENCODING_START	n/a	n/a	n/a	-999	19	[0, 0, 0]	n/a	FR1	0	R1349T
2888.181	1.63	2888906	WORD	n/a	wordpools/wordpool_EN.txt	SHEEP	1	19	[0, 0, 0]	n/a	FR1	0	R1349T
2889.811	0.828	2890536	WORD_OFF	n/a	n/a	SHEEP	1	19	[0, 0, 0]	n/a	FR1	0	R1349T
2890.639	1.622	2891364	WORD	n/a	wordpools/wordpool_EN.txt	BOY	2	19	[0, 0, 0]	n/a	FR1	0	R1349T
2892.261	0.898	2892986	WORD_OFF	n/a	n/a	BOY	2	19	[0, 0, 0]	n/a	FR1	0	R1349T
2893.159	1.636	2893884	WORD	n/a	wordpools/wordpool_EN.txt	DOOR	3	19	[0, 0, 0]	n/a	FR1	0	R1349T
2894.795	0.967	2895520	WORD_OFF	n/a	n/a	DOOR	3	19	[0, 0, 0]	n/a	FR1	0	R1349T
2895.762	1.634	2896486	WORD	n/a	wordpools/wordpool_EN.txt	FROG	4	19	[0, 0, 0]	n/a	FR1	0	R1349T
2897.396	0.925	2898120	WORD_OFF	n/a	n/a	FROG	4	19	[0, 0, 0]	n/a	FR1	0	R1349T
2898.321	1.609	2899045	WORD	n/a	wordpools/wordpool_EN.txt	LEG	5	19	[0, 0, 0]	n/a	FR1	0	R1349T
2899.93	0.914	2900654	WORD_OFF	n/a	n/a	LEG	5	19	[0, 0, 0]	n/a	FR1	0	R1349T
2900.844	1.636	2901568	WORD	n/a	wordpools/wordpool_EN.txt	SHARK	6	19	[0, 0, 0]	n/a	FR1	0	R1349T
2902.48	1.002	2903204	WORD_OFF	n/a	n/a	SHARK	6	19	[0, 0, 0]	n/a	FR1	0	R1349T
2903.482	1.632	2904206	WORD	n/a	wordpools/wordpool_EN.txt	CLOTH	7	19	[0, 0, 0]	n/a	FR1	0	R1349T
2905.114	0.915	2905838	WORD_OFF	n/a	n/a	CLOTH	7	19	[0, 0, 0]	n/a	FR1	0	R1349T
2906.029	1.635	2906753	WORD	n/a	wordpools/wordpool_EN.txt	BEE	8	19	[0, 0, 0]	n/a	FR1	0	R1349T
2907.664	0.983	2908388	WORD_OFF	n/a	n/a	BEE	8	19	[0, 0, 0]	n/a	FR1	0	R1349T
2908.647	1.634	2909371	WORD	n/a	wordpools/wordpool_EN.txt	SOCK	9	19	[0, 0, 0]	n/a	FR1	0	R1349T
2910.281	1.12	2911005	WORD_OFF	n/a	n/a	SOCK	9	19	[0, 0, 0]	n/a	FR1	0	R1349T
2911.401	1.631	2912125	WORD	n/a	wordpools/wordpool_EN.txt	LAMB	10	19	[0, 0, 0]	n/a	FR1	0	R1349T
2913.032	1.012	2913756	WORD_OFF	n/a	n/a	LAMB	10	19	[0, 0, 0]	n/a	FR1	0	R1349T
2914.044	1.622	2914768	WORD	n/a	wordpools/wordpool_EN.txt	TOE	11	19	[0, 0, 0]	n/a	FR1	0	R1349T
2915.666	0.971	2916390	WORD_OFF	n/a	n/a	TOE	11	19	[0, 0, 0]	n/a	FR1	0	R1349T
2916.637	1.628	2917361	WORD	n/a	wordpools/wordpool_EN.txt	CAR	12	19	[0, 0, 0]	n/a	FR1	0	R1349T
2918.265	0.001	2918989	WORD_OFF	n/a	n/a	CAR	12	19	[0, 0, 0]	n/a	FR1	0	R1349T
2918.266	0.0	2918990	ENCODING_END	n/a	n/a	n/a	-999	19	[0, 0, 0]	n/a	FR1	0	R1349T
2918.266	0.0	2918990	DISTRACT_START	n/a	n/a	n/a	-999	19	[0, 0, 0]	n/a	FR1	0	R1349T
2918.266	0.016	2918990	START	n/a	n/a	n/a	-999	19	[-999, -999, -999]	n/a	FR1	0	R1349T
2918.282	4.867	2919006	PROB	4.867	n/a	n/a	-999	19	[9, 8, 3]	20	FR1	0	R1349T
2923.149	3.952	2923872	PROB	3.952	n/a	n/a	-999	19	[9, 7, 1]	17	FR1	0	R1349T
2927.101	2.634	2927824	PROB	2.634	n/a	n/a	-999	19	[3, 5, 5]	13	FR1	0	R1349T
2929.735	3.334	2930458	PROB	3.334	n/a	n/a	-999	19	[4, 1, 7]	12	FR1	0	R1349T
2933.069	3.317	2933792	PROB	3.317	n/a	n/a	-999	19	[9, 4, 2]	15	FR1	0	R1349T
2936.386	3.008	2937109	PROB	3.008	n/a	n/a	-999	19	[2, 6, 7]	15	FR1	0	R1349T
2939.394	0.01	2940117	STOP	n/a	n/a	n/a	-999	19	[-999, -999, -999]	n/a	FR1	0	R1349T
2939.404	0.509	2940127	DISTRACT_END	n/a	n/a	n/a	-999	19	[0, 0, 0]	n/a	FR1	0	R1349T
2939.913	1.674	2940636	RETRIEVAL_ORIENT_START	n/a	n/a	n/a	-999	19	[0, 0, 0]	n/a	FR1	0	R1349T
2941.587	0.001	2942310	RETRIEVAL_ORIENT_END	n/a	n/a	n/a	-999	19	[0, 0, 0]	n/a	FR1	0	R1349T
2941.588	1.157	2942311	REC_START	n/a	n/a	n/a	-999	19	[0, 0, 0]	n/a	FR1	0	R1349T
2942.745	3.368	2943467	REC_WORD	3.368	n/a	LAMB	10	19	[0, 0, 0]	n/a	FR1	0	R1349T
2946.113	5.48	2946835	REC_WORD	5.48	n/a	SHEEP	1	19	[0, 0, 0]	n/a	FR1	0	R1349T
2951.593	16.048	2952315	REC_WORD	16.048	n/a	TOE	11	19	[0, 0, 0]	n/a	FR1	0	R1349T
2967.641	3.958	2968362	REC_WORD	3.958	n/a	RAIN	-999	19	[0, 0, 0]	n/a	FR1	0	R1349T
2971.599	0.001	2972320	REC_END	n/a	n/a	n/a	-999	19	[0, 0, 0]	n/a	FR1	0	R1349T
2971.6	0.014	2972321	TRIAL_END	n/a	n/a	n/a	-999	19	[0, 0, 0]	n/a	FR1	0	R1349T
2971.614	0.0	2972335	WAITING_START	n/a	n/a	n/a	-999	20	[0, 0, 0]	n/a	FR1	0	R1349T
2971.614	0.0	2972335	TRIAL	n/a	n/a	n/a	-999	20	[0, 0, 0]	n/a	FR1	0	R1349T
2971.614	17.698	2972335	TRIAL_START	n/a	n/a	n/a	-999	20	[0, 0, 0]	n/a	FR1	0	R1349T
2989.312	0.0	2990032	WAITING_END	n/a	n/a	n/a	-999	20	[0, 0, 0]	n/a	FR1	0	R1349T
2989.312	10.429	2990032	COUNTDOWN_START	n/a	n/a	n/a	-999	20	[0, 0, 0]	n/a	FR1	0	R1349T
2999.741	0.0	3000461	COUNTDOWN_END	n/a	n/a	n/a	-999	20	[0, 0, 0]	n/a	FR1	0	R1349T
2999.741	1.257	3000461	ORIENT_START	n/a	n/a	n/a	-999	20	[0, 0, 0]	n/a	FR1	0	R1349T
3000.998	0.001	3001718	ORIENT_END	n/a	n/a	n/a	-999	20	[0, 0, 0]	n/a	FR1	0	R1349T
3000.999	0.894	3001719	ENCODING_START	n/a	n/a	n/a	-999	20	[0, 0, 0]	n/a	FR1	0	R1349T
3001.893	1.622	3002613	WORD	n/a	wordpools/wordpool_EN.txt	SHIELD	1	20	[0, 0, 0]	n/a	FR1	0	R1349T
3003.515	0.751	3004235	WORD_OFF	n/a	n/a	SHIELD	1	20	[0, 0, 0]	n/a	FR1	0	R1349T
3004.266	1.633	3004986	WORD	n/a	wordpools/wordpool_EN.txt	BROOM	2	20	[0, 0, 0]	n/a	FR1	0	R1349T
3005.899	0.773	3006619	WORD_OFF	n/a	n/a	BROOM	2	20	[0, 0, 0]	n/a	FR1	0	R1349T
3006.672	1.626	3007392	WORD	n/a	wordpools/wordpool_EN.txt	TRAIN	3	20	[0, 0, 0]	n/a	FR1	0	R1349T
3008.298	1.012	3009018	WORD_OFF	n/a	n/a	TRAIN	3	20	[0, 0, 0]	n/a	FR1	0	R1349T
3009.31	1.623	3010030	WORD	n/a	wordpools/wordpool_EN.txt	STEAM	4	20	[0, 0, 0]	n/a	FR1	0	R1349T
3010.933	0.86	3011653	WORD_OFF	n/a	n/a	STEAM	4	20	[0, 0, 0]	n/a	FR1	0	R1349T
3011.793	1.624	3012513	WORD	n/a	wordpools/wordpool_EN.txt	PIG	5	20	[0, 0, 0]	n/a	FR1	0	R1349T
3013.417	0.84	3014136	WORD_OFF	n/a	n/a	PIG	5	20	[0, 0, 0]	n/a	FR1	0	R1349T
3014.257	1.611	3014976	WORD	n/a	wordpools/wordpool_EN.txt	CUP	6	20	[0, 0, 0]	n/a	FR1	0	R1349T
3015.868	0.976	3016587	WORD_OFF	n/a	n/a	CUP	6	20	[0, 0, 0]	n/a	FR1	0	R1349T
3016.844	1.624	3017563	WORD	n/a	wordpools/wordpool_EN.txt	ROSE	7	20	[0, 0, 0]	n/a	FR1	0	R1349T
3018.468	0.832	3019187	WORD_OFF	n/a	n/a	ROSE	7	20	[0, 0, 0]	n/a	FR1	0	R1349T
3019.3	1.618	3020019	WORD	n/a	wordpools/wordpool_EN.txt	BRUSH	8	20	[0, 0, 0]	n/a	FR1	0	R1349T
3020.918	0.859	3021637	WORD_OFF	n/a	n/a	BRUSH	8	20	[0, 0, 0]	n/a	FR1	0	R1349T
3021.777	1.625	3022496	WORD	n/a	wordpools/wordpool_EN.txt	BUSH	9	20	[0, 0, 0]	n/a	FR1	0	R1349T
3023.402	0.966	3024121	WORD_OFF	n/a	n/a	BUSH	9	20	[0, 0, 0]	n/a	FR1	0	R1349T
3024.368	1.635	3025087	WORD	n/a	wordpools/wordpool_EN.txt	JET	10	20	[0, 0, 0]	n/a	FR1	0	R1349T
3026.003	1.054	3026722	WORD_OFF	n/a	n/a	JET	10	20	[0, 0, 0]	n/a	FR1	0	R1349T
3027.057	1.629	3027776	WORD	n/a	wordpools/wordpool_EN.txt	TRAY	11	20	[0, 0, 0]	n/a	FR1	0	R1349T
3028.686	0.778	3029405	WORD_OFF	n/a	n/a	TRAY	11	20	[0, 0, 0]	n/a	FR1	0	R1349T
3029.464	1.623	3030183	WORD	n/a	wordpools/wordpool_EN.txt	JAR	12	20	[0, 0, 0]	n/a	FR1	0	R1349T
3031.087	0.001	3031806	WORD_OFF	n/a	n/a	JAR	12	20	[0, 0, 0]	n/a	FR1	0	R1349T
3031.088	0.0	3031807	ENCODING_END	n/a	n/a	n/a	-999	20	[0, 0, 0]	n/a	FR1	0	R1349T
3031.088	0.0	3031807	DISTRACT_START	n/a	n/a	n/a	-999	20	[0, 0, 0]	n/a	FR1	0	R1349T
3031.088	0.015	3031807	START	n/a	n/a	n/a	-999	20	[-999, -999, -999]	n/a	FR1	0	R1349T
3031.103	4.668	3031822	PROB	4.668	n/a	n/a	-999	20	[6, 9, 3]	18	FR1	0	R1349T
3035.771	3.449	3036489	PROB	3.449	n/a	n/a	-999	20	[6, 6, 7]	19	FR1	0	R1349T
3039.22	3.001	3039938	PROB	3.001	n/a	n/a	-999	20	[9, 5, 2]	16	FR1	0	R1349T
3042.221	3.835	3042939	PROB	3.835	n/a	n/a	-999	20	[7, 4, 9]	20	FR1	0	R1349T
3046.056	3.116	3046774	PROB	3.116	n/a	n/a	-999	20	[1, 5, 7]	13	FR1	0	R1349T
3049.172	2.927	3049890	PROB	2.927	n/a	n/a	-999	20	[6, 2, 5]	13	FR1	0	R1349T
3052.099	0.008	3052817	STOP	n/a	n/a	n/a	-999	20	[-999, -999, -999]	n/a	FR1	0	R1349T
3052.107	0.572	3052825	DISTRACT_END	n/a	n/a	n/a	-999	20	[0, 0, 0]	n/a	FR1	0	R1349T
3052.679	1.628	3053397	RETRIEVAL_ORIENT_START	n/a	n/a	n/a	-999	20	[0, 0, 0]	n/a	FR1	0	R1349T
3054.307	0.0	3055025	REC_START	n/a	n/a	n/a	-999	20	[0, 0, 0]	n/a	FR1	0	R1349T
3054.307	1.373	3055025	RETRIEVAL_ORIENT_END	n/a	n/a	n/a	-999	20	[0, 0, 0]	n/a	FR1	0	R1349T
3055.68	1.282	3056398	REC_WORD	1.282	n/a	BROOM	2	20	[0, 0, 0]	n/a	FR1	0	R1349T
3056.962	7.158	3057680	REC_WORD	7.158	n/a	BRUSH	8	20	[0, 0, 0]	n/a	FR1	0	R1349T
3064.12	15.462	3064837	REC_WORD	15.462	n/a	BOY	-999	20	[0, 0, 0]	n/a	FR1	0	R1349T
3079.582	4.738	3080299	REC_WORD	4.738	n/a	OWL	-999	20	[0, 0, 0]	n/a	FR1	0	R1349T
3084.32	0.0	3085036	REC_END	n/a	n/a	n/a	-999	20	[0, 0, 0]	n/a	FR1	0	R1349T
3084.32	0.014	3085036	TRIAL_END	n/a	n/a	n/a	-999	20	[0, 0, 0]	n/a	FR1	0	R1349T
3084.334	0.0	3085050	TRIAL	n/a	n/a	n/a	-999	21	[0, 0, 0]	n/a	FR1	0	R1349T
3084.334	0.0	3085050	TRIAL_START	n/a	n/a	n/a	-999	21	[0, 0, 0]	n/a	FR1	0	R1349T
3084.334	19.849	3085050	WAITING_START	n/a	n/a	n/a	-999	21	[0, 0, 0]	n/a	FR1	0	R1349T
3104.183	0.0	3104899	COUNTDOWN_START	n/a	n/a	n/a	-999	21	[0, 0, 0]	n/a	FR1	0	R1349T
3104.183	10.429	3104899	WAITING_END	n/a	n/a	n/a	-999	21	[0, 0, 0]	n/a	FR1	0	R1349T
3114.612	0.0	3115327	COUNTDOWN_END	n/a	n/a	n/a	-999	21	[0, 0, 0]	n/a	FR1	0	R1349T
3114.612	1.124	3115327	ORIENT_START	n/a	n/a	n/a	-999	21	[0, 0, 0]	n/a	FR1	0	R1349T
3115.736	0.0	3116451	ORIENT_END	n/a	n/a	n/a	-999	21	[0, 0, 0]	n/a	FR1	0	R1349T
3115.736	1.063	3116451	ENCODING_START	n/a	n/a	n/a	-999	21	[0, 0, 0]	n/a	FR1	0	R1349T
3116.799	1.637	3117514	WORD	n/a	wordpools/wordpool_EN.txt	TOOTH	1	21	[0, 0, 0]	n/a	FR1	0	R1349T
3118.436	0.986	3119151	WORD_OFF	n/a	n/a	TOOTH	1	21	[0, 0, 0]	n/a	FR1	0	R1349T
3119.422	1.631	3120137	WORD	n/a	wordpools/wordpool_EN.txt	BREAD	2	21	[0, 0, 0]	n/a	FR1	0	R1349T
3121.053	1.059	3121768	WORD_OFF	n/a	n/a	BREAD	2	21	[0, 0, 0]	n/a	FR1	0	R1349T
3122.112	1.608	3122827	WORD	n/a	wordpools/wordpool_EN.txt	CROWN	3	21	[0, 0, 0]	n/a	FR1	0	R1349T
3123.72	0.813	3124435	WORD_OFF	n/a	n/a	CROWN	3	21	[0, 0, 0]	n/a	FR1	0	R1349T
3124.533	1.637	3125248	WORD	n/a	wordpools/wordpool_EN.txt	BOARD	4	21	[0, 0, 0]	n/a	FR1	0	R1349T
3126.17	1.004	3126885	WORD_OFF	n/a	n/a	BOARD	4	21	[0, 0, 0]	n/a	FR1	0	R1349T
3127.174	1.631	3127889	WORD	n/a	wordpools/wordpool_EN.txt	TOY	5	21	[0, 0, 0]	n/a	FR1	0	R1349T
3128.805	1.043	3129519	WORD_OFF	n/a	n/a	TOY	5	21	[0, 0, 0]	n/a	FR1	0	R1349T
3129.848	1.624	3130562	WORD	n/a	wordpools/wordpool_EN.txt	STONE	6	21	[0, 0, 0]	n/a	FR1	0	R1349T
3131.472	1.143	3132186	WORD_OFF	n/a	n/a	STONE	6	21	[0, 0, 0]	n/a	FR1	0	R1349T
3132.615	1.623	3133329	WORD	n/a	wordpools/wordpool_EN.txt	HEN	7	21	[0, 0, 0]	n/a	FR1	0	R1349T
3134.238	0.958	3134952	WORD_OFF	n/a	n/a	HEN	7	21	[0, 0, 0]	n/a	FR1	0	R1349T
3135.196	1.61	3135910	WORD	n/a	wordpools/wordpool_EN.txt	BALL	8	21	[0, 0, 0]	n/a	FR1	0	R1349T
3136.806	0.835	3137520	WORD_OFF	n/a	n/a	BALL	8	21	[0, 0, 0]	n/a	FR1	0	R1349T
3137.641	1.631	3138355	WORD	n/a	wordpools/wordpool_EN.txt	GATE	9	21	[0, 0, 0]	n/a	FR1	0	R1349T
3139.272	1.102	3139986	WORD_OFF	n/a	n/a	GATE	9	21	[0, 0, 0]	n/a	FR1	0	R1349T
3140.374	1.633	3141088	WORD	n/a	wordpools/wordpool_EN.txt	PLANE	10	21	[0, 0, 0]	n/a	FR1	0	R1349T
3142.007	0.806	3142721	WORD_OFF	n/a	n/a	PLANE	10	21	[0, 0, 0]	n/a	FR1	0	R1349T
3142.813	1.628	3143527	WORD	n/a	wordpools/wordpool_EN.txt	VAN	11	21	[0, 0, 0]	n/a	FR1	0	R1349T
3144.441	0.801	3145155	WORD_OFF	n/a	n/a	VAN	11	21	[0, 0, 0]	n/a	FR1	0	R1349T
3145.242	1.616	3145956	WORD	n/a	wordpools/wordpool_EN.txt	MOOSE	12	21	[0, 0, 0]	n/a	FR1	0	R1349T
3146.858	0.0	3147572	WORD_OFF	n/a	n/a	MOOSE	12	21	[0, 0, 0]	n/a	FR1	0	R1349T
3146.858	0.0	3147572	ENCODING_END	n/a	n/a	n/a	-999	21	[0, 0, 0]	n/a	FR1	0	R1349T
3146.858	0.0	3147572	DISTRACT_START	n/a	n/a	n/a	-999	21	[0, 0, 0]	n/a	FR1	0	R1349T
3146.858	0.016	3147572	START	n/a	n/a	n/a	-999	21	[-999, -999, -999]	n/a	FR1	0	R1349T
3146.874	4.201	3147588	PROB	4.201	n/a	n/a	-999	21	[3, 4, 6]	13	FR1	0	R1349T
3151.075	2.834	3151789	PROB	2.834	n/a	n/a	-999	21	[3, 1, 7]	11	FR1	0	R1349T
3153.909	2.85	3154622	PROB	2.85	n/a	n/a	-999	21	[6, 8, 7]	21	FR1	0	R1349T
3156.759	2.366	3157472	PROB	2.366	n/a	n/a	-999	21	[5, 5, 3]	13	FR1	0	R1349T
3159.125	4.251	3159838	PROB	4.251	n/a	n/a	-999	21	[7, 2, 5]	14	FR1	0	R1349T
3163.376	2.585	3164089	PROB	2.585	n/a	n/a	-999	21	[7, 4, 5]	16	FR1	0	R1349T
3165.961	3.805	3166674	PROB	3.805	n/a	n/a	-999	21	[7, 7, 5]	19	FR1	0	R1349T
3169.766	0.013	3170479	STOP	n/a	n/a	n/a	-999	21	[-999, -999, -999]	n/a	FR1	0	R1349T
3169.779	0.542	3170492	DISTRACT_END	n/a	n/a	n/a	-999	21	[0, 0, 0]	n/a	FR1	0	R1349T
3170.321	1.641	3171034	RETRIEVAL_ORIENT_START	n/a	n/a	n/a	-999	21	[0, 0, 0]	n/a	FR1	0	R1349T
3171.962	0.001	3172675	RETRIEVAL_ORIENT_END	n/a	n/a	n/a	-999	21	[0, 0, 0]	n/a	FR1	0	R1349T
3171.963	3.18	3172676	REC_START	n/a	n/a	n/a	-999	21	[0, 0, 0]	n/a	FR1	0	R1349T
3175.143	1.256	3175856	REC_WORD	1.256	n/a	TOOTH	1	21	[0, 0, 0]	n/a	FR1	0	R1349T
3176.399	12.924	3177111	REC_WORD	12.924	n/a	HEN	7	21	[0, 0, 0]	n/a	FR1	0	R1349T
3189.323	5.401	3190035	REC_WORD	5.401	n/a	BRUSH	-999	21	[0, 0, 0]	n/a	FR1	0	R1349T
3194.724	5.346	3195436	REC_WORD	5.346	n/a	PLANE	10	21	[0, 0, 0]	n/a	FR1	0	R1349T
3200.07	1.905	3200781	REC_WORD	1.905	n/a	RING	-999	21	[0, 0, 0]	n/a	FR1	0	R1349T
3201.975	0.001	3202686	REC_END	n/a	n/a	n/a	-999	21	[0, 0, 0]	n/a	FR1	0	R1349T
3201.976	0.014	3202687	TRIAL_END	n/a	n/a	n/a	-999	21	[0, 0, 0]	n/a	FR1	0	R1349T
3201.99	0.0	3202701	TRIAL_START	n/a	n/a	n/a	-999	22	[0, 0, 0]	n/a	FR1	0	R1349T
3201.99	0.0	3202701	TRIAL	n/a	n/a	n/a	-999	22	[0, 0, 0]	n/a	FR1	0	R1349T
3201.99	17.481	3202701	WAITING_START	n/a	n/a	n/a	-999	22	[0, 0, 0]	n/a	FR1	0	R1349T
3219.471	0.001	3220182	WAITING_END	n/a	n/a	n/a	-999	22	[0, 0, 0]	n/a	FR1	0	R1349T
3219.472	10.428	3220183	COUNTDOWN_START	n/a	n/a	n/a	-999	22	[0, 0, 0]	n/a	FR1	0	R1349T
3229.9	0.001	3230610	COUNTDOWN_END	n/a	n/a	n/a	-999	22	[0, 0, 0]	n/a	FR1	0	R1349T
3229.901	1.172	3230611	ORIENT_START	n/a	n/a	n/a	-999	22	[0, 0, 0]	n/a	FR1	0	R1349T
3231.073	0.001	3231783	ORIENT_END	n/a	n/a	n/a	-999	22	[0, 0, 0]	n/a	FR1	0	R1349T
3231.074	1.143	3231784	ENCODING_START	n/a	n/a	n/a	-999	22	[0, 0, 0]	n/a	FR1	0	R1349T
3232.217	1.623	3232927	WORD	n/a	wordpools/wordpool_EN.txt	BADGE	1	22	[0, 0, 0]	n/a	FR1	0	R1349T
3233.84	1.001	3234550	WORD_OFF	n/a	n/a	BADGE	1	22	[0, 0, 0]	n/a	FR1	0	R1349T
3234.841	1.633	3235551	WORD	n/a	wordpools/wordpool_EN.txt	BANK	2	22	[0, 0, 0]	n/a	FR1	0	R1349T
3236.474	0.83	3237184	WORD_OFF	n/a	n/a	BANK	2	22	[0, 0, 0]	n/a	FR1	0	R1349T
3237.304	1.62	3238014	WORD	n/a	wordpools/wordpool_EN.txt	SHRIMP	3	22	[0, 0, 0]	n/a	FR1	0	R1349T
3238.924	0.768	3239634	WORD_OFF	n/a	n/a	SHRIMP	3	22	[0, 0, 0]	n/a	FR1	0	R1349T
3239.692	1.632	3240402	WORD	n/a	wordpools/wordpool_EN.txt	GOAT	4	22	[0, 0, 0]	n/a	FR1	0	R1349T
3241.324	0.752	3242034	WORD_OFF	n/a	n/a	GOAT	4	22	[0, 0, 0]	n/a	FR1	0	R1349T
3242.076	1.633	3242786	WORD	n/a	wordpools/wordpool_EN.txt	BATH	5	22	[0, 0, 0]	n/a	FR1	0	R1349T
3243.709	0.807	3244419	WORD_OFF	n/a	n/a	BATH	5	22	[0, 0, 0]	n/a	FR1	0	R1349T
3244.516	1.625	3245226	WORD	n/a	wordpools/wordpool_EN.txt	CAPE	6	22	[0, 0, 0]	n/a	FR1	0	R1349T
3246.141	1.023	3246850	WORD_OFF	n/a	n/a	CAPE	6	22	[0, 0, 0]	n/a	FR1	0	R1349T
3247.164	1.612	3247873	WORD	n/a	wordpools/wordpool_EN.txt	FLEA	7	22	[0, 0, 0]	n/a	FR1	0	R1349T
3248.776	0.814	3249485	WORD_OFF	n/a	n/a	FLEA	7	22	[0, 0, 0]	n/a	FR1	0	R1349T
