onset	duration	sample	trial_type	response_time	stim_file	item_name	serialpos	list	test	answer	experiment	session	subject
0.0	4.306	36016	INSTRUCT_START	n/a	n/a	n/a	-999	-999	[0, 0, 0]	n/a	FR1	1	R1436J
4.306	24.076	40315	INSTRUCT_END	n/a	n/a	n/a	-999	-999	[0, 0, 0]	n/a	FR1	1	R1436J
28.382	10.412	64392	COUNTDOWN_START	n/a	n/a	n/a	-999	-999	[0, 0, 0]	n/a	FR1	1	R1436J
38.794	0.0	74808	COUNTDOWN_END	n/a	n/a	n/a	-999	-999	[0, 0, 0]	n/a	FR1	1	R1436J
38.794	2.372	74808	ENCODING_START	n/a	n/a	n/a	-999	-1	[0, 0, 0]	n/a	FR1	1	R1436J
41.166	1.616	77175	WORD	n/a	n/a	LAMP	1	-1	[0, 0, 0]	n/a	FR1	1	R1436J
42.782	0.85	78794	WORD_OFF	n/a	n/a	LAMP	1	-1	[0, 0, 0]	n/a	FR1	1	R1436J
43.632	1.616	79647	WORD	n/a	n/a	GATE	2	-1	[0, 0, 0]	n/a	FR1	1	R1436J
45.248	1.001	81256	WORD_OFF	n/a	n/a	GATE	2	-1	[0, 0, 0]	n/a	FR1	1	R1436J
46.249	1.616	82257	WORD	n/a	n/a	RAFT	3	-1	[0, 0, 0]	n/a	FR1	1	R1436J
47.865	0.984	83876	WORD_OFF	n/a	n/a	RAFT	3	-1	[0, 0, 0]	n/a	FR1	1	R1436J
48.849	1.601	84859	WORD	n/a	n/a	HORN	4	-1	[0, 0, 0]	n/a	FR1	1	R1436J
50.45	0.966	86460	WORD_OFF	n/a	n/a	HORN	4	-1	[0, 0, 0]	n/a	FR1	1	R1436J
51.416	1.6	87426	WORD	n/a	n/a	LOCK	5	-1	[0, 0, 0]	n/a	FR1	1	R1436J
53.016	0.883	89027	WORD_OFF	n/a	n/a	LOCK	5	-1	[0, 0, 0]	n/a	FR1	1	R1436J
53.899	1.617	89906	WORD	n/a	n/a	PAIL	6	-1	[0, 0, 0]	n/a	FR1	1	R1436J
55.516	0.95	91525	WORD_OFF	n/a	n/a	PAIL	6	-1	[0, 0, 0]	n/a	FR1	1	R1436J
56.466	1.6	92473	WORD	n/a	n/a	APE	7	-1	[0, 0, 0]	n/a	FR1	1	R1436J
58.066	0.933	94074	WORD_OFF	n/a	n/a	APE	7	-1	[0, 0, 0]	n/a	FR1	1	R1436J
58.999	1.616	95014	WORD	n/a	n/a	CANE	8	-1	[0, 0, 0]	n/a	FR1	1	R1436J
60.615	0.85	96624	WORD_OFF	n/a	n/a	CANE	8	-1	[0, 0, 0]	n/a	FR1	1	R1436J
61.465	1.6	97477	WORD	n/a	n/a	GLASS	9	-1	[0, 0, 0]	n/a	FR1	1	R1436J
63.065	0.851	99078	WORD_OFF	n/a	n/a	GLASS	9	-1	[0, 0, 0]	n/a	FR1	1	R1436J
63.916	1.616	99930	WORD	n/a	n/a	FENCE	10	-1	[0, 0, 0]	n/a	FR1	1	R1436J
65.532	0.767	101540	WORD_OFF	n/a	n/a	FENCE	10	-1	[0, 0, 0]	n/a	FR1	1	R1436J
66.299	1.617	102306	WORD	n/a	n/a	NET	11	-1	[0, 0, 0]	n/a	FR1	1	R1436J
67.916	0.867	103925	WORD_OFF	n/a	n/a	NET	11	-1	[0, 0, 0]	n/a	FR1	1	R1436J
68.783	1.617	104795	WORD	n/a	n/a	SWAMP	12	-1	[0, 0, 0]	n/a	FR1	1	R1436J
70.4	0.0	106408	START	n/a	n/a	n/a	-999	-1	[-999, -999, -999]	n/a	FR1	1	R1436J
70.4	0.0	106408	PROB	0.0	n/a	n/a	-999	-1	[8, 3, 3]	14	FR1	1	R1436J
70.399	0.001	106413	WORD_OFF	n/a	n/a	SWAMP	12	-1	[0, 0, 0]	n/a	FR1	1	R1436J
70.4	0.0	106413	ENCODING_END	n/a	n/a	n/a	-999	-1	[0, 0, 0]	n/a	FR1	1	R1436J
70.4	3.649	106413	DISTRACT_START	n/a	n/a	n/a	-999	-1	[0, 0, 0]	n/a	FR1	1	R1436J
74.049	3.333	110057	PROB	3.333	n/a	n/a	-999	-1	[1, 7, 4]	12	FR1	1	R1436J
77.382	3.317	113390	PROB	3.317	n/a	n/a	-999	-1	[7, 8, 1]	16	FR1	1	R1436J
80.699	3.75	116707	PROB	3.75	n/a	n/a	-999	-1	[6, 7, 7]	20	FR1	1	R1436J
84.449	3.467	120456	PROB	3.467	n/a	n/a	-999	-1	[3, 4, 1]	8	FR1	1	R1436J
87.916	3.833	123923	PROB	3.833	n/a	n/a	-999	-1	[3, 6, 8]	17	FR1	1	R1436J
91.749	0.0	127756	STOP	n/a	n/a	n/a	-999	-1	[-999, -999, -999]	n/a	FR1	1	R1436J
91.749	2.133	127759	DISTRACT_END	n/a	n/a	n/a	-999	-1	[0, 0, 0]	n/a	FR1	1	R1436J
93.882	1.215	129890	REC_START	n/a	n/a	n/a	-999	-1	[0, 0, 0]	n/a	FR1	1	R1436J
95.097	1.328	131104	REC_WORD	1.328	n/a	LAMP	1	-1	[0, 0, 0]	n/a	FR1	1	R1436J
96.425	1.43	132432	REC_WORD	1.43	n/a	APE	7	-1	[0, 0, 0]	n/a	FR1	1	R1436J
97.855	1.435	133862	REC_WORD	1.435	n/a	GATE	2	-1	[0, 0, 0]	n/a	FR1	1	R1436J
99.29	3.663	135297	REC_WORD	3.663	n/a	RAIL	-999	-1	[0, 0, 0]	n/a	FR1	1	R1436J
102.953	5.664	138960	REC_WORD	5.664	n/a	GLASS	9	-1	[0, 0, 0]	n/a	FR1	1	R1436J
108.617	2.68	144624	REC_WORD_VV	2.68	n/a	<>	-999	-1	[0, 0, 0]	n/a	FR1	1	R1436J
111.297	0.485	147303	REC_WORD_VV	0.485	n/a	<>	-999	-1	[0, 0, 0]	n/a	FR1	1	R1436J
111.782	1.408	147788	REC_WORD	1.408	n/a	FENCE	10	-1	[0, 0, 0]	n/a	FR1	1	R1436J
113.19	1.29	149196	REC_WORD_VV	1.29	n/a	<>	-999	-1	[0, 0, 0]	n/a	FR1	1	R1436J
114.48	1.0	150486	REC_WORD_VV	1.0	n/a	<>	-999	-1	[0, 0, 0]	n/a	FR1	1	R1436J
115.48	1.0	151486	REC_WORD_VV	1.0	n/a	<>	-999	-1	[0, 0, 0]	n/a	FR1	1	R1436J
116.48	7.628	152486	REC_WORD_VV	7.628	n/a	<>	-999	-1	[0, 0, 0]	n/a	FR1	1	R1436J
124.108	15.758	160112	REC_END	n/a	n/a	n/a	-999	-1	[0, 0, 0]	n/a	FR1	1	R1436J
139.866	10.364	175879	COUNTDOWN_START	n/a	n/a	n/a	-999	1	[0, 0, 0]	n/a	FR1	1	R1436J
150.23	0.0	186234	COUNTDOWN_END	n/a	n/a	n/a	-999	1	[0, 0, 0]	n/a	FR1	1	R1436J
150.23	2.135	186234	ENCODING_START	n/a	n/a	n/a	-999	1	[0, 0, 0]	n/a	FR1	1	R1436J
152.365	1.601	188375	WORD	n/a	wordpools/wordpool_long_EN.txt	VAULT	1	1	[0, 0, 0]	n/a	FR1	1	R1436J
153.966	0.9	189976	WORD_OFF	n/a	n/a	VAULT	1	1	[0, 0, 0]	n/a	FR1	1	R1436J
154.866	1.616	190872	WORD	n/a	wordpools/wordpool_long_EN.txt	BOY	2	1	[0, 0, 0]	n/a	FR1	1	R1436J
156.482	0.85	192491	WORD_OFF	n/a	n/a	BOY	2	1	[0, 0, 0]	n/a	FR1	1	R1436J
157.332	1.601	193335	WORD	n/a	wordpools/wordpool_long_EN.txt	SHARK	3	1	[0, 0, 0]	n/a	FR1	1	R1436J
158.933	0.882	194936	WORD_OFF	n/a	n/a	SHARK	3	1	[0, 0, 0]	n/a	FR1	1	R1436J
159.815	1.601	195824	WORD	n/a	wordpools/wordpool_long_EN.txt	SCOTCH	4	1	[0, 0, 0]	n/a	FR1	1	R1436J
161.416	0.8	197425	WORD_OFF	n/a	n/a	SCOTCH	4	1	[0, 0, 0]	n/a	FR1	1	R1436J
162.216	1.6	198225	WORD	n/a	wordpools/wordpool_long_EN.txt	STRAW	5	1	[0, 0, 0]	n/a	FR1	1	R1436J
163.816	0.817	199818	WORD_OFF	n/a	n/a	STRAW	5	1	[0, 0, 0]	n/a	FR1	1	R1436J
164.633	1.6	200636	WORD	n/a	wordpools/wordpool_long_EN.txt	HOUSE	6	1	[0, 0, 0]	n/a	FR1	1	R1436J
166.233	0.85	202237	WORD_OFF	n/a	n/a	HOUSE	6	1	[0, 0, 0]	n/a	FR1	1	R1436J
167.083	1.617	203090	WORD	n/a	wordpools/wordpool_long_EN.txt	SMOG	7	1	[0, 0, 0]	n/a	FR1	1	R1436J
168.7	0.899	204708	WORD_OFF	n/a	n/a	SMOG	7	1	[0, 0, 0]	n/a	FR1	1	R1436J
169.599	1.6	205604	WORD	n/a	wordpools/wordpool_long_EN.txt	PASTE	8	1	[0, 0, 0]	n/a	FR1	1	R1436J
171.199	0.884	207206	WORD_OFF	n/a	n/a	PASTE	8	1	[0, 0, 0]	n/a	FR1	1	R1436J
172.083	1.6	208084	WORD	n/a	wordpools/wordpool_long_EN.txt	SLIDE	9	1	[0, 0, 0]	n/a	FR1	1	R1436J
173.683	0.95	209686	WORD_OFF	n/a	n/a	SLIDE	9	1	[0, 0, 0]	n/a	FR1	1	R1436J
174.633	1.616	210634	WORD	n/a	wordpools/wordpool_long_EN.txt	WRIST	10	1	[0, 0, 0]	n/a	FR1	1	R1436J
176.249	0.9	212253	WORD_OFF	n/a	n/a	WRIST	10	1	[0, 0, 0]	n/a	FR1	1	R1436J
177.149	1.6	213158	WORD	n/a	wordpools/wordpool_long_EN.txt	PALM	11	1	[0, 0, 0]	n/a	FR1	1	R1436J
178.749	0.916	214750	WORD_OFF	n/a	n/a	PALM	11	1	[0, 0, 0]	n/a	FR1	1	R1436J
179.665	1.618	215672	WORD	n/a	wordpools/wordpool_long_EN.txt	PERCH	12	1	[0, 0, 0]	n/a	FR1	1	R1436J
181.283	0.001	217286	PROB	0.001	n/a	n/a	-999	1	[5, 5, 8]	18	FR1	1	R1436J
181.284	0.0	217287	START	n/a	n/a	n/a	-999	1	[-999, -999, -999]	n/a	FR1	1	R1436J
181.283	0.001	217291	WORD_OFF	n/a	n/a	PERCH	12	1	[0, 0, 0]	n/a	FR1	1	R1436J
181.284	0.0	217291	ENCODING_END	n/a	n/a	n/a	-999	1	[0, 0, 0]	n/a	FR1	1	R1436J
181.284	3.798	217291	DISTRACT_START	n/a	n/a	n/a	-999	1	[0, 0, 0]	n/a	FR1	1	R1436J
185.082	4.2	221085	PROB	4.2	n/a	n/a	-999	1	[2, 5, 7]	14	FR1	1	R1436J
189.282	4.101	225285	PROB	4.101	n/a	n/a	-999	1	[7, 8, 2]	17	FR1	1	R1436J
193.383	3.501	229386	PROB	3.501	n/a	n/a	-999	1	[2, 7, 2]	11	FR1	1	R1436J
196.884	4.849	232887	PROB	4.849	n/a	n/a	-999	1	[1, 5, 8]	14	FR1	1	R1436J
201.733	0.0	237736	STOP	n/a	n/a	n/a	-999	1	[-999, -999, -999]	n/a	FR1	1	R1436J
201.733	2.383	237740	DISTRACT_END	n/a	n/a	n/a	-999	1	[0, 0, 0]	n/a	FR1	1	R1436J
204.116	1.105	240124	REC_START	n/a	n/a	n/a	-999	1	[0, 0, 0]	n/a	FR1	1	R1436J
205.221	2.165	241223	REC_WORD	2.165	n/a	PERCH	12	1	[0, 0, 0]	n/a	FR1	1	R1436J
207.386	2.4	243388	REC_WORD	2.4	n/a	SCOTCH	4	1	[0, 0, 0]	n/a	FR1	1	R1436J
209.786	3.692	245788	REC_WORD	3.692	n/a	RAIL	-999	1	[0, 0, 0]	n/a	FR1	1	R1436J
213.478	1.68	249480	REC_WORD_VV	1.68	n/a	<>	-999	1	[0, 0, 0]	n/a	FR1	1	R1436J
215.158	2.722	251160	REC_WORD	2.722	n/a	FOG	-999	1	[0, 0, 0]	n/a	FR1	1	R1436J
217.88	2.866	253882	REC_WORD_VV	2.866	n/a	<>	-999	1	[0, 0, 0]	n/a	FR1	1	R1436J
220.746	0.969	256748	REC_WORD_VV	0.969	n/a	<>	-999	1	[0, 0, 0]	n/a	FR1	1	R1436J
221.715	1.458	257717	REC_WORD	1.458	n/a	PAIL	-999	1	[0, 0, 0]	n/a	FR1	1	R1436J
223.173	2.27	259175	REC_WORD_VV	2.27	n/a	<>	-999	1	[0, 0, 0]	n/a	FR1	1	R1436J
225.443	2.917	261445	REC_WORD_VV	2.917	n/a	<>	-999	1	[0, 0, 0]	n/a	FR1	1	R1436J
228.36	6.003	264362	REC_WORD_VV	6.003	n/a	<>	-999	1	[0, 0, 0]	n/a	FR1	1	R1436J
234.363	2.552	270363	REC_END	n/a	n/a	n/a	-999	1	[0, 0, 0]	n/a	FR1	1	R1436J
236.915	10.365	272921	COUNTDOWN_START	n/a	n/a	n/a	-999	2	[0, 0, 0]	n/a	FR1	1	R1436J
247.28	0.0	283285	COUNTDOWN_END	n/a	n/a	n/a	-999	2	[0, 0, 0]	n/a	FR1	1	R1436J
247.28	2.136	283285	ENCODING_START	n/a	n/a	n/a	-999	2	[0, 0, 0]	n/a	FR1	1	R1436J
249.416	1.616	285417	WORD	n/a	wordpools/wordpool_long_EN.txt	MOOSE	1	2	[0, 0, 0]	n/a	FR1	1	R1436J
251.032	0.983	287035	WORD_OFF	n/a	n/a	MOOSE	1	2	[0, 0, 0]	n/a	FR1	1	R1436J
252.015	1.601	288019	WORD	n/a	wordpools/wordpool_long_EN.txt	BEAK	2	2	[0, 0, 0]	n/a	FR1	1	R1436J
253.616	0.833	289620	WORD_OFF	n/a	n/a	BEAK	2	2	[0, 0, 0]	n/a	FR1	1	R1436J
254.449	1.6	290455	WORD	n/a	wordpools/wordpool_long_EN.txt	SLIME	3	2	[0, 0, 0]	n/a	FR1	1	R1436J
256.049	0.9	292048	WORD_OFF	n/a	n/a	SLIME	3	2	[0, 0, 0]	n/a	FR1	1	R1436J
256.949	1.6	292953	WORD	n/a	wordpools/wordpool_long_EN.txt	MUG	4	2	[0, 0, 0]	n/a	FR1	1	R1436J
258.549	0.849	294554	WORD_OFF	n/a	n/a	MUG	4	2	[0, 0, 0]	n/a	FR1	1	R1436J
259.398	1.601	295398	WORD	n/a	wordpools/wordpool_long_EN.txt	BAR	5	2	[0, 0, 0]	n/a	FR1	1	R1436J
260.999	0.933	296999	WORD_OFF	n/a	n/a	BAR	5	2	[0, 0, 0]	n/a	FR1	1	R1436J
261.932	1.601	297930	WORD	n/a	wordpools/wordpool_long_EN.txt	COIN	6	2	[0, 0, 0]	n/a	FR1	1	R1436J
263.533	0.816	299531	WORD_OFF	n/a	n/a	COIN	6	2	[0, 0, 0]	n/a	FR1	1	R1436J
264.349	1.617	300349	WORD	n/a	wordpools/wordpool_long_EN.txt	JUDGE	7	2	[0, 0, 0]	n/a	FR1	1	R1436J
265.966	0.833	301968	WORD_OFF	n/a	n/a	JUDGE	7	2	[0, 0, 0]	n/a	FR1	1	R1436J
266.799	1.616	302803	WORD	n/a	wordpools/wordpool_long_EN.txt	TOOTH	8	2	[0, 0, 0]	n/a	FR1	1	R1436J
268.415	0.818	304422	WORD_OFF	n/a	n/a	TOOTH	8	2	[0, 0, 0]	n/a	FR1	1	R1436J
269.233	1.615	305231	WORD	n/a	wordpools/wordpool_long_EN.txt	ARCH	9	2	[0, 0, 0]	n/a	FR1	1	R1436J
270.848	0.967	306849	WORD_OFF	n/a	n/a	ARCH	9	2	[0, 0, 0]	n/a	FR1	1	R1436J
271.815	1.601	307815	WORD	n/a	wordpools/wordpool_long_EN.txt	ROCK	10	2	[0, 0, 0]	n/a	FR1	1	R1436J
273.416	0.982	309416	WORD_OFF	n/a	n/a	ROCK	10	2	[0, 0, 0]	n/a	FR1	1	R1436J
274.398	1.602	310400	WORD	n/a	wordpools/wordpool_long_EN.txt	ARK	11	2	[0, 0, 0]	n/a	FR1	1	R1436J
276.0	0.982	312001	WORD_OFF	n/a	n/a	ARK	11	2	[0, 0, 0]	n/a	FR1	1	R1436J
276.982	1.617	312984	WORD	n/a	wordpools/wordpool_long_EN.txt	SPARK	12	2	[0, 0, 0]	n/a	FR1	1	R1436J
278.599	0.0	314598	START	n/a	n/a	n/a	-999	2	[-999, -999, -999]	n/a	FR1	1	R1436J
278.599	0.0	314598	PROB	0.0	n/a	n/a	-999	2	[6, 2, 7]	15	FR1	1	R1436J
278.598	0.001	314603	WORD_OFF	n/a	n/a	SPARK	12	2	[0, 0, 0]	n/a	FR1	1	R1436J
278.599	0.0	314603	ENCODING_END	n/a	n/a	n/a	-999	2	[0, 0, 0]	n/a	FR1	1	R1436J
278.599	4.001	314603	DISTRACT_START	n/a	n/a	n/a	-999	2	[0, 0, 0]	n/a	FR1	1	R1436J
282.6	3.65	318599	PROB	3.65	n/a	n/a	-999	2	[6, 2, 7]	15	FR1	1	R1436J
286.25	3.682	322249	PROB	3.682	n/a	n/a	-999	2	[3, 8, 7]	18	FR1	1	R1436J
289.932	3.535	325931	PROB	3.535	n/a	n/a	-999	2	[6, 5, 3]	14	FR1	1	R1436J
293.467	5.632	329466	PROB	5.632	n/a	n/a	-999	2	[3, 8, 5]	16	FR1	1	R1436J
299.099	0.0	335095	DISTRACT_END	n/a	n/a	n/a	-999	2	[0, 0, 0]	n/a	FR1	1	R1436J
299.099	2.233	335098	STOP	n/a	n/a	n/a	-999	2	[-999, -999, -999]	n/a	FR1	1	R1436J
301.332	1.659	337331	REC_START	n/a	n/a	n/a	-999	2	[0, 0, 0]	n/a	FR1	1	R1436J
302.991	2.165	338989	REC_WORD_VV	2.165	n/a	<>	-999	2	[0, 0, 0]	n/a	FR1	1	R1436J
305.156	1.298	341154	REC_WORD	1.298	n/a	COIN	6	2	[0, 0, 0]	n/a	FR1	1	R1436J
306.454	1.588	342452	REC_WORD_VV	1.588	n/a	<>	-999	2	[0, 0, 0]	n/a	FR1	1	R1436J
308.042	2.68	344040	REC_WORD	2.68	n/a	MOOSE	1	2	[0, 0, 0]	n/a	FR1	1	R1436J
310.722	3.128	346720	REC_WORD_VV	3.128	n/a	<>	-999	2	[0, 0, 0]	n/a	FR1	1	R1436J
313.85	8.195	349848	REC_WORD_VV	8.195	n/a	<>	-999	2	[0, 0, 0]	n/a	FR1	1	R1436J
322.045	3.462	358043	REC_WORD	3.462	n/a	HILL	-999	2	[0, 0, 0]	n/a	FR1	1	R1436J
325.507	3.341	361504	REC_WORD_VV	3.341	n/a	<>	-999	2	[0, 0, 0]	n/a	FR1	1	R1436J
328.848	2.713	364845	REC_WORD_VV	2.713	n/a	<>	-999	2	[0, 0, 0]	n/a	FR1	1	R1436J
331.561	3.155	367561	REC_END	n/a	n/a	n/a	-999	2	[0, 0, 0]	n/a	FR1	1	R1436J
334.716	10.364	370720	COUNTDOWN_START	n/a	n/a	n/a	-999	3	[0, 0, 0]	n/a	FR1	1	R1436J
345.08	0.0	381075	COUNTDOWN_END	n/a	n/a	n/a	-999	3	[0, 0, 0]	n/a	FR1	1	R1436J
345.08	2.119	381084	ENCODING_START	n/a	n/a	n/a	-999	3	[0, 0, 0]	n/a	FR1	1	R1436J
347.199	1.617	383198	WORD	n/a	wordpools/wordpool_long_EN.txt	WASP	1	3	[0, 0, 0]	n/a	FR1	1	R1436J
348.816	0.934	384817	WORD_OFF	n/a	n/a	WASP	1	3	[0, 0, 0]	n/a	FR1	1	R1436J
349.75	1.616	385748	WORD	n/a	wordpools/wordpool_long_EN.txt	SKUNK	2	3	[0, 0, 0]	n/a	FR1	1	R1436J
351.366	0.983	387367	WORD_OFF	n/a	n/a	SKUNK	2	3	[0, 0, 0]	n/a	FR1	1	R1436J
352.349	1.617	388350	WORD	n/a	wordpools/wordpool_long_EN.txt	THUMB	3	3	[0, 0, 0]	n/a	FR1	1	R1436J
353.966	0.767	389968	WORD_OFF	n/a	n/a	THUMB	3	3	[0, 0, 0]	n/a	FR1	1	R1436J
354.733	1.616	390734	WORD	n/a	wordpools/wordpool_long_EN.txt	CHIEF	4	3	[0, 0, 0]	n/a	FR1	1	R1436J
356.349	0.883	392344	WORD_OFF	n/a	n/a	CHIEF	4	3	[0, 0, 0]	n/a	FR1	1	R1436J
357.232	1.6	393232	WORD	n/a	wordpools/wordpool_long_EN.txt	SPOOL	5	3	[0, 0, 0]	n/a	FR1	1	R1436J
358.832	1.0	394833	WORD_OFF	n/a	n/a	SPOOL	5	3	[0, 0, 0]	n/a	FR1	1	R1436J
359.832	1.617	395833	WORD	n/a	wordpools/wordpool_long_EN.txt	SINK	6	3	[0, 0, 0]	n/a	FR1	1	R1436J
361.449	0.8	397443	WORD_OFF	n/a	n/a	SINK	6	3	[0, 0, 0]	n/a	FR1	1	R1436J
362.249	1.616	398244	WORD	n/a	wordpools/wordpool_long_EN.txt	SHEET	7	3	[0, 0, 0]	n/a	FR1	1	R1436J
363.865	0.834	399862	WORD_OFF	n/a	n/a	SHEET	7	3	[0, 0, 0]	n/a	FR1	1	R1436J
364.699	1.617	400698	WORD	n/a	wordpools/wordpool_long_EN.txt	EGG	8	3	[0, 0, 0]	n/a	FR1	1	R1436J
366.316	0.949	402316	WORD_OFF	n/a	n/a	EGG	8	3	[0, 0, 0]	n/a	FR1	1	R1436J
367.265	1.601	403265	WORD	n/a	wordpools/wordpool_long_EN.txt	CAT	9	3	[0, 0, 0]	n/a	FR1	1	R1436J
368.866	0.766	404866	WORD_OFF	n/a	n/a	CAT	9	3	[0, 0, 0]	n/a	FR1	1	R1436J
369.632	1.601	405632	WORD	n/a	wordpools/wordpool_long_EN.txt	FLAG	10	3	[0, 0, 0]	n/a	FR1	1	R1436J
371.233	0.766	407233	WORD_OFF	n/a	n/a	FLAG	10	3	[0, 0, 0]	n/a	FR1	1	R1436J
371.999	1.6	407998	WORD	n/a	wordpools/wordpool_long_EN.txt	NEST	11	3	[0, 0, 0]	n/a	FR1	1	R1436J
373.599	0.934	409600	WORD_OFF	n/a	n/a	NEST	11	3	[0, 0, 0]	n/a	FR1	1	R1436J
374.533	1.617	410531	WORD	n/a	wordpools/wordpool_long_EN.txt	BADGE	12	3	[0, 0, 0]	n/a	FR1	1	R1436J
376.15	0.001	412145	PROB	0.001	n/a	n/a	-999	3	[8, 4, 1]	13	FR1	1	R1436J
376.151	0.0	412146	START	n/a	n/a	n/a	-999	3	[-999, -999, -999]	n/a	FR1	1	R1436J
376.149	0.002	412149	WORD_OFF	n/a	n/a	BADGE	12	3	[0, 0, 0]	n/a	FR1	1	R1436J
376.151	0.0	412149	ENCODING_END	n/a	n/a	n/a	-999	3	[0, 0, 0]	n/a	FR1	1	R1436J
376.151	3.164	412149	DISTRACT_START	n/a	n/a	n/a	-999	3	[0, 0, 0]	n/a	FR1	1	R1436J
379.315	4.101	415310	PROB	4.101	n/a	n/a	-999	3	[3, 1, 5]	9	FR1	1	R1436J
383.416	4.134	419411	PROB	4.134	n/a	n/a	-999	3	[2, 1, 7]	10	FR1	1	R1436J
387.55	5.182	423545	PROB	5.182	n/a	n/a	-999	3	[1, 7, 2]	10	FR1	1	R1436J
392.732	5.0	428727	PROB	5.0	n/a	n/a	-999	3	[5, 2, 7]	14	FR1	1	R1436J
397.732	0.0	433726	STOP	n/a	n/a	n/a	-999	3	[-999, -999, -999]	n/a	FR1	1	R1436J
397.732	2.133	433730	DISTRACT_END	n/a	n/a	n/a	-999	3	[0, 0, 0]	n/a	FR1	1	R1436J
399.865	8.325	435861	REC_START	n/a	n/a	n/a	-999	3	[0, 0, 0]	n/a	FR1	1	R1436J
408.19	1.0	444184	REC_WORD_VV	1.0	n/a	<>	-999	3	[0, 0, 0]	n/a	FR1	1	R1436J
409.19	1.0	445184	REC_WORD_VV	1.0	n/a	<>	-999	3	[0, 0, 0]	n/a	FR1	1	R1436J
410.19	2.797	446184	REC_WORD_VV	2.797	n/a	<>	-999	3	[0, 0, 0]	n/a	FR1	1	R1436J
412.987	17.086	448981	REC_WORD	17.086	n/a	WASP	1	3	[0, 0, 0]	n/a	FR1	1	R1436J
430.073	2.309	466065	REC_END	n/a	n/a	n/a	-999	3	[0, 0, 0]	n/a	FR1	1	R1436J
432.382	10.365	468380	COUNTDOWN_START	n/a	n/a	n/a	-999	4	[0, 0, 0]	n/a	FR1	1	R1436J
442.747	0.0	478744	COUNTDOWN_END	n/a	n/a	n/a	-999	4	[0, 0, 0]	n/a	FR1	1	R1436J
442.747	2.219	478744	ENCODING_START	n/a	n/a	n/a	-999	4	[0, 0, 0]	n/a	FR1	1	R1436J
444.966	1.616	480963	WORD	n/a	wordpools/wordpool_long_EN.txt	DITCH	1	4	[0, 0, 0]	n/a	FR1	1	R1436J
446.582	0.934	482581	WORD_OFF	n/a	n/a	DITCH	1	4	[0, 0, 0]	n/a	FR1	1	R1436J
447.516	1.616	483512	WORD	n/a	wordpools/wordpool_long_EN.txt	BEEF	2	4	[0, 0, 0]	n/a	FR1	1	R1436J
449.132	0.883	485122	WORD_OFF	n/a	n/a	BEEF	2	4	[0, 0, 0]	n/a	FR1	1	R1436J
450.015	1.601	486010	WORD	n/a	wordpools/wordpool_long_EN.txt	FRUIT	3	4	[0, 0, 0]	n/a	FR1	1	R1436J
451.616	0.766	487611	WORD_OFF	n/a	n/a	FRUIT	3	4	[0, 0, 0]	n/a	FR1	1	R1436J
452.382	1.601	488376	WORD	n/a	wordpools/wordpool_long_EN.txt	YARN	4	4	[0, 0, 0]	n/a	FR1	1	R1436J
453.983	0.916	489978	WORD_OFF	n/a	n/a	YARN	4	4	[0, 0, 0]	n/a	FR1	1	R1436J
454.899	1.6	490891	WORD	n/a	wordpools/wordpool_long_EN.txt	YARD	5	4	[0, 0, 0]	n/a	FR1	1	R1436J
456.499	0.8	492492	WORD_OFF	n/a	n/a	YARD	5	4	[0, 0, 0]	n/a	FR1	1	R1436J
457.299	1.6	493293	WORD	n/a	wordpools/wordpool_long_EN.txt	SHIP	6	4	[0, 0, 0]	n/a	FR1	1	R1436J
458.899	0.834	494894	WORD_OFF	n/a	n/a	SHIP	6	4	[0, 0, 0]	n/a	FR1	1	R1436J
459.733	1.6	495729	WORD	n/a	wordpools/wordpool_long_EN.txt	DOG	7	4	[0, 0, 0]	n/a	FR1	1	R1436J
461.333	0.966	497322	WORD_OFF	n/a	n/a	DOG	7	4	[0, 0, 0]	n/a	FR1	1	R1436J
462.299	1.6	498296	WORD	n/a	wordpools/wordpool_long_EN.txt	TOOL	8	4	[0, 0, 0]	n/a	FR1	1	R1436J
463.899	0.834	499889	WORD_OFF	n/a	n/a	TOOL	8	4	[0, 0, 0]	n/a	FR1	1	R1436J
464.733	1.617	500724	WORD	n/a	wordpools/wordpool_long_EN.txt	BIRD	9	4	[0, 0, 0]	n/a	FR1	1	R1436J
466.35	0.883	502343	WORD_OFF	n/a	n/a	BIRD	9	4	[0, 0, 0]	n/a	FR1	1	R1436J
467.233	1.616	503230	WORD	n/a	wordpools/wordpool_long_EN.txt	TENT	10	4	[0, 0, 0]	n/a	FR1	1	R1436J
468.849	0.967	504840	WORD_OFF	n/a	n/a	TENT	10	4	[0, 0, 0]	n/a	FR1	1	R1436J
469.816	1.616	505806	WORD	n/a	wordpools/wordpool_long_EN.txt	COOK	11	4	[0, 0, 0]	n/a	FR1	1	R1436J
471.432	0.85	507425	WORD_OFF	n/a	n/a	COOK	11	4	[0, 0, 0]	n/a	FR1	1	R1436J
472.282	1.602	508277	WORD	n/a	wordpools/wordpool_long_EN.txt	THIEF	12	4	[0, 0, 0]	n/a	FR1	1	R1436J
473.884	0.0	509875	START	n/a	n/a	n/a	-999	4	[-999, -999, -999]	n/a	FR1	1	R1436J
473.884	0.0	509875	PROB	0.0	n/a	n/a	-999	4	[7, 3, 1]	11	FR1	1	R1436J
473.883	0.001	509879	WORD_OFF	n/a	n/a	THIEF	12	4	[0, 0, 0]	n/a	FR1	1	R1436J
473.884	0.0	509879	ENCODING_END	n/a	n/a	n/a	-999	4	[0, 0, 0]	n/a	FR1	1	R1436J
473.884	4.315	509879	DISTRACT_START	n/a	n/a	n/a	-999	4	[0, 0, 0]	n/a	FR1	1	R1436J
478.199	4.767	514190	PROB	4.767	n/a	n/a	-999	4	[2, 1, 5]	8	FR1	1	R1436J
482.966	4.117	518957	PROB	4.117	n/a	n/a	-999	4	[7, 4, 8]	19	FR1	1	R1436J
487.083	4.75	523074	PROB	4.75	n/a	n/a	-999	4	[4, 3, 6]	13	FR1	1	R1436J
491.833	5.715	527823	PROB	5.715	n/a	n/a	-999	4	[5, 2, 5]	12	FR1	1	R1436J
497.548	0.0	533538	STOP	n/a	n/a	n/a	-999	4	[-999, -999, -999]	n/a	FR1	1	R1436J
497.548	2.185	533539	DISTRACT_END	n/a	n/a	n/a	-999	4	[0, 0, 0]	n/a	FR1	1	R1436J
499.733	1.475	535722	REC_START	n/a	n/a	n/a	-999	4	[0, 0, 0]	n/a	FR1	1	R1436J
501.208	6.505	537198	REC_WORD	6.505	n/a	THIEF	12	4	[0, 0, 0]	n/a	FR1	1	R1436J
507.713	5.565	543703	REC_WORD	5.565	n/a	BEEF	2	4	[0, 0, 0]	n/a	FR1	1	R1436J
513.278	11.544	549268	REC_WORD_VV	11.544	n/a	<>	-999	4	[0, 0, 0]	n/a	FR1	1	R1436J
524.822	5.16	560811	REC_WORD	5.16	n/a	DITCH	1	4	[0, 0, 0]	n/a	FR1	1	R1436J
529.982	3.401	565970	REC_END	n/a	n/a	n/a	-999	4	[0, 0, 0]	n/a	FR1	1	R1436J
533.383	10.361	569372	COUNTDOWN_START	n/a	n/a	n/a	-999	5	[0, 0, 0]	n/a	FR1	1	R1436J
543.744	0.0	579736	COUNTDOWN_END	n/a	n/a	n/a	-999	5	[0, 0, 0]	n/a	FR1	1	R1436J
543.744	1.939	579736	ENCODING_START	n/a	n/a	n/a	-999	5	[0, 0, 0]	n/a	FR1	1	R1436J
545.683	1.615	581677	WORD	n/a	wordpools/wordpool_long_EN.txt	STREET	1	5	[0, 0, 0]	n/a	FR1	1	R1436J
547.298	0.934	583286	WORD_OFF	n/a	n/a	STREET	1	5	[0, 0, 0]	n/a	FR1	1	R1436J
548.232	1.601	584218	WORD	n/a	wordpools/wordpool_long_EN.txt	STICK	2	5	[0, 0, 0]	n/a	FR1	1	R1436J
549.833	0.882	585819	WORD_OFF	n/a	n/a	STICK	2	5	[0, 0, 0]	n/a	FR1	1	R1436J
550.715	1.601	586706	WORD	n/a	wordpools/wordpool_long_EN.txt	FOX	3	5	[0, 0, 0]	n/a	FR1	1	R1436J
552.316	0.799	588307	WORD_OFF	n/a	n/a	FOX	3	5	[0, 0, 0]	n/a	FR1	1	R1436J
553.115	1.601	589108	WORD	n/a	wordpools/wordpool_long_EN.txt	FOOD	4	5	[0, 0, 0]	n/a	FR1	1	R1436J
554.716	0.767	590709	WORD_OFF	n/a	n/a	FOOD	4	5	[0, 0, 0]	n/a	FR1	1	R1436J
555.483	1.6	591475	WORD	n/a	wordpools/wordpool_long_EN.txt	RUG	5	5	[0, 0, 0]	n/a	FR1	1	R1436J
557.083	1.0	593076	WORD_OFF	n/a	n/a	RUG	5	5	[0, 0, 0]	n/a	FR1	1	R1436J
558.083	1.615	594068	WORD	n/a	wordpools/wordpool_long_EN.txt	TOAD	6	5	[0, 0, 0]	n/a	FR1	1	R1436J
559.698	0.867	595686	WORD_OFF	n/a	n/a	TOAD	6	5	[0, 0, 0]	n/a	FR1	1	R1436J
560.565	1.601	596557	WORD	n/a	wordpools/wordpool_long_EN.txt	MAP	7	5	[0, 0, 0]	n/a	FR1	1	R1436J
562.166	0.932	598158	WORD_OFF	n/a	n/a	MAP	7	5	[0, 0, 0]	n/a	FR1	1	R1436J
563.098	1.601	599089	WORD	n/a	wordpools/wordpool_long_EN.txt	SEED	8	5	[0, 0, 0]	n/a	FR1	1	R1436J
564.699	0.8	600690	WORD_OFF	n/a	n/a	SEED	8	5	[0, 0, 0]	n/a	FR1	1	R1436J
565.499	1.6	601491	WORD	n/a	wordpools/wordpool_long_EN.txt	BRUSH	9	5	[0, 0, 0]	n/a	FR1	1	R1436J
567.099	0.883	603092	WORD_OFF	n/a	n/a	BRUSH	9	5	[0, 0, 0]	n/a	FR1	1	R1436J
567.982	1.601	603971	WORD	n/a	wordpools/wordpool_long_EN.txt	FRIEND	10	5	[0, 0, 0]	n/a	FR1	1	R1436J
569.583	0.899	605572	WORD_OFF	n/a	n/a	FRIEND	10	5	[0, 0, 0]	n/a	FR1	1	R1436J
570.482	1.6	606468	WORD	n/a	wordpools/wordpool_long_EN.txt	CHEST	11	5	[0, 0, 0]	n/a	FR1	1	R1436J
572.082	0.801	608069	WORD_OFF	n/a	n/a	CHEST	11	5	[0, 0, 0]	n/a	FR1	1	R1436J
572.883	1.616	608870	WORD	n/a	wordpools/wordpool_long_EN.txt	RAKE	12	5	[0, 0, 0]	n/a	FR1	1	R1436J
574.499	0.0	610486	START	n/a	n/a	n/a	-999	5	[-999, -999, -999]	n/a	FR1	1	R1436J
574.499	0.0	610486	PROB	0.0	n/a	n/a	-999	5	[4, 2, 5]	14	FR1	1	R1436J
574.498	0.001	610488	WORD_OFF	n/a	n/a	RAKE	12	5	[0, 0, 0]	n/a	FR1	1	R1436J
574.499	0.0	610488	ENCODING_END	n/a	n/a	n/a	-999	5	[0, 0, 0]	n/a	FR1	1	R1436J
574.499	4.884	610488	DISTRACT_START	n/a	n/a	n/a	-999	5	[0, 0, 0]	n/a	FR1	1	R1436J
579.383	6.0	615370	PROB	6.0	n/a	n/a	-999	5	[8, 6, 7]	21	FR1	1	R1436J
585.383	4.05	621370	PROB	4.05	n/a	n/a	-999	5	[1, 6, 1]	8	FR1	1	R1436J
589.433	5.266	625419	PROB	5.266	n/a	n/a	-999	5	[6, 5, 3]	14	FR1	1	R1436J
594.699	0.0	630685	DISTRACT_END	n/a	n/a	n/a	-999	5	[0, 0, 0]	n/a	FR1	1	R1436J
594.699	2.3	630685	STOP	n/a	n/a	n/a	-999	5	[-999, -999, -999]	n/a	FR1	1	R1436J
596.999	2.475	632990	REC_START	n/a	n/a	n/a	-999	5	[0, 0, 0]	n/a	FR1	1	R1436J
599.474	1.845	635460	REC_WORD	1.845	n/a	SEED	8	5	[0, 0, 0]	n/a	FR1	1	R1436J
601.319	4.23	637305	REC_WORD	4.23	n/a	STICK	2	5	[0, 0, 0]	n/a	FR1	1	R1436J
605.549	4.547	641535	REC_WORD	4.547	n/a	FOX	3	5	[0, 0, 0]	n/a	FR1	1	R1436J
610.096	5.264	646082	REC_WORD	5.264	n/a	TOAD	6	5	[0, 0, 0]	n/a	FR1	1	R1436J
615.36	11.873	651345	REC_WORD	11.873	n/a	TOOL	-999	5	[0, 0, 0]	n/a	FR1	1	R1436J
627.233	3.516	663221	REC_END	n/a	n/a	n/a	-999	5	[0, 0, 0]	n/a	FR1	1	R1436J
630.749	10.361	666736	COUNTDOWN_START	n/a	n/a	n/a	-999	6	[0, 0, 0]	n/a	FR1	1	R1436J
641.11	0.001	677100	COUNTDOWN_END	n/a	n/a	n/a	-999	6	[0, 0, 0]	n/a	FR1	1	R1436J
641.111	2.287	677100	ENCODING_START	n/a	n/a	n/a	-999	6	[0, 0, 0]	n/a	FR1	1	R1436J
643.398	1.601	679380	WORD	n/a	wordpools/wordpool_long_EN.txt	SHELL	1	6	[0, 0, 0]	n/a	FR1	1	R1436J
644.999	0.833	680981	WORD_OFF	n/a	n/a	SHELL	1	6	[0, 0, 0]	n/a	FR1	1	R1436J
645.832	1.601	681816	WORD	n/a	wordpools/wordpool_long_EN.txt	SUIT	2	6	[0, 0, 0]	n/a	FR1	1	R1436J
647.433	0.783	683418	WORD_OFF	n/a	n/a	SUIT	2	6	[0, 0, 0]	n/a	FR1	1	R1436J
648.216	1.6	684201	WORD	n/a	wordpools/wordpool_long_EN.txt	BLADE	3	6	[0, 0, 0]	n/a	FR1	1	R1436J
649.816	0.9	685802	WORD_OFF	n/a	n/a	BLADE	3	6	[0, 0, 0]	n/a	FR1	1	R1436J
650.716	1.617	686698	WORD	n/a	wordpools/wordpool_long_EN.txt	STORM	4	6	[0, 0, 0]	n/a	FR1	1	R1436J
652.333	0.816	688317	WORD_OFF	n/a	n/a	STORM	4	6	[0, 0, 0]	n/a	FR1	1	R1436J
653.149	1.617	689135	WORD	n/a	wordpools/wordpool_long_EN.txt	GREASE	5	6	[0, 0, 0]	n/a	FR1	1	R1436J
654.766	0.933	690753	WORD_OFF	n/a	n/a	GREASE	5	6	[0, 0, 0]	n/a	FR1	1	R1436J
655.699	1.617	691684	WORD	n/a	wordpools/wordpool_long_EN.txt	FAN	6	6	[0, 0, 0]	n/a	FR1	1	R1436J
657.316	0.867	693303	WORD_OFF	n/a	n/a	FAN	6	6	[0, 0, 0]	n/a	FR1	1	R1436J
658.183	1.616	694173	WORD	n/a	wordpools/wordpool_long_EN.txt	ROAD	7	6	[0, 0, 0]	n/a	FR1	1	R1436J
659.799	0.834	695783	WORD_OFF	n/a	n/a	ROAD	7	6	[0, 0, 0]	n/a	FR1	1	R1436J
660.633	1.615	696618	WORD	n/a	wordpools/wordpool_long_EN.txt	MOP	8	6	[0, 0, 0]	n/a	FR1	1	R1436J
662.248	0.917	698237	WORD_OFF	n/a	n/a	MOP	8	6	[0, 0, 0]	n/a	FR1	1	R1436J
663.165	1.6	699150	WORD	n/a	wordpools/wordpool_long_EN.txt	PRINCE	9	6	[0, 0, 0]	n/a	FR1	1	R1436J
664.765	0.85	700751	WORD_OFF	n/a	n/a	PRINCE	9	6	[0, 0, 0]	n/a	FR1	1	R1436J
665.615	1.6	701604	WORD	n/a	wordpools/wordpool_long_EN.txt	SOCK	10	6	[0, 0, 0]	n/a	FR1	1	R1436J
667.215	0.867	703197	WORD_OFF	n/a	n/a	SOCK	10	6	[0, 0, 0]	n/a	FR1	1	R1436J
668.082	1.6	704067	WORD	n/a	wordpools/wordpool_long_EN.txt	SLUSH	11	6	[0, 0, 0]	n/a	FR1	1	R1436J
669.682	0.984	705668	WORD_OFF	n/a	n/a	SLUSH	11	6	[0, 0, 0]	n/a	FR1	1	R1436J
670.666	1.6	706651	WORD	n/a	wordpools/wordpool_long_EN.txt	BOMB	12	6	[0, 0, 0]	n/a	FR1	1	R1436J
672.266	0.001	708249	PROB	0.001	n/a	n/a	-999	6	[1, 5, 4]	10	FR1	1	R1436J
672.267	0.0	708250	START	n/a	n/a	n/a	-999	6	[-999, -999, -999]	n/a	FR1	1	R1436J
672.266	0.001	708252	WORD_OFF	n/a	n/a	BOMB	12	6	[0, 0, 0]	n/a	FR1	1	R1436J
672.267	0.0	708252	ENCODING_END	n/a	n/a	n/a	-999	6	[0, 0, 0]	n/a	FR1	1	R1436J
672.267	4.216	708252	DISTRACT_START	n/a	n/a	n/a	-999	6	[0, 0, 0]	n/a	FR1	1	R1436J
676.483	4.55	712466	PROB	4.55	n/a	n/a	-999	6	[7, 4, 1]	12	FR1	1	R1436J
681.033	3.883	717016	PROB	3.883	n/a	n/a	-999	6	[1, 2, 4]	7	FR1	1	R1436J
684.916	5.85	720898	PROB	5.85	n/a	n/a	-999	6	[3, 3, 5]	11	FR1	1	R1436J
690.766	5.75	726748	PROB	5.75	n/a	n/a	-999	6	[3, 2, 6]	11	FR1	1	R1436J
696.516	0.0	732498	STOP	n/a	n/a	n/a	-999	6	[-999, -999, -999]	n/a	FR1	1	R1436J
696.516	2.15	732504	DISTRACT_END	n/a	n/a	n/a	-999	6	[0, 0, 0]	n/a	FR1	1	R1436J
698.666	2.46	734653	REC_START	n/a	n/a	n/a	-999	6	[0, 0, 0]	n/a	FR1	1	R1436J
701.126	2.749	737108	REC_WORD	2.749	n/a	RUSH	-999	6	[0, 0, 0]	n/a	FR1	1	R1436J
703.875	3.406	739857	REC_WORD	3.406	n/a	MOP	8	6	[0, 0, 0]	n/a	FR1	1	R1436J
707.281	4.959	743263	REC_WORD_VV	4.959	n/a	<>	-999	6	[0, 0, 0]	n/a	FR1	1	R1436J
712.24	2.58	748221	REC_WORD	2.58	n/a	SHELL	1	6	[0, 0, 0]	n/a	FR1	1	R1436J
714.82	1.0	750801	REC_WORD_VV	1.0	n/a	<>	-999	6	[0, 0, 0]	n/a	FR1	1	R1436J
715.82	11.767	751801	REC_WORD_VV	11.767	n/a	<>	-999	6	[0, 0, 0]	n/a	FR1	1	R1436J
727.587	1.335	763568	REC_WORD_VV	1.335	n/a	<>	-999	6	[0, 0, 0]	n/a	FR1	1	R1436J
728.922	3.111	764901	REC_END	n/a	n/a	n/a	-999	6	[0, 0, 0]	n/a	FR1	1	R1436J
732.033	10.36	768016	COUNTDOWN_START	n/a	n/a	n/a	-999	7	[0, 0, 0]	n/a	FR1	1	R1436J
742.393	0.0	778380	COUNTDOWN_END	n/a	n/a	n/a	-999	7	[0, 0, 0]	n/a	FR1	1	R1436J
742.393	2.106	778380	ENCODING_START	n/a	n/a	n/a	-999	7	[0, 0, 0]	n/a	FR1	1	R1436J
744.499	1.616	780477	WORD	n/a	wordpools/wordpool_long_EN.txt	CUBE	1	7	[0, 0, 0]	n/a	FR1	1	R1436J
746.115	0.884	782095	WORD_OFF	n/a	n/a	CUBE	1	7	[0, 0, 0]	n/a	FR1	1	R1436J
746.999	1.6	782983	WORD	n/a	wordpools/wordpool_long_EN.txt	STORE	2	7	[0, 0, 0]	n/a	FR1	1	R1436J
748.599	0.767	784584	WORD_OFF	n/a	n/a	STORE	2	7	[0, 0, 0]	n/a	FR1	1	R1436J
749.366	1.6	785350	WORD	n/a	wordpools/wordpool_long_EN.txt	SPRING	3	7	[0, 0, 0]	n/a	FR1	1	R1436J
750.966	0.967	786951	WORD_OFF	n/a	n/a	SPRING	3	7	[0, 0, 0]	n/a	FR1	1	R1436J
751.933	1.616	787917	WORD	n/a	wordpools/wordpool_long_EN.txt	MAZE	4	7	[0, 0, 0]	n/a	FR1	1	R1436J
753.549	0.95	789527	WORD_OFF	n/a	n/a	MAZE	4	7	[0, 0, 0]	n/a	FR1	1	R1436J
754.499	1.6	790484	WORD	n/a	wordpools/wordpool_long_EN.txt	TRENCH	5	7	[0, 0, 0]	n/a	FR1	1	R1436J
756.099	0.967	792082	WORD_OFF	n/a	n/a	TRENCH	5	7	[0, 0, 0]	n/a	FR1	1	R1436J
757.066	1.6	793051	WORD	n/a	wordpools/wordpool_long_EN.txt	HUT	6	7	[0, 0, 0]	n/a	FR1	1	R1436J
758.666	0.767	794652	WORD_OFF	n/a	n/a	HUT	6	7	[0, 0, 0]	n/a	FR1	1	R1436J
759.433	1.615	795418	WORD	n/a	wordpools/wordpool_long_EN.txt	LUNCH	7	7	[0, 0, 0]	n/a	FR1	1	R1436J
761.048	0.95	797028	WORD_OFF	n/a	n/a	LUNCH	7	7	[0, 0, 0]	n/a	FR1	1	R1436J
761.998	1.601	797976	WORD	n/a	wordpools/wordpool_long_EN.txt	INN	8	7	[0, 0, 0]	n/a	FR1	1	R1436J
763.599	0.884	799577	WORD_OFF	n/a	n/a	INN	8	7	[0, 0, 0]	n/a	FR1	1	R1436J
764.483	1.616	800465	WORD	n/a	wordpools/wordpool_long_EN.txt	VEST	9	7	[0, 0, 0]	n/a	FR1	1	R1436J
766.099	0.766	802083	WORD_OFF	n/a	n/a	VEST	9	7	[0, 0, 0]	n/a	FR1	1	R1436J
766.865	1.601	802849	WORD	n/a	wordpools/wordpool_long_EN.txt	BAND	10	7	[0, 0, 0]	n/a	FR1	1	R1436J
768.466	0.816	804450	WORD_OFF	n/a	n/a	BAND	10	7	[0, 0, 0]	n/a	FR1	1	R1436J
769.282	1.601	805263	WORD	n/a	wordpools/wordpool_long_EN.txt	MEAT	11	7	[0, 0, 0]	n/a	FR1	1	R1436J
770.883	0.832	806861	WORD_OFF	n/a	n/a	MEAT	11	7	[0, 0, 0]	n/a	FR1	1	R1436J
771.715	1.618	807696	WORD	n/a	wordpools/wordpool_long_EN.txt	MOLE	12	7	[0, 0, 0]	n/a	FR1	1	R1436J
773.333	0.0	809312	START	n/a	n/a	n/a	-999	7	[-999, -999, -999]	n/a	FR1	1	R1436J
773.333	0.0	809312	PROB	0.0	n/a	n/a	-999	7	[1, 5, 7]	13	FR1	1	R1436J
773.333	0.0	809314	WORD_OFF	n/a	n/a	MOLE	12	7	[0, 0, 0]	n/a	FR1	1	R1436J
773.333	0.0	809314	ENCODING_END	n/a	n/a	n/a	-999	7	[0, 0, 0]	n/a	FR1	1	R1436J
773.333	4.75	809314	DISTRACT_START	n/a	n/a	n/a	-999	7	[0, 0, 0]	n/a	FR1	1	R1436J
778.083	4.266	814062	PROB	4.266	n/a	n/a	-999	7	[2, 6, 2]	10	FR1	1	R1436J
782.349	4.567	818327	PROB	4.567	n/a	n/a	-999	7	[4, 2, 4]	10	FR1	1	R1436J
786.916	4.55	822894	PROB	4.55	n/a	n/a	-999	7	[4, 6, 8]	18	FR1	1	R1436J
791.466	6.066	827444	PROB	6.066	n/a	n/a	-999	7	[2, 4, 6]	12	FR1	1	R1436J
797.532	0.0	833510	STOP	n/a	n/a	n/a	-999	7	[-999, -999, -999]	n/a	FR1	1	R1436J
797.532	2.35	833514	DISTRACT_END	n/a	n/a	n/a	-999	7	[0, 0, 0]	n/a	FR1	1	R1436J
799.882	0.645	835863	REC_START	n/a	n/a	n/a	-999	7	[0, 0, 0]	n/a	FR1	1	R1436J
800.527	1.214	836505	REC_WORD_VV	1.214	n/a	<>	-999	7	[0, 0, 0]	n/a	FR1	1	R1436J
801.741	2.417	837719	REC_WORD	2.417	n/a	CUBE	1	7	[0, 0, 0]	n/a	FR1	1	R1436J
804.158	2.151	840136	REC_WORD_VV	2.151	n/a	<>	-999	7	[0, 0, 0]	n/a	FR1	1	R1436J
806.309	3.64	842286	REC_WORD_VV	3.64	n/a	<>	-999	7	[0, 0, 0]	n/a	FR1	1	R1436J
809.949	5.592	845926	REC_WORD	5.592	n/a	TRENCH	5	7	[0, 0, 0]	n/a	FR1	1	R1436J
815.541	1.0	851518	REC_WORD_VV	1.0	n/a	<>	-999	7	[0, 0, 0]	n/a	FR1	1	R1436J
816.541	1.0	852518	REC_WORD_VV	1.0	n/a	<>	-999	7	[0, 0, 0]	n/a	FR1	1	R1436J
817.541	1.0	853518	REC_WORD_VV	1.0	n/a	<>	-999	7	[0, 0, 0]	n/a	FR1	1	R1436J
818.541	5.198	854518	REC_WORD_VV	5.198	n/a	<>	-999	7	[0, 0, 0]	n/a	FR1	1	R1436J
823.739	6.399	859716	REC_WORD_VV	6.399	n/a	<>	-999	7	[0, 0, 0]	n/a	FR1	1	R1436J
830.138	1.995	866119	REC_END	n/a	n/a	n/a	-999	7	[0, 0, 0]	n/a	FR1	1	R1436J
832.133	10.36	868112	COUNTDOWN_START	n/a	n/a	n/a	-999	8	[0, 0, 0]	n/a	FR1	1	R1436J
842.493	0.0	878467	COUNTDOWN_END	n/a	n/a	n/a	-999	8	[0, 0, 0]	n/a	FR1	1	R1436J
842.493	2.072	878476	ENCODING_START	n/a	n/a	n/a	-999	8	[0, 0, 0]	n/a	FR1	1	R1436J
844.565	1.601	880547	WORD	n/a	wordpools/wordpool_long_EN.txt	BROOK	1	8	[0, 0, 0]	n/a	FR1	1	R1436J
846.166	0.983	882148	WORD_OFF	n/a	n/a	BROOK	1	8	[0, 0, 0]	n/a	FR1	1	R1436J
847.149	1.6	883123	WORD	n/a	wordpools/wordpool_long_EN.txt	STOOL	2	8	[0, 0, 0]	n/a	FR1	1	R1436J
848.749	0.817	884724	WORD_OFF	n/a	n/a	STOOL	2	8	[0, 0, 0]	n/a	FR1	1	R1436J
849.566	1.6	885542	WORD	n/a	wordpools/wordpool_long_EN.txt	SKATE	3	8	[0, 0, 0]	n/a	FR1	1	R1436J
851.166	0.866	887143	WORD_OFF	n/a	n/a	SKATE	3	8	[0, 0, 0]	n/a	FR1	1	R1436J
852.032	1.6	888013	WORD	n/a	wordpools/wordpool_long_EN.txt	LACE	4	8	[0, 0, 0]	n/a	FR1	1	R1436J
853.632	0.984	889605	WORD_OFF	n/a	n/a	LACE	4	8	[0, 0, 0]	n/a	FR1	1	R1436J
854.616	1.6	890589	WORD	n/a	wordpools/wordpool_long_EN.txt	ICE	5	8	[0, 0, 0]	n/a	FR1	1	R1436J
856.216	0.866	892190	WORD_OFF	n/a	n/a	ICE	5	8	[0, 0, 0]	n/a	FR1	1	R1436J
857.082	1.6	893060	WORD	n/a	wordpools/wordpool_long_EN.txt	SMOKE	6	8	[0, 0, 0]	n/a	FR1	1	R1436J
858.682	0.934	894661	WORD_OFF	n/a	n/a	SMOKE	6	8	[0, 0, 0]	n/a	FR1	1	R1436J
859.616	1.616	895592	WORD	n/a	wordpools/wordpool_long_EN.txt	BARN	7	8	[0, 0, 0]	n/a	FR1	1	R1436J
861.232	0.85	897211	WORD_OFF	n/a	n/a	BARN	7	8	[0, 0, 0]	n/a	FR1	1	R1436J
862.082	1.617	898072	WORD	n/a	wordpools/wordpool_long_EN.txt	MAIL	8	8	[0, 0, 0]	n/a	FR1	1	R1436J
863.699	1.0	899673	WORD_OFF	n/a	n/a	MAIL	8	8	[0, 0, 0]	n/a	FR1	1	R1436J
864.699	1.6	900674	WORD	n/a	wordpools/wordpool_long_EN.txt	PLANT	9	8	[0, 0, 0]	n/a	FR1	1	R1436J
866.299	0.917	902275	WORD_OFF	n/a	n/a	PLANT	9	8	[0, 0, 0]	n/a	FR1	1	R1436J
867.216	1.6	903189	WORD	n/a	wordpools/wordpool_long_EN.txt	WORLD	10	8	[0, 0, 0]	n/a	FR1	1	R1436J
868.816	0.816	904790	WORD_OFF	n/a	n/a	WORLD	10	8	[0, 0, 0]	n/a	FR1	1	R1436J
869.632	1.601	905608	WORD	n/a	wordpools/wordpool_long_EN.txt	CORD	11	8	[0, 0, 0]	n/a	FR1	1	R1436J
871.233	0.883	907209	WORD_OFF	n/a	n/a	CORD	11	8	[0, 0, 0]	n/a	FR1	1	R1436J
872.116	1.617	908097	WORD	n/a	wordpools/wordpool_long_EN.txt	PEARL	12	8	[0, 0, 0]	n/a	FR1	1	R1436J
873.733	0.0	909706	WORD_OFF	n/a	n/a	PEARL	12	8	[0, 0, 0]	n/a	FR1	1	R1436J
873.733	0.0	909708	START	n/a	n/a	n/a	-999	8	[-999, -999, -999]	n/a	FR1	1	R1436J
873.733	0.0	909708	PROB	0.0	n/a	n/a	-999	8	[6, 2, 7]	15	FR1	1	R1436J
873.733	0.0	909715	ENCODING_END	n/a	n/a	n/a	-999	8	[0, 0, 0]	n/a	FR1	1	R1436J
873.733	4.733	909715	DISTRACT_START	n/a	n/a	n/a	-999	8	[0, 0, 0]	n/a	FR1	1	R1436J
878.466	4.767	914440	PROB	4.767	n/a	n/a	-999	8	[5, 4, 5]	14	FR1	1	R1436J
883.233	4.183	919207	PROB	4.183	n/a	n/a	-999	8	[6, 8, 3]	17	FR1	1	R1436J
887.416	4.016	923390	PROB	4.016	n/a	n/a	-999	8	[1, 5, 8]	14	FR1	1	R1436J
891.432	4.517	927406	PROB	4.517	n/a	n/a	-999	8	[2, 4, 8]	14	FR1	1	R1436J
895.949	0.0	931922	DISTRACT_END	n/a	n/a	n/a	-999	8	[0, 0, 0]	n/a	FR1	1	R1436J
895.949	2.15	931923	STOP	n/a	n/a	n/a	-999	8	[-999, -999, -999]	n/a	FR1	1	R1436J
898.099	0.704	934071	REC_START	n/a	n/a	n/a	-999	8	[0, 0, 0]	n/a	FR1	1	R1436J
898.803	1.489	934777	REC_WORD_VV	1.489	n/a	<>	-999	8	[0, 0, 0]	n/a	FR1	1	R1436J
900.292	2.005	936266	REC_WORD_VV	2.005	n/a	<>	-999	8	[0, 0, 0]	n/a	FR1	1	R1436J
902.297	1.825	938270	REC_WORD_VV	1.825	n/a	<>	-999	8	[0, 0, 0]	n/a	FR1	1	R1436J
904.122	3.063	940095	REC_WORD	3.063	n/a	STOOL	2	8	[0, 0, 0]	n/a	FR1	1	R1436J
907.185	1.597	943158	REC_WORD_VV	1.597	n/a	<>	-999	8	[0, 0, 0]	n/a	FR1	1	R1436J
908.782	2.775	944755	REC_WORD	2.775	n/a	SOCK	-999	8	[0, 0, 0]	n/a	FR1	1	R1436J
911.557	1.23	947530	REC_WORD_VV	1.23	n/a	<>	-999	8	[0, 0, 0]	n/a	FR1	1	R1436J
912.787	6.49	948760	REC_WORD_VV	6.49	n/a	<>	-999	8	[0, 0, 0]	n/a	FR1	1	R1436J
919.277	4.312	955250	REC_WORD	4.312	n/a	BROOK	1	8	[0, 0, 0]	n/a	FR1	1	R1436J
923.589	4.764	959562	REC_WORD_VV	4.764	n/a	<>	-999	8	[0, 0, 0]	n/a	FR1	1	R1436J
928.353	1.963	964327	REC_END	n/a	n/a	n/a	-999	8	[0, 0, 0]	n/a	FR1	1	R1436J
930.316	10.36	966294	COUNTDOWN_START	n/a	n/a	n/a	-999	9	[0, 0, 0]	n/a	FR1	1	R1436J
940.676	0.0	976649	COUNTDOWN_END	n/a	n/a	n/a	-999	9	[0, 0, 0]	n/a	FR1	1	R1436J
940.676	2.257	976649	ENCODING_START	n/a	n/a	n/a	-999	9	[0, 0, 0]	n/a	FR1	1	R1436J
942.933	1.615	978903	WORD	n/a	wordpools/wordpool_long_EN.txt	LINT	1	9	[0, 0, 0]	n/a	FR1	1	R1436J
944.548	0.934	980521	WORD_OFF	n/a	n/a	LINT	1	9	[0, 0, 0]	n/a	FR1	1	R1436J
945.482	1.601	981452	WORD	n/a	wordpools/wordpool_long_EN.txt	RIB	2	9	[0, 0, 0]	n/a	FR1	1	R1436J
947.083	0.9	983054	WORD_OFF	n/a	n/a	RIB	2	9	[0, 0, 0]	n/a	FR1	1	R1436J
947.983	1.6	983959	WORD	n/a	wordpools/wordpool_long_EN.txt	TIE	3	9	[0, 0, 0]	n/a	FR1	1	R1436J
949.583	1.0	985560	WORD_OFF	n/a	n/a	TIE	3	9	[0, 0, 0]	n/a	FR1	1	R1436J
950.583	1.616	986560	WORD	n/a	wordpools/wordpool_long_EN.txt	MOUSE	4	9	[0, 0, 0]	n/a	FR1	1	R1436J
952.199	0.833	988170	WORD_OFF	n/a	n/a	MOUSE	4	9	[0, 0, 0]	n/a	FR1	1	R1436J
953.032	1.6	989006	WORD	n/a	wordpools/wordpool_long_EN.txt	YOLK	5	9	[0, 0, 0]	n/a	FR1	1	R1436J
954.632	0.967	990607	WORD_OFF	n/a	n/a	YOLK	5	9	[0, 0, 0]	n/a	FR1	1	R1436J
955.599	1.6	991573	WORD	n/a	wordpools/wordpool_long_EN.txt	FILM	6	9	[0, 0, 0]	n/a	FR1	1	R1436J
957.199	0.817	993174	WORD_OFF	n/a	n/a	FILM	6	9	[0, 0, 0]	n/a	FR1	1	R1436J
958.016	1.6	993992	WORD	n/a	wordpools/wordpool_long_EN.txt	PORK	7	9	[0, 0, 0]	n/a	FR1	1	R1436J
959.616	0.917	995593	WORD_OFF	n/a	n/a	PORK	7	9	[0, 0, 0]	n/a	FR1	1	R1436J
960.533	1.6	996506	WORD	n/a	wordpools/wordpool_long_EN.txt	FOAM	8	9	[0, 0, 0]	n/a	FR1	1	R1436J
962.133	0.949	998108	WORD_OFF	n/a	n/a	FOAM	8	9	[0, 0, 0]	n/a	FR1	1	R1436J
963.082	1.601	999056	WORD	n/a	wordpools/wordpool_long_EN.txt	SEA	9	9	[0, 0, 0]	n/a	FR1	1	R1436J
964.683	0.783	1000657	WORD_OFF	n/a	n/a	SEA	9	9	[0, 0, 0]	n/a	FR1	1	R1436J
965.466	1.6	1001440	WORD	n/a	wordpools/wordpool_long_EN.txt	TROUT	10	9	[0, 0, 0]	n/a	FR1	1	R1436J
967.066	0.833	1003041	WORD_OFF	n/a	n/a	TROUT	10	9	[0, 0, 0]	n/a	FR1	1	R1436J
967.899	1.6	1003868	WORD	n/a	wordpools/wordpool_long_EN.txt	HOLE	11	9	[0, 0, 0]	n/a	FR1	1	R1436J
969.499	0.833	1005469	WORD_OFF	n/a	n/a	HOLE	11	9	[0, 0, 0]	n/a	FR1	1	R1436J
970.332	1.601	1006305	WORD	n/a	wordpools/wordpool_long_EN.txt	BREAD	12	9	[0, 0, 0]	n/a	FR1	1	R1436J
971.933	0.001	1007903	PROB	0.001	n/a	n/a	-999	9	[8, 2, 2]	12	FR1	1	R1436J
971.934	0.0	1007904	START	n/a	n/a	n/a	-999	9	[-999, -999, -999]	n/a	FR1	1	R1436J
971.933	0.001	1007906	WORD_OFF	n/a	n/a	BREAD	12	9	[0, 0, 0]	n/a	FR1	1	R1436J
971.934	0.0	1007906	ENCODING_END	n/a	n/a	n/a	-999	9	[0, 0, 0]	n/a	FR1	1	R1436J
971.934	3.632	1007906	DISTRACT_START	n/a	n/a	n/a	-999	9	[0, 0, 0]	n/a	FR1	1	R1436J
975.566	3.267	1011536	PROB	3.267	n/a	n/a	-999	9	[2, 1, 2]	5	FR1	1	R1436J
978.833	3.299	1014803	PROB	3.299	n/a	n/a	-999	9	[2, 4, 6]	12	FR1	1	R1436J
982.132	3.017	1018102	PROB	3.017	n/a	n/a	-999	9	[2, 5, 5]	12	FR1	1	R1436J
985.149	3.867	1021119	PROB	3.867	n/a	n/a	-999	9	[4, 1, 3]	8	FR1	1	R1436J
989.016	3.799	1024986	PROB	3.799	n/a	n/a	-999	9	[8, 7, 7]	22	FR1	1	R1436J
992.815	0.0	1028785	STOP	n/a	n/a	n/a	-999	9	[-999, -999, -999]	n/a	FR1	1	R1436J
992.815	2.084	1028790	DISTRACT_END	n/a	n/a	n/a	-999	9	[0, 0, 0]	n/a	FR1	1	R1436J
994.899	1.004	1030869	REC_START	n/a	n/a	n/a	-999	9	[0, 0, 0]	n/a	FR1	1	R1436J
995.903	4.551	1031873	REC_WORD	4.551	n/a	LINT	1	9	[0, 0, 0]	n/a	FR1	1	R1436J
1000.454	3.895	1036423	REC_WORD	3.895	n/a	MOUSE	4	9	[0, 0, 0]	n/a	FR1	1	R1436J
1004.349	8.665	1040318	REC_WORD_VV	8.665	n/a	<>	-999	9	[0, 0, 0]	n/a	FR1	1	R1436J
1013.014	12.127	1048983	REC_WORD_VV	12.127	n/a	<>	-999	9	[0, 0, 0]	n/a	FR1	1	R1436J
1025.141	2.325	1061108	REC_END	n/a	n/a	n/a	-999	9	[0, 0, 0]	n/a	FR1	1	R1436J
1027.466	10.368	1063440	COUNTDOWN_START	n/a	n/a	n/a	-999	10	[0, 0, 0]	n/a	FR1	1	R1436J
1037.834	0.0	1073804	COUNTDOWN_END	n/a	n/a	n/a	-999	10	[0, 0, 0]	n/a	FR1	1	R1436J
1037.834	1.916	1073804	ENCODING_START	n/a	n/a	n/a	-999	10	[0, 0, 0]	n/a	FR1	1	R1436J
1039.75	1.616	1075718	WORD	n/a	wordpools/wordpool_long_EN.txt	SPHINX	1	10	[0, 0, 0]	n/a	FR1	1	R1436J
1041.366	0.934	1077337	WORD_OFF	n/a	n/a	SPHINX	1	10	[0, 0, 0]	n/a	FR1	1	R1436J
1042.3	1.616	1078268	WORD	n/a	wordpools/wordpool_long_EN.txt	STAR	2	10	[0, 0, 0]	n/a	FR1	1	R1436J
1043.916	0.85	1079887	WORD_OFF	n/a	n/a	STAR	2	10	[0, 0, 0]	n/a	FR1	1	R1436J
1044.766	1.617	1080739	WORD	n/a	wordpools/wordpool_long_EN.txt	LEAF	3	10	[0, 0, 0]	n/a	FR1	1	R1436J
1046.383	0.917	1082349	WORD_OFF	n/a	n/a	LEAF	3	10	[0, 0, 0]	n/a	FR1	1	R1436J
1047.3	1.615	1083272	WORD	n/a	wordpools/wordpool_long_EN.txt	COD	4	10	[0, 0, 0]	n/a	FR1	1	R1436J
1048.915	0.834	1084881	WORD_OFF	n/a	n/a	COD	4	10	[0, 0, 0]	n/a	FR1	1	R1436J
1049.749	1.601	1085717	WORD	n/a	wordpools/wordpool_long_EN.txt	MULE	5	10	[0, 0, 0]	n/a	FR1	1	R1436J
1051.35	0.982	1087318	WORD_OFF	n/a	n/a	MULE	5	10	[0, 0, 0]	n/a	FR1	1	R1436J
1052.332	1.601	1088301	WORD	n/a	wordpools/wordpool_long_EN.txt	WIFE	6	10	[0, 0, 0]	n/a	FR1	1	R1436J
1053.933	0.766	1089902	WORD_OFF	n/a	n/a	WIFE	6	10	[0, 0, 0]	n/a	FR1	1	R1436J
1054.699	1.6	1090668	WORD	n/a	wordpools/wordpool_long_EN.txt	RAT	7	10	[0, 0, 0]	n/a	FR1	1	R1436J
1056.299	0.867	1092269	WORD_OFF	n/a	n/a	RAT	7	10	[0, 0, 0]	n/a	FR1	1	R1436J
1057.166	1.617	1093139	WORD	n/a	wordpools/wordpool_long_EN.txt	CHIN	8	10	[0, 0, 0]	n/a	FR1	1	R1436J
1058.783	0.883	1094749	WORD_OFF	n/a	n/a	CHIN	8	10	[0, 0, 0]	n/a	FR1	1	R1436J
1059.666	1.6	1095637	WORD	n/a	wordpools/wordpool_long_EN.txt	CLOWN	9	10	[0, 0, 0]	n/a	FR1	1	R1436J
1061.266	0.916	1097238	WORD_OFF	n/a	n/a	CLOWN	9	10	[0, 0, 0]	n/a	FR1	1	R1436J
1062.182	1.617	1098152	WORD	n/a	wordpools/wordpool_long_EN.txt	ROOT	10	10	[0, 0, 0]	n/a	FR1	1	R1436J
1063.799	0.984	1099770	WORD_OFF	n/a	n/a	ROOT	10	10	[0, 0, 0]	n/a	FR1	1	R1436J
1064.783	1.6	1100753	WORD	n/a	wordpools/wordpool_long_EN.txt	GLOBE	11	10	[0, 0, 0]	n/a	FR1	1	R1436J
1066.383	0.883	1102355	WORD_OFF	n/a	n/a	GLOBE	11	10	[0, 0, 0]	n/a	FR1	1	R1436J
1067.266	1.6	1103233	WORD	n/a	wordpools/wordpool_long_EN.txt	LAND	12	10	[0, 0, 0]	n/a	FR1	1	R1436J
1068.866	0.002	1104832	PROB	0.002	n/a	n/a	-999	10	[6, 4, 1]	11	FR1	1	R1436J
1068.868	0.0	1104834	START	n/a	n/a	n/a	-999	10	[-999, -999, -999]	n/a	FR1	1	R1436J
1068.866	0.002	1104835	WORD_OFF	n/a	n/a	LAND	12	10	[0, 0, 0]	n/a	FR1	1	R1436J
1068.868	0.0	1104835	ENCODING_END	n/a	n/a	n/a	-999	10	[0, 0, 0]	n/a	FR1	1	R1436J
1068.868	3.198	1104835	DISTRACT_START	n/a	n/a	n/a	-999	10	[0, 0, 0]	n/a	FR1	1	R1436J
1072.066	2.917	1108032	PROB	2.917	n/a	n/a	-999	10	[8, 2, 1]	11	FR1	1	R1436J
1074.983	4.401	1110949	PROB	4.401	n/a	n/a	-999	10	[4, 2, 7]	13	FR1	1	R1436J
1079.384	3.616	1115350	PROB	3.616	n/a	n/a	-999	10	[1, 8, 3]	12	FR1	1	R1436J
1083.0	4.583	1118966	PROB	4.583	n/a	n/a	-999	10	[8, 4, 5]	17	FR1	1	R1436J
1087.583	4.216	1123549	PROB	4.216	n/a	n/a	-999	10	[5, 6, 1]	12	FR1	1	R1436J
1091.799	0.0	1127764	DISTRACT_END	n/a	n/a	n/a	-999	10	[0, 0, 0]	n/a	FR1	1	R1436J
1091.799	2.267	1127764	STOP	n/a	n/a	n/a	-999	10	[-999, -999, -999]	n/a	FR1	1	R1436J
1094.066	1.275	1130034	REC_START	n/a	n/a	n/a	-999	10	[0, 0, 0]	n/a	FR1	1	R1436J
1095.341	3.31	1131306	REC_WORD	3.31	n/a	SPHINX	1	10	[0, 0, 0]	n/a	FR1	1	R1436J
1098.651	0.705	1134616	REC_WORD_VV	0.705	n/a	<>	-999	10	[0, 0, 0]	n/a	FR1	1	R1436J
1099.356	3.885	1135321	REC_WORD	3.885	n/a	SPIN	-999	10	[0, 0, 0]	n/a	FR1	1	R1436J
1103.241	16.392	1139206	REC_WORD_VV	16.392	n/a	<>	-999	10	[0, 0, 0]	n/a	FR1	1	R1436J
1119.633	4.697	1155597	REC_WORD_VV	4.697	n/a	<>	-999	10	[0, 0, 0]	n/a	FR1	1	R1436J
1124.33	2.07	1160299	REC_END	n/a	n/a	n/a	-999	10	[0, 0, 0]	n/a	FR1	1	R1436J
1126.4	10.368	1162370	COUNTDOWN_START	n/a	n/a	n/a	-999	11	[0, 0, 0]	n/a	FR1	1	R1436J
1136.768	0.0	1172734	COUNTDOWN_END	n/a	n/a	n/a	-999	11	[0, 0, 0]	n/a	FR1	1	R1436J
1136.768	1.897	1172734	ENCODING_START	n/a	n/a	n/a	-999	11	[0, 0, 0]	n/a	FR1	1	R1436J
1138.665	1.601	1174631	WORD	n/a	wordpools/wordpool_long_EN.txt	MARSH	1	11	[0, 0, 0]	n/a	FR1	1	R1436J
1140.266	0.867	1176232	WORD_OFF	n/a	n/a	MARSH	1	11	[0, 0, 0]	n/a	FR1	1	R1436J
1141.133	1.616	1177103	WORD	n/a	wordpools/wordpool_long_EN.txt	CLOTH	2	11	[0, 0, 0]	n/a	FR1	1	R1436J
1142.749	0.884	1178712	WORD_OFF	n/a	n/a	CLOTH	2	11	[0, 0, 0]	n/a	FR1	1	R1436J
1143.633	1.616	1179600	WORD	n/a	wordpools/wordpool_long_EN.txt	HAZE	3	11	[0, 0, 0]	n/a	FR1	1	R1436J
1145.249	0.85	1181218	WORD_OFF	n/a	n/a	HAZE	3	11	[0, 0, 0]	n/a	FR1	1	R1436J
1146.099	1.601	1182063	WORD	n/a	wordpools/wordpool_long_EN.txt	STEAM	4	11	[0, 0, 0]	n/a	FR1	1	R1436J
1147.7	0.783	1183664	WORD_OFF	n/a	n/a	STEAM	4	11	[0, 0, 0]	n/a	FR1	1	R1436J
1148.483	1.6	1184447	WORD	n/a	wordpools/wordpool_long_EN.txt	CRANE	5	11	[0, 0, 0]	n/a	FR1	1	R1436J
1150.083	0.966	1186048	WORD_OFF	n/a	n/a	CRANE	5	11	[0, 0, 0]	n/a	FR1	1	R1436J
1151.049	1.617	1187014	WORD	n/a	wordpools/wordpool_long_EN.txt	BEAST	6	11	[0, 0, 0]	n/a	FR1	1	R1436J
1152.666	0.9	1188632	WORD_OFF	n/a	n/a	BEAST	6	11	[0, 0, 0]	n/a	FR1	1	R1436J
1153.566	1.6	1189529	WORD	n/a	wordpools/wordpool_long_EN.txt	PLATE	7	11	[0, 0, 0]	n/a	FR1	1	R1436J
1155.166	0.767	1191130	WORD_OFF	n/a	n/a	PLATE	7	11	[0, 0, 0]	n/a	FR1	1	R1436J
1155.933	1.6	1191896	WORD	n/a	wordpools/wordpool_long_EN.txt	PEA	8	11	[0, 0, 0]	n/a	FR1	1	R1436J
1157.533	0.817	1193497	WORD_OFF	n/a	n/a	PEA	8	11	[0, 0, 0]	n/a	FR1	1	R1436J
1158.35	1.6	1194315	WORD	n/a	wordpools/wordpool_long_EN.txt	DIME	9	11	[0, 0, 0]	n/a	FR1	1	R1436J
1159.95	0.783	1195916	WORD_OFF	n/a	n/a	DIME	9	11	[0, 0, 0]	n/a	FR1	1	R1436J
1160.733	1.617	1196699	WORD	n/a	wordpools/wordpool_long_EN.txt	QUAIL	10	11	[0, 0, 0]	n/a	FR1	1	R1436J
1162.35	0.783	1198317	WORD_OFF	n/a	n/a	QUAIL	10	11	[0, 0, 0]	n/a	FR1	1	R1436J
1163.133	1.6	1199101	WORD	n/a	wordpools/wordpool_long_EN.txt	WEED	11	11	[0, 0, 0]	n/a	FR1	1	R1436J
1164.733	0.816	1200702	WORD_OFF	n/a	n/a	WEED	11	11	[0, 0, 0]	n/a	FR1	1	R1436J
1165.549	1.6	1201511	WORD	n/a	wordpools/wordpool_long_EN.txt	INK	12	11	[0, 0, 0]	n/a	FR1	1	R1436J
1167.149	0.002	1203112	WORD_OFF	n/a	n/a	INK	12	11	[0, 0, 0]	n/a	FR1	1	R1436J
1167.151	0.0	1203112	ENCODING_END	n/a	n/a	n/a	-999	11	[0, 0, 0]	n/a	FR1	1	R1436J
1167.15	0.001	1203112	PROB	0.001	n/a	n/a	-999	11	[6, 1, 3]	10	FR1	1	R1436J
1167.151	0.0	1203113	START	n/a	n/a	n/a	-999	11	[-999, -999, -999]	n/a	FR1	1	R1436J
1167.151	7.032	1203121	DISTRACT_START	n/a	n/a	n/a	-999	11	[0, 0, 0]	n/a	FR1	1	R1436J
1174.183	4.816	1210145	PROB	4.816	n/a	n/a	-999	11	[5, 7, 2]	14	FR1	1	R1436J
1178.999	6.167	1214961	PROB	6.167	n/a	n/a	-999	11	[3, 5, 3]	11	FR1	1	R1436J
1185.166	5.466	1221128	PROB	5.466	n/a	n/a	-999	11	[6, 6, 2]	12	FR1	1	R1436J
1190.632	0.0	1226593	STOP	n/a	n/a	n/a	-999	11	[-999, -999, -999]	n/a	FR1	1	R1436J
1190.632	2.4	1226598	DISTRACT_END	n/a	n/a	n/a	-999	11	[0, 0, 0]	n/a	FR1	1	R1436J
1193.032	0.5	1228999	REC_START	n/a	n/a	n/a	-999	11	[0, 0, 0]	n/a	FR1	1	R1436J
1193.532	2.461	1229493	REC_WORD_VV	2.461	n/a	<>	-999	11	[0, 0, 0]	n/a	FR1	1	R1436J
1195.993	3.0	1231954	REC_WORD	3.0	n/a	QUAIL	10	11	[0, 0, 0]	n/a	FR1	1	R1436J
1198.993	1.0	1234954	REC_WORD_VV	1.0	n/a	<>	-999	11	[0, 0, 0]	n/a	FR1	1	R1436J
1199.993	1.0	1235954	REC_WORD_VV	1.0	n/a	<>	-999	11	[0, 0, 0]	n/a	FR1	1	R1436J
1200.993	1.856	1236954	REC_WORD_VV	1.856	n/a	<>	-999	11	[0, 0, 0]	n/a	FR1	1	R1436J
1202.849	0.525	1238810	REC_WORD_VV	0.525	n/a	<>	-999	11	[0, 0, 0]	n/a	FR1	1	R1436J
1203.374	1.29	1239335	REC_WORD	1.29	n/a	MID	-999	11	[0, 0, 0]	n/a	FR1	1	R1436J
1204.664	2.995	1240625	REC_WORD_VV	2.995	n/a	<>	-999	11	[0, 0, 0]	n/a	FR1	1	R1436J
1207.659	1.0	1243620	REC_WORD_VV	1.0	n/a	<>	-999	11	[0, 0, 0]	n/a	FR1	1	R1436J
1208.659	1.0	1244620	REC_WORD_VV	1.0	n/a	<>	-999	11	[0, 0, 0]	n/a	FR1	1	R1436J
1209.659	1.565	1245620	REC_WORD_VV	1.565	n/a	<>	-999	11	[0, 0, 0]	n/a	FR1	1	R1436J
1211.224	1.0	1247185	REC_WORD_VV	1.0	n/a	<>	-999	11	[0, 0, 0]	n/a	FR1	1	R1436J
1212.224	1.966	1248185	REC_WORD_VV	1.966	n/a	<>	-999	11	[0, 0, 0]	n/a	FR1	1	R1436J
1214.19	4.896	1250150	REC_WORD_VV	4.896	n/a	<>	-999	11	[0, 0, 0]	n/a	FR1	1	R1436J
1219.086	4.22	1255046	REC_WORD_VV	4.22	n/a	<>	-999	11	[0, 0, 0]	n/a	FR1	1	R1436J
1223.306	2.094	1259264	REC_END	n/a	n/a	n/a	-999	11	[0, 0, 0]	n/a	FR1	1	R1436J
1225.4	10.36	1261362	COUNTDOWN_START	n/a	n/a	n/a	-999	12	[0, 0, 0]	n/a	FR1	1	R1436J
1235.76	0.0	1271725	COUNTDOWN_END	n/a	n/a	n/a	-999	12	[0, 0, 0]	n/a	FR1	1	R1436J
1235.76	2.189	1271725	ENCODING_START	n/a	n/a	n/a	-999	12	[0, 0, 0]	n/a	FR1	1	R1436J
1237.949	1.6	1273910	WORD	n/a	wordpools/wordpool_long_EN.txt	DOCK	1	12	[0, 0, 0]	n/a	FR1	1	R1436J
1239.549	0.817	1275511	WORD_OFF	n/a	n/a	DOCK	1	12	[0, 0, 0]	n/a	FR1	1	R1436J
1240.366	1.6	1276329	WORD	n/a	wordpools/wordpool_long_EN.txt	ELF	2	12	[0, 0, 0]	n/a	FR1	1	R1436J
1241.966	0.917	1277930	WORD_OFF	n/a	n/a	ELF	2	12	[0, 0, 0]	n/a	FR1	1	R1436J
1242.883	1.616	1278843	WORD	n/a	wordpools/wordpool_long_EN.txt	SPEAR	3	12	[0, 0, 0]	n/a	FR1	1	R1436J
1244.499	0.833	1280462	WORD_OFF	n/a	n/a	SPEAR	3	12	[0, 0, 0]	n/a	FR1	1	R1436J
1245.332	1.6	1281297	WORD	n/a	wordpools/wordpool_long_EN.txt	POLE	4	12	[0, 0, 0]	n/a	FR1	1	R1436J
1246.932	0.784	1282890	WORD_OFF	n/a	n/a	POLE	4	12	[0, 0, 0]	n/a	FR1	1	R1436J
1247.716	1.616	1283682	WORD	n/a	wordpools/wordpool_long_EN.txt	BOWL	5	12	[0, 0, 0]	n/a	FR1	1	R1436J
1249.332	0.95	1285291	WORD_OFF	n/a	n/a	BOWL	5	12	[0, 0, 0]	n/a	FR1	1	R1436J
1250.282	1.617	1286240	WORD	n/a	wordpools/wordpool_long_EN.txt	CARD	6	12	[0, 0, 0]	n/a	FR1	1	R1436J
1251.899	1.0	1287858	WORD_OFF	n/a	n/a	CARD	6	12	[0, 0, 0]	n/a	FR1	1	R1436J
1252.899	1.601	1288859	WORD	n/a	wordpools/wordpool_long_EN.txt	SPACE	7	12	[0, 0, 0]	n/a	FR1	1	R1436J
1254.5	0.866	1290460	WORD_OFF	n/a	n/a	SPACE	7	12	[0, 0, 0]	n/a	FR1	1	R1436J
1255.366	1.616	1291330	WORD	n/a	wordpools/wordpool_long_EN.txt	GIFT	8	12	[0, 0, 0]	n/a	FR1	1	R1436J
1256.982	0.95	1292940	WORD_OFF	n/a	n/a	GIFT	8	12	[0, 0, 0]	n/a	FR1	1	R1436J
1257.932	1.6	1293897	WORD	n/a	wordpools/wordpool_long_EN.txt	LODGE	9	12	[0, 0, 0]	n/a	FR1	1	R1436J
1259.532	0.767	1295490	WORD_OFF	n/a	n/a	LODGE	9	12	[0, 0, 0]	n/a	FR1	1	R1436J
1260.299	1.617	1296264	WORD	n/a	wordpools/wordpool_long_EN.txt	SMILE	10	12	[0, 0, 0]	n/a	FR1	1	R1436J
1261.916	0.999	1297874	WORD_OFF	n/a	n/a	SMILE	10	12	[0, 0, 0]	n/a	FR1	1	R1436J
1262.915	1.601	1298875	WORD	n/a	wordpools/wordpool_long_EN.txt	CART	11	12	[0, 0, 0]	n/a	FR1	1	R1436J
1264.516	0.967	1300476	WORD_OFF	n/a	n/a	CART	11	12	[0, 0, 0]	n/a	FR1	1	R1436J
1265.483	1.616	1301442	WORD	n/a	wordpools/wordpool_long_EN.txt	STAIR	12	12	[0, 0, 0]	n/a	FR1	1	R1436J
1267.099	0.001	1303057	PROB	0.001	n/a	n/a	-999	12	[4, 8, 1]	13	FR1	1	R1436J
1267.1	0.0	1303058	START	n/a	n/a	n/a	-999	12	[-999, -999, -999]	n/a	FR1	1	R1436J
1267.099	0.001	1303060	WORD_OFF	n/a	n/a	STAIR	12	12	[0, 0, 0]	n/a	FR1	1	R1436J
1267.1	0.0	1303060	ENCODING_END	n/a	n/a	n/a	-999	12	[0, 0, 0]	n/a	FR1	1	R1436J
1267.1	3.733	1303060	DISTRACT_START	n/a	n/a	n/a	-999	12	[0, 0, 0]	n/a	FR1	1	R1436J
1270.833	3.083	1306791	PROB	3.083	n/a	n/a	-999	12	[8, 4, 2]	14	FR1	1	R1436J
1273.916	2.9	1309874	PROB	2.9	n/a	n/a	-999	12	[3, 7, 4]	14	FR1	1	R1436J
1276.816	2.65	1312774	PROB	2.65	n/a	n/a	-999	12	[4, 3, 5]	12	FR1	1	R1436J
1279.466	2.516	1315424	PROB	2.516	n/a	n/a	-999	12	[4, 4, 1]	9	FR1	1	R1436J
1281.982	2.534	1317940	PROB	2.534	n/a	n/a	-999	12	[5, 3, 1]	9	FR1	1	R1436J
1284.516	4.683	1320473	PROB	4.683	n/a	n/a	-999	12	[5, 8, 5]	18	FR1	1	R1436J
1289.199	0.0	1325154	DISTRACT_END	n/a	n/a	n/a	-999	12	[0, 0, 0]	n/a	FR1	1	R1436J
1289.199	2.4	1325156	STOP	n/a	n/a	n/a	-999	12	[-999, -999, -999]	n/a	FR1	1	R1436J
1291.599	1.085	1327555	REC_START	n/a	n/a	n/a	-999	12	[0, 0, 0]	n/a	FR1	1	R1436J
1292.684	3.58	1328641	REC_WORD	3.58	n/a	STAIR	12	12	[0, 0, 0]	n/a	FR1	1	R1436J
1296.264	2.395	1332221	REC_WORD_VV	2.395	n/a	<>	-999	12	[0, 0, 0]	n/a	FR1	1	R1436J
1298.659	2.265	1334616	REC_WORD	2.265	n/a	DESK	-999	12	[0, 0, 0]	n/a	FR1	1	R1436J
1300.924	1.015	1336881	REC_WORD_VV	1.015	n/a	<>	-999	12	[0, 0, 0]	n/a	FR1	1	R1436J
1301.939	3.267	1337896	REC_WORD	3.267	n/a	ELF	2	12	[0, 0, 0]	n/a	FR1	1	R1436J
1305.206	16.657	1341163	REC_WORD_VV	16.657	n/a	<>	-999	12	[0, 0, 0]	n/a	FR1	1	R1436J
1321.863	0.0	1357820	REC_END	n/a	n/a	n/a	-999	12	[0, 0, 0]	n/a	FR1	1	R1436J
