onset	duration	sample	trial_type	response_time	stim_file	item_name	serialpos	list	test	answer	experiment	session	subject
0.0	3.716	108595	INSTRUCT_START	n/a	n/a	n/a	-999	-999	[0, 0, 0]	n/a	FR1	3	R1395M
3.716	23.782	112311	INSTRUCT_END	n/a	n/a	n/a	-999	-999	[0, 0, 0]	n/a	FR1	3	R1395M
27.498	10.351	136091	COUNTDOWN_START	n/a	n/a	n/a	-999	-999	[0, 0, 0]	n/a	FR1	3	R1395M
37.849	0.001	146441	COUNTDOWN_END	n/a	n/a	n/a	-999	-999	[0, 0, 0]	n/a	FR1	3	R1395M
37.85	2.349	146450	ENCODING_START	n/a	n/a	n/a	-999	-1	[0, 0, 0]	n/a	FR1	3	R1395M
40.199	1.615	148790	WORD	n/a	n/a	MULE	1	-1	[0, 0, 0]	n/a	FR1	3	R1395M
41.814	0.985	150409	WORD_OFF	n/a	n/a	MULE	1	-1	[0, 0, 0]	n/a	FR1	3	R1395M
42.799	1.616	151392	WORD	n/a	n/a	THREAD	2	-1	[0, 0, 0]	n/a	FR1	3	R1395M
44.415	0.9	153011	WORD_OFF	n/a	n/a	THREAD	2	-1	[0, 0, 0]	n/a	FR1	3	R1395M
45.315	1.618	153909	WORD	n/a	n/a	STRAW	3	-1	[0, 0, 0]	n/a	FR1	3	R1395M
46.933	0.765	155528	WORD_OFF	n/a	n/a	STRAW	3	-1	[0, 0, 0]	n/a	FR1	3	R1395M
47.698	1.601	156296	WORD	n/a	n/a	SLEEVE	4	-1	[0, 0, 0]	n/a	FR1	3	R1395M
49.299	0.849	157896	WORD_OFF	n/a	n/a	SLEEVE	4	-1	[0, 0, 0]	n/a	FR1	3	R1395M
50.148	1.601	158748	WORD	n/a	n/a	SPRING	5	-1	[0, 0, 0]	n/a	FR1	3	R1395M
51.749	0.9	160338	WORD_OFF	n/a	n/a	SPRING	5	-1	[0, 0, 0]	n/a	FR1	3	R1395M
52.649	1.616	161246	WORD	n/a	n/a	LOFT	6	-1	[0, 0, 0]	n/a	FR1	3	R1395M
54.265	0.95	162856	WORD_OFF	n/a	n/a	LOFT	6	-1	[0, 0, 0]	n/a	FR1	3	R1395M
55.215	1.617	163810	WORD	n/a	n/a	RAFT	7	-1	[0, 0, 0]	n/a	FR1	3	R1395M
56.832	0.916	165429	WORD_OFF	n/a	n/a	RAFT	7	-1	[0, 0, 0]	n/a	FR1	3	R1395M
57.748	1.617	166337	WORD	n/a	n/a	MAP	8	-1	[0, 0, 0]	n/a	FR1	3	R1395M
59.365	0.816	167956	WORD_OFF	n/a	n/a	MAP	8	-1	[0, 0, 0]	n/a	FR1	3	R1395M
60.181	1.617	168770	WORD	n/a	n/a	DART	9	-1	[0, 0, 0]	n/a	FR1	3	R1395M
61.798	0.967	170389	WORD_OFF	n/a	n/a	DART	9	-1	[0, 0, 0]	n/a	FR1	3	R1395M
62.765	1.616	171363	WORD	n/a	n/a	BRUSH	10	-1	[0, 0, 0]	n/a	FR1	3	R1395M
64.381	0.867	172972	WORD_OFF	n/a	n/a	BRUSH	10	-1	[0, 0, 0]	n/a	FR1	3	R1395M
65.248	1.601	173843	WORD	n/a	n/a	STAR	11	-1	[0, 0, 0]	n/a	FR1	3	R1395M
66.849	0.916	175443	WORD_OFF	n/a	n/a	STAR	11	-1	[0, 0, 0]	n/a	FR1	3	R1395M
67.765	1.617	176360	WORD	n/a	n/a	COOK	12	-1	[0, 0, 0]	n/a	FR1	3	R1395M
69.382	0.001	177979	WORD_OFF	n/a	n/a	COOK	12	-1	[0, 0, 0]	n/a	FR1	3	R1395M
69.383	0.0	177979	DISTRACT_START	n/a	n/a	n/a	-999	-1	[0, 0, 0]	n/a	FR1	3	R1395M
69.383	0.0	177979	ENCODING_END	n/a	n/a	n/a	-999	-1	[0, 0, 0]	n/a	FR1	3	R1395M
69.383	0.001	177975	START	n/a	n/a	n/a	-999	-1	[-999, -999, -999]	n/a	FR1	3	R1395M
69.384	3.681	177976	PROB	3.681	n/a	n/a	-999	-1	[6, 7, 8]	21	FR1	3	R1395M
73.065	2.184	181657	PROB	2.184	n/a	n/a	-999	-1	[4, 1, 1]	6	FR1	3	R1395M
75.249	2.683	183841	PROB	2.683	n/a	n/a	-999	-1	[7, 2, 5]	14	FR1	3	R1395M
77.932	2.833	186524	PROB	2.833	n/a	n/a	-999	-1	[7, 7, 6]	20	FR1	3	R1395M
80.765	3.767	189357	PROB	3.767	n/a	n/a	-999	-1	[6, 2, 2]	10	FR1	3	R1395M
84.532	2.868	193123	PROB	2.868	n/a	n/a	-999	-1	[3, 4, 6]	13	FR1	3	R1395M
87.4	3.215	195991	PROB	3.215	n/a	n/a	-999	-1	[3, 2, 4]	9	FR1	3	R1395M
90.615	0.0	199204	DISTRACT_END	n/a	n/a	n/a	-999	-1	[0, 0, 0]	n/a	FR1	3	R1395M
90.615	1.084	199206	STOP	n/a	n/a	n/a	-999	-1	[-999, -999, -999]	n/a	FR1	3	R1395M
91.699	1.585	200290	REC_START	n/a	n/a	n/a	-999	-1	[0, 0, 0]	n/a	FR1	3	R1395M
93.284	1.316	201875	REC_WORD	1.316	n/a	SPRING	5	-1	[0, 0, 0]	n/a	FR1	3	R1395M
94.6	3.583	203191	REC_WORD	3.583	n/a	RAFT	7	-1	[0, 0, 0]	n/a	FR1	3	R1395M
98.183	24.755	206774	REC_WORD	24.755	n/a	LOFT	6	-1	[0, 0, 0]	n/a	FR1	3	R1395M
122.938	6.644	231528	REC_END	n/a	n/a	n/a	-999	-1	[0, 0, 0]	n/a	FR1	3	R1395M
129.582	10.35	238173	COUNTDOWN_START	n/a	n/a	n/a	-999	1	[0, 0, 0]	n/a	FR1	3	R1395M
139.932	0.0	248523	COUNTDOWN_END	n/a	n/a	n/a	-999	1	[0, 0, 0]	n/a	FR1	3	R1395M
139.932	2.099	248523	ENCODING_START	n/a	n/a	n/a	-999	1	[0, 0, 0]	n/a	FR1	3	R1395M
142.031	1.617	250620	WORD	n/a	wordpools/wordpool_long_EN.txt	HORN	1	1	[0, 0, 0]	n/a	FR1	3	R1395M
143.648	0.933	252239	WORD_OFF	n/a	n/a	HORN	1	1	[0, 0, 0]	n/a	FR1	3	R1395M
144.581	1.6	253175	WORD	n/a	wordpools/wordpool_long_EN.txt	ROCK	2	1	[0, 0, 0]	n/a	FR1	3	R1395M
146.181	0.9	254766	WORD_OFF	n/a	n/a	ROCK	2	1	[0, 0, 0]	n/a	FR1	3	R1395M
147.081	1.6	255673	WORD	n/a	wordpools/wordpool_long_EN.txt	HOOD	3	1	[0, 0, 0]	n/a	FR1	3	R1395M
148.681	0.8	257274	WORD_OFF	n/a	n/a	HOOD	3	1	[0, 0, 0]	n/a	FR1	3	R1395M
149.481	1.6	258069	WORD	n/a	wordpools/wordpool_long_EN.txt	MAZE	4	1	[0, 0, 0]	n/a	FR1	3	R1395M
151.081	0.934	259669	WORD_OFF	n/a	n/a	MAZE	4	1	[0, 0, 0]	n/a	FR1	3	R1395M
152.015	1.616	260605	WORD	n/a	wordpools/wordpool_long_EN.txt	PEARL	5	1	[0, 0, 0]	n/a	FR1	3	R1395M
153.631	0.917	262224	WORD_OFF	n/a	n/a	PEARL	5	1	[0, 0, 0]	n/a	FR1	3	R1395M
154.548	1.6	263132	WORD	n/a	wordpools/wordpool_long_EN.txt	CLIFF	6	1	[0, 0, 0]	n/a	FR1	3	R1395M
156.148	0.983	264732	WORD_OFF	n/a	n/a	CLIFF	6	1	[0, 0, 0]	n/a	FR1	3	R1395M
157.131	1.617	265724	WORD	n/a	wordpools/wordpool_long_EN.txt	WORLD	7	1	[0, 0, 0]	n/a	FR1	3	R1395M
158.748	0.95	267334	WORD_OFF	n/a	n/a	WORLD	7	1	[0, 0, 0]	n/a	FR1	3	R1395M
159.698	1.6	268289	WORD	n/a	wordpools/wordpool_long_EN.txt	CHILD	8	1	[0, 0, 0]	n/a	FR1	3	R1395M
161.298	0.817	269889	WORD_OFF	n/a	n/a	CHILD	8	1	[0, 0, 0]	n/a	FR1	3	R1395M
162.115	1.6	270703	WORD	n/a	wordpools/wordpool_long_EN.txt	TANK	9	1	[0, 0, 0]	n/a	FR1	3	R1395M
163.715	0.917	272303	WORD_OFF	n/a	n/a	TANK	9	1	[0, 0, 0]	n/a	FR1	3	R1395M
164.632	1.616	273220	WORD	n/a	wordpools/wordpool_long_EN.txt	BOMB	10	1	[0, 0, 0]	n/a	FR1	3	R1395M
166.248	0.834	274840	WORD_OFF	n/a	n/a	BOMB	10	1	[0, 0, 0]	n/a	FR1	3	R1395M
167.082	1.617	275672	WORD	n/a	wordpools/wordpool_long_EN.txt	PALM	11	1	[0, 0, 0]	n/a	FR1	3	R1395M
168.699	0.8	277282	WORD_OFF	n/a	n/a	PALM	11	1	[0, 0, 0]	n/a	FR1	3	R1395M
169.499	1.601	278087	WORD	n/a	wordpools/wordpool_long_EN.txt	GOAL	12	1	[0, 0, 0]	n/a	FR1	3	R1395M
171.1	0.0	279687	WORD_OFF	n/a	n/a	GOAL	12	1	[0, 0, 0]	n/a	FR1	3	R1395M
171.1	0.001	279687	PROB	0.001	n/a	n/a	-999	1	[1, 8, 7]	16	FR1	3	R1395M
171.101	0.0	279687	DISTRACT_START	n/a	n/a	n/a	-999	1	[0, 0, 0]	n/a	FR1	3	R1395M
171.101	0.0	279687	ENCODING_END	n/a	n/a	n/a	-999	1	[0, 0, 0]	n/a	FR1	3	R1395M
171.101	3.58	279688	START	n/a	n/a	n/a	-999	1	[-999, -999, -999]	n/a	FR1	3	R1395M
174.681	2.785	283268	PROB	2.785	n/a	n/a	-999	1	[5, 7, 3]	15	FR1	3	R1395M
177.466	2.516	286052	PROB	2.516	n/a	n/a	-999	1	[5, 1, 5]	11	FR1	3	R1395M
179.982	2.434	288568	PROB	2.434	n/a	n/a	-999	1	[8, 5, 3]	16	FR1	3	R1395M
182.416	3.2	291002	PROB	3.2	n/a	n/a	-999	1	[7, 2, 4]	13	FR1	3	R1395M
185.616	2.233	294202	PROB	2.233	n/a	n/a	-999	1	[3, 3, 1]	7	FR1	3	R1395M
187.849	3.866	296435	PROB	3.866	n/a	n/a	-999	1	[6, 4, 4]	14	FR1	3	R1395M
191.715	0.0	300304	DISTRACT_END	n/a	n/a	n/a	-999	1	[0, 0, 0]	n/a	FR1	3	R1395M
191.715	1.167	300301	STOP	n/a	n/a	n/a	-999	1	[-999, -999, -999]	n/a	FR1	3	R1395M
192.882	1.263	301464	REC_START	n/a	n/a	n/a	-999	1	[0, 0, 0]	n/a	FR1	3	R1395M
194.145	1.766	302730	REC_WORD	1.766	n/a	PEARL	5	1	[0, 0, 0]	n/a	FR1	3	R1395M
195.911	2.226	304496	REC_WORD	2.226	n/a	MAZE	4	1	[0, 0, 0]	n/a	FR1	3	R1395M
198.137	2.032	306722	REC_WORD	2.032	n/a	CLIFF	6	1	[0, 0, 0]	n/a	FR1	3	R1395M
200.169	2.075	308754	REC_WORD	2.075	n/a	CHILD	8	1	[0, 0, 0]	n/a	FR1	3	R1395M
202.244	2.216	310829	REC_WORD	2.216	n/a	TANK	9	1	[0, 0, 0]	n/a	FR1	3	R1395M
204.46	19.652	313045	REC_WORD	19.652	n/a	BOMB	10	1	[0, 0, 0]	n/a	FR1	3	R1395M
224.112	9.253	332694	REC_END	n/a	n/a	n/a	-999	1	[0, 0, 0]	n/a	FR1	3	R1395M
233.365	10.35	341949	COUNTDOWN_START	n/a	n/a	n/a	-999	1	[0, 0, 0]	n/a	FR1	3	R1395M
243.715	0.001	352300	COUNTDOWN_END	n/a	n/a	n/a	-999	1	[0, 0, 0]	n/a	FR1	3	R1395M
243.716	2.165	352300	ENCODING_START	n/a	n/a	n/a	-999	2	[0, 0, 0]	n/a	FR1	3	R1395M
245.881	1.617	354462	WORD	n/a	wordpools/wordpool_long_EN.txt	SKUNK	1	2	[0, 0, 0]	n/a	FR1	3	R1395M
247.498	1.0	356081	WORD_OFF	n/a	n/a	SKUNK	1	2	[0, 0, 0]	n/a	FR1	3	R1395M
248.498	1.617	357082	WORD	n/a	wordpools/wordpool_long_EN.txt	ROPE	2	2	[0, 0, 0]	n/a	FR1	3	R1395M
250.115	0.966	358701	WORD_OFF	n/a	n/a	ROPE	2	2	[0, 0, 0]	n/a	FR1	3	R1395M
251.081	1.617	359665	WORD	n/a	wordpools/wordpool_long_EN.txt	RAIL	3	2	[0, 0, 0]	n/a	FR1	3	R1395M
252.698	0.833	361284	WORD_OFF	n/a	n/a	RAIL	3	2	[0, 0, 0]	n/a	FR1	3	R1395M
253.531	1.617	362117	WORD	n/a	wordpools/wordpool_long_EN.txt	TOY	4	2	[0, 0, 0]	n/a	FR1	3	R1395M
255.148	0.9	363736	WORD_OFF	n/a	n/a	TOY	4	2	[0, 0, 0]	n/a	FR1	3	R1395M
256.048	1.616	364634	WORD	n/a	wordpools/wordpool_long_EN.txt	KITE	5	2	[0, 0, 0]	n/a	FR1	3	R1395M
257.664	0.834	366244	WORD_OFF	n/a	n/a	KITE	5	2	[0, 0, 0]	n/a	FR1	3	R1395M
258.498	1.6	367077	WORD	n/a	wordpools/wordpool_long_EN.txt	POLE	6	2	[0, 0, 0]	n/a	FR1	3	R1395M
260.098	0.867	368686	WORD_OFF	n/a	n/a	POLE	6	2	[0, 0, 0]	n/a	FR1	3	R1395M
260.965	1.616	369547	WORD	n/a	wordpools/wordpool_long_EN.txt	BROOK	7	2	[0, 0, 0]	n/a	FR1	3	R1395M
262.581	0.933	371166	WORD_OFF	n/a	n/a	BROOK	7	2	[0, 0, 0]	n/a	FR1	3	R1395M
263.514	1.618	372093	WORD	n/a	wordpools/wordpool_long_EN.txt	PERCH	8	2	[0, 0, 0]	n/a	FR1	3	R1395M
265.132	0.849	373712	WORD_OFF	n/a	n/a	PERCH	8	2	[0, 0, 0]	n/a	FR1	3	R1395M
265.981	1.601	374564	WORD	n/a	wordpools/wordpool_long_EN.txt	SWAMP	9	2	[0, 0, 0]	n/a	FR1	3	R1395M
267.582	0.933	376164	WORD_OFF	n/a	n/a	SWAMP	9	2	[0, 0, 0]	n/a	FR1	3	R1395M
268.515	1.6	377100	WORD	n/a	wordpools/wordpool_long_EN.txt	STORE	10	2	[0, 0, 0]	n/a	FR1	3	R1395M
270.115	0.834	378700	WORD_OFF	n/a	n/a	STORE	10	2	[0, 0, 0]	n/a	FR1	3	R1395M
270.949	1.6	379533	WORD	n/a	wordpools/wordpool_long_EN.txt	RIB	11	2	[0, 0, 0]	n/a	FR1	3	R1395M
272.549	0.9	381133	WORD_OFF	n/a	n/a	RIB	11	2	[0, 0, 0]	n/a	FR1	3	R1395M
273.449	1.6	382032	WORD	n/a	wordpools/wordpool_long_EN.txt	BOY	12	2	[0, 0, 0]	n/a	FR1	3	R1395M
275.049	0.001	383632	WORD_OFF	n/a	n/a	BOY	12	2	[0, 0, 0]	n/a	FR1	3	R1395M
275.05	0.001	383631	PROB	0.001	n/a	n/a	-999	2	[3, 2, 6]	11	FR1	3	R1395M
275.051	0.0	383632	DISTRACT_START	n/a	n/a	n/a	-999	2	[0, 0, 0]	n/a	FR1	3	R1395M
275.051	0.0	383632	ENCODING_END	n/a	n/a	n/a	-999	2	[0, 0, 0]	n/a	FR1	3	R1395M
275.051	3.915	383632	START	n/a	n/a	n/a	-999	2	[-999, -999, -999]	n/a	FR1	3	R1395M
278.966	3.366	387547	PROB	3.366	n/a	n/a	-999	2	[8, 5, 2]	15	FR1	3	R1395M
282.332	2.9	390913	PROB	2.9	n/a	n/a	-999	2	[5, 1, 7]	13	FR1	3	R1395M
285.232	2.9	393813	PROB	2.9	n/a	n/a	-999	2	[7, 2, 3]	12	FR1	3	R1395M
288.132	2.701	396712	PROB	2.701	n/a	n/a	-999	2	[1, 5, 4]	10	FR1	3	R1395M
290.833	2.816	399413	PROB	2.816	n/a	n/a	-999	2	[4, 2, 3]	9	FR1	3	R1395M
293.649	2.883	402229	PROB	2.883	n/a	n/a	-999	2	[3, 6, 7]	16	FR1	3	R1395M
296.532	0.0	405110	DISTRACT_END	n/a	n/a	n/a	-999	2	[0, 0, 0]	n/a	FR1	3	R1395M
296.532	1.317	405112	STOP	n/a	n/a	n/a	-999	2	[-999, -999, -999]	n/a	FR1	3	R1395M
297.849	1.371	406429	REC_START	n/a	n/a	n/a	-999	2	[0, 0, 0]	n/a	FR1	3	R1395M
299.22	2.078	407800	REC_WORD	2.078	n/a	TOY	4	2	[0, 0, 0]	n/a	FR1	3	R1395M
301.298	2.063	409878	REC_WORD	2.063	n/a	RAIL	3	2	[0, 0, 0]	n/a	FR1	3	R1395M
303.361	2.227	411941	REC_WORD	2.227	n/a	KITE	5	2	[0, 0, 0]	n/a	FR1	3	R1395M
305.588	3.058	414167	REC_WORD	3.058	n/a	STORE	10	2	[0, 0, 0]	n/a	FR1	3	R1395M
308.646	12.599	417225	REC_WORD	12.599	n/a	PERCH	8	2	[0, 0, 0]	n/a	FR1	3	R1395M
321.245	7.83	429824	REC_WORD	7.83	n/a	ROPE	2	2	[0, 0, 0]	n/a	FR1	3	R1395M
329.075	8.69	437658	REC_END	n/a	n/a	n/a	-999	2	[0, 0, 0]	n/a	FR1	3	R1395M
337.765	10.35	446343	COUNTDOWN_START	n/a	n/a	n/a	-999	2	[0, 0, 0]	n/a	FR1	3	R1395M
348.115	0.0	456694	COUNTDOWN_END	n/a	n/a	n/a	-999	2	[0, 0, 0]	n/a	FR1	3	R1395M
348.115	2.116	456694	ENCODING_START	n/a	n/a	n/a	-999	3	[0, 0, 0]	n/a	FR1	3	R1395M
350.231	1.617	458809	WORD	n/a	wordpools/wordpool_long_EN.txt	TWIG	1	3	[0, 0, 0]	n/a	FR1	3	R1395M
351.848	0.85	460428	WORD_OFF	n/a	n/a	TWIG	1	3	[0, 0, 0]	n/a	FR1	3	R1395M
352.698	1.616	461279	WORD	n/a	wordpools/wordpool_long_EN.txt	MUG	2	3	[0, 0, 0]	n/a	FR1	3	R1395M
354.314	1.001	462889	WORD_OFF	n/a	n/a	MUG	2	3	[0, 0, 0]	n/a	FR1	3	R1395M
355.315	1.6	463890	WORD	n/a	wordpools/wordpool_long_EN.txt	COIN	3	3	[0, 0, 0]	n/a	FR1	3	R1395M
356.915	0.883	465491	WORD_OFF	n/a	n/a	COIN	3	3	[0, 0, 0]	n/a	FR1	3	R1395M
357.798	1.6	466380	WORD	n/a	wordpools/wordpool_long_EN.txt	CHEST	4	3	[0, 0, 0]	n/a	FR1	3	R1395M
359.398	0.933	467980	WORD_OFF	n/a	n/a	CHEST	4	3	[0, 0, 0]	n/a	FR1	3	R1395M
360.331	1.617	468906	WORD	n/a	wordpools/wordpool_long_EN.txt	SOCK	5	3	[0, 0, 0]	n/a	FR1	3	R1395M
361.948	0.766	470525	WORD_OFF	n/a	n/a	SOCK	5	3	[0, 0, 0]	n/a	FR1	3	R1395M
362.714	1.617	471293	WORD	n/a	wordpools/wordpool_long_EN.txt	BOWL	6	3	[0, 0, 0]	n/a	FR1	3	R1395M
364.331	0.767	472912	WORD_OFF	n/a	n/a	BOWL	6	3	[0, 0, 0]	n/a	FR1	3	R1395M
365.098	1.6	473679	WORD	n/a	wordpools/wordpool_long_EN.txt	GROUND	7	3	[0, 0, 0]	n/a	FR1	3	R1395M
366.698	0.833	475270	WORD_OFF	n/a	n/a	GROUND	7	3	[0, 0, 0]	n/a	FR1	3	R1395M
367.531	1.601	476112	WORD	n/a	wordpools/wordpool_long_EN.txt	WHEEL	8	3	[0, 0, 0]	n/a	FR1	3	R1395M
369.132	0.983	477713	WORD_OFF	n/a	n/a	WHEEL	8	3	[0, 0, 0]	n/a	FR1	3	R1395M
370.115	1.6	478695	WORD	n/a	wordpools/wordpool_long_EN.txt	GLOBE	9	3	[0, 0, 0]	n/a	FR1	3	R1395M
371.715	0.917	480296	WORD_OFF	n/a	n/a	GLOBE	9	3	[0, 0, 0]	n/a	FR1	3	R1395M
372.632	1.6	481213	WORD	n/a	wordpools/wordpool_long_EN.txt	CRANE	10	3	[0, 0, 0]	n/a	FR1	3	R1395M
374.232	0.8	482813	WORD_OFF	n/a	n/a	CRANE	10	3	[0, 0, 0]	n/a	FR1	3	R1395M
375.032	1.601	483609	WORD	n/a	wordpools/wordpool_long_EN.txt	POND	11	3	[0, 0, 0]	n/a	FR1	3	R1395M
376.633	1.0	485209	WORD_OFF	n/a	n/a	POND	11	3	[0, 0, 0]	n/a	FR1	3	R1395M
377.633	1.615	486210	WORD	n/a	wordpools/wordpool_long_EN.txt	MOUSE	12	3	[0, 0, 0]	n/a	FR1	3	R1395M
379.248	0.0	487820	WORD_OFF	n/a	n/a	MOUSE	12	3	[0, 0, 0]	n/a	FR1	3	R1395M
379.248	0.001	487823	PROB	0.001	n/a	n/a	-999	3	[8, 6, 1]	15	FR1	3	R1395M
379.249	0.0	487829	DISTRACT_START	n/a	n/a	n/a	-999	3	[0, 0, 0]	n/a	FR1	3	R1395M
379.249	0.0	487829	ENCODING_END	n/a	n/a	n/a	-999	3	[0, 0, 0]	n/a	FR1	3	R1395M
379.249	3.75	487824	START	n/a	n/a	n/a	-999	3	[-999, -999, -999]	n/a	FR1	3	R1395M
382.999	3.4	491574	PROB	3.4	n/a	n/a	-999	3	[7, 4, 2]	13	FR1	3	R1395M
386.399	2.434	494974	PROB	2.434	n/a	n/a	-999	3	[4, 1, 6]	11	FR1	3	R1395M
388.833	3.25	497408	PROB	3.25	n/a	n/a	-999	3	[4, 6, 5]	15	FR1	3	R1395M
392.083	2.683	500658	PROB	2.683	n/a	n/a	-999	3	[7, 8, 3]	18	FR1	3	R1395M
394.766	3.084	503341	PROB	3.084	n/a	n/a	-999	3	[5, 7, 6]	18	FR1	3	R1395M
397.85	2.115	506424	PROB	2.115	n/a	n/a	-999	3	[1, 5, 5]	11	FR1	3	R1395M
399.965	0.0	508540	DISTRACT_END	n/a	n/a	n/a	-999	3	[0, 0, 0]	n/a	FR1	3	R1395M
399.965	1.184	508539	STOP	n/a	n/a	n/a	-999	3	[-999, -999, -999]	n/a	FR1	3	R1395M
401.149	2.225	509728	REC_START	n/a	n/a	n/a	-999	3	[0, 0, 0]	n/a	FR1	3	R1395M
403.374	2.043	511948	REC_WORD	2.043	n/a	COIN	3	3	[0, 0, 0]	n/a	FR1	3	R1395M
405.417	2.13	513991	REC_WORD	2.13	n/a	CHEST	4	3	[0, 0, 0]	n/a	FR1	3	R1395M
407.547	2.087	516121	REC_WORD	2.087	n/a	SOCK	5	3	[0, 0, 0]	n/a	FR1	3	R1395M
409.634	3.368	518208	REC_WORD	3.368	n/a	GLOBE	9	3	[0, 0, 0]	n/a	FR1	3	R1395M
413.002	2.02	521576	REC_WORD	2.02	n/a	BOWL	6	3	[0, 0, 0]	n/a	FR1	3	R1395M
415.022	13.29	523596	REC_WORD	13.29	n/a	MUG	2	3	[0, 0, 0]	n/a	FR1	3	R1395M
428.312	1.907	536885	REC_WORD	1.907	n/a	POND	11	3	[0, 0, 0]	n/a	FR1	3	R1395M
430.219	2.16	538792	REC_WORD	2.16	n/a	MOUSE	12	3	[0, 0, 0]	n/a	FR1	3	R1395M
432.379	9.136	540957	REC_END	n/a	n/a	n/a	-999	3	[0, 0, 0]	n/a	FR1	3	R1395M
441.515	10.35	550091	COUNTDOWN_START	n/a	n/a	n/a	-999	3	[0, 0, 0]	n/a	FR1	3	R1395M
451.865	0.001	560432	COUNTDOWN_END	n/a	n/a	n/a	-999	3	[0, 0, 0]	n/a	FR1	3	R1395M
451.866	2.365	560442	ENCODING_START	n/a	n/a	n/a	-999	4	[0, 0, 0]	n/a	FR1	3	R1395M
454.231	1.6	562800	WORD	n/a	wordpools/wordpool_long_EN.txt	CHEEK	1	4	[0, 0, 0]	n/a	FR1	3	R1395M
455.831	0.95	564400	WORD_OFF	n/a	n/a	CHEEK	1	4	[0, 0, 0]	n/a	FR1	3	R1395M
456.781	1.6	565355	WORD	n/a	wordpools/wordpool_long_EN.txt	PET	2	4	[0, 0, 0]	n/a	FR1	3	R1395M
458.381	0.85	566955	WORD_OFF	n/a	n/a	PET	2	4	[0, 0, 0]	n/a	FR1	3	R1395M
459.231	1.617	567807	WORD	n/a	wordpools/wordpool_long_EN.txt	GUARD	3	4	[0, 0, 0]	n/a	FR1	3	R1395M
460.848	0.816	569417	WORD_OFF	n/a	n/a	GUARD	3	4	[0, 0, 0]	n/a	FR1	3	R1395M
461.664	1.6	570240	WORD	n/a	wordpools/wordpool_long_EN.txt	SAIL	4	4	[0, 0, 0]	n/a	FR1	3	R1395M
463.264	0.884	571840	WORD_OFF	n/a	n/a	SAIL	4	4	[0, 0, 0]	n/a	FR1	3	R1395M
464.148	1.616	572720	WORD	n/a	wordpools/wordpool_long_EN.txt	TRAY	5	4	[0, 0, 0]	n/a	FR1	3	R1395M
465.764	0.817	574339	WORD_OFF	n/a	n/a	TRAY	5	4	[0, 0, 0]	n/a	FR1	3	R1395M
466.581	1.601	575153	WORD	n/a	wordpools/wordpool_long_EN.txt	FRIEND	6	4	[0, 0, 0]	n/a	FR1	3	R1395M
468.182	0.832	576754	WORD_OFF	n/a	n/a	FRIEND	6	4	[0, 0, 0]	n/a	FR1	3	R1395M
469.014	1.601	577586	WORD	n/a	wordpools/wordpool_long_EN.txt	YARN	7	4	[0, 0, 0]	n/a	FR1	3	R1395M
470.615	0.833	579187	WORD_OFF	n/a	n/a	YARN	7	4	[0, 0, 0]	n/a	FR1	3	R1395M
471.448	1.601	580020	WORD	n/a	wordpools/wordpool_long_EN.txt	GLASS	8	4	[0, 0, 0]	n/a	FR1	3	R1395M
473.049	0.983	581620	WORD_OFF	n/a	n/a	GLASS	8	4	[0, 0, 0]	n/a	FR1	3	R1395M
474.032	1.6	582603	WORD	n/a	wordpools/wordpool_long_EN.txt	FROG	9	4	[0, 0, 0]	n/a	FR1	3	R1395M
475.632	0.766	584203	WORD_OFF	n/a	n/a	FROG	9	4	[0, 0, 0]	n/a	FR1	3	R1395M
476.398	1.601	584970	WORD	n/a	wordpools/wordpool_long_EN.txt	SWORD	10	4	[0, 0, 0]	n/a	FR1	3	R1395M
477.999	0.95	586571	WORD_OFF	n/a	n/a	SWORD	10	4	[0, 0, 0]	n/a	FR1	3	R1395M
478.949	1.617	587525	WORD	n/a	wordpools/wordpool_long_EN.txt	STEAM	11	4	[0, 0, 0]	n/a	FR1	3	R1395M
480.566	0.833	589135	WORD_OFF	n/a	n/a	STEAM	11	4	[0, 0, 0]	n/a	FR1	3	R1395M
481.399	1.616	589968	WORD	n/a	wordpools/wordpool_long_EN.txt	TOOTH	12	4	[0, 0, 0]	n/a	FR1	3	R1395M
483.015	0.0	591587	WORD_OFF	n/a	n/a	TOOTH	12	4	[0, 0, 0]	n/a	FR1	3	R1395M
483.015	0.002	591585	PROB	0.002	n/a	n/a	-999	4	[4, 8, 7]	19	FR1	3	R1395M
483.017	0.0	591587	DISTRACT_START	n/a	n/a	n/a	-999	4	[0, 0, 0]	n/a	FR1	3	R1395M
483.017	0.0	591587	ENCODING_END	n/a	n/a	n/a	-999	4	[0, 0, 0]	n/a	FR1	3	R1395M
483.017	4.649	591587	START	n/a	n/a	n/a	-999	4	[-999, -999, -999]	n/a	FR1	3	R1395M
487.666	3.149	596236	PROB	3.149	n/a	n/a	-999	4	[6, 7, 2]	15	FR1	3	R1395M
490.815	2.851	599384	PROB	2.851	n/a	n/a	-999	4	[1, 4, 7]	12	FR1	3	R1395M
493.666	2.434	602235	PROB	2.434	n/a	n/a	-999	4	[6, 3, 2]	11	FR1	3	R1395M
496.1	2.316	604669	PROB	2.316	n/a	n/a	-999	4	[1, 3, 7]	11	FR1	3	R1395M
498.416	2.634	606985	PROB	2.634	n/a	n/a	-999	4	[7, 7, 5]	19	FR1	3	R1395M
501.05	3.215	609619	PROB	3.215	n/a	n/a	-999	4	[6, 8, 3]	17	FR1	3	R1395M
504.265	0.0	612831	DISTRACT_END	n/a	n/a	n/a	-999	4	[0, 0, 0]	n/a	FR1	3	R1395M
504.265	1.25	612834	STOP	n/a	n/a	n/a	-999	4	[-999, -999, -999]	n/a	FR1	3	R1395M
505.515	2.703	614085	REC_START	n/a	n/a	n/a	-999	4	[0, 0, 0]	n/a	FR1	3	R1395M
508.218	2.914	616787	REC_WORD	2.914	n/a	CHEEK	1	4	[0, 0, 0]	n/a	FR1	3	R1395M
511.132	2.171	619700	REC_WORD	2.171	n/a	PET	2	4	[0, 0, 0]	n/a	FR1	3	R1395M
513.303	2.121	621871	REC_WORD	2.121	n/a	GUARD	3	4	[0, 0, 0]	n/a	FR1	3	R1395M
515.424	2.703	623992	REC_WORD	2.703	n/a	SAIL	4	4	[0, 0, 0]	n/a	FR1	3	R1395M
518.127	8.286	626695	REC_WORD	8.286	n/a	TRAY	5	4	[0, 0, 0]	n/a	FR1	3	R1395M
526.413	10.326	634981	REC_WORD_VV	10.326	n/a	<>	-999	4	[0, 0, 0]	n/a	FR1	3	R1395M
536.739	11.093	645304	REC_END	n/a	n/a	n/a	-999	4	[0, 0, 0]	n/a	FR1	3	R1395M
547.832	10.35	656404	COUNTDOWN_START	n/a	n/a	n/a	-999	4	[0, 0, 0]	n/a	FR1	3	R1395M
558.182	0.0	666745	COUNTDOWN_END	n/a	n/a	n/a	-999	4	[0, 0, 0]	n/a	FR1	3	R1395M
558.182	1.899	666754	ENCODING_START	n/a	n/a	n/a	-999	5	[0, 0, 0]	n/a	FR1	3	R1395M
560.081	1.617	668645	WORD	n/a	wordpools/wordpool_long_EN.txt	THRONE	1	5	[0, 0, 0]	n/a	FR1	3	R1395M
561.698	0.783	670264	WORD_OFF	n/a	n/a	THRONE	1	5	[0, 0, 0]	n/a	FR1	3	R1395M
562.481	1.6	671050	WORD	n/a	wordpools/wordpool_long_EN.txt	STOOL	2	5	[0, 0, 0]	n/a	FR1	3	R1395M
564.081	0.85	672650	WORD_OFF	n/a	n/a	STOOL	2	5	[0, 0, 0]	n/a	FR1	3	R1395M
564.931	1.6	673502	WORD	n/a	wordpools/wordpool_long_EN.txt	SPACE	3	5	[0, 0, 0]	n/a	FR1	3	R1395M
566.531	0.867	675102	WORD_OFF	n/a	n/a	SPACE	3	5	[0, 0, 0]	n/a	FR1	3	R1395M
567.398	1.616	675963	WORD	n/a	wordpools/wordpool_long_EN.txt	FILM	4	5	[0, 0, 0]	n/a	FR1	3	R1395M
569.014	0.85	677582	WORD_OFF	n/a	n/a	FILM	4	5	[0, 0, 0]	n/a	FR1	3	R1395M
569.864	1.6	678434	WORD	n/a	wordpools/wordpool_long_EN.txt	LUNCH	5	5	[0, 0, 0]	n/a	FR1	3	R1395M
571.464	0.917	680034	WORD_OFF	n/a	n/a	LUNCH	5	5	[0, 0, 0]	n/a	FR1	3	R1395M
572.381	1.617	680951	WORD	n/a	wordpools/wordpool_long_EN.txt	BRANCH	6	5	[0, 0, 0]	n/a	FR1	3	R1395M
573.998	1.0	682561	WORD_OFF	n/a	n/a	BRANCH	6	5	[0, 0, 0]	n/a	FR1	3	R1395M
574.998	1.6	683562	WORD	n/a	wordpools/wordpool_long_EN.txt	TENT	7	5	[0, 0, 0]	n/a	FR1	3	R1395M
576.598	0.85	685162	WORD_OFF	n/a	n/a	TENT	7	5	[0, 0, 0]	n/a	FR1	3	R1395M
577.448	1.601	686014	WORD	n/a	wordpools/wordpool_long_EN.txt	SCOTCH	8	5	[0, 0, 0]	n/a	FR1	3	R1395M
579.049	0.783	687614	WORD_OFF	n/a	n/a	SCOTCH	8	5	[0, 0, 0]	n/a	FR1	3	R1395M
579.832	1.601	688400	WORD	n/a	wordpools/wordpool_long_EN.txt	PIN	9	5	[0, 0, 0]	n/a	FR1	3	R1395M
581.433	0.833	690001	WORD_OFF	n/a	n/a	PIN	9	5	[0, 0, 0]	n/a	FR1	3	R1395M
582.266	1.616	690834	WORD	n/a	wordpools/wordpool_long_EN.txt	SLIDE	10	5	[0, 0, 0]	n/a	FR1	3	R1395M
583.882	0.882	692443	WORD_OFF	n/a	n/a	SLIDE	10	5	[0, 0, 0]	n/a	FR1	3	R1395M
584.764	1.601	693332	WORD	n/a	wordpools/wordpool_long_EN.txt	RUG	11	5	[0, 0, 0]	n/a	FR1	3	R1395M
586.365	0.884	694933	WORD_OFF	n/a	n/a	RUG	11	5	[0, 0, 0]	n/a	FR1	3	R1395M
587.249	1.6	695812	WORD	n/a	wordpools/wordpool_long_EN.txt	TILE	12	5	[0, 0, 0]	n/a	FR1	3	R1395M
588.849	0.0	697413	WORD_OFF	n/a	n/a	TILE	12	5	[0, 0, 0]	n/a	FR1	3	R1395M
588.849	0.001	697413	PROB	0.001	n/a	n/a	-999	5	[4, 2, 5]	11	FR1	3	R1395M
588.85	0.0	697413	ENCODING_END	n/a	n/a	n/a	-999	5	[0, 0, 0]	n/a	FR1	3	R1395M
588.85	0.0	697422	DISTRACT_START	n/a	n/a	n/a	-999	5	[0, 0, 0]	n/a	FR1	3	R1395M
588.85	4.299	697414	START	n/a	n/a	n/a	-999	5	[-999, -999, -999]	n/a	FR1	3	R1395M
593.149	2.599	701713	PROB	2.599	n/a	n/a	-999	5	[5, 5, 8]	18	FR1	3	R1395M
595.748	2.584	704312	PROB	2.584	n/a	n/a	-999	5	[8, 2, 2]	12	FR1	3	R1395M
598.332	2.95	706896	PROB	2.95	n/a	n/a	-999	5	[5, 7, 6]	18	FR1	3	R1395M
601.282	3.151	709846	PROB	3.151	n/a	n/a	-999	5	[5, 6, 8]	19	FR1	3	R1395M
604.433	3.332	712996	PROB	3.332	n/a	n/a	-999	5	[1, 4, 7]	12	FR1	3	R1395M
607.765	3.884	716328	PROB	3.884	n/a	n/a	-999	5	[3, 4, 7]	14	FR1	3	R1395M
611.649	0.0	720210	DISTRACT_END	n/a	n/a	n/a	-999	5	[0, 0, 0]	n/a	FR1	3	R1395M
611.649	1.116	720212	STOP	n/a	n/a	n/a	-999	5	[-999, -999, -999]	n/a	FR1	3	R1395M
612.765	1.646	721333	REC_START	n/a	n/a	n/a	-999	5	[0, 0, 0]	n/a	FR1	3	R1395M
614.411	2.376	722974	REC_WORD	2.376	n/a	SPACE	3	5	[0, 0, 0]	n/a	FR1	3	R1395M
616.787	1.783	725350	REC_WORD	1.783	n/a	FILM	4	5	[0, 0, 0]	n/a	FR1	3	R1395M
618.57	2.494	727133	REC_WORD	2.494	n/a	SCOTCH	8	5	[0, 0, 0]	n/a	FR1	3	R1395M
621.064	5.958	729626	REC_WORD	5.958	n/a	BRANCH	6	5	[0, 0, 0]	n/a	FR1	3	R1395M
627.022	12.998	735584	REC_WORD	12.998	n/a	STOOL	2	5	[0, 0, 0]	n/a	FR1	3	R1395M
640.02	0.28	748581	REC_WORD_VV	0.28	n/a	<>	-999	5	[0, 0, 0]	n/a	FR1	3	R1395M
640.3	3.724	748861	REC_WORD	3.724	n/a	RAIL	-999	5	[0, 0, 0]	n/a	FR1	3	R1395M
644.024	8.624	752590	REC_END	n/a	n/a	n/a	-999	5	[0, 0, 0]	n/a	FR1	3	R1395M
652.648	10.351	761209	COUNTDOWN_START	n/a	n/a	n/a	-999	5	[0, 0, 0]	n/a	FR1	3	R1395M
662.999	0.0	771560	COUNTDOWN_END	n/a	n/a	n/a	-999	5	[0, 0, 0]	n/a	FR1	3	R1395M
662.999	1.899	771560	ENCODING_START	n/a	n/a	n/a	-999	6	[0, 0, 0]	n/a	FR1	3	R1395M
664.898	1.617	773460	WORD	n/a	wordpools/wordpool_long_EN.txt	BOOT	1	6	[0, 0, 0]	n/a	FR1	3	R1395M
666.515	0.916	775079	WORD_OFF	n/a	n/a	BOOT	1	6	[0, 0, 0]	n/a	FR1	3	R1395M
667.431	1.6	775996	WORD	n/a	wordpools/wordpool_long_EN.txt	STAIR	2	6	[0, 0, 0]	n/a	FR1	3	R1395M
669.031	0.8	777596	WORD_OFF	n/a	n/a	STAIR	2	6	[0, 0, 0]	n/a	FR1	3	R1395M
669.831	1.6	778392	WORD	n/a	wordpools/wordpool_long_EN.txt	SNAIL	3	6	[0, 0, 0]	n/a	FR1	3	R1395M
671.431	0.9	779992	WORD_OFF	n/a	n/a	SNAIL	3	6	[0, 0, 0]	n/a	FR1	3	R1395M
672.331	1.6	780890	WORD	n/a	wordpools/wordpool_long_EN.txt	FARM	4	6	[0, 0, 0]	n/a	FR1	3	R1395M
673.931	0.767	782490	WORD_OFF	n/a	n/a	FARM	4	6	[0, 0, 0]	n/a	FR1	3	R1395M
674.698	1.6	783258	WORD	n/a	wordpools/wordpool_long_EN.txt	CLAY	5	6	[0, 0, 0]	n/a	FR1	3	R1395M
676.298	0.784	784858	WORD_OFF	n/a	n/a	CLAY	5	6	[0, 0, 0]	n/a	FR1	3	R1395M
677.082	1.6	785644	WORD	n/a	wordpools/wordpool_long_EN.txt	SKY	6	6	[0, 0, 0]	n/a	FR1	3	R1395M
678.682	0.916	787245	WORD_OFF	n/a	n/a	SKY	6	6	[0, 0, 0]	n/a	FR1	3	R1395M
679.598	1.6	788162	WORD	n/a	wordpools/wordpool_long_EN.txt	NAIL	7	6	[0, 0, 0]	n/a	FR1	3	R1395M
681.198	0.768	789762	WORD_OFF	n/a	n/a	NAIL	7	6	[0, 0, 0]	n/a	FR1	3	R1395M
681.966	1.6	790529	WORD	n/a	wordpools/wordpool_long_EN.txt	BRIDGE	8	6	[0, 0, 0]	n/a	FR1	3	R1395M
683.566	1.0	792130	WORD_OFF	n/a	n/a	BRIDGE	8	6	[0, 0, 0]	n/a	FR1	3	R1395M
684.566	1.601	793122	WORD	n/a	wordpools/wordpool_long_EN.txt	HAT	9	6	[0, 0, 0]	n/a	FR1	3	R1395M
686.167	0.848	794731	WORD_OFF	n/a	n/a	HAT	9	6	[0, 0, 0]	n/a	FR1	3	R1395M
687.015	1.617	795574	WORD	n/a	wordpools/wordpool_long_EN.txt	SLOPE	10	6	[0, 0, 0]	n/a	FR1	3	R1395M
688.632	0.8	797193	WORD_OFF	n/a	n/a	SLOPE	10	6	[0, 0, 0]	n/a	FR1	3	R1395M
689.432	1.616	797988	WORD	n/a	wordpools/wordpool_long_EN.txt	CUBE	11	6	[0, 0, 0]	n/a	FR1	3	R1395M
691.048	0.784	799607	WORD_OFF	n/a	n/a	CUBE	11	6	[0, 0, 0]	n/a	FR1	3	R1395M
691.832	1.6	800393	WORD	n/a	wordpools/wordpool_long_EN.txt	WIFE	12	6	[0, 0, 0]	n/a	FR1	3	R1395M
693.432	0.0	801994	WORD_OFF	n/a	n/a	WIFE	12	6	[0, 0, 0]	n/a	FR1	3	R1395M
693.432	0.001	801991	PROB	0.001	n/a	n/a	-999	6	[4, 6, 7]	17	FR1	3	R1395M
693.433	0.0	801994	DISTRACT_START	n/a	n/a	n/a	-999	6	[0, 0, 0]	n/a	FR1	3	R1395M
693.433	0.0	801994	ENCODING_END	n/a	n/a	n/a	-999	6	[0, 0, 0]	n/a	FR1	3	R1395M
693.433	4.049	801992	START	n/a	n/a	n/a	-999	6	[-999, -999, -999]	n/a	FR1	3	R1395M
697.482	2.35	806040	PROB	2.35	n/a	n/a	-999	6	[2, 2, 7]	11	FR1	3	R1395M
699.832	2.984	808390	PROB	2.984	n/a	n/a	-999	6	[7, 1, 7]	15	FR1	3	R1395M
702.816	2.717	811374	PROB	2.717	n/a	n/a	-999	6	[6, 6, 7]	19	FR1	3	R1395M
705.533	2.266	814091	PROB	2.266	n/a	n/a	-999	6	[8, 2, 2]	12	FR1	3	R1395M
707.799	2.867	816357	PROB	2.867	n/a	n/a	-999	6	[8, 1, 4]	13	FR1	3	R1395M
710.666	2.816	819224	PROB	2.816	n/a	n/a	-999	6	[3, 4, 3]	10	FR1	3	R1395M
713.482	0.0	822039	DISTRACT_END	n/a	n/a	n/a	-999	6	[0, 0, 0]	n/a	FR1	3	R1395M
713.482	1.017	822039	STOP	n/a	n/a	n/a	-999	6	[-999, -999, -999]	n/a	FR1	3	R1395M
714.499	1.048	823060	REC_START	n/a	n/a	n/a	-999	6	[0, 0, 0]	n/a	FR1	3	R1395M
715.547	1.261	824104	REC_WORD	1.261	n/a	HAT	9	6	[0, 0, 0]	n/a	FR1	3	R1395M
716.808	1.829	825365	REC_WORD	1.829	n/a	SLOPE	10	6	[0, 0, 0]	n/a	FR1	3	R1395M
718.637	1.777	827194	REC_WORD	1.777	n/a	CUBE	11	6	[0, 0, 0]	n/a	FR1	3	R1395M
720.414	1.755	828971	REC_WORD	1.755	n/a	WIFE	12	6	[0, 0, 0]	n/a	FR1	3	R1395M
722.169	2.012	830726	REC_WORD	2.012	n/a	SNAIL	3	6	[0, 0, 0]	n/a	FR1	3	R1395M
724.181	12.863	832738	REC_WORD	12.863	n/a	FARM	4	6	[0, 0, 0]	n/a	FR1	3	R1395M
737.044	4.152	845600	REC_WORD	4.152	n/a	BOOT	1	6	[0, 0, 0]	n/a	FR1	3	R1395M
741.196	4.538	849752	REC_WORD	4.538	n/a	CLAY	5	6	[0, 0, 0]	n/a	FR1	3	R1395M
745.734	11.915	854289	REC_END	n/a	n/a	n/a	-999	6	[0, 0, 0]	n/a	FR1	3	R1395M
757.649	10.35	866212	COUNTDOWN_START	n/a	n/a	n/a	-999	6	[0, 0, 0]	n/a	FR1	3	R1395M
767.999	0.0	876553	COUNTDOWN_END	n/a	n/a	n/a	-999	6	[0, 0, 0]	n/a	FR1	3	R1395M
767.999	1.933	876553	ENCODING_START	n/a	n/a	n/a	-999	7	[0, 0, 0]	n/a	FR1	3	R1395M
769.932	1.6	878490	WORD	n/a	wordpools/wordpool_long_EN.txt	BOOK	1	7	[0, 0, 0]	n/a	FR1	3	R1395M
771.532	0.782	880090	WORD_OFF	n/a	n/a	BOOK	1	7	[0, 0, 0]	n/a	FR1	3	R1395M
772.314	1.601	880867	WORD	n/a	wordpools/wordpool_long_EN.txt	OWL	2	7	[0, 0, 0]	n/a	FR1	3	R1395M
773.915	0.784	882467	WORD_OFF	n/a	n/a	OWL	2	7	[0, 0, 0]	n/a	FR1	3	R1395M
774.699	1.616	883253	WORD	n/a	wordpools/wordpool_long_EN.txt	GLOVE	3	7	[0, 0, 0]	n/a	FR1	3	R1395M
776.315	0.999	884872	WORD_OFF	n/a	n/a	GLOVE	3	7	[0, 0, 0]	n/a	FR1	3	R1395M
777.314	1.601	885874	WORD	n/a	wordpools/wordpool_long_EN.txt	NEST	4	7	[0, 0, 0]	n/a	FR1	3	R1395M
778.915	0.999	887474	WORD_OFF	n/a	n/a	NEST	4	7	[0, 0, 0]	n/a	FR1	3	R1395M
779.914	1.601	888466	WORD	n/a	wordpools/wordpool_long_EN.txt	FOOD	5	7	[0, 0, 0]	n/a	FR1	3	R1395M
781.515	0.766	890066	WORD_OFF	n/a	n/a	FOOD	5	7	[0, 0, 0]	n/a	FR1	3	R1395M
782.281	1.602	890834	WORD	n/a	wordpools/wordpool_long_EN.txt	PIT	6	7	[0, 0, 0]	n/a	FR1	3	R1395M
783.883	0.965	892434	WORD_OFF	n/a	n/a	PIT	6	7	[0, 0, 0]	n/a	FR1	3	R1395M
784.848	1.6	893407	WORD	n/a	wordpools/wordpool_long_EN.txt	CONE	7	7	[0, 0, 0]	n/a	FR1	3	R1395M
786.448	0.866	894998	WORD_OFF	n/a	n/a	CONE	7	7	[0, 0, 0]	n/a	FR1	3	R1395M
787.314	1.601	895869	WORD	n/a	wordpools/wordpool_long_EN.txt	PLATE	8	7	[0, 0, 0]	n/a	FR1	3	R1395M
788.915	0.968	897469	WORD_OFF	n/a	n/a	PLATE	8	7	[0, 0, 0]	n/a	FR1	3	R1395M
789.883	1.616	898433	WORD	n/a	wordpools/wordpool_long_EN.txt	STORM	9	7	[0, 0, 0]	n/a	FR1	3	R1395M
791.499	0.949	900052	WORD_OFF	n/a	n/a	STORM	9	7	[0, 0, 0]	n/a	FR1	3	R1395M
792.448	1.617	901006	WORD	n/a	wordpools/wordpool_long_EN.txt	TIE	10	7	[0, 0, 0]	n/a	FR1	3	R1395M
794.065	0.984	902616	WORD_OFF	n/a	n/a	TIE	10	7	[0, 0, 0]	n/a	FR1	3	R1395M
795.049	1.6	903599	WORD	n/a	wordpools/wordpool_long_EN.txt	VAULT	11	7	[0, 0, 0]	n/a	FR1	3	R1395M
796.649	0.799	905199	WORD_OFF	n/a	n/a	VAULT	11	7	[0, 0, 0]	n/a	FR1	3	R1395M
797.448	1.616	906004	WORD	n/a	wordpools/wordpool_long_EN.txt	CORD	12	7	[0, 0, 0]	n/a	FR1	3	R1395M
799.064	0.001	907613	WORD_OFF	n/a	n/a	CORD	12	7	[0, 0, 0]	n/a	FR1	3	R1395M
799.065	0.001	907618	PROB	0.001	n/a	n/a	-999	7	[2, 4, 2]	8	FR1	3	R1395M
799.066	0.0	907623	DISTRACT_START	n/a	n/a	n/a	-999	7	[0, 0, 0]	n/a	FR1	3	R1395M
799.066	0.0	907623	ENCODING_END	n/a	n/a	n/a	-999	7	[0, 0, 0]	n/a	FR1	3	R1395M
799.066	4.75	907619	START	n/a	n/a	n/a	-999	7	[-999, -999, -999]	n/a	FR1	3	R1395M
803.816	2.8	912369	PROB	2.8	n/a	n/a	-999	7	[7, 3, 8]	18	FR1	3	R1395M
806.616	2.216	915168	PROB	2.216	n/a	n/a	-999	7	[3, 3, 2]	8	FR1	3	R1395M
808.832	2.4	917384	PROB	2.4	n/a	n/a	-999	7	[1, 6, 2]	9	FR1	3	R1395M
811.232	2.934	919784	PROB	2.934	n/a	n/a	-999	7	[6, 1, 4]	11	FR1	3	R1395M
814.166	2.183	922718	PROB	2.183	n/a	n/a	-999	7	[1, 8, 3]	12	FR1	3	R1395M
816.349	2.517	924901	PROB	2.517	n/a	n/a	-999	7	[4, 7, 8]	19	FR1	3	R1395M
818.866	3.066	927418	PROB	3.066	n/a	n/a	-999	7	[5, 3, 4]	12	FR1	3	R1395M
821.932	0.0	930486	DISTRACT_END	n/a	n/a	n/a	-999	7	[0, 0, 0]	n/a	FR1	3	R1395M
821.932	1.366	930484	STOP	n/a	n/a	n/a	-999	7	[-999, -999, -999]	n/a	FR1	3	R1395M
823.298	2.034	931852	REC_START	n/a	n/a	n/a	-999	7	[0, 0, 0]	n/a	FR1	3	R1395M
825.332	1.715	933883	REC_WORD	1.715	n/a	NEST	4	7	[0, 0, 0]	n/a	FR1	3	R1395M
827.047	2.195	935598	REC_WORD	2.195	n/a	FOOD	5	7	[0, 0, 0]	n/a	FR1	3	R1395M
829.242	2.138	937793	REC_WORD	2.138	n/a	PIT	6	7	[0, 0, 0]	n/a	FR1	3	R1395M
831.38	9.835	939931	REC_WORD	9.835	n/a	CONE	7	7	[0, 0, 0]	n/a	FR1	3	R1395M
841.215	11.062	949766	REC_WORD	11.062	n/a	TIE	10	7	[0, 0, 0]	n/a	FR1	3	R1395M
852.277	2.258	960827	REC_WORD_VV	2.258	n/a	<>	-999	7	[0, 0, 0]	n/a	FR1	3	R1395M
854.535	2.797	963081	REC_END	n/a	n/a	n/a	-999	7	[0, 0, 0]	n/a	FR1	3	R1395M
857.332	10.35	965879	COUNTDOWN_START	n/a	n/a	n/a	-999	7	[0, 0, 0]	n/a	FR1	3	R1395M
867.682	0.001	976230	COUNTDOWN_END	n/a	n/a	n/a	-999	7	[0, 0, 0]	n/a	FR1	3	R1395M
867.683	1.882	976239	ENCODING_START	n/a	n/a	n/a	-999	8	[0, 0, 0]	n/a	FR1	3	R1395M
869.565	1.6	978111	WORD	n/a	wordpools/wordpool_long_EN.txt	MAT	1	8	[0, 0, 0]	n/a	FR1	3	R1395M
871.165	0.934	979711	WORD_OFF	n/a	n/a	MAT	1	8	[0, 0, 0]	n/a	FR1	3	R1395M
872.099	1.6	980647	WORD	n/a	wordpools/wordpool_long_EN.txt	NET	2	8	[0, 0, 0]	n/a	FR1	3	R1395M
873.699	0.916	982247	WORD_OFF	n/a	n/a	NET	2	8	[0, 0, 0]	n/a	FR1	3	R1395M
874.615	1.6	983164	WORD	n/a	wordpools/wordpool_long_EN.txt	FENCE	3	8	[0, 0, 0]	n/a	FR1	3	R1395M
876.215	0.867	984765	WORD_OFF	n/a	n/a	FENCE	3	8	[0, 0, 0]	n/a	FR1	3	R1395M
877.082	1.6	985635	WORD	n/a	wordpools/wordpool_long_EN.txt	WOLF	4	8	[0, 0, 0]	n/a	FR1	3	R1395M
878.682	0.933	987235	WORD_OFF	n/a	n/a	WOLF	4	8	[0, 0, 0]	n/a	FR1	3	R1395M
879.615	1.616	988162	WORD	n/a	wordpools/wordpool_long_EN.txt	CLAM	5	8	[0, 0, 0]	n/a	FR1	3	R1395M
881.231	0.867	989781	WORD_OFF	n/a	n/a	CLAM	5	8	[0, 0, 0]	n/a	FR1	3	R1395M
882.098	1.6	990651	WORD	n/a	wordpools/wordpool_long_EN.txt	MOP	6	8	[0, 0, 0]	n/a	FR1	3	R1395M
883.698	0.783	992242	WORD_OFF	n/a	n/a	MOP	6	8	[0, 0, 0]	n/a	FR1	3	R1395M
884.481	1.6	993028	WORD	n/a	wordpools/wordpool_long_EN.txt	DITCH	7	8	[0, 0, 0]	n/a	FR1	3	R1395M
886.081	0.967	994629	WORD_OFF	n/a	n/a	DITCH	7	8	[0, 0, 0]	n/a	FR1	3	R1395M
887.048	1.6	995593	WORD	n/a	wordpools/wordpool_long_EN.txt	TOWN	8	8	[0, 0, 0]	n/a	FR1	3	R1395M
888.648	0.85	997202	WORD_OFF	n/a	n/a	TOWN	8	8	[0, 0, 0]	n/a	FR1	3	R1395M
889.498	1.6	998044	WORD	n/a	wordpools/wordpool_long_EN.txt	PURSE	9	8	[0, 0, 0]	n/a	FR1	3	R1395M
891.098	0.783	999645	WORD_OFF	n/a	n/a	PURSE	9	8	[0, 0, 0]	n/a	FR1	3	R1395M
891.881	1.601	1000431	WORD	n/a	wordpools/wordpool_long_EN.txt	JUDGE	10	8	[0, 0, 0]	n/a	FR1	3	R1395M
893.482	0.917	1002031	WORD_OFF	n/a	n/a	JUDGE	10	8	[0, 0, 0]	n/a	FR1	3	R1395M
894.399	1.6	1002948	WORD	n/a	wordpools/wordpool_long_EN.txt	HOUND	11	8	[0, 0, 0]	n/a	FR1	3	R1395M
895.999	0.916	1004549	WORD_OFF	n/a	n/a	HOUND	11	8	[0, 0, 0]	n/a	FR1	3	R1395M
896.915	1.617	1005466	WORD	n/a	wordpools/wordpool_long_EN.txt	SNAKE	12	8	[0, 0, 0]	n/a	FR1	3	R1395M
898.532	0.001	1007085	WORD_OFF	n/a	n/a	SNAKE	12	8	[0, 0, 0]	n/a	FR1	3	R1395M
898.533	0.0	1007085	DISTRACT_START	n/a	n/a	n/a	-999	8	[0, 0, 0]	n/a	FR1	3	R1395M
898.533	0.0	1007085	ENCODING_END	n/a	n/a	n/a	-999	8	[0, 0, 0]	n/a	FR1	3	R1395M
898.533	0.0	1007080	PROB	0.0	n/a	n/a	-999	8	[7, 8, 1]	16	FR1	3	R1395M
898.533	3.184	1007080	START	n/a	n/a	n/a	-999	8	[-999, -999, -999]	n/a	FR1	3	R1395M
901.717	3.399	1010264	PROB	3.399	n/a	n/a	-999	8	[4, 4, 5]	13	FR1	3	R1395M
905.116	2.333	1013663	PROB	2.333	n/a	n/a	-999	8	[3, 3, 5]	11	FR1	3	R1395M
907.449	3.435	1015996	PROB	3.435	n/a	n/a	-999	8	[4, 8, 7]	19	FR1	3	R1395M
910.884	4.232	1019431	PROB	4.232	n/a	n/a	-999	8	[8, 4, 8]	20	FR1	3	R1395M
915.116	4.599	1023663	PROB	4.599	n/a	n/a	-999	8	[7, 3, 3]	13	FR1	3	R1395M
919.715	0.0	1028263	DISTRACT_END	n/a	n/a	n/a	-999	8	[0, 0, 0]	n/a	FR1	3	R1395M
919.715	1.25	1028261	STOP	n/a	n/a	n/a	-999	8	[-999, -999, -999]	n/a	FR1	3	R1395M
920.965	1.495	1029517	REC_START	n/a	n/a	n/a	-999	8	[0, 0, 0]	n/a	FR1	3	R1395M
922.46	1.768	1031006	REC_WORD	1.768	n/a	MAT	1	8	[0, 0, 0]	n/a	FR1	3	R1395M
924.228	1.617	1032774	REC_WORD	1.617	n/a	NET	2	8	[0, 0, 0]	n/a	FR1	3	R1395M
925.845	8.793	1034391	REC_WORD	8.793	n/a	FENCE	3	8	[0, 0, 0]	n/a	FR1	3	R1395M
934.638	12.323	1043184	REC_WORD	12.323	n/a	JUDGE	10	8	[0, 0, 0]	n/a	FR1	3	R1395M
946.961	5.254	1055506	REC_WORD	5.254	n/a	DITCH	7	8	[0, 0, 0]	n/a	FR1	3	R1395M
952.215	8.717	1060756	REC_END	n/a	n/a	n/a	-999	8	[0, 0, 0]	n/a	FR1	3	R1395M
960.932	10.35	1069478	COUNTDOWN_START	n/a	n/a	n/a	-999	8	[0, 0, 0]	n/a	FR1	3	R1395M
971.282	0.0	1079828	COUNTDOWN_END	n/a	n/a	n/a	-999	8	[0, 0, 0]	n/a	FR1	3	R1395M
971.282	2.0	1079828	ENCODING_START	n/a	n/a	n/a	-999	9	[0, 0, 0]	n/a	FR1	3	R1395M
973.282	1.617	1081831	WORD	n/a	wordpools/wordpool_long_EN.txt	CAPE	1	9	[0, 0, 0]	n/a	FR1	3	R1395M
974.899	0.783	1083441	WORD_OFF	n/a	n/a	CAPE	1	9	[0, 0, 0]	n/a	FR1	3	R1395M
975.682	1.6	1084227	WORD	n/a	wordpools/wordpool_long_EN.txt	SPONGE	2	9	[0, 0, 0]	n/a	FR1	3	R1395M
977.282	0.917	1085827	WORD_OFF	n/a	n/a	SPONGE	2	9	[0, 0, 0]	n/a	FR1	3	R1395M
978.199	1.617	1086744	WORD	n/a	wordpools/wordpool_long_EN.txt	FOAM	3	9	[0, 0, 0]	n/a	FR1	3	R1395M
979.816	0.949	1088363	WORD_OFF	n/a	n/a	FOAM	3	9	[0, 0, 0]	n/a	FR1	3	R1395M
980.765	1.6	1089308	WORD	n/a	wordpools/wordpool_long_EN.txt	FRUIT	4	9	[0, 0, 0]	n/a	FR1	3	R1395M
982.365	0.8	1090909	WORD_OFF	n/a	n/a	FRUIT	4	9	[0, 0, 0]	n/a	FR1	3	R1395M
983.165	1.6	1091704	WORD	n/a	wordpools/wordpool_long_EN.txt	HOOK	5	9	[0, 0, 0]	n/a	FR1	3	R1395M
984.765	0.884	1093304	WORD_OFF	n/a	n/a	HOOK	5	9	[0, 0, 0]	n/a	FR1	3	R1395M
985.649	1.616	1094194	WORD	n/a	wordpools/wordpool_long_EN.txt	STEAK	6	9	[0, 0, 0]	n/a	FR1	3	R1395M
987.265	0.8	1095813	WORD_OFF	n/a	n/a	STEAK	6	9	[0, 0, 0]	n/a	FR1	3	R1395M
988.065	1.617	1096608	WORD	n/a	wordpools/wordpool_long_EN.txt	BLADE	7	9	[0, 0, 0]	n/a	FR1	3	R1395M
989.682	0.883	1098227	WORD_OFF	n/a	n/a	BLADE	7	9	[0, 0, 0]	n/a	FR1	3	R1395M
990.565	1.616	1099107	WORD	n/a	wordpools/wordpool_long_EN.txt	SHIELD	8	9	[0, 0, 0]	n/a	FR1	3	R1395M
992.181	0.901	1100726	WORD_OFF	n/a	n/a	SHIELD	8	9	[0, 0, 0]	n/a	FR1	3	R1395M
993.082	1.6	1101624	WORD	n/a	wordpools/wordpool_long_EN.txt	SINK	9	9	[0, 0, 0]	n/a	FR1	3	R1395M
994.682	0.966	1103224	WORD_OFF	n/a	n/a	SINK	9	9	[0, 0, 0]	n/a	FR1	3	R1395M
995.648	1.601	1104188	WORD	n/a	wordpools/wordpool_long_EN.txt	PLAID	10	9	[0, 0, 0]	n/a	FR1	3	R1395M
997.249	0.816	1105789	WORD_OFF	n/a	n/a	PLAID	10	9	[0, 0, 0]	n/a	FR1	3	R1395M
998.065	1.617	1106612	WORD	n/a	wordpools/wordpool_long_EN.txt	QUAIL	11	9	[0, 0, 0]	n/a	FR1	3	R1395M
999.682	0.833	1108222	WORD_OFF	n/a	n/a	QUAIL	11	9	[0, 0, 0]	n/a	FR1	3	R1395M
1000.515	1.6	1109055	WORD	n/a	wordpools/wordpool_long_EN.txt	FRAME	12	9	[0, 0, 0]	n/a	FR1	3	R1395M
1002.115	0.001	1110655	WORD_OFF	n/a	n/a	FRAME	12	9	[0, 0, 0]	n/a	FR1	3	R1395M
1002.116	0.001	1110658	PROB	0.001	n/a	n/a	-999	9	[5, 5, 7]	17	FR1	3	R1395M
1002.117	0.0	1110655	ENCODING_END	n/a	n/a	n/a	-999	9	[0, 0, 0]	n/a	FR1	3	R1395M
1002.117	0.0	1110664	DISTRACT_START	n/a	n/a	n/a	-999	9	[0, 0, 0]	n/a	FR1	3	R1395M
1002.117	3.349	1110659	START	n/a	n/a	n/a	-999	9	[-999, -999, -999]	n/a	FR1	3	R1395M
1005.466	2.6	1114008	PROB	2.6	n/a	n/a	-999	9	[6, 6, 6]	18	FR1	3	R1395M
1008.066	2.949	1116608	PROB	2.949	n/a	n/a	-999	9	[7, 4, 2]	13	FR1	3	R1395M
1011.015	2.468	1119556	PROB	2.468	n/a	n/a	-999	9	[1, 8, 1]	10	FR1	3	R1395M
1013.483	2.432	1122024	PROB	2.432	n/a	n/a	-999	9	[7, 6, 1]	14	FR1	3	R1395M
1015.915	2.001	1124456	PROB	2.001	n/a	n/a	-999	9	[2, 4, 5]	11	FR1	3	R1395M
1017.916	2.45	1126457	PROB	2.45	n/a	n/a	-999	9	[6, 5, 5]	16	FR1	3	R1395M
1020.366	2.333	1128907	PROB	2.333	n/a	n/a	-999	9	[6, 2, 5]	13	FR1	3	R1395M
1022.699	0.0	1131244	DISTRACT_END	n/a	n/a	n/a	-999	9	[0, 0, 0]	n/a	FR1	3	R1395M
1022.699	1.2	1131240	STOP	n/a	n/a	n/a	-999	9	[-999, -999, -999]	n/a	FR1	3	R1395M
1023.899	1.875	1132442	REC_START	n/a	n/a	n/a	-999	9	[0, 0, 0]	n/a	FR1	3	R1395M
1025.774	0.952	1134315	REC_WORD	0.952	n/a	CAPE	1	9	[0, 0, 0]	n/a	FR1	3	R1395M
1026.726	2.033	1135267	REC_WORD	2.033	n/a	SPONGE	2	9	[0, 0, 0]	n/a	FR1	3	R1395M
1028.759	9.763	1137299	REC_WORD	9.763	n/a	FOOD	-999	9	[0, 0, 0]	n/a	FR1	3	R1395M
1038.522	16.636	1147062	REC_WORD	16.636	n/a	WORM	-999	9	[0, 0, 0]	n/a	FR1	3	R1395M
1055.158	14.49	1163699	REC_END	n/a	n/a	n/a	-999	9	[0, 0, 0]	n/a	FR1	3	R1395M
1069.648	10.351	1178186	COUNTDOWN_START	n/a	n/a	n/a	-999	9	[0, 0, 0]	n/a	FR1	3	R1395M
1079.999	0.0	1188536	COUNTDOWN_END	n/a	n/a	n/a	-999	9	[0, 0, 0]	n/a	FR1	3	R1395M
1079.999	1.865	1188536	ENCODING_START	n/a	n/a	n/a	-999	10	[0, 0, 0]	n/a	FR1	3	R1395M
1081.864	1.6	1190399	WORD	n/a	wordpools/wordpool_long_EN.txt	FAN	1	10	[0, 0, 0]	n/a	FR1	3	R1395M
1083.464	0.817	1191999	WORD_OFF	n/a	n/a	FAN	1	10	[0, 0, 0]	n/a	FR1	3	R1395M
1084.281	1.6	1192823	WORD	n/a	wordpools/wordpool_long_EN.txt	RAT	2	10	[0, 0, 0]	n/a	FR1	3	R1395M
1085.881	0.95	1194423	WORD_OFF	n/a	n/a	RAT	2	10	[0, 0, 0]	n/a	FR1	3	R1395M
1086.831	1.6	1195368	WORD	n/a	wordpools/wordpool_long_EN.txt	OX	3	10	[0, 0, 0]	n/a	FR1	3	R1395M
1088.431	0.8	1196968	WORD_OFF	n/a	n/a	OX	3	10	[0, 0, 0]	n/a	FR1	3	R1395M
1089.231	1.601	1197773	WORD	n/a	wordpools/wordpool_long_EN.txt	SOUP	4	10	[0, 0, 0]	n/a	FR1	3	R1395M
1090.832	0.8	1199374	WORD_OFF	n/a	n/a	SOUP	4	10	[0, 0, 0]	n/a	FR1	3	R1395M
1091.632	1.6	1200169	WORD	n/a	wordpools/wordpool_long_EN.txt	SMOKE	5	10	[0, 0, 0]	n/a	FR1	3	R1395M
1093.232	0.984	1201769	WORD_OFF	n/a	n/a	SMOKE	5	10	[0, 0, 0]	n/a	FR1	3	R1395M
1094.216	1.6	1202752	WORD	n/a	wordpools/wordpool_long_EN.txt	CUP	6	10	[0, 0, 0]	n/a	FR1	3	R1395M
1095.816	0.9	1204352	WORD_OFF	n/a	n/a	CUP	6	10	[0, 0, 0]	n/a	FR1	3	R1395M
1096.716	1.616	1205251	WORD	n/a	wordpools/wordpool_long_EN.txt	HOUSE	7	10	[0, 0, 0]	n/a	FR1	3	R1395M
1098.332	0.783	1206870	WORD_OFF	n/a	n/a	HOUSE	7	10	[0, 0, 0]	n/a	FR1	3	R1395M
1099.115	1.617	1207656	WORD	n/a	wordpools/wordpool_long_EN.txt	HOOF	8	10	[0, 0, 0]	n/a	FR1	3	R1395M
1100.732	0.95	1209265	WORD_OFF	n/a	n/a	HOOF	8	10	[0, 0, 0]	n/a	FR1	3	R1395M
1101.682	1.617	1210220	WORD	n/a	wordpools/wordpool_long_EN.txt	OAR	9	10	[0, 0, 0]	n/a	FR1	3	R1395M
1103.299	0.85	1211839	WORD_OFF	n/a	n/a	OAR	9	10	[0, 0, 0]	n/a	FR1	3	R1395M
1104.149	1.6	1212681	WORD	n/a	wordpools/wordpool_long_EN.txt	SEA	10	10	[0, 0, 0]	n/a	FR1	3	R1395M
1105.749	0.883	1214282	WORD_OFF	n/a	n/a	SEA	10	10	[0, 0, 0]	n/a	FR1	3	R1395M
1106.632	1.6	1215171	WORD	n/a	wordpools/wordpool_long_EN.txt	BIRD	11	10	[0, 0, 0]	n/a	FR1	3	R1395M
1108.232	0.8	1216771	WORD_OFF	n/a	n/a	BIRD	11	10	[0, 0, 0]	n/a	FR1	3	R1395M
1109.032	1.617	1217566	WORD	n/a	wordpools/wordpool_long_EN.txt	TART	12	10	[0, 0, 0]	n/a	FR1	3	R1395M
1110.649	0.0	1219185	WORD_OFF	n/a	n/a	TART	12	10	[0, 0, 0]	n/a	FR1	3	R1395M
1110.649	0.001	1219185	PROB	0.001	n/a	n/a	-999	10	[2, 7, 3]	12	FR1	3	R1395M
1110.65	0.0	1219185	DISTRACT_START	n/a	n/a	n/a	-999	10	[0, 0, 0]	n/a	FR1	3	R1395M
1110.65	0.0	1219185	ENCODING_END	n/a	n/a	n/a	-999	10	[0, 0, 0]	n/a	FR1	3	R1395M
1110.65	3.965	1219186	START	n/a	n/a	n/a	-999	10	[-999, -999, -999]	n/a	FR1	3	R1395M
1114.615	2.534	1223151	PROB	2.534	n/a	n/a	-999	10	[8, 6, 3]	17	FR1	3	R1395M
1117.149	3.1	1225685	PROB	3.1	n/a	n/a	-999	10	[2, 1, 6]	9	FR1	3	R1395M
1120.249	2.934	1228785	PROB	2.934	n/a	n/a	-999	10	[6, 8, 5]	19	FR1	3	R1395M
1123.183	2.633	1231718	PROB	2.633	n/a	n/a	-999	10	[1, 7, 1]	9	FR1	3	R1395M
1125.816	3.3	1234351	PROB	3.3	n/a	n/a	-999	10	[3, 6, 3]	12	FR1	3	R1395M
1129.116	2.966	1237651	PROB	2.966	n/a	n/a	-999	10	[1, 5, 7]	13	FR1	3	R1395M
1132.082	0.0	1240616	DISTRACT_END	n/a	n/a	n/a	-999	10	[0, 0, 0]	n/a	FR1	3	R1395M
1132.082	1.017	1240617	STOP	n/a	n/a	n/a	-999	10	[-999, -999, -999]	n/a	FR1	3	R1395M
1133.099	1.864	1241636	REC_START	n/a	n/a	n/a	-999	10	[0, 0, 0]	n/a	FR1	3	R1395M
1134.963	1.714	1243498	REC_WORD	1.714	n/a	RAT	2	10	[0, 0, 0]	n/a	FR1	3	R1395M
1136.677	1.314	1245212	REC_WORD	1.314	n/a	OX	3	10	[0, 0, 0]	n/a	FR1	3	R1395M
1137.991	2.209	1246526	REC_WORD	2.209	n/a	SOUP	4	10	[0, 0, 0]	n/a	FR1	3	R1395M
1140.2	1.321	1248734	REC_WORD	1.321	n/a	CUP	6	10	[0, 0, 0]	n/a	FR1	3	R1395M
1141.521	2.336	1250055	REC_WORD	2.336	n/a	SMOKE	5	10	[0, 0, 0]	n/a	FR1	3	R1395M
1143.857	20.474	1252391	REC_WORD	20.474	n/a	HOUSE	7	10	[0, 0, 0]	n/a	FR1	3	R1395M
1164.331	3.35	1272866	REC_END	n/a	n/a	n/a	-999	10	[0, 0, 0]	n/a	FR1	3	R1395M
1167.681	10.351	1276216	COUNTDOWN_START	n/a	n/a	n/a	-999	10	[0, 0, 0]	n/a	FR1	3	R1395M
1178.032	0.001	1286567	COUNTDOWN_END	n/a	n/a	n/a	-999	10	[0, 0, 0]	n/a	FR1	3	R1395M
1178.033	2.264	1286567	ENCODING_START	n/a	n/a	n/a	-999	11	[0, 0, 0]	n/a	FR1	3	R1395M
1180.297	1.602	1288831	WORD	n/a	wordpools/wordpool_long_EN.txt	LAMP	1	11	[0, 0, 0]	n/a	FR1	3	R1395M
1181.899	0.933	1290432	WORD_OFF	n/a	n/a	LAMP	1	11	[0, 0, 0]	n/a	FR1	3	R1395M
1182.832	1.6	1291367	WORD	n/a	wordpools/wordpool_long_EN.txt	TRIBE	2	11	[0, 0, 0]	n/a	FR1	3	R1395M
1184.432	0.833	1292968	WORD_OFF	n/a	n/a	TRIBE	2	11	[0, 0, 0]	n/a	FR1	3	R1395M
1185.265	1.6	1293801	WORD	n/a	wordpools/wordpool_long_EN.txt	BUG	3	11	[0, 0, 0]	n/a	FR1	3	R1395M
1186.865	0.934	1295401	WORD_OFF	n/a	n/a	BUG	3	11	[0, 0, 0]	n/a	FR1	3	R1395M
1187.799	1.616	1296327	WORD	n/a	wordpools/wordpool_long_EN.txt	FLAME	4	11	[0, 0, 0]	n/a	FR1	3	R1395M
1189.415	0.833	1297946	WORD_OFF	n/a	n/a	FLAME	4	11	[0, 0, 0]	n/a	FR1	3	R1395M
1190.248	1.6	1298779	WORD	n/a	wordpools/wordpool_long_EN.txt	SPARK	5	11	[0, 0, 0]	n/a	FR1	3	R1395M
1191.848	0.801	1300380	WORD_OFF	n/a	n/a	SPARK	5	11	[0, 0, 0]	n/a	FR1	3	R1395M
1192.649	1.616	1301185	WORD	n/a	wordpools/wordpool_long_EN.txt	VINE	6	11	[0, 0, 0]	n/a	FR1	3	R1395M
1194.265	0.967	1302794	WORD_OFF	n/a	n/a	VINE	6	11	[0, 0, 0]	n/a	FR1	3	R1395M
1195.232	1.616	1303767	WORD	n/a	wordpools/wordpool_long_EN.txt	BLOOM	7	11	[0, 0, 0]	n/a	FR1	3	R1395M
1196.848	0.901	1305377	WORD_OFF	n/a	n/a	BLOOM	7	11	[0, 0, 0]	n/a	FR1	3	R1395M
1197.749	1.616	1306285	WORD	n/a	wordpools/wordpool_long_EN.txt	GEESE	8	11	[0, 0, 0]	n/a	FR1	3	R1395M
1199.365	1.0	1307895	WORD_OFF	n/a	n/a	GEESE	8	11	[0, 0, 0]	n/a	FR1	3	R1395M
1200.365	1.6	1308896	WORD	n/a	wordpools/wordpool_long_EN.txt	ROD	9	11	[0, 0, 0]	n/a	FR1	3	R1395M
1201.965	0.95	1310496	WORD_OFF	n/a	n/a	ROD	9	11	[0, 0, 0]	n/a	FR1	3	R1395M
1202.915	1.6	1311451	WORD	n/a	wordpools/wordpool_long_EN.txt	BEEF	10	11	[0, 0, 0]	n/a	FR1	3	R1395M
1204.515	0.85	1313051	WORD_OFF	n/a	n/a	BEEF	10	11	[0, 0, 0]	n/a	FR1	3	R1395M
1205.365	1.6	1313893	WORD	n/a	wordpools/wordpool_long_EN.txt	STEM	11	11	[0, 0, 0]	n/a	FR1	3	R1395M
1206.965	0.95	1315494	WORD_OFF	n/a	n/a	STEM	11	11	[0, 0, 0]	n/a	FR1	3	R1395M
1207.915	1.6	1316448	WORD	n/a	wordpools/wordpool_long_EN.txt	JET	12	11	[0, 0, 0]	n/a	FR1	3	R1395M
1209.515	0.001	1318049	WORD_OFF	n/a	n/a	JET	12	11	[0, 0, 0]	n/a	FR1	3	R1395M
1209.516	0.001	1318047	PROB	0.001	n/a	n/a	-999	11	[8, 7, 4]	19	FR1	3	R1395M
1209.517	0.0	1318049	DISTRACT_START	n/a	n/a	n/a	-999	11	[0, 0, 0]	n/a	FR1	3	R1395M
1209.517	0.0	1318049	ENCODING_END	n/a	n/a	n/a	-999	11	[0, 0, 0]	n/a	FR1	3	R1395M
1209.517	3.931	1318048	START	n/a	n/a	n/a	-999	11	[-999, -999, -999]	n/a	FR1	3	R1395M
1213.448	3.384	1321979	PROB	3.384	n/a	n/a	-999	11	[8, 7, 7]	22	FR1	3	R1395M
1216.832	3.068	1325362	PROB	3.068	n/a	n/a	-999	11	[2, 8, 6]	16	FR1	3	R1395M
1219.9	2.066	1328430	PROB	2.066	n/a	n/a	-999	11	[1, 2, 6]	9	FR1	3	R1395M
1221.966	2.499	1330496	PROB	2.499	n/a	n/a	-999	11	[2, 1, 3]	6	FR1	3	R1395M
1224.465	2.535	1332995	PROB	2.535	n/a	n/a	-999	11	[8, 1, 8]	17	FR1	3	R1395M
1227.0	2.799	1335530	PROB	2.799	n/a	n/a	-999	11	[8, 5, 4]	17	FR1	3	R1395M
1229.799	0.0	1338328	DISTRACT_END	n/a	n/a	n/a	-999	11	[0, 0, 0]	n/a	FR1	3	R1395M
1229.799	1.216	1338329	STOP	n/a	n/a	n/a	-999	11	[-999, -999, -999]	n/a	FR1	3	R1395M
1231.015	1.823	1339545	REC_START	n/a	n/a	n/a	-999	11	[0, 0, 0]	n/a	FR1	3	R1395M
1232.838	0.833	1341367	REC_WORD	0.833	n/a	BUG	3	11	[0, 0, 0]	n/a	FR1	3	R1395M
1233.671	2.105	1342200	REC_WORD	2.105	n/a	TRIBE	2	11	[0, 0, 0]	n/a	FR1	3	R1395M
1235.776	0.689	1344305	REC_WORD	0.689	n/a	LAMP	1	11	[0, 0, 0]	n/a	FR1	3	R1395M
1236.465	2.442	1344994	REC_WORD	2.442	n/a	FLAME	4	11	[0, 0, 0]	n/a	FR1	3	R1395M
1238.907	2.85	1347436	REC_WORD	2.85	n/a	SPARK	5	11	[0, 0, 0]	n/a	FR1	3	R1395M
1241.757	20.501	1350286	REC_WORD	20.501	n/a	STEM	11	11	[0, 0, 0]	n/a	FR1	3	R1395M
1262.258	17.523	1370784	REC_END	n/a	n/a	n/a	-999	11	[0, 0, 0]	n/a	FR1	3	R1395M
1279.781	10.351	1388312	COUNTDOWN_START	n/a	n/a	n/a	-999	11	[0, 0, 0]	n/a	FR1	3	R1395M
1290.132	0.0	1398662	COUNTDOWN_END	n/a	n/a	n/a	-999	11	[0, 0, 0]	n/a	FR1	3	R1395M
1290.132	2.199	1398662	ENCODING_START	n/a	n/a	n/a	-999	12	[0, 0, 0]	n/a	FR1	3	R1395M
1292.331	1.601	1400862	WORD	n/a	wordpools/wordpool_long_EN.txt	CHIN	1	12	[0, 0, 0]	n/a	FR1	3	R1395M
1293.932	0.85	1402462	WORD_OFF	n/a	n/a	CHIN	1	12	[0, 0, 0]	n/a	FR1	3	R1395M
1294.782	1.6	1403304	WORD	n/a	wordpools/wordpool_long_EN.txt	ARCH	2	12	[0, 0, 0]	n/a	FR1	3	R1395M
1296.382	0.884	1404905	WORD_OFF	n/a	n/a	ARCH	2	12	[0, 0, 0]	n/a	FR1	3	R1395M
1297.266	1.616	1405794	WORD	n/a	wordpools/wordpool_long_EN.txt	GOLD	3	12	[0, 0, 0]	n/a	FR1	3	R1395M
1298.882	0.901	1407413	WORD_OFF	n/a	n/a	GOLD	3	12	[0, 0, 0]	n/a	FR1	3	R1395M
1299.783	1.617	1408311	WORD	n/a	wordpools/wordpool_long_EN.txt	BLUSH	4	12	[0, 0, 0]	n/a	FR1	3	R1395M
1301.4	0.983	1409930	WORD_OFF	n/a	n/a	BLUSH	4	12	[0, 0, 0]	n/a	FR1	3	R1395M
1302.383	1.616	1410913	WORD	n/a	wordpools/wordpool_long_EN.txt	JAR	5	12	[0, 0, 0]	n/a	FR1	3	R1395M
1303.999	0.833	1412522	WORD_OFF	n/a	n/a	JAR	5	12	[0, 0, 0]	n/a	FR1	3	R1395M
1304.832	1.6	1413355	WORD	n/a	wordpools/wordpool_long_EN.txt	SEAL	6	12	[0, 0, 0]	n/a	FR1	3	R1395M
1306.432	0.95	1414956	WORD_OFF	n/a	n/a	SEAL	6	12	[0, 0, 0]	n/a	FR1	3	R1395M
1307.382	1.6	1415910	WORD	n/a	wordpools/wordpool_long_EN.txt	MARSH	7	12	[0, 0, 0]	n/a	FR1	3	R1395M
1308.982	0.817	1417510	WORD_OFF	n/a	n/a	MARSH	7	12	[0, 0, 0]	n/a	FR1	3	R1395M
1309.799	1.6	1418325	WORD	n/a	wordpools/wordpool_long_EN.txt	SHIP	8	12	[0, 0, 0]	n/a	FR1	3	R1395M
1311.399	0.866	1419925	WORD_OFF	n/a	n/a	SHIP	8	12	[0, 0, 0]	n/a	FR1	3	R1395M
1312.265	1.6	1420795	WORD	n/a	wordpools/wordpool_long_EN.txt	PLANT	9	12	[0, 0, 0]	n/a	FR1	3	R1395M
1313.865	0.767	1422386	WORD_OFF	n/a	n/a	PLANT	9	12	[0, 0, 0]	n/a	FR1	3	R1395M
1314.632	1.617	1423154	WORD	n/a	wordpools/wordpool_long_EN.txt	CHURCH	10	12	[0, 0, 0]	n/a	FR1	3	R1395M
1316.249	0.866	1424773	WORD_OFF	n/a	n/a	CHURCH	10	12	[0, 0, 0]	n/a	FR1	3	R1395M
1317.115	1.6	1425643	WORD	n/a	wordpools/wordpool_long_EN.txt	MAIL	11	12	[0, 0, 0]	n/a	FR1	3	R1395M
1318.715	0.967	1427243	WORD_OFF	n/a	n/a	MAIL	11	12	[0, 0, 0]	n/a	FR1	3	R1395M
1319.682	1.617	1428207	WORD	n/a	wordpools/wordpool_long_EN.txt	LINT	12	12	[0, 0, 0]	n/a	FR1	3	R1395M
1321.299	0.0	1429826	WORD_OFF	n/a	n/a	LINT	12	12	[0, 0, 0]	n/a	FR1	3	R1395M
1321.299	0.001	1429824	PROB	0.001	n/a	n/a	-999	12	[6, 5, 5]	16	FR1	3	R1395M
1321.3	0.0	1429826	DISTRACT_START	n/a	n/a	n/a	-999	12	[0, 0, 0]	n/a	FR1	3	R1395M
1321.3	0.0	1429826	ENCODING_END	n/a	n/a	n/a	-999	12	[0, 0, 0]	n/a	FR1	3	R1395M
1321.3	3.583	1429825	START	n/a	n/a	n/a	-999	12	[-999, -999, -999]	n/a	FR1	3	R1395M
1324.883	3.95	1433408	PROB	3.95	n/a	n/a	-999	12	[2, 7, 5]	14	FR1	3	R1395M
1328.833	3.082	1437357	PROB	3.082	n/a	n/a	-999	12	[7, 2, 5]	14	FR1	3	R1395M
1331.915	3.534	1440439	PROB	3.534	n/a	n/a	-999	12	[8, 8, 8]	24	FR1	3	R1395M
1335.449	2.334	1443973	PROB	2.334	n/a	n/a	-999	12	[2, 5, 5]	12	FR1	3	R1395M
1337.783	2.467	1446307	PROB	2.467	n/a	n/a	-999	12	[8, 1, 7]	16	FR1	3	R1395M
1340.25	2.282	1448774	PROB	2.282	n/a	n/a	-999	12	[1, 8, 8]	17	FR1	3	R1395M
1342.532	0.0	1451061	DISTRACT_END	n/a	n/a	n/a	-999	12	[0, 0, 0]	n/a	FR1	3	R1395M
1342.532	1.1	1451056	STOP	n/a	n/a	n/a	-999	12	[-999, -999, -999]	n/a	FR1	3	R1395M
1343.632	1.634	1452156	REC_START	n/a	n/a	n/a	-999	12	[0, 0, 0]	n/a	FR1	3	R1395M
1345.266	1.343	1453789	REC_WORD	1.343	n/a	ARCH	2	12	[0, 0, 0]	n/a	FR1	3	R1395M
1346.609	2.106	1455132	REC_WORD	2.106	n/a	GOLD	3	12	[0, 0, 0]	n/a	FR1	3	R1395M
1348.715	1.738	1457238	REC_WORD	1.738	n/a	BLUSH	4	12	[0, 0, 0]	n/a	FR1	3	R1395M
1350.453	2.453	1458976	REC_WORD	2.453	n/a	SHIP	8	12	[0, 0, 0]	n/a	FR1	3	R1395M
1352.906	21.94	1461429	REC_WORD	21.94	n/a	CHIN	1	12	[0, 0, 0]	n/a	FR1	3	R1395M
1374.846	0.0	1483366	REC_END	n/a	n/a	n/a	-999	12	[0, 0, 0]	n/a	FR1	3	R1395M
