onset	duration	sample	trial_type	response_time	stim_file	item_name	serialpos	list	test	answer	experiment	session	subject
0.0	1533.042	-1	START	n/a	n/a	n/a	-999	-1	[-999, -999, -999]	n/a	FR1	2	R1337E
1533.042	0.234	-1	Logging	n/a	n/a	n/a	-999	25	[0, 0, 0]	n/a	FR1	2	R1337E
1533.276	9.924	-1	Logging	n/a	n/a	n/a	-999	-999	[0, 0, 0]	n/a	FR1	2	R1337E
1543.2	0.0	-1	INSTRUCT_END	n/a	n/a	n/a	-999	-999	[0, 0, 0]	n/a	FR1	2	R1337E
1543.2	0.0	-1	WAITING_START	n/a	n/a	n/a	-999	-1	[0, 0, 0]	n/a	FR1	2	R1337E
1543.2	0.0	-1	TRIAL	n/a	n/a	n/a	-999	-1	[0, 0, 0]	n/a	FR1	2	R1337E
1543.2	0.0	-1	INSTRUCT_START	n/a	n/a	n/a	-999	-999	[0, 0, 0]	n/a	FR1	2	R1337E
1543.2	0.0	-1	MIC	n/a	n/a	n/a	-999	-999	[0, 0, 0]	n/a	FR1	2	R1337E
1543.2	0.0	-1	TRIAL_START	n/a	n/a	n/a	-999	-1	[0, 0, 0]	n/a	FR1	2	R1337E
1543.2	96.268	-1	MIC	n/a	n/a	n/a	-999	-999	[0, 0, 0]	n/a	FR1	2	R1337E
1639.468	0.0	28918	ORIENT_START	n/a	n/a	n/a	-999	-1	[0, 0, 0]	n/a	FR1	2	R1337E
1639.468	0.0	28918	WAITING_END	n/a	n/a	n/a	-999	-1	[0, 0, 0]	n/a	FR1	2	R1337E
1639.468	0.0	28918	COUNTDOWN_START	n/a	n/a	n/a	-999	-1	[0, 0, 0]	n/a	FR1	2	R1337E
1639.468	11.601	28918	COUNTDOWN_END	n/a	n/a	n/a	-999	-1	[0, 0, 0]	n/a	FR1	2	R1337E
1651.069	0.0	40518	ENCODING_START	n/a	n/a	n/a	-999	-1	[0, 0, 0]	n/a	FR1	2	R1337E
1651.069	0.775	40518	ORIENT_END	n/a	n/a	n/a	-999	-1	[0, 0, 0]	n/a	FR1	2	R1337E
1651.844	1.626	41293	WORD	n/a	n/a	COTTON	1	-1	[0, 0, 0]	n/a	FR1	2	R1337E
1653.47	0.843	42919	WORD_OFF	n/a	n/a	COTTON	1	-1	[0, 0, 0]	n/a	FR1	2	R1337E
1654.313	1.624	43762	WORD	n/a	n/a	FLOOD	2	-1	[0, 0, 0]	n/a	FR1	2	R1337E
1655.937	0.902	45386	WORD_OFF	n/a	n/a	FLOOD	2	-1	[0, 0, 0]	n/a	FR1	2	R1337E
1656.839	1.632	46288	WORD	n/a	n/a	IMAGE	3	-1	[0, 0, 0]	n/a	FR1	2	R1337E
1658.471	0.921	47920	WORD_OFF	n/a	n/a	IMAGE	3	-1	[0, 0, 0]	n/a	FR1	2	R1337E
1659.392	1.63	48841	WORD	n/a	n/a	WATCH	4	-1	[0, 0, 0]	n/a	FR1	2	R1337E
1661.022	0.775	50471	WORD_OFF	n/a	n/a	WATCH	4	-1	[0, 0, 0]	n/a	FR1	2	R1337E
1661.797	1.625	51246	WORD	n/a	n/a	TONGUE	5	-1	[0, 0, 0]	n/a	FR1	2	R1337E
1663.422	1.04	52871	WORD_OFF	n/a	n/a	TONGUE	5	-1	[0, 0, 0]	n/a	FR1	2	R1337E
1664.462	1.626	53911	WORD	n/a	n/a	RHINO	6	-1	[0, 0, 0]	n/a	FR1	2	R1337E
1666.088	1.043	55537	WORD_OFF	n/a	n/a	RHINO	6	-1	[0, 0, 0]	n/a	FR1	2	R1337E
1667.131	1.625	56580	WORD	n/a	n/a	BEAM	7	-1	[0, 0, 0]	n/a	FR1	2	R1337E
1668.756	0.965	58205	WORD_OFF	n/a	n/a	BEAM	7	-1	[0, 0, 0]	n/a	FR1	2	R1337E
1669.721	1.635	59170	WORD	n/a	n/a	WAGON	8	-1	[0, 0, 0]	n/a	FR1	2	R1337E
1671.356	1.003	60805	WORD_OFF	n/a	n/a	WAGON	8	-1	[0, 0, 0]	n/a	FR1	2	R1337E
1672.359	1.632	61807	WORD	n/a	n/a	BABY	9	-1	[0, 0, 0]	n/a	FR1	2	R1337E
1673.991	0.982	63439	WORD_OFF	n/a	n/a	BABY	9	-1	[0, 0, 0]	n/a	FR1	2	R1337E
1674.973	1.635	64421	WORD	n/a	n/a	CHEST	10	-1	[0, 0, 0]	n/a	FR1	2	R1337E
1676.608	1.049	66056	WORD_OFF	n/a	n/a	CHEST	10	-1	[0, 0, 0]	n/a	FR1	2	R1337E
1677.657	1.634	67105	WORD	n/a	n/a	CAMEL	11	-1	[0, 0, 0]	n/a	FR1	2	R1337E
1679.291	0.858	68739	WORD_OFF	n/a	n/a	CAMEL	11	-1	[0, 0, 0]	n/a	FR1	2	R1337E
1680.149	1.609	69597	WORD	n/a	n/a	RING	12	-1	[0, 0, 0]	n/a	FR1	2	R1337E
1681.758	0.0	71206	WORD_OFF	n/a	n/a	RING	12	-1	[0, 0, 0]	n/a	FR1	2	R1337E
1681.758	0.0	71206	ENCODING_END	n/a	n/a	n/a	-999	-1	[0, 0, 0]	n/a	FR1	2	R1337E
1681.758	0.001	71206	DISTRACT_START	n/a	n/a	n/a	-999	-1	[0, 0, 0]	n/a	FR1	2	R1337E
1681.759	0.016	71207	START	n/a	n/a	n/a	-999	1	[-999, -999, -999]	n/a	FR1	2	R1337E
1681.775	8.102	71223	PROB	8.102	n/a	n/a	-999	1	[6, 4, 8]	18	FR1	2	R1337E
1689.877	6.183	79325	PROB	6.183	n/a	n/a	-999	1	[8, 8, 2]	18	FR1	2	R1337E
1696.06	5.352	85508	PROB	5.352	n/a	n/a	-999	1	[4, 5, 1]	10	FR1	2	R1337E
1701.412	5.492	90859	PROB	5.492	n/a	n/a	-999	1	[8, 8, 2]	18	FR1	2	R1337E
1706.904	0.009	96351	STOP	n/a	n/a	n/a	-999	1	[-999, -999, -999]	n/a	FR1	2	R1337E
1706.913	1.052	96360	DISTRACT_END	n/a	n/a	n/a	-999	-1	[0, 0, 0]	n/a	FR1	2	R1337E
1707.965	1.032	97412	RETRIEVAL_ORIENT_START	n/a	n/a	n/a	-999	-1	[0, 0, 0]	n/a	FR1	2	R1337E
1708.997	0.0	98444	RETRIEVAL_ORIENT_END	n/a	n/a	n/a	-999	-1	[0, 0, 0]	n/a	FR1	2	R1337E
1708.997	0.436	98444	REC_START	n/a	n/a	n/a	-999	-1	[0, 0, 0]	n/a	FR1	2	R1337E
1709.433	0.652	98880	REC_WORD	0.652	n/a	TONGUE	5	-1	[0, 0, 0]	n/a	FR1	2	R1337E
1710.085	0.864	99532	REC_WORD	0.864	n/a	CHEST	10	-1	[0, 0, 0]	n/a	FR1	2	R1337E
1710.949	0.631	100396	REC_WORD	0.631	n/a	CAMEL	11	-1	[0, 0, 0]	n/a	FR1	2	R1337E
1711.58	1.017	101027	REC_WORD	1.017	n/a	RING	12	-1	[0, 0, 0]	n/a	FR1	2	R1337E
1712.597	26.911	102044	REC_WORD	26.911	n/a	COTTON	1	-1	[0, 0, 0]	n/a	FR1	2	R1337E
1739.508	0.0	128954	REC_END	n/a	n/a	n/a	-999	-1	[0, 0, 0]	n/a	FR1	2	R1337E
1739.508	7.861	128954	PRACTICE_POST_INSTRUCT_START	n/a	n/a	n/a	-999	-1	[0, 0, 0]	n/a	FR1	2	R1337E
1747.369	0.0	136815	PRACTICE_POST_INSTRUCT_END	n/a	n/a	n/a	-999	-1	[0, 0, 0]	n/a	FR1	2	R1337E
1747.369	0.0	136815	TRIAL_END	n/a	n/a	n/a	-999	-1	[0, 0, 0]	n/a	FR1	2	R1337E
1747.369	0.0	136815	TRIAL_START	n/a	n/a	n/a	-999	1	[0, 0, 0]	n/a	FR1	2	R1337E
1747.369	0.0	136815	TRIAL	n/a	n/a	n/a	-999	1	[0, 0, 0]	n/a	FR1	2	R1337E
1747.369	16.986	136815	WAITING_START	n/a	n/a	n/a	-999	1	[0, 0, 0]	n/a	FR1	2	R1337E
1764.355	0.0	153800	WAITING_END	n/a	n/a	n/a	-999	1	[0, 0, 0]	n/a	FR1	2	R1337E
1764.355	0.0	153800	COUNTDOWN_START	n/a	n/a	n/a	-999	1	[0, 0, 0]	n/a	FR1	2	R1337E
1764.355	0.0	153800	COUNTDOWN_END	n/a	n/a	n/a	-999	1	[0, 0, 0]	n/a	FR1	2	R1337E
1764.355	11.503	153800	ORIENT_START	n/a	n/a	n/a	-999	1	[0, 0, 0]	n/a	FR1	2	R1337E
1775.858	0.0	165303	ORIENT_END	n/a	n/a	n/a	-999	1	[0, 0, 0]	n/a	FR1	2	R1337E
1775.858	0.881	165303	ENCODING_START	n/a	n/a	n/a	-999	1	[0, 0, 0]	n/a	FR1	2	R1337E
1776.739	1.635	166184	WORD	n/a	n/a	INK	1	1	[0, 0, 0]	n/a	FR1	2	R1337E
1778.374	0.857	167819	WORD_OFF	n/a	n/a	INK	1	1	[0, 0, 0]	n/a	FR1	2	R1337E
1779.231	1.628	168676	WORD	n/a	n/a	HORSE	2	1	[0, 0, 0]	n/a	FR1	2	R1337E
1780.859	1.061	170304	WORD_OFF	n/a	n/a	HORSE	2	1	[0, 0, 0]	n/a	FR1	2	R1337E
1781.92	1.623	171365	WORD	n/a	n/a	MUG	3	1	[0, 0, 0]	n/a	FR1	2	R1337E
1783.543	1.121	172987	WORD_OFF	n/a	n/a	MUG	3	1	[0, 0, 0]	n/a	FR1	2	R1337E
1784.664	1.629	174108	WORD	n/a	n/a	FOOD	4	1	[0, 0, 0]	n/a	FR1	2	R1337E
1786.293	0.804	175737	WORD_OFF	n/a	n/a	FOOD	4	1	[0, 0, 0]	n/a	FR1	2	R1337E
1787.097	1.613	176541	WORD	n/a	n/a	TOOTH	5	1	[0, 0, 0]	n/a	FR1	2	R1337E
1788.71	0.982	178154	WORD_OFF	n/a	n/a	TOOTH	5	1	[0, 0, 0]	n/a	FR1	2	R1337E
1789.692	1.635	179136	WORD	n/a	n/a	WALL	6	1	[0, 0, 0]	n/a	FR1	2	R1337E
1791.327	1.107	180771	WORD_OFF	n/a	n/a	WALL	6	1	[0, 0, 0]	n/a	FR1	2	R1337E
1792.434	1.627	181878	WORD	n/a	n/a	DITCH	7	1	[0, 0, 0]	n/a	FR1	2	R1337E
1794.061	1.119	183505	WORD_OFF	n/a	n/a	DITCH	7	1	[0, 0, 0]	n/a	FR1	2	R1337E
1795.18	1.615	184624	WORD	n/a	n/a	TOAD	8	1	[0, 0, 0]	n/a	FR1	2	R1337E
1796.795	1.043	186239	WORD_OFF	n/a	n/a	TOAD	8	1	[0, 0, 0]	n/a	FR1	2	R1337E
1797.838	1.625	187282	WORD	n/a	n/a	WAND	9	1	[0, 0, 0]	n/a	FR1	2	R1337E
1799.463	0.824	188907	WORD_OFF	n/a	n/a	WAND	9	1	[0, 0, 0]	n/a	FR1	2	R1337E
1800.287	1.626	189731	WORD	n/a	n/a	BOY	10	1	[0, 0, 0]	n/a	FR1	2	R1337E
1801.913	0.786	191357	WORD_OFF	n/a	n/a	BOY	10	1	[0, 0, 0]	n/a	FR1	2	R1337E
1802.699	1.63	192143	WORD	n/a	n/a	TOAST	11	1	[0, 0, 0]	n/a	FR1	2	R1337E
1804.329	0.839	193773	WORD_OFF	n/a	n/a	TOAST	11	1	[0, 0, 0]	n/a	FR1	2	R1337E
1805.168	1.612	194612	WORD	n/a	n/a	SHRIMP	12	1	[0, 0, 0]	n/a	FR1	2	R1337E
1806.78	0.0	196224	WORD_OFF	n/a	n/a	SHRIMP	12	1	[0, 0, 0]	n/a	FR1	2	R1337E
1806.78	0.0	196224	ENCODING_END	n/a	n/a	n/a	-999	1	[0, 0, 0]	n/a	FR1	2	R1337E
1806.78	0.001	196224	DISTRACT_START	n/a	n/a	n/a	-999	1	[0, 0, 0]	n/a	FR1	2	R1337E
1806.781	0.016	196225	START	n/a	n/a	n/a	-999	2	[-999, -999, -999]	n/a	FR1	2	R1337E
1806.797	10.318	196241	PROB	10.318	n/a	n/a	-999	2	[1, 1, 5]	7	FR1	2	R1337E
1817.115	3.851	206558	PROB	3.851	n/a	n/a	-999	2	[9, 4, 5]	18	FR1	2	R1337E
1820.966	3.968	210409	PROB	3.968	n/a	n/a	-999	2	[8, 9, 4]	21	FR1	2	R1337E
1824.934	3.661	214377	PROB	3.661	n/a	n/a	-999	2	[8, 9, 1]	18	FR1	2	R1337E
1828.595	0.006	218038	STOP	n/a	n/a	n/a	-999	2	[-999, -999, -999]	n/a	FR1	2	R1337E
1828.601	1.128	218044	DISTRACT_END	n/a	n/a	n/a	-999	1	[0, 0, 0]	n/a	FR1	2	R1337E
1829.729	1.022	219172	RETRIEVAL_ORIENT_START	n/a	n/a	n/a	-999	1	[0, 0, 0]	n/a	FR1	2	R1337E
1830.751	0.0	220194	RETRIEVAL_ORIENT_END	n/a	n/a	n/a	-999	1	[0, 0, 0]	n/a	FR1	2	R1337E
1830.751	0.638	220194	REC_START	n/a	n/a	n/a	-999	1	[0, 0, 0]	n/a	FR1	2	R1337E
1831.389	1.119	220832	REC_WORD	1.119	n/a	TOAD	8	1	[0, 0, 0]	n/a	FR1	2	R1337E
1832.508	0.953	221951	REC_WORD	0.953	n/a	WAND	9	1	[0, 0, 0]	n/a	FR1	2	R1337E
1833.461	27.802	222904	REC_WORD	27.802	n/a	BOY	10	1	[0, 0, 0]	n/a	FR1	2	R1337E
1861.263	0.0	250705	TRIAL_START	n/a	n/a	n/a	-999	2	[0, 0, 0]	n/a	FR1	2	R1337E
1861.263	0.0	250705	WAITING_START	n/a	n/a	n/a	-999	2	[0, 0, 0]	n/a	FR1	2	R1337E
1861.263	0.0	250705	TRIAL	n/a	n/a	n/a	-999	2	[0, 0, 0]	n/a	FR1	2	R1337E
1861.263	0.0	250705	REC_END	n/a	n/a	n/a	-999	1	[0, 0, 0]	n/a	FR1	2	R1337E
1861.263	4.043	250705	TRIAL_END	n/a	n/a	n/a	-999	1	[0, 0, 0]	n/a	FR1	2	R1337E
1865.306	0.0	254748	WAITING_END	n/a	n/a	n/a	-999	2	[0, 0, 0]	n/a	FR1	2	R1337E
1865.306	0.0	254748	COUNTDOWN_START	n/a	n/a	n/a	-999	2	[0, 0, 0]	n/a	FR1	2	R1337E
1865.306	0.0	254748	COUNTDOWN_END	n/a	n/a	n/a	-999	2	[0, 0, 0]	n/a	FR1	2	R1337E
1865.306	11.62	254748	ORIENT_START	n/a	n/a	n/a	-999	2	[0, 0, 0]	n/a	FR1	2	R1337E
1876.926	0.0	266367	ORIENT_END	n/a	n/a	n/a	-999	2	[0, 0, 0]	n/a	FR1	2	R1337E
1876.926	1.014	266367	ENCODING_START	n/a	n/a	n/a	-999	2	[0, 0, 0]	n/a	FR1	2	R1337E
1877.94	1.637	267381	WORD	n/a	n/a	MULE	1	2	[0, 0, 0]	n/a	FR1	2	R1337E
1879.577	0.807	269018	WORD_OFF	n/a	n/a	MULE	1	2	[0, 0, 0]	n/a	FR1	2	R1337E
1880.384	1.626	269825	WORD	n/a	n/a	FLAG	2	2	[0, 0, 0]	n/a	FR1	2	R1337E
1882.01	1.044	271451	WORD_OFF	n/a	n/a	FLAG	2	2	[0, 0, 0]	n/a	FR1	2	R1337E
1883.054	1.607	272495	WORD	n/a	n/a	STOVE	3	2	[0, 0, 0]	n/a	FR1	2	R1337E
1884.661	1.068	274102	WORD_OFF	n/a	n/a	STOVE	3	2	[0, 0, 0]	n/a	FR1	2	R1337E
1885.729	1.631	275170	WORD	n/a	n/a	CLIFF	4	2	[0, 0, 0]	n/a	FR1	2	R1337E
1887.36	0.972	276801	WORD_OFF	n/a	n/a	CLIFF	4	2	[0, 0, 0]	n/a	FR1	2	R1337E
1888.332	1.63	277773	WORD	n/a	n/a	STREET	5	2	[0, 0, 0]	n/a	FR1	2	R1337E
1889.962	1.006	279403	WORD_OFF	n/a	n/a	STREET	5	2	[0, 0, 0]	n/a	FR1	2	R1337E
1890.968	1.627	280409	WORD	n/a	n/a	GEESE	6	2	[0, 0, 0]	n/a	FR1	2	R1337E
1892.595	0.83	282036	WORD_OFF	n/a	n/a	GEESE	6	2	[0, 0, 0]	n/a	FR1	2	R1337E
1893.425	1.62	282866	WORD	n/a	n/a	BEE	7	2	[0, 0, 0]	n/a	FR1	2	R1337E
1895.045	1.033	284485	WORD_OFF	n/a	n/a	BEE	7	2	[0, 0, 0]	n/a	FR1	2	R1337E
1896.078	1.635	285518	WORD	n/a	n/a	OWL	8	2	[0, 0, 0]	n/a	FR1	2	R1337E
1897.713	1.095	287153	WORD_OFF	n/a	n/a	OWL	8	2	[0, 0, 0]	n/a	FR1	2	R1337E
1898.808	1.622	288248	WORD	n/a	n/a	BOMB	9	2	[0, 0, 0]	n/a	FR1	2	R1337E
1900.43	0.784	289870	WORD_OFF	n/a	n/a	BOMB	9	2	[0, 0, 0]	n/a	FR1	2	R1337E
1901.214	1.633	290654	WORD	n/a	n/a	MAIL	10	2	[0, 0, 0]	n/a	FR1	2	R1337E
1902.847	0.754	292287	WORD_OFF	n/a	n/a	MAIL	10	2	[0, 0, 0]	n/a	FR1	2	R1337E
1903.601	1.629	293041	WORD	n/a	n/a	AXE	11	2	[0, 0, 0]	n/a	FR1	2	R1337E
1905.23	0.842	294670	WORD_OFF	n/a	n/a	AXE	11	2	[0, 0, 0]	n/a	FR1	2	R1337E
1906.072	1.609	295512	WORD	n/a	n/a	PURSE	12	2	[0, 0, 0]	n/a	FR1	2	R1337E
1907.681	0.0	297121	WORD_OFF	n/a	n/a	PURSE	12	2	[0, 0, 0]	n/a	FR1	2	R1337E
1907.681	0.0	297121	ENCODING_END	n/a	n/a	n/a	-999	2	[0, 0, 0]	n/a	FR1	2	R1337E
1907.681	0.001	297121	DISTRACT_START	n/a	n/a	n/a	-999	2	[0, 0, 0]	n/a	FR1	2	R1337E
1907.682	0.016	297122	START	n/a	n/a	n/a	-999	3	[-999, -999, -999]	n/a	FR1	2	R1337E
1907.698	7.201	297138	PROB	7.201	n/a	n/a	-999	3	[5, 2, 4]	11	FR1	2	R1337E
1914.899	4.018	304339	PROB	4.018	n/a	n/a	-999	3	[6, 5, 5]	16	FR1	2	R1337E
1918.917	3.299	308357	PROB	3.299	n/a	n/a	-999	3	[5, 5, 1]	11	FR1	2	R1337E
1922.216	6.423	311656	PROB	6.423	n/a	n/a	-999	3	[8, 9, 8]	25	FR1	2	R1337E
1928.639	0.013	318078	STOP	n/a	n/a	n/a	-999	3	[-999, -999, -999]	n/a	FR1	2	R1337E
1928.652	1.209	318091	DISTRACT_END	n/a	n/a	n/a	-999	2	[0, 0, 0]	n/a	FR1	2	R1337E
1929.861	1.025	319300	RETRIEVAL_ORIENT_START	n/a	n/a	n/a	-999	2	[0, 0, 0]	n/a	FR1	2	R1337E
1930.886	0.0	320325	RETRIEVAL_ORIENT_END	n/a	n/a	n/a	-999	2	[0, 0, 0]	n/a	FR1	2	R1337E
1930.886	0.084	320325	REC_START	n/a	n/a	n/a	-999	2	[0, 0, 0]	n/a	FR1	2	R1337E
1930.97	0.761	320409	REC_WORD	0.761	n/a	FLAG	2	2	[0, 0, 0]	n/a	FR1	2	R1337E
1931.731	0.962	321170	REC_WORD	0.962	n/a	STOVE	3	2	[0, 0, 0]	n/a	FR1	2	R1337E
1932.693	1.244	322132	REC_WORD	1.244	n/a	STREET	5	2	[0, 0, 0]	n/a	FR1	2	R1337E
1933.937	27.461	323376	REC_WORD	27.461	n/a	BOMB	9	2	[0, 0, 0]	n/a	FR1	2	R1337E
1961.398	0.0	350836	REC_END	n/a	n/a	n/a	-999	2	[0, 0, 0]	n/a	FR1	2	R1337E
1961.398	0.0	350836	TRIAL_END	n/a	n/a	n/a	-999	2	[0, 0, 0]	n/a	FR1	2	R1337E
1961.398	0.0	350836	TRIAL_START	n/a	n/a	n/a	-999	3	[0, 0, 0]	n/a	FR1	2	R1337E
1961.398	0.0	350836	TRIAL	n/a	n/a	n/a	-999	3	[0, 0, 0]	n/a	FR1	2	R1337E
1961.398	15.961	350836	WAITING_START	n/a	n/a	n/a	-999	3	[0, 0, 0]	n/a	FR1	2	R1337E
1977.359	0.0	366797	WAITING_END	n/a	n/a	n/a	-999	3	[0, 0, 0]	n/a	FR1	2	R1337E
1977.359	0.0	366797	COUNTDOWN_START	n/a	n/a	n/a	-999	3	[0, 0, 0]	n/a	FR1	2	R1337E
1977.359	0.0	366797	COUNTDOWN_END	n/a	n/a	n/a	-999	3	[0, 0, 0]	n/a	FR1	2	R1337E
1977.359	11.47	366797	ORIENT_START	n/a	n/a	n/a	-999	3	[0, 0, 0]	n/a	FR1	2	R1337E
1988.829	0.0	378266	ORIENT_END	n/a	n/a	n/a	-999	3	[0, 0, 0]	n/a	FR1	2	R1337E
1988.829	1.086	378266	ENCODING_START	n/a	n/a	n/a	-999	3	[0, 0, 0]	n/a	FR1	2	R1337E
1989.915	1.631	379352	WORD	n/a	n/a	CHEEK	1	3	[0, 0, 0]	n/a	FR1	2	R1337E
1991.546	1.037	380983	WORD_OFF	n/a	n/a	CHEEK	1	3	[0, 0, 0]	n/a	FR1	2	R1337E
1992.583	1.629	382020	WORD	n/a	n/a	WHALE	2	3	[0, 0, 0]	n/a	FR1	2	R1337E
1994.212	0.923	383649	WORD_OFF	n/a	n/a	WHALE	2	3	[0, 0, 0]	n/a	FR1	2	R1337E
1995.135	1.629	384572	WORD	n/a	n/a	HOLE	3	3	[0, 0, 0]	n/a	FR1	2	R1337E
1996.764	1.042	386201	WORD_OFF	n/a	n/a	HOLE	3	3	[0, 0, 0]	n/a	FR1	2	R1337E
1997.806	1.625	387243	WORD	n/a	n/a	FILM	4	3	[0, 0, 0]	n/a	FR1	2	R1337E
1999.431	0.979	388868	WORD_OFF	n/a	n/a	FILM	4	3	[0, 0, 0]	n/a	FR1	2	R1337E
2000.41	1.621	389847	WORD	n/a	n/a	FLUTE	5	3	[0, 0, 0]	n/a	FR1	2	R1337E
2002.031	0.806	391468	WORD_OFF	n/a	n/a	FLUTE	5	3	[0, 0, 0]	n/a	FR1	2	R1337E
2002.837	1.628	392274	WORD	n/a	n/a	BLUSH	6	3	[0, 0, 0]	n/a	FR1	2	R1337E
2004.465	0.775	393902	WORD_OFF	n/a	n/a	BLUSH	6	3	[0, 0, 0]	n/a	FR1	2	R1337E
2005.24	1.625	394677	WORD	n/a	n/a	BROOM	7	3	[0, 0, 0]	n/a	FR1	2	R1337E
2006.865	1.076	396301	WORD_OFF	n/a	n/a	BROOM	7	3	[0, 0, 0]	n/a	FR1	2	R1337E
2007.941	1.625	397377	WORD	n/a	n/a	LAMP	8	3	[0, 0, 0]	n/a	FR1	2	R1337E
2009.566	0.912	399002	WORD_OFF	n/a	n/a	LAMP	8	3	[0, 0, 0]	n/a	FR1	2	R1337E
2010.478	1.621	399914	WORD	n/a	n/a	SPEAR	9	3	[0, 0, 0]	n/a	FR1	2	R1337E
2012.099	0.862	401535	WORD_OFF	n/a	n/a	SPEAR	9	3	[0, 0, 0]	n/a	FR1	2	R1337E
2012.961	1.622	402397	WORD	n/a	n/a	PHONE	10	3	[0, 0, 0]	n/a	FR1	2	R1337E
2014.583	0.896	404019	WORD_OFF	n/a	n/a	PHONE	10	3	[0, 0, 0]	n/a	FR1	2	R1337E
2015.479	1.637	404915	WORD	n/a	n/a	ROAD	11	3	[0, 0, 0]	n/a	FR1	2	R1337E
2017.116	1.1	406552	WORD_OFF	n/a	n/a	ROAD	11	3	[0, 0, 0]	n/a	FR1	2	R1337E
2018.216	1.635	407652	WORD	n/a	n/a	PLATE	12	3	[0, 0, 0]	n/a	FR1	2	R1337E
2019.851	0.0	409287	WORD_OFF	n/a	n/a	PLATE	12	3	[0, 0, 0]	n/a	FR1	2	R1337E
2019.851	0.0	409287	ENCODING_END	n/a	n/a	n/a	-999	3	[0, 0, 0]	n/a	FR1	2	R1337E
2019.851	0.001	409287	DISTRACT_START	n/a	n/a	n/a	-999	3	[0, 0, 0]	n/a	FR1	2	R1337E
2019.852	0.016	409288	START	n/a	n/a	n/a	-999	4	[-999, -999, -999]	n/a	FR1	2	R1337E
2019.868	8.551	409304	PROB	8.551	n/a	n/a	-999	4	[5, 2, 2]	9	FR1	2	R1337E
2028.419	4.151	417855	PROB	4.151	n/a	n/a	-999	4	[7, 9, 2]	18	FR1	2	R1337E
2032.57	4.017	422006	PROB	4.017	n/a	n/a	-999	4	[5, 9, 5]	19	FR1	2	R1337E
2036.587	4.12	426022	PROB	4.12	n/a	n/a	-999	4	[7, 3, 2]	12	FR1	2	R1337E
2040.707	0.014	430142	STOP	n/a	n/a	n/a	-999	4	[-999, -999, -999]	n/a	FR1	2	R1337E
2040.721	1.192	430156	DISTRACT_END	n/a	n/a	n/a	-999	3	[0, 0, 0]	n/a	FR1	2	R1337E
2041.913	1.026	431348	RETRIEVAL_ORIENT_START	n/a	n/a	n/a	-999	3	[0, 0, 0]	n/a	FR1	2	R1337E
2042.939	0.0	432374	RETRIEVAL_ORIENT_END	n/a	n/a	n/a	-999	3	[0, 0, 0]	n/a	FR1	2	R1337E
2042.939	0.519	432374	REC_START	n/a	n/a	n/a	-999	3	[0, 0, 0]	n/a	FR1	2	R1337E
2043.458	0.802	432893	REC_WORD	0.802	n/a	ROAD	11	3	[0, 0, 0]	n/a	FR1	2	R1337E
2044.26	1.367	433695	REC_WORD	1.367	n/a	PLATE	12	3	[0, 0, 0]	n/a	FR1	2	R1337E
2045.627	1.294	435062	REC_WORD	1.294	n/a	BRANCH	-999	3	[0, 0, 0]	n/a	FR1	2	R1337E
2046.921	26.53	436356	REC_WORD	26.53	n/a	BOAT	-999	3	[0, 0, 0]	n/a	FR1	2	R1337E
2073.451	0.0	462885	TRIAL	n/a	n/a	n/a	-999	4	[0, 0, 0]	n/a	FR1	2	R1337E
2073.451	0.0	462885	WAITING_START	n/a	n/a	n/a	-999	4	[0, 0, 0]	n/a	FR1	2	R1337E
2073.451	0.0	462885	TRIAL_END	n/a	n/a	n/a	-999	3	[0, 0, 0]	n/a	FR1	2	R1337E
2073.451	0.0	462885	TRIAL_START	n/a	n/a	n/a	-999	4	[0, 0, 0]	n/a	FR1	2	R1337E
2073.451	2.692	462885	REC_END	n/a	n/a	n/a	-999	3	[0, 0, 0]	n/a	FR1	2	R1337E
2076.143	0.0	465577	ORIENT_START	n/a	n/a	n/a	-999	4	[0, 0, 0]	n/a	FR1	2	R1337E
2076.143	0.0	465577	WAITING_END	n/a	n/a	n/a	-999	4	[0, 0, 0]	n/a	FR1	2	R1337E
2076.143	0.0	465577	COUNTDOWN_START	n/a	n/a	n/a	-999	4	[0, 0, 0]	n/a	FR1	2	R1337E
2076.143	11.653	465577	COUNTDOWN_END	n/a	n/a	n/a	-999	4	[0, 0, 0]	n/a	FR1	2	R1337E
2087.796	0.0	477230	ORIENT_END	n/a	n/a	n/a	-999	4	[0, 0, 0]	n/a	FR1	2	R1337E
2087.796	1.139	477230	ENCODING_START	n/a	n/a	n/a	-999	4	[0, 0, 0]	n/a	FR1	2	R1337E
2088.935	1.628	478369	WORD	n/a	n/a	PET	1	4	[0, 0, 0]	n/a	FR1	2	R1337E
2090.563	0.946	479996	WORD_OFF	n/a	n/a	PET	1	4	[0, 0, 0]	n/a	FR1	2	R1337E
2091.509	1.621	480942	WORD	n/a	n/a	COIN	2	4	[0, 0, 0]	n/a	FR1	2	R1337E
2093.13	1.03	482563	WORD_OFF	n/a	n/a	COIN	2	4	[0, 0, 0]	n/a	FR1	2	R1337E
2094.16	1.638	483593	WORD	n/a	n/a	ROOF	3	4	[0, 0, 0]	n/a	FR1	2	R1337E
2095.798	1.042	485231	WORD_OFF	n/a	n/a	ROOF	3	4	[0, 0, 0]	n/a	FR1	2	R1337E
2096.84	1.625	486273	WORD	n/a	n/a	SUN	4	4	[0, 0, 0]	n/a	FR1	2	R1337E
2098.465	1.148	487898	WORD_OFF	n/a	n/a	SUN	4	4	[0, 0, 0]	n/a	FR1	2	R1337E
2099.613	1.635	489046	WORD	n/a	n/a	POLE	5	4	[0, 0, 0]	n/a	FR1	2	R1337E
2101.248	0.893	490681	WORD_OFF	n/a	n/a	POLE	5	4	[0, 0, 0]	n/a	FR1	2	R1337E
2102.141	1.625	491574	WORD	n/a	n/a	CROWN	6	4	[0, 0, 0]	n/a	FR1	2	R1337E
2103.766	1.073	493199	WORD_OFF	n/a	n/a	CROWN	6	4	[0, 0, 0]	n/a	FR1	2	R1337E
2104.839	1.627	494272	WORD	n/a	n/a	WAVE	7	4	[0, 0, 0]	n/a	FR1	2	R1337E
2106.466	1.129	495899	WORD_OFF	n/a	n/a	WAVE	7	4	[0, 0, 0]	n/a	FR1	2	R1337E
2107.595	1.621	497028	WORD	n/a	n/a	STORE	8	4	[0, 0, 0]	n/a	FR1	2	R1337E
2109.216	0.992	498649	WORD_OFF	n/a	n/a	STORE	8	4	[0, 0, 0]	n/a	FR1	2	R1337E
2110.208	1.609	499641	WORD	n/a	n/a	STRING	9	4	[0, 0, 0]	n/a	FR1	2	R1337E
2111.817	1.091	501250	WORD_OFF	n/a	n/a	STRING	9	4	[0, 0, 0]	n/a	FR1	2	R1337E
2112.908	1.626	502341	WORD	n/a	n/a	BED	10	4	[0, 0, 0]	n/a	FR1	2	R1337E
2114.534	0.958	503967	WORD_OFF	n/a	n/a	BED	10	4	[0, 0, 0]	n/a	FR1	2	R1337E
2115.492	1.625	504925	WORD	n/a	n/a	MOLE	11	4	[0, 0, 0]	n/a	FR1	2	R1337E
2117.117	1.029	506549	WORD_OFF	n/a	n/a	MOLE	11	4	[0, 0, 0]	n/a	FR1	2	R1337E
2118.146	1.623	507578	WORD	n/a	n/a	LIP	12	4	[0, 0, 0]	n/a	FR1	2	R1337E
2119.769	0.0	509201	WORD_OFF	n/a	n/a	LIP	12	4	[0, 0, 0]	n/a	FR1	2	R1337E
2119.769	0.0	509201	ENCODING_END	n/a	n/a	n/a	-999	4	[0, 0, 0]	n/a	FR1	2	R1337E
2119.769	0.001	509201	DISTRACT_START	n/a	n/a	n/a	-999	4	[0, 0, 0]	n/a	FR1	2	R1337E
2119.77	0.015	509202	START	n/a	n/a	n/a	-999	5	[-999, -999, -999]	n/a	FR1	2	R1337E
2119.785	4.483	509217	PROB	4.483	n/a	n/a	-999	5	[3, 7, 2]	12	FR1	2	R1337E
2124.268	3.769	513700	PROB	3.769	n/a	n/a	-999	5	[1, 4, 3]	8	FR1	2	R1337E
2128.037	3.299	517469	PROB	3.299	n/a	n/a	-999	5	[4, 4, 3]	111	FR1	2	R1337E
2131.336	5.669	520768	PROB	5.669	n/a	n/a	-999	5	[7, 1, 2]	10	FR1	2	R1337E
2137.005	6.704	526437	PROB	6.704	n/a	n/a	-999	5	[7, 9, 9]	25	FR1	2	R1337E
2143.709	0.014	533141	STOP	n/a	n/a	n/a	-999	5	[-999, -999, -999]	n/a	FR1	2	R1337E
2143.723	1.107	533155	DISTRACT_END	n/a	n/a	n/a	-999	4	[0, 0, 0]	n/a	FR1	2	R1337E
2144.83	1.026	534261	RETRIEVAL_ORIENT_START	n/a	n/a	n/a	-999	4	[0, 0, 0]	n/a	FR1	2	R1337E
2145.856	0.0	535287	REC_START	n/a	n/a	n/a	-999	4	[0, 0, 0]	n/a	FR1	2	R1337E
2145.856	0.412	535287	RETRIEVAL_ORIENT_END	n/a	n/a	n/a	-999	4	[0, 0, 0]	n/a	FR1	2	R1337E
2146.268	0.517	535699	REC_WORD	0.517	n/a	PET	1	4	[0, 0, 0]	n/a	FR1	2	R1337E
2146.785	0.706	536216	REC_WORD	0.706	n/a	COIN	2	4	[0, 0, 0]	n/a	FR1	2	R1337E
2147.491	0.501	536922	REC_WORD	0.501	n/a	ROOF	3	4	[0, 0, 0]	n/a	FR1	2	R1337E
2147.992	28.376	537423	REC_WORD	28.376	n/a	SUN	4	4	[0, 0, 0]	n/a	FR1	2	R1337E
2176.368	0.0	565798	REC_END	n/a	n/a	n/a	-999	4	[0, 0, 0]	n/a	FR1	2	R1337E
2176.368	0.0	565798	TRIAL_END	n/a	n/a	n/a	-999	4	[0, 0, 0]	n/a	FR1	2	R1337E
2176.368	0.0	565798	TRIAL_START	n/a	n/a	n/a	-999	5	[0, 0, 0]	n/a	FR1	2	R1337E
2176.368	0.0	565798	TRIAL	n/a	n/a	n/a	-999	5	[0, 0, 0]	n/a	FR1	2	R1337E
2176.368	3.128	565798	WAITING_START	n/a	n/a	n/a	-999	5	[0, 0, 0]	n/a	FR1	2	R1337E
2179.496	0.0	568926	WAITING_END	n/a	n/a	n/a	-999	5	[0, 0, 0]	n/a	FR1	2	R1337E
2179.496	0.0	568926	COUNTDOWN_START	n/a	n/a	n/a	-999	5	[0, 0, 0]	n/a	FR1	2	R1337E
2179.496	0.0	568926	COUNTDOWN_END	n/a	n/a	n/a	-999	5	[0, 0, 0]	n/a	FR1	2	R1337E
2179.496	11.617	568926	ORIENT_START	n/a	n/a	n/a	-999	5	[0, 0, 0]	n/a	FR1	2	R1337E
2191.113	0.0	580543	ORIENT_END	n/a	n/a	n/a	-999	5	[0, 0, 0]	n/a	FR1	2	R1337E
2191.113	0.809	580543	ENCODING_START	n/a	n/a	n/a	-999	5	[0, 0, 0]	n/a	FR1	2	R1337E
2191.922	1.626	581352	WORD	n/a	n/a	WEB	1	5	[0, 0, 0]	n/a	FR1	2	R1337E
2193.548	1.033	582978	WORD_OFF	n/a	n/a	WEB	1	5	[0, 0, 0]	n/a	FR1	2	R1337E
2194.581	1.633	584011	WORD	n/a	n/a	BALL	2	5	[0, 0, 0]	n/a	FR1	2	R1337E
2196.214	0.799	585644	WORD_OFF	n/a	n/a	BALL	2	5	[0, 0, 0]	n/a	FR1	2	R1337E
2197.013	1.636	586443	WORD	n/a	n/a	PLANE	3	5	[0, 0, 0]	n/a	FR1	2	R1337E
2198.649	1.097	588079	WORD_OFF	n/a	n/a	PLANE	3	5	[0, 0, 0]	n/a	FR1	2	R1337E
2199.746	1.636	589176	WORD	n/a	n/a	TRASH	4	5	[0, 0, 0]	n/a	FR1	2	R1337E
2201.382	0.827	590811	WORD_OFF	n/a	n/a	TRASH	4	5	[0, 0, 0]	n/a	FR1	2	R1337E
2202.209	1.607	591638	WORD	n/a	n/a	ICE	5	5	[0, 0, 0]	n/a	FR1	2	R1337E
2203.816	0.824	593245	WORD_OFF	n/a	n/a	ICE	5	5	[0, 0, 0]	n/a	FR1	2	R1337E
2204.64	1.626	594069	WORD	n/a	n/a	BOAT	6	5	[0, 0, 0]	n/a	FR1	2	R1337E
2206.266	1.135	595695	WORD_OFF	n/a	n/a	BOAT	6	5	[0, 0, 0]	n/a	FR1	2	R1337E
2207.401	1.633	596830	WORD	n/a	n/a	JAIL	7	5	[0, 0, 0]	n/a	FR1	2	R1337E
2209.034	0.879	598463	WORD_OFF	n/a	n/a	JAIL	7	5	[0, 0, 0]	n/a	FR1	2	R1337E
2209.913	1.622	599342	WORD	n/a	n/a	SAIL	8	5	[0, 0, 0]	n/a	FR1	2	R1337E
2211.535	0.866	600964	WORD_OFF	n/a	n/a	SAIL	8	5	[0, 0, 0]	n/a	FR1	2	R1337E
2212.401	1.634	601830	WORD	n/a	n/a	SHIELD	9	5	[0, 0, 0]	n/a	FR1	2	R1337E
2214.035	1.072	603464	WORD_OFF	n/a	n/a	SHIELD	9	5	[0, 0, 0]	n/a	FR1	2	R1337E
2215.107	1.629	604536	WORD	n/a	n/a	MUD	10	5	[0, 0, 0]	n/a	FR1	2	R1337E
2216.736	0.955	606165	WORD_OFF	n/a	n/a	MUD	10	5	[0, 0, 0]	n/a	FR1	2	R1337E
2217.691	1.627	607120	WORD	n/a	n/a	YARD	11	5	[0, 0, 0]	n/a	FR1	2	R1337E
2219.318	0.907	608747	WORD_OFF	n/a	n/a	YARD	11	5	[0, 0, 0]	n/a	FR1	2	R1337E
2220.225	1.628	609654	WORD	n/a	n/a	CART	12	5	[0, 0, 0]	n/a	FR1	2	R1337E
2221.853	0.0	611282	ENCODING_END	n/a	n/a	n/a	-999	5	[0, 0, 0]	n/a	FR1	2	R1337E
2221.853	0.0	611282	WORD_OFF	n/a	n/a	CART	12	5	[0, 0, 0]	n/a	FR1	2	R1337E
2221.853	0.001	611282	DISTRACT_START	n/a	n/a	n/a	-999	5	[0, 0, 0]	n/a	FR1	2	R1337E
2221.854	0.016	611283	START	n/a	n/a	n/a	-999	6	[-999, -999, -999]	n/a	FR1	2	R1337E
2221.87	7.951	611299	PROB	7.951	n/a	n/a	-999	6	[8, 8, 6]	22	FR1	2	R1337E
2229.821	3.533	619249	PROB	3.533	n/a	n/a	-999	6	[1, 7, 7]	15	FR1	2	R1337E
2233.354	4.235	622782	PROB	4.235	n/a	n/a	-999	6	[7, 4, 8]	19	FR1	2	R1337E
2237.589	2.817	627017	PROB	2.817	n/a	n/a	-999	6	[5, 4, 5]	14	FR1	2	R1337E
2240.406	3.331	629834	PROB	3.331	n/a	n/a	-999	6	[9, 8, 1]	18	FR1	2	R1337E
2243.737	0.02	633165	STOP	n/a	n/a	n/a	-999	6	[-999, -999, -999]	n/a	FR1	2	R1337E
2243.757	1.094	633185	DISTRACT_END	n/a	n/a	n/a	-999	5	[0, 0, 0]	n/a	FR1	2	R1337E
2244.851	1.023	634279	RETRIEVAL_ORIENT_START	n/a	n/a	n/a	-999	5	[0, 0, 0]	n/a	FR1	2	R1337E
2245.874	0.0	635302	RETRIEVAL_ORIENT_END	n/a	n/a	n/a	-999	5	[0, 0, 0]	n/a	FR1	2	R1337E
2245.874	1.265	635302	REC_START	n/a	n/a	n/a	-999	5	[0, 0, 0]	n/a	FR1	2	R1337E
2247.139	0.793	636567	REC_WORD	0.793	n/a	WEB	1	5	[0, 0, 0]	n/a	FR1	2	R1337E
2247.932	0.812	637360	REC_WORD	0.812	n/a	BALL	2	5	[0, 0, 0]	n/a	FR1	2	R1337E
2248.744	0.7	638172	REC_WORD	0.7	n/a	PLANE	3	5	[0, 0, 0]	n/a	FR1	2	R1337E
2249.444	26.942	638872	REC_WORD	26.942	n/a	TRASH	4	5	[0, 0, 0]	n/a	FR1	2	R1337E
2276.386	0.0	665813	REC_END	n/a	n/a	n/a	-999	5	[0, 0, 0]	n/a	FR1	2	R1337E
2276.386	0.0	665813	TRIAL_END	n/a	n/a	n/a	-999	5	[0, 0, 0]	n/a	FR1	2	R1337E
2276.386	0.0	665813	TRIAL_START	n/a	n/a	n/a	-999	6	[0, 0, 0]	n/a	FR1	2	R1337E
2276.386	0.0	665813	TRIAL	n/a	n/a	n/a	-999	6	[0, 0, 0]	n/a	FR1	2	R1337E
2276.386	3.66	665813	WAITING_START	n/a	n/a	n/a	-999	6	[0, 0, 0]	n/a	FR1	2	R1337E
2280.046	0.0	669473	ORIENT_START	n/a	n/a	n/a	-999	6	[0, 0, 0]	n/a	FR1	2	R1337E
2280.046	0.0	669473	COUNTDOWN_START	n/a	n/a	n/a	-999	6	[0, 0, 0]	n/a	FR1	2	R1337E
2280.046	0.0	669473	COUNTDOWN_END	n/a	n/a	n/a	-999	6	[0, 0, 0]	n/a	FR1	2	R1337E
2280.046	11.469	669473	WAITING_END	n/a	n/a	n/a	-999	6	[0, 0, 0]	n/a	FR1	2	R1337E
2291.515	0.0	680941	ORIENT_END	n/a	n/a	n/a	-999	6	[0, 0, 0]	n/a	FR1	2	R1337E
2291.515	1.004	680941	ENCODING_START	n/a	n/a	n/a	-999	6	[0, 0, 0]	n/a	FR1	2	R1337E
2292.519	1.629	681945	WORD	n/a	n/a	NAIL	1	6	[0, 0, 0]	n/a	FR1	2	R1337E
2294.148	0.915	683574	WORD_OFF	n/a	n/a	NAIL	1	6	[0, 0, 0]	n/a	FR1	2	R1337E
2295.063	1.637	684489	WORD	n/a	n/a	HOOF	2	6	[0, 0, 0]	n/a	FR1	2	R1337E
2296.7	0.751	686126	WORD_OFF	n/a	n/a	HOOF	2	6	[0, 0, 0]	n/a	FR1	2	R1337E
2297.451	1.631	686877	WORD	n/a	n/a	ELF	3	6	[0, 0, 0]	n/a	FR1	2	R1337E
2299.082	1.045	688508	WORD_OFF	n/a	n/a	ELF	3	6	[0, 0, 0]	n/a	FR1	2	R1337E
2300.127	1.624	689553	WORD	n/a	n/a	STAR	4	6	[0, 0, 0]	n/a	FR1	2	R1337E
2301.751	1.054	691177	WORD_OFF	n/a	n/a	STAR	4	6	[0, 0, 0]	n/a	FR1	2	R1337E
2302.805	1.629	692231	WORD	n/a	n/a	FRUIT	5	6	[0, 0, 0]	n/a	FR1	2	R1337E
2304.434	0.833	693860	WORD_OFF	n/a	n/a	FRUIT	5	6	[0, 0, 0]	n/a	FR1	2	R1337E
2305.267	1.618	694693	WORD	n/a	n/a	RIB	6	6	[0, 0, 0]	n/a	FR1	2	R1337E
2306.885	1.068	696311	WORD_OFF	n/a	n/a	RIB	6	6	[0, 0, 0]	n/a	FR1	2	R1337E
2307.953	1.632	697379	WORD	n/a	n/a	BARN	7	6	[0, 0, 0]	n/a	FR1	2	R1337E
2309.585	0.899	699011	WORD_OFF	n/a	n/a	BARN	7	6	[0, 0, 0]	n/a	FR1	2	R1337E
2310.484	1.634	699910	WORD	n/a	n/a	KITE	8	6	[0, 0, 0]	n/a	FR1	2	R1337E
2312.118	0.989	701543	WORD_OFF	n/a	n/a	KITE	8	6	[0, 0, 0]	n/a	FR1	2	R1337E
2313.107	1.612	702532	WORD	n/a	n/a	SEAL	9	6	[0, 0, 0]	n/a	FR1	2	R1337E
2314.719	0.797	704144	WORD_OFF	n/a	n/a	SEAL	9	6	[0, 0, 0]	n/a	FR1	2	R1337E
2315.516	1.636	704941	WORD	n/a	n/a	SOUP	10	6	[0, 0, 0]	n/a	FR1	2	R1337E
2317.152	1.096	706577	WORD_OFF	n/a	n/a	SOUP	10	6	[0, 0, 0]	n/a	FR1	2	R1337E
2318.248	1.639	707673	WORD	n/a	n/a	PASTE	11	6	[0, 0, 0]	n/a	FR1	2	R1337E
2319.887	1.131	709312	WORD_OFF	n/a	n/a	PASTE	11	6	[0, 0, 0]	n/a	FR1	2	R1337E
2321.018	1.636	710443	WORD	n/a	n/a	DEER	12	6	[0, 0, 0]	n/a	FR1	2	R1337E
2322.654	0.0	712079	WORD_OFF	n/a	n/a	DEER	12	6	[0, 0, 0]	n/a	FR1	2	R1337E
2322.654	0.0	712079	ENCODING_END	n/a	n/a	n/a	-999	6	[0, 0, 0]	n/a	FR1	2	R1337E
2322.654	0.001	712079	DISTRACT_START	n/a	n/a	n/a	-999	6	[0, 0, 0]	n/a	FR1	2	R1337E
2322.655	0.016	712080	START	n/a	n/a	n/a	-999	7	[-999, -999, -999]	n/a	FR1	2	R1337E
2322.671	5.633	712096	PROB	5.633	n/a	n/a	-999	7	[7, 3, 9]	19	FR1	2	R1337E
2328.304	4.185	717729	PROB	4.185	n/a	n/a	-999	7	[8, 7, 4]	19	FR1	2	R1337E
2332.489	4.251	721914	PROB	4.251	n/a	n/a	-999	7	[5, 2, 4]	11	FR1	2	R1337E
2336.74	3.734	726165	PROB	3.734	n/a	n/a	-999	7	[8, 4, 7]	19	FR1	2	R1337E
2340.474	3.837	729898	PROB	3.837	n/a	n/a	-999	7	[7, 4, 8]	19	FR1	2	R1337E
2344.311	0.013	733735	STOP	n/a	n/a	n/a	-999	7	[-999, -999, -999]	n/a	FR1	2	R1337E
2344.324	1.312	733748	DISTRACT_END	n/a	n/a	n/a	-999	6	[0, 0, 0]	n/a	FR1	2	R1337E
2345.636	1.022	735060	RETRIEVAL_ORIENT_START	n/a	n/a	n/a	-999	6	[0, 0, 0]	n/a	FR1	2	R1337E
2346.658	0.0	736082	RETRIEVAL_ORIENT_END	n/a	n/a	n/a	-999	6	[0, 0, 0]	n/a	FR1	2	R1337E
2346.658	1.094	736082	REC_START	n/a	n/a	n/a	-999	6	[0, 0, 0]	n/a	FR1	2	R1337E
2347.752	0.946	737176	REC_WORD	0.946	n/a	SEAL	9	6	[0, 0, 0]	n/a	FR1	2	R1337E
2348.698	1.47	738122	REC_WORD	1.47	n/a	KITE	8	6	[0, 0, 0]	n/a	FR1	2	R1337E
2350.168	0.868	739592	REC_WORD	0.868	n/a	STAR	4	6	[0, 0, 0]	n/a	FR1	2	R1337E
2351.036	26.134	740460	REC_WORD	26.134	n/a	FOOT	-999	6	[0, 0, 0]	n/a	FR1	2	R1337E
2377.17	0.0	766593	TRIAL_END	n/a	n/a	n/a	-999	6	[0, 0, 0]	n/a	FR1	2	R1337E
2377.17	0.0	766593	TRIAL_START	n/a	n/a	n/a	-999	7	[0, 0, 0]	n/a	FR1	2	R1337E
2377.17	0.0	766593	TRIAL	n/a	n/a	n/a	-999	7	[0, 0, 0]	n/a	FR1	2	R1337E
2377.17	0.0	766593	WAITING_START	n/a	n/a	n/a	-999	7	[0, 0, 0]	n/a	FR1	2	R1337E
2377.17	2.126	766593	REC_END	n/a	n/a	n/a	-999	6	[0, 0, 0]	n/a	FR1	2	R1337E
2379.296	0.0	768719	WAITING_END	n/a	n/a	n/a	-999	7	[0, 0, 0]	n/a	FR1	2	R1337E
2379.296	0.0	768719	COUNTDOWN_START	n/a	n/a	n/a	-999	7	[0, 0, 0]	n/a	FR1	2	R1337E
2379.296	0.0	768719	COUNTDOWN_END	n/a	n/a	n/a	-999	7	[0, 0, 0]	n/a	FR1	2	R1337E
2379.296	11.653	768719	ORIENT_START	n/a	n/a	n/a	-999	7	[0, 0, 0]	n/a	FR1	2	R1337E
2390.949	0.0	780372	ORIENT_END	n/a	n/a	n/a	-999	7	[0, 0, 0]	n/a	FR1	2	R1337E
2390.949	0.968	780372	ENCODING_START	n/a	n/a	n/a	-999	7	[0, 0, 0]	n/a	FR1	2	R1337E
2391.917	1.633	781340	WORD	n/a	n/a	ARM	1	7	[0, 0, 0]	n/a	FR1	2	R1337E
2393.55	0.846	782973	WORD_OFF	n/a	n/a	ARM	1	7	[0, 0, 0]	n/a	FR1	2	R1337E
2394.396	1.638	783819	WORD	n/a	n/a	SOAP	2	7	[0, 0, 0]	n/a	FR1	2	R1337E
2396.034	0.795	785456	WORD_OFF	n/a	n/a	SOAP	2	7	[0, 0, 0]	n/a	FR1	2	R1337E
2396.829	1.622	786251	WORD	n/a	n/a	LAWN	3	7	[0, 0, 0]	n/a	FR1	2	R1337E
2398.451	1.115	787873	WORD_OFF	n/a	n/a	LAWN	3	7	[0, 0, 0]	n/a	FR1	2	R1337E
2399.566	1.634	788988	WORD	n/a	n/a	GLASS	4	7	[0, 0, 0]	n/a	FR1	2	R1337E
2401.2	0.935	790622	WORD_OFF	n/a	n/a	GLASS	4	7	[0, 0, 0]	n/a	FR1	2	R1337E
2402.135	1.633	791557	WORD	n/a	n/a	WING	5	7	[0, 0, 0]	n/a	FR1	2	R1337E
2403.768	0.882	793190	WORD_OFF	n/a	n/a	WING	5	7	[0, 0, 0]	n/a	FR1	2	R1337E
2404.65	1.634	794072	WORD	n/a	n/a	BAT	6	7	[0, 0, 0]	n/a	FR1	2	R1337E
2406.284	1.124	795706	WORD_OFF	n/a	n/a	BAT	6	7	[0, 0, 0]	n/a	FR1	2	R1337E
2407.408	1.628	796830	WORD	n/a	n/a	CHIEF	7	7	[0, 0, 0]	n/a	FR1	2	R1337E
2409.036	1.149	798458	WORD_OFF	n/a	n/a	CHIEF	7	7	[0, 0, 0]	n/a	FR1	2	R1337E
2410.185	1.635	799607	WORD	n/a	n/a	LAKE	8	7	[0, 0, 0]	n/a	FR1	2	R1337E
2411.82	0.995	801242	WORD_OFF	n/a	n/a	LAKE	8	7	[0, 0, 0]	n/a	FR1	2	R1337E
2412.815	1.622	802237	WORD	n/a	n/a	SNAIL	9	7	[0, 0, 0]	n/a	FR1	2	R1337E
2414.437	0.987	803859	WORD_OFF	n/a	n/a	SNAIL	9	7	[0, 0, 0]	n/a	FR1	2	R1337E
2415.424	1.629	804846	WORD	n/a	n/a	CHALK	10	7	[0, 0, 0]	n/a	FR1	2	R1337E
2417.053	1.0	806475	WORD_OFF	n/a	n/a	CHALK	10	7	[0, 0, 0]	n/a	FR1	2	R1337E
2418.053	1.618	807475	WORD	n/a	n/a	SEED	11	7	[0, 0, 0]	n/a	FR1	2	R1337E
2419.671	1.003	809093	WORD_OFF	n/a	n/a	SEED	11	7	[0, 0, 0]	n/a	FR1	2	R1337E
2420.674	1.63	810096	WORD	n/a	n/a	JUICE	12	7	[0, 0, 0]	n/a	FR1	2	R1337E
2422.304	0.0	811726	DISTRACT_START	n/a	n/a	n/a	-999	7	[0, 0, 0]	n/a	FR1	2	R1337E
2422.304	0.0	811726	ENCODING_END	n/a	n/a	n/a	-999	7	[0, 0, 0]	n/a	FR1	2	R1337E
2422.304	0.001	811726	WORD_OFF	n/a	n/a	JUICE	12	7	[0, 0, 0]	n/a	FR1	2	R1337E
2422.305	0.016	811727	START	n/a	n/a	n/a	-999	8	[-999, -999, -999]	n/a	FR1	2	R1337E
2422.321	10.636	811743	PROB	10.636	n/a	n/a	-999	8	[4, 3, 1]	8	FR1	2	R1337E
2432.957	4.199	822378	PROB	4.199	n/a	n/a	-999	8	[4, 3, 1]	8	FR1	2	R1337E
2437.156	4.802	826577	PROB	4.802	n/a	n/a	-999	8	[5, 8, 5]	18	FR1	2	R1337E
2441.958	3.61	831379	PROB	3.61	n/a	n/a	-999	8	[8, 5, 5]	18	FR1	2	R1337E
2445.568	0.008	834989	STOP	n/a	n/a	n/a	-999	8	[-999, -999, -999]	n/a	FR1	2	R1337E
2445.576	1.205	834997	DISTRACT_END	n/a	n/a	n/a	-999	7	[0, 0, 0]	n/a	FR1	2	R1337E
2446.781	1.028	836202	RETRIEVAL_ORIENT_START	n/a	n/a	n/a	-999	7	[0, 0, 0]	n/a	FR1	2	R1337E
2447.809	0.0	837230	RETRIEVAL_ORIENT_END	n/a	n/a	n/a	-999	7	[0, 0, 0]	n/a	FR1	2	R1337E
2447.809	0.402	837230	REC_START	n/a	n/a	n/a	-999	7	[0, 0, 0]	n/a	FR1	2	R1337E
2448.211	0.701	837632	REC_WORD	0.701	n/a	SOAP	2	7	[0, 0, 0]	n/a	FR1	2	R1337E
2448.912	0.833	838333	REC_WORD	0.833	n/a	LAWN	3	7	[0, 0, 0]	n/a	FR1	2	R1337E
2449.745	0.866	839166	REC_WORD	0.866	n/a	GLASS	4	7	[0, 0, 0]	n/a	FR1	2	R1337E
2450.611	27.711	840031	REC_WORD	27.711	n/a	WING	5	7	[0, 0, 0]	n/a	FR1	2	R1337E
2478.322	0.0	867741	REC_END	n/a	n/a	n/a	-999	7	[0, 0, 0]	n/a	FR1	2	R1337E
2478.322	0.0	867741	TRIAL_END	n/a	n/a	n/a	-999	7	[0, 0, 0]	n/a	FR1	2	R1337E
2478.322	0.0	867741	TRIAL_START	n/a	n/a	n/a	-999	8	[0, 0, 0]	n/a	FR1	2	R1337E
2478.322	0.0	867741	TRIAL	n/a	n/a	n/a	-999	8	[0, 0, 0]	n/a	FR1	2	R1337E
2478.322	2.593	867741	WAITING_START	n/a	n/a	n/a	-999	8	[0, 0, 0]	n/a	FR1	2	R1337E
2480.915	0.0	870334	ORIENT_START	n/a	n/a	n/a	-999	8	[0, 0, 0]	n/a	FR1	2	R1337E
2480.915	0.0	870334	COUNTDOWN_END	n/a	n/a	n/a	-999	8	[0, 0, 0]	n/a	FR1	2	R1337E
2480.915	0.0	870334	WAITING_END	n/a	n/a	n/a	-999	8	[0, 0, 0]	n/a	FR1	2	R1337E
2480.915	11.586	870334	COUNTDOWN_START	n/a	n/a	n/a	-999	8	[0, 0, 0]	n/a	FR1	2	R1337E
2492.501	0.0	881920	ENCODING_START	n/a	n/a	n/a	-999	8	[0, 0, 0]	n/a	FR1	2	R1337E
2492.501	0.964	881920	ORIENT_END	n/a	n/a	n/a	-999	8	[0, 0, 0]	n/a	FR1	2	R1337E
2493.465	1.635	882884	WORD	n/a	n/a	GUARD	1	8	[0, 0, 0]	n/a	FR1	2	R1337E
2495.1	0.938	884519	WORD_OFF	n/a	n/a	GUARD	1	8	[0, 0, 0]	n/a	FR1	2	R1337E
2496.038	1.63	885457	WORD	n/a	n/a	BENCH	2	8	[0, 0, 0]	n/a	FR1	2	R1337E
2497.668	0.926	887087	WORD_OFF	n/a	n/a	BENCH	2	8	[0, 0, 0]	n/a	FR1	2	R1337E
2498.594	1.624	888013	WORD	n/a	n/a	FLOOR	3	8	[0, 0, 0]	n/a	FR1	2	R1337E
2500.218	0.768	889637	WORD_OFF	n/a	n/a	FLOOR	3	8	[0, 0, 0]	n/a	FR1	2	R1337E
2500.986	1.633	890405	WORD	n/a	n/a	HOSE	4	8	[0, 0, 0]	n/a	FR1	2	R1337E
2502.619	1.066	892038	WORD_OFF	n/a	n/a	HOSE	4	8	[0, 0, 0]	n/a	FR1	2	R1337E
2503.685	1.634	893104	WORD	n/a	n/a	CONE	5	8	[0, 0, 0]	n/a	FR1	2	R1337E
2505.319	1.012	894738	WORD_OFF	n/a	n/a	CONE	5	8	[0, 0, 0]	n/a	FR1	2	R1337E
2506.331	1.605	895749	WORD	n/a	n/a	MAZE	6	8	[0, 0, 0]	n/a	FR1	2	R1337E
2507.936	1.059	897354	WORD_OFF	n/a	n/a	MAZE	6	8	[0, 0, 0]	n/a	FR1	2	R1337E
2508.995	1.625	898413	WORD	n/a	n/a	CUBE	7	8	[0, 0, 0]	n/a	FR1	2	R1337E
2510.62	0.955	900038	WORD_OFF	n/a	n/a	CUBE	7	8	[0, 0, 0]	n/a	FR1	2	R1337E
2511.575	1.628	900993	WORD	n/a	n/a	ROSE	8	8	[0, 0, 0]	n/a	FR1	2	R1337E
2513.203	0.777	902621	WORD_OFF	n/a	n/a	ROSE	8	8	[0, 0, 0]	n/a	FR1	2	R1337E
2513.98	1.625	903398	WORD	n/a	n/a	BADGE	9	8	[0, 0, 0]	n/a	FR1	2	R1337E
2515.605	0.99	905023	WORD_OFF	n/a	n/a	BADGE	9	8	[0, 0, 0]	n/a	FR1	2	R1337E
2516.595	1.626	906013	WORD	n/a	n/a	PEARL	10	8	[0, 0, 0]	n/a	FR1	2	R1337E
2518.221	0.885	907639	WORD_OFF	n/a	n/a	PEARL	10	8	[0, 0, 0]	n/a	FR1	2	R1337E
2519.106	1.633	908524	WORD	n/a	n/a	CLOWN	11	8	[0, 0, 0]	n/a	FR1	2	R1337E
2520.739	1.024	910157	WORD_OFF	n/a	n/a	CLOWN	11	8	[0, 0, 0]	n/a	FR1	2	R1337E
2521.763	1.625	911181	WORD	n/a	n/a	BOARD	12	8	[0, 0, 0]	n/a	FR1	2	R1337E
2523.388	0.0	912806	WORD_OFF	n/a	n/a	BOARD	12	8	[0, 0, 0]	n/a	FR1	2	R1337E
2523.388	0.0	912806	ENCODING_END	n/a	n/a	n/a	-999	8	[0, 0, 0]	n/a	FR1	2	R1337E
2523.388	0.001	912806	DISTRACT_START	n/a	n/a	n/a	-999	8	[0, 0, 0]	n/a	FR1	2	R1337E
2523.389	0.017	912807	START	n/a	n/a	n/a	-999	9	[-999, -999, -999]	n/a	FR1	2	R1337E
2523.406	11.035	912824	PROB	11.035	n/a	n/a	-999	9	[7, 1, 9]	17	FR1	2	R1337E
2534.441	9.902	923858	PROB	9.902	n/a	n/a	-999	9	[4, 6, 8]	18	FR1	2	R1337E
2544.343	0.016	933760	STOP	n/a	n/a	n/a	-999	9	[-999, -999, -999]	n/a	FR1	2	R1337E
2544.359	1.203	933776	DISTRACT_END	n/a	n/a	n/a	-999	8	[0, 0, 0]	n/a	FR1	2	R1337E
2545.562	1.031	934979	RETRIEVAL_ORIENT_START	n/a	n/a	n/a	-999	8	[0, 0, 0]	n/a	FR1	2	R1337E
2546.593	0.0	936010	RETRIEVAL_ORIENT_END	n/a	n/a	n/a	-999	8	[0, 0, 0]	n/a	FR1	2	R1337E
2546.593	0.461	936010	REC_START	n/a	n/a	n/a	-999	8	[0, 0, 0]	n/a	FR1	2	R1337E
2547.054	2.183	936471	REC_WORD	2.183	n/a	BADGE	9	8	[0, 0, 0]	n/a	FR1	2	R1337E
2549.237	1.792	938654	REC_WORD	1.792	n/a	BED	-999	8	[0, 0, 0]	n/a	FR1	2	R1337E
2551.029	1.628	940446	REC_WORD	1.628	n/a	BAND	-999	8	[0, 0, 0]	n/a	FR1	2	R1337E
2552.657	24.448	942074	REC_WORD	24.448	n/a	FLOOR	3	8	[0, 0, 0]	n/a	FR1	2	R1337E
2577.105	0.0	966521	WAITING_START	n/a	n/a	n/a	-999	9	[0, 0, 0]	n/a	FR1	2	R1337E
2577.105	0.0	966521	TRIAL	n/a	n/a	n/a	-999	9	[0, 0, 0]	n/a	FR1	2	R1337E
2577.105	0.0	966521	REC_END	n/a	n/a	n/a	-999	8	[0, 0, 0]	n/a	FR1	2	R1337E
2577.105	0.0	966521	TRIAL_END	n/a	n/a	n/a	-999	8	[0, 0, 0]	n/a	FR1	2	R1337E
2577.105	2.511	966521	TRIAL_START	n/a	n/a	n/a	-999	9	[0, 0, 0]	n/a	FR1	2	R1337E
2579.616	0.0	969032	WAITING_END	n/a	n/a	n/a	-999	9	[0, 0, 0]	n/a	FR1	2	R1337E
2579.616	0.0	969032	COUNTDOWN_START	n/a	n/a	n/a	-999	9	[0, 0, 0]	n/a	FR1	2	R1337E
2579.616	0.0	969032	COUNTDOWN_END	n/a	n/a	n/a	-999	9	[0, 0, 0]	n/a	FR1	2	R1337E
2579.616	11.684	969032	ORIENT_START	n/a	n/a	n/a	-999	9	[0, 0, 0]	n/a	FR1	2	R1337E
2591.3	0.0	980715	ORIENT_END	n/a	n/a	n/a	-999	9	[0, 0, 0]	n/a	FR1	2	R1337E
2591.3	0.974	980715	ENCODING_START	n/a	n/a	n/a	-999	9	[0, 0, 0]	n/a	FR1	2	R1337E
2592.274	1.628	981689	WORD	n/a	n/a	FOAM	1	9	[0, 0, 0]	n/a	FR1	2	R1337E
2593.902	1.063	983317	WORD_OFF	n/a	n/a	FOAM	1	9	[0, 0, 0]	n/a	FR1	2	R1337E
2594.965	1.637	984380	WORD	n/a	n/a	FORK	2	9	[0, 0, 0]	n/a	FR1	2	R1337E
2596.602	0.764	986017	WORD_OFF	n/a	n/a	FORK	2	9	[0, 0, 0]	n/a	FR1	2	R1337E
2597.366	1.637	986781	WORD	n/a	n/a	SMOKE	3	9	[0, 0, 0]	n/a	FR1	2	R1337E
2599.003	1.065	988418	WORD_OFF	n/a	n/a	SMOKE	3	9	[0, 0, 0]	n/a	FR1	2	R1337E
2600.068	1.635	989483	WORD	n/a	n/a	HORN	4	9	[0, 0, 0]	n/a	FR1	2	R1337E
2601.703	0.927	991118	WORD_OFF	n/a	n/a	HORN	4	9	[0, 0, 0]	n/a	FR1	2	R1337E
2602.63	1.623	992045	WORD	n/a	n/a	DOLL	5	9	[0, 0, 0]	n/a	FR1	2	R1337E
2604.253	1.147	993668	WORD_OFF	n/a	n/a	DOLL	5	9	[0, 0, 0]	n/a	FR1	2	R1337E
2605.4	1.637	994815	WORD	n/a	n/a	SHEEP	6	9	[0, 0, 0]	n/a	FR1	2	R1337E
2607.037	0.995	996452	WORD_OFF	n/a	n/a	SHEEP	6	9	[0, 0, 0]	n/a	FR1	2	R1337E
2608.032	1.622	997447	WORD	n/a	n/a	CAR	7	9	[0, 0, 0]	n/a	FR1	2	R1337E
2609.654	0.759	999069	WORD_OFF	n/a	n/a	CAR	7	9	[0, 0, 0]	n/a	FR1	2	R1337E
2610.413	1.625	999828	WORD	n/a	n/a	PEACH	8	9	[0, 0, 0]	n/a	FR1	2	R1337E
2612.038	0.964	1001453	WORD_OFF	n/a	n/a	PEACH	8	9	[0, 0, 0]	n/a	FR1	2	R1337E
2613.002	1.637	1002417	WORD	n/a	n/a	SPARK	9	9	[0, 0, 0]	n/a	FR1	2	R1337E
2614.639	0.971	1004054	WORD_OFF	n/a	n/a	SPARK	9	9	[0, 0, 0]	n/a	FR1	2	R1337E
2615.61	1.628	1005025	WORD	n/a	n/a	EEL	10	9	[0, 0, 0]	n/a	FR1	2	R1337E
2617.238	0.828	1006652	WORD_OFF	n/a	n/a	EEL	10	9	[0, 0, 0]	n/a	FR1	2	R1337E
2618.066	1.624	1007480	WORD	n/a	n/a	SINK	11	9	[0, 0, 0]	n/a	FR1	2	R1337E
2619.69	1.006	1009104	WORD_OFF	n/a	n/a	SINK	11	9	[0, 0, 0]	n/a	FR1	2	R1337E
2620.696	1.626	1010110	WORD	n/a	n/a	SALT	12	9	[0, 0, 0]	n/a	FR1	2	R1337E
2622.322	0.0	1011736	DISTRACT_START	n/a	n/a	n/a	-999	9	[0, 0, 0]	n/a	FR1	2	R1337E
2622.322	0.0	1011736	WORD_OFF	n/a	n/a	SALT	12	9	[0, 0, 0]	n/a	FR1	2	R1337E
2622.322	0.001	1011736	ENCODING_END	n/a	n/a	n/a	-999	9	[0, 0, 0]	n/a	FR1	2	R1337E
2622.323	0.016	1011737	START	n/a	n/a	n/a	-999	10	[-999, -999, -999]	n/a	FR1	2	R1337E
2622.339	8.885	1011753	PROB	8.885	n/a	n/a	-999	10	[3, 3, 8]	14	FR1	2	R1337E
2631.224	5.218	1020638	PROB	5.218	n/a	n/a	-999	10	[8, 7, 9]	24	FR1	2	R1337E
2636.442	5.351	1025856	PROB	5.351	n/a	n/a	-999	10	[4, 7, 4]	15	FR1	2	R1337E
2641.793	3.528	1031207	PROB	3.528	n/a	n/a	-999	10	[4, 8, 3]	15	FR1	2	R1337E
2645.321	0.022	1034734	STOP	n/a	n/a	n/a	-999	10	[-999, -999, -999]	n/a	FR1	2	R1337E
2645.343	1.254	1034756	DISTRACT_END	n/a	n/a	n/a	-999	9	[0, 0, 0]	n/a	FR1	2	R1337E
2646.597	1.03	1036010	RETRIEVAL_ORIENT_START	n/a	n/a	n/a	-999	9	[0, 0, 0]	n/a	FR1	2	R1337E
2647.627	0.0	1037040	REC_START	n/a	n/a	n/a	-999	9	[0, 0, 0]	n/a	FR1	2	R1337E
2647.627	0.95	1037040	RETRIEVAL_ORIENT_END	n/a	n/a	n/a	-999	9	[0, 0, 0]	n/a	FR1	2	R1337E
2648.577	1.206	1037990	REC_WORD	1.206	n/a	SMOKE	3	9	[0, 0, 0]	n/a	FR1	2	R1337E
2649.783	1.181	1039196	REC_WORD	1.181	n/a	HORN	4	9	[0, 0, 0]	n/a	FR1	2	R1337E
2650.964	0.898	1040377	REC_WORD	0.898	n/a	DOLL	5	9	[0, 0, 0]	n/a	FR1	2	R1337E
2651.862	26.278	1041275	REC_WORD	26.278	n/a	SHEEP	6	9	[0, 0, 0]	n/a	FR1	2	R1337E
2678.14	0.0	1067552	REC_END	n/a	n/a	n/a	-999	9	[0, 0, 0]	n/a	FR1	2	R1337E
2678.14	0.0	1067552	TRIAL_END	n/a	n/a	n/a	-999	9	[0, 0, 0]	n/a	FR1	2	R1337E
2678.14	0.0	1067552	TRIAL_START	n/a	n/a	n/a	-999	10	[0, 0, 0]	n/a	FR1	2	R1337E
2678.14	0.0	1067552	TRIAL	n/a	n/a	n/a	-999	10	[0, 0, 0]	n/a	FR1	2	R1337E
2678.14	2.71	1067552	WAITING_START	n/a	n/a	n/a	-999	10	[0, 0, 0]	n/a	FR1	2	R1337E
2680.85	0.0	1070262	WAITING_END	n/a	n/a	n/a	-999	10	[0, 0, 0]	n/a	FR1	2	R1337E
2680.85	0.0	1070262	COUNTDOWN_START	n/a	n/a	n/a	-999	10	[0, 0, 0]	n/a	FR1	2	R1337E
2680.85	0.0	1070262	COUNTDOWN_END	n/a	n/a	n/a	-999	10	[0, 0, 0]	n/a	FR1	2	R1337E
2680.85	11.552	1070262	ORIENT_START	n/a	n/a	n/a	-999	10	[0, 0, 0]	n/a	FR1	2	R1337E
2692.402	0.0	1081814	ENCODING_START	n/a	n/a	n/a	-999	10	[0, 0, 0]	n/a	FR1	2	R1337E
2692.402	0.997	1081814	ORIENT_END	n/a	n/a	n/a	-999	10	[0, 0, 0]	n/a	FR1	2	R1337E
2693.399	1.637	1082811	WORD	n/a	n/a	DIME	1	10	[0, 0, 0]	n/a	FR1	2	R1337E
2695.036	1.003	1084448	WORD_OFF	n/a	n/a	DIME	1	10	[0, 0, 0]	n/a	FR1	2	R1337E
2696.039	1.631	1085451	WORD	n/a	n/a	FUR	2	10	[0, 0, 0]	n/a	FR1	2	R1337E
2697.67	0.972	1087082	WORD_OFF	n/a	n/a	FUR	2	10	[0, 0, 0]	n/a	FR1	2	R1337E
2698.642	1.627	1088054	WORD	n/a	n/a	STICK	3	10	[0, 0, 0]	n/a	FR1	2	R1337E
2700.269	1.12	1089681	WORD_OFF	n/a	n/a	STICK	3	10	[0, 0, 0]	n/a	FR1	2	R1337E
2701.389	1.632	1090800	WORD	n/a	n/a	HOOK	4	10	[0, 0, 0]	n/a	FR1	2	R1337E
2703.021	0.787	1092432	WORD_OFF	n/a	n/a	HOOK	4	10	[0, 0, 0]	n/a	FR1	2	R1337E
2703.808	1.63	1093219	WORD	n/a	n/a	WOOD	5	10	[0, 0, 0]	n/a	FR1	2	R1337E
2705.438	0.948	1094849	WORD_OFF	n/a	n/a	WOOD	5	10	[0, 0, 0]	n/a	FR1	2	R1337E
2706.386	1.636	1095797	WORD	n/a	n/a	DESK	6	10	[0, 0, 0]	n/a	FR1	2	R1337E
2708.022	1.119	1097433	WORD_OFF	n/a	n/a	DESK	6	10	[0, 0, 0]	n/a	FR1	2	R1337E
2709.141	1.614	1098552	WORD	n/a	n/a	GATE	7	10	[0, 0, 0]	n/a	FR1	2	R1337E
2710.755	1.008	1100166	WORD_OFF	n/a	n/a	GATE	7	10	[0, 0, 0]	n/a	FR1	2	R1337E
2711.763	1.625	1101174	WORD	n/a	n/a	SPOON	8	10	[0, 0, 0]	n/a	FR1	2	R1337E
2713.388	1.055	1102799	WORD_OFF	n/a	n/a	SPOON	8	10	[0, 0, 0]	n/a	FR1	2	R1337E
2714.443	1.629	1103854	WORD	n/a	n/a	JUDGE	9	10	[0, 0, 0]	n/a	FR1	2	R1337E
2716.072	1.147	1105483	WORD_OFF	n/a	n/a	JUDGE	9	10	[0, 0, 0]	n/a	FR1	2	R1337E
2717.219	1.638	1106630	WORD	n/a	n/a	MILK	10	10	[0, 0, 0]	n/a	FR1	2	R1337E
2718.857	0.961	1108268	WORD_OFF	n/a	n/a	MILK	10	10	[0, 0, 0]	n/a	FR1	2	R1337E
2719.818	1.623	1109229	WORD	n/a	n/a	VAN	11	10	[0, 0, 0]	n/a	FR1	2	R1337E
2721.441	0.759	1110852	WORD_OFF	n/a	n/a	VAN	11	10	[0, 0, 0]	n/a	FR1	2	R1337E
2722.2	1.624	1111611	WORD	n/a	n/a	MOTH	12	10	[0, 0, 0]	n/a	FR1	2	R1337E
2723.824	0.0	1113235	WORD_OFF	n/a	n/a	MOTH	12	10	[0, 0, 0]	n/a	FR1	2	R1337E
2723.824	0.0	1113235	ENCODING_END	n/a	n/a	n/a	-999	10	[0, 0, 0]	n/a	FR1	2	R1337E
2723.824	0.001	1113235	DISTRACT_START	n/a	n/a	n/a	-999	10	[0, 0, 0]	n/a	FR1	2	R1337E
2723.825	0.016	1113236	START	n/a	n/a	n/a	-999	11	[-999, -999, -999]	n/a	FR1	2	R1337E
2723.841	9.102	1113252	PROB	9.102	n/a	n/a	-999	11	[9, 9, 2]	20	FR1	2	R1337E
2732.943	3.834	1122353	PROB	3.834	n/a	n/a	-999	11	[2, 8, 2]	12	FR1	2	R1337E
2736.777	4.283	1126187	PROB	4.283	n/a	n/a	-999	11	[9, 8, 3]	20	FR1	2	R1337E
2741.06	4.881	1130470	PROB	4.881	n/a	n/a	-999	11	[7, 6, 8]	22	FR1	2	R1337E
2745.941	0.021	1135351	STOP	n/a	n/a	n/a	-999	11	[-999, -999, -999]	n/a	FR1	2	R1337E
2745.962	1.082	1135372	DISTRACT_END	n/a	n/a	n/a	-999	10	[0, 0, 0]	n/a	FR1	2	R1337E
2747.044	1.034	1136454	RETRIEVAL_ORIENT_START	n/a	n/a	n/a	-999	10	[0, 0, 0]	n/a	FR1	2	R1337E
2748.078	0.0	1137488	RETRIEVAL_ORIENT_END	n/a	n/a	n/a	-999	10	[0, 0, 0]	n/a	FR1	2	R1337E
2748.078	0.376	1137488	REC_START	n/a	n/a	n/a	-999	10	[0, 0, 0]	n/a	FR1	2	R1337E
2748.454	0.931	1137864	REC_WORD	0.931	n/a	DIME	1	10	[0, 0, 0]	n/a	FR1	2	R1337E
2749.385	1.526	1138795	REC_WORD	1.526	n/a	STICK	3	10	[0, 0, 0]	n/a	FR1	2	R1337E
2750.911	2.794	1140321	REC_WORD	2.794	n/a	WOOD	5	10	[0, 0, 0]	n/a	FR1	2	R1337E
2753.705	5.753	1143115	REC_WORD	5.753	n/a	VAN	11	10	[0, 0, 0]	n/a	FR1	2	R1337E
2759.458	19.132	1148867	REC_WORD	19.132	n/a	POD	-999	10	[0, 0, 0]	n/a	FR1	2	R1337E
2778.59	0.0	1167999	WAITING_START	n/a	n/a	n/a	-999	11	[0, 0, 0]	n/a	FR1	2	R1337E
2778.59	0.0	1167999	TRIAL	n/a	n/a	n/a	-999	11	[0, 0, 0]	n/a	FR1	2	R1337E
2778.59	0.0	1167999	TRIAL_END	n/a	n/a	n/a	-999	10	[0, 0, 0]	n/a	FR1	2	R1337E
2778.59	0.0	1167999	TRIAL_START	n/a	n/a	n/a	-999	11	[0, 0, 0]	n/a	FR1	2	R1337E
2778.59	2.861	1167999	REC_END	n/a	n/a	n/a	-999	10	[0, 0, 0]	n/a	FR1	2	R1337E
2781.451	0.0	1170860	WAITING_END	n/a	n/a	n/a	-999	11	[0, 0, 0]	n/a	FR1	2	R1337E
2781.451	0.0	1170860	COUNTDOWN_START	n/a	n/a	n/a	-999	11	[0, 0, 0]	n/a	FR1	2	R1337E
2781.451	0.0	1170860	COUNTDOWN_END	n/a	n/a	n/a	-999	11	[0, 0, 0]	n/a	FR1	2	R1337E
2781.451	11.552	1170860	ORIENT_START	n/a	n/a	n/a	-999	11	[0, 0, 0]	n/a	FR1	2	R1337E
2793.003	0.0	1182411	ORIENT_END	n/a	n/a	n/a	-999	11	[0, 0, 0]	n/a	FR1	2	R1337E
2793.003	0.83	1182411	ENCODING_START	n/a	n/a	n/a	-999	11	[0, 0, 0]	n/a	FR1	2	R1337E
2793.833	1.637	1183241	WORD	n/a	n/a	DRESS	1	11	[0, 0, 0]	n/a	FR1	2	R1337E
2795.47	0.883	1184878	WORD_OFF	n/a	n/a	DRESS	1	11	[0, 0, 0]	n/a	FR1	2	R1337E
2796.353	1.618	1185761	WORD	n/a	n/a	SHEET	2	11	[0, 0, 0]	n/a	FR1	2	R1337E
2797.971	0.957	1187379	WORD_OFF	n/a	n/a	SHEET	2	11	[0, 0, 0]	n/a	FR1	2	R1337E
2798.928	1.627	1188336	WORD	n/a	n/a	JET	3	11	[0, 0, 0]	n/a	FR1	2	R1337E
2800.555	1.11	1189963	WORD_OFF	n/a	n/a	JET	3	11	[0, 0, 0]	n/a	FR1	2	R1337E
2801.665	1.622	1191073	WORD	n/a	n/a	FAN	4	11	[0, 0, 0]	n/a	FR1	2	R1337E
2803.287	0.967	1192695	WORD_OFF	n/a	n/a	FAN	4	11	[0, 0, 0]	n/a	FR1	2	R1337E
2804.254	1.635	1193662	WORD	n/a	n/a	MOOSE	5	11	[0, 0, 0]	n/a	FR1	2	R1337E
2805.889	1.055	1195297	WORD_OFF	n/a	n/a	MOOSE	5	11	[0, 0, 0]	n/a	FR1	2	R1337E
2806.944	1.629	1196352	WORD	n/a	n/a	CALF	6	11	[0, 0, 0]	n/a	FR1	2	R1337E
2808.573	1.032	1197981	WORD_OFF	n/a	n/a	CALF	6	11	[0, 0, 0]	n/a	FR1	2	R1337E
2809.605	1.634	1199013	WORD	n/a	n/a	SEAT	7	11	[0, 0, 0]	n/a	FR1	2	R1337E
2811.239	1.101	1200647	WORD_OFF	n/a	n/a	SEAT	7	11	[0, 0, 0]	n/a	FR1	2	R1337E
2812.34	1.634	1201747	WORD	n/a	n/a	SHOE	8	11	[0, 0, 0]	n/a	FR1	2	R1337E
2813.974	1.075	1203381	WORD_OFF	n/a	n/a	SHOE	8	11	[0, 0, 0]	n/a	FR1	2	R1337E
2815.049	1.625	1204456	WORD	n/a	n/a	MOUTH	9	11	[0, 0, 0]	n/a	FR1	2	R1337E
2816.674	0.861	1206081	WORD_OFF	n/a	n/a	MOUTH	9	11	[0, 0, 0]	n/a	FR1	2	R1337E
2817.535	1.622	1206942	WORD	n/a	n/a	ROCK	10	11	[0, 0, 0]	n/a	FR1	2	R1337E
2819.157	0.909	1208564	WORD_OFF	n/a	n/a	ROCK	10	11	[0, 0, 0]	n/a	FR1	2	R1337E
2820.066	1.626	1209473	WORD	n/a	n/a	CAVE	11	11	[0, 0, 0]	n/a	FR1	2	R1337E
2821.692	1.018	1211099	WORD_OFF	n/a	n/a	CAVE	11	11	[0, 0, 0]	n/a	FR1	2	R1337E
2822.71	1.631	1212117	WORD	n/a	n/a	MOON	12	11	[0, 0, 0]	n/a	FR1	2	R1337E
2824.341	0.0	1213748	WORD_OFF	n/a	n/a	MOON	12	11	[0, 0, 0]	n/a	FR1	2	R1337E
2824.341	0.0	1213748	ENCODING_END	n/a	n/a	n/a	-999	11	[0, 0, 0]	n/a	FR1	2	R1337E
2824.341	0.001	1213748	DISTRACT_START	n/a	n/a	n/a	-999	11	[0, 0, 0]	n/a	FR1	2	R1337E
2824.342	0.016	1213749	START	n/a	n/a	n/a	-999	12	[-999, -999, -999]	n/a	FR1	2	R1337E
2824.358	11.369	1213765	PROB	11.369	n/a	n/a	-999	12	[9, 6, 8]	25	FR1	2	R1337E
2835.727	3.068	1225134	PROB	3.068	n/a	n/a	-999	12	[3, 5, 5]	13	FR1	2	R1337E
2838.795	5.45	1228202	PROB	5.45	n/a	n/a	-999	12	[5, 1, 2]	7	FR1	2	R1337E
2844.245	5.858	1233651	PROB	5.858	n/a	n/a	-999	12	[9, 8, 3]	20	FR1	2	R1337E
2850.103	0.009	1239509	STOP	n/a	n/a	n/a	-999	12	[-999, -999, -999]	n/a	FR1	2	R1337E
2850.112	1.149	1239518	DISTRACT_END	n/a	n/a	n/a	-999	11	[0, 0, 0]	n/a	FR1	2	R1337E
2851.261	1.035	1240667	RETRIEVAL_ORIENT_START	n/a	n/a	n/a	-999	11	[0, 0, 0]	n/a	FR1	2	R1337E
2852.296	0.0	1241702	REC_START	n/a	n/a	n/a	-999	11	[0, 0, 0]	n/a	FR1	2	R1337E
2852.296	0.588	1241702	RETRIEVAL_ORIENT_END	n/a	n/a	n/a	-999	11	[0, 0, 0]	n/a	FR1	2	R1337E
2852.884	0.667	1242290	REC_WORD	0.667	n/a	SHOE	8	11	[0, 0, 0]	n/a	FR1	2	R1337E
2853.551	0.484	1242957	REC_WORD	0.484	n/a	MOUTH	9	11	[0, 0, 0]	n/a	FR1	2	R1337E
2854.035	0.853	1243441	REC_WORD	0.853	n/a	ROCK	10	11	[0, 0, 0]	n/a	FR1	2	R1337E
2854.888	27.921	1244294	REC_WORD	27.921	n/a	CAVE	11	11	[0, 0, 0]	n/a	FR1	2	R1337E
2882.809	0.0	1272214	REC_END	n/a	n/a	n/a	-999	11	[0, 0, 0]	n/a	FR1	2	R1337E
2882.809	0.0	1272214	TRIAL_END	n/a	n/a	n/a	-999	11	[0, 0, 0]	n/a	FR1	2	R1337E
2882.809	0.0	1272214	TRIAL_START	n/a	n/a	n/a	-999	12	[0, 0, 0]	n/a	FR1	2	R1337E
2882.809	0.0	1272214	WAITING_START	n/a	n/a	n/a	-999	12	[0, 0, 0]	n/a	FR1	2	R1337E
2882.809	2.276	1272214	TRIAL	n/a	n/a	n/a	-999	12	[0, 0, 0]	n/a	FR1	2	R1337E
2885.085	0.0	1274490	WAITING_END	n/a	n/a	n/a	-999	12	[0, 0, 0]	n/a	FR1	2	R1337E
2885.085	0.0	1274490	COUNTDOWN_START	n/a	n/a	n/a	-999	12	[0, 0, 0]	n/a	FR1	2	R1337E
2885.085	0.0	1274490	COUNTDOWN_END	n/a	n/a	n/a	-999	12	[0, 0, 0]	n/a	FR1	2	R1337E
2885.085	11.486	1274490	ORIENT_START	n/a	n/a	n/a	-999	12	[0, 0, 0]	n/a	FR1	2	R1337E
2896.571	0.0	1285975	ENCODING_START	n/a	n/a	n/a	-999	12	[0, 0, 0]	n/a	FR1	2	R1337E
2896.571	0.977	1285975	ORIENT_END	n/a	n/a	n/a	-999	12	[0, 0, 0]	n/a	FR1	2	R1337E
2897.548	1.623	1286952	WORD	n/a	n/a	BIRD	1	12	[0, 0, 0]	n/a	FR1	2	R1337E
2899.171	0.781	1288575	WORD_OFF	n/a	n/a	BIRD	1	12	[0, 0, 0]	n/a	FR1	2	R1337E
2899.952	1.637	1289356	WORD	n/a	n/a	BEAR	2	12	[0, 0, 0]	n/a	FR1	2	R1337E
2901.589	0.811	1290993	WORD_OFF	n/a	n/a	BEAR	2	12	[0, 0, 0]	n/a	FR1	2	R1337E
2902.4	1.623	1291804	WORD	n/a	n/a	BOOK	3	12	[0, 0, 0]	n/a	FR1	2	R1337E
2904.023	0.756	1293427	WORD_OFF	n/a	n/a	BOOK	3	12	[0, 0, 0]	n/a	FR1	2	R1337E
2904.779	1.627	1294183	WORD	n/a	n/a	CANE	4	12	[0, 0, 0]	n/a	FR1	2	R1337E
2906.406	1.129	1295810	WORD_OFF	n/a	n/a	CANE	4	12	[0, 0, 0]	n/a	FR1	2	R1337E
2907.535	1.621	1296939	WORD	n/a	n/a	DOG	5	12	[0, 0, 0]	n/a	FR1	2	R1337E
2909.156	1.079	1298560	WORD_OFF	n/a	n/a	DOG	5	12	[0, 0, 0]	n/a	FR1	2	R1337E
2910.235	1.605	1299639	WORD	n/a	n/a	FARM	6	12	[0, 0, 0]	n/a	FR1	2	R1337E
2911.84	0.88	1301244	WORD_OFF	n/a	n/a	FARM	6	12	[0, 0, 0]	n/a	FR1	2	R1337E
2912.72	1.637	1302124	WORD	n/a	n/a	CORN	7	12	[0, 0, 0]	n/a	FR1	2	R1337E
2914.357	1.061	1303761	WORD_OFF	n/a	n/a	CORN	7	12	[0, 0, 0]	n/a	FR1	2	R1337E
2915.418	1.624	1304822	WORD	n/a	n/a	PALM	8	12	[0, 0, 0]	n/a	FR1	2	R1337E
2917.042	1.112	1306446	WORD_OFF	n/a	n/a	PALM	8	12	[0, 0, 0]	n/a	FR1	2	R1337E
2918.154	1.605	1307558	WORD	n/a	n/a	BAND	9	12	[0, 0, 0]	n/a	FR1	2	R1337E
2919.759	0.915	1309163	WORD_OFF	n/a	n/a	BAND	9	12	[0, 0, 0]	n/a	FR1	2	R1337E
2920.674	1.634	1310078	WORD	n/a	n/a	WHEEL	10	12	[0, 0, 0]	n/a	FR1	2	R1337E
2922.308	1.1	1311712	WORD_OFF	n/a	n/a	WHEEL	10	12	[0, 0, 0]	n/a	FR1	2	R1337E
2923.408	1.634	1312811	WORD	n/a	n/a	RAKE	11	12	[0, 0, 0]	n/a	FR1	2	R1337E
2925.042	0.78	1314445	WORD_OFF	n/a	n/a	RAKE	11	12	[0, 0, 0]	n/a	FR1	2	R1337E
2925.822	1.621	1315225	WORD	n/a	n/a	STEM	12	12	[0, 0, 0]	n/a	FR1	2	R1337E
2927.443	0.0	1316846	WORD_OFF	n/a	n/a	STEM	12	12	[0, 0, 0]	n/a	FR1	2	R1337E
2927.443	0.0	1316846	ENCODING_END	n/a	n/a	n/a	-999	12	[0, 0, 0]	n/a	FR1	2	R1337E
2927.443	0.001	1316846	DISTRACT_START	n/a	n/a	n/a	-999	12	[0, 0, 0]	n/a	FR1	2	R1337E
2927.444	0.016	1316847	START	n/a	n/a	n/a	-999	13	[-999, -999, -999]	n/a	FR1	2	R1337E
2927.46	16.702	1316863	PROB	16.702	n/a	n/a	-999	13	[1, 3, 2]	6	FR1	2	R1337E
2944.162	4.127	1333565	PROB	4.127	n/a	n/a	-999	13	[2, 3, 7]	12	FR1	2	R1337E
2948.289	0.007	1337692	STOP	n/a	n/a	n/a	-999	13	[-999, -999, -999]	n/a	FR1	2	R1337E
2948.296	1.214	1337699	DISTRACT_END	n/a	n/a	n/a	-999	12	[0, 0, 0]	n/a	FR1	2	R1337E
2949.51	1.021	1338913	RETRIEVAL_ORIENT_START	n/a	n/a	n/a	-999	12	[0, 0, 0]	n/a	FR1	2	R1337E
2950.531	0.0	1339934	RETRIEVAL_ORIENT_END	n/a	n/a	n/a	-999	12	[0, 0, 0]	n/a	FR1	2	R1337E
2950.531	5.492	1339934	REC_START	n/a	n/a	n/a	-999	12	[0, 0, 0]	n/a	FR1	2	R1337E
2956.023	1.491	1345425	REC_WORD	1.491	n/a	BOOK	3	12	[0, 0, 0]	n/a	FR1	2	R1337E
2957.514	1.393	1346916	REC_WORD	1.393	n/a	BREAD	-999	12	[0, 0, 0]	n/a	FR1	2	R1337E
2958.907	1.833	1348309	REC_WORD	1.833	n/a	BAG	-999	12	[0, 0, 0]	n/a	FR1	2	R1337E
2960.74	20.305	1350142	REC_WORD	20.305	n/a	BIRD	1	12	[0, 0, 0]	n/a	FR1	2	R1337E
2981.045	0.0	1370446	WAITING_START	n/a	n/a	n/a	-999	13	[0, 0, 0]	n/a	FR1	2	R1337E
2981.045	0.0	1370446	TRIAL	n/a	n/a	n/a	-999	13	[0, 0, 0]	n/a	FR1	2	R1337E
2981.045	0.0	1370446	TRIAL_START	n/a	n/a	n/a	-999	13	[0, 0, 0]	n/a	FR1	2	R1337E
2981.045	0.0	1370446	REC_END	n/a	n/a	n/a	-999	12	[0, 0, 0]	n/a	FR1	2	R1337E
2981.045	2.775	1370446	TRIAL_END	n/a	n/a	n/a	-999	12	[0, 0, 0]	n/a	FR1	2	R1337E
2983.82	0.0	1373221	COUNTDOWN_START	n/a	n/a	n/a	-999	13	[0, 0, 0]	n/a	FR1	2	R1337E
2983.82	0.0	1373221	ORIENT_START	n/a	n/a	n/a	-999	13	[0, 0, 0]	n/a	FR1	2	R1337E
2983.82	0.0	1373221	WAITING_END	n/a	n/a	n/a	-999	13	[0, 0, 0]	n/a	FR1	2	R1337E
2983.82	11.551	1373221	COUNTDOWN_END	n/a	n/a	n/a	-999	13	[0, 0, 0]	n/a	FR1	2	R1337E
2995.371	0.0	1384772	ORIENT_END	n/a	n/a	n/a	-999	13	[0, 0, 0]	n/a	FR1	2	R1337E
2995.371	0.768	1384772	ENCODING_START	n/a	n/a	n/a	-999	13	[0, 0, 0]	n/a	FR1	2	R1337E
2996.139	1.633	1385540	WORD	n/a	n/a	NOSE	1	13	[0, 0, 0]	n/a	FR1	2	R1337E
2997.772	0.992	1387173	WORD_OFF	n/a	n/a	NOSE	1	13	[0, 0, 0]	n/a	FR1	2	R1337E
2998.764	1.625	1388165	WORD	n/a	n/a	TANK	2	13	[0, 0, 0]	n/a	FR1	2	R1337E
3000.389	1.121	1389790	WORD_OFF	n/a	n/a	TANK	2	13	[0, 0, 0]	n/a	FR1	2	R1337E
3001.51	1.629	1390911	WORD	n/a	n/a	MAT	3	13	[0, 0, 0]	n/a	FR1	2	R1337E
3003.139	0.867	1392540	WORD_OFF	n/a	n/a	MAT	3	13	[0, 0, 0]	n/a	FR1	2	R1337E
3004.006	1.635	1393407	WORD	n/a	n/a	RAT	4	13	[0, 0, 0]	n/a	FR1	2	R1337E
3005.641	0.974	1395042	WORD_OFF	n/a	n/a	RAT	4	13	[0, 0, 0]	n/a	FR1	2	R1337E
3006.615	1.625	1396015	WORD	n/a	n/a	COW	5	13	[0, 0, 0]	n/a	FR1	2	R1337E
3008.24	0.843	1397640	WORD_OFF	n/a	n/a	COW	5	13	[0, 0, 0]	n/a	FR1	2	R1337E
3009.083	1.608	1398483	WORD	n/a	n/a	HEART	6	13	[0, 0, 0]	n/a	FR1	2	R1337E
3010.691	0.79	1400091	WORD_OFF	n/a	n/a	HEART	6	13	[0, 0, 0]	n/a	FR1	2	R1337E
3011.481	1.626	1400881	WORD	n/a	n/a	PLANT	7	13	[0, 0, 0]	n/a	FR1	2	R1337E
3013.107	0.94	1402507	WORD_OFF	n/a	n/a	PLANT	7	13	[0, 0, 0]	n/a	FR1	2	R1337E
3014.047	1.629	1403447	WORD	n/a	n/a	POOL	8	13	[0, 0, 0]	n/a	FR1	2	R1337E
3015.676	0.839	1405076	WORD_OFF	n/a	n/a	POOL	8	13	[0, 0, 0]	n/a	FR1	2	R1337E
3016.515	1.627	1405915	WORD	n/a	n/a	SHIP	9	13	[0, 0, 0]	n/a	FR1	2	R1337E
3018.142	0.811	1407542	WORD_OFF	n/a	n/a	SHIP	9	13	[0, 0, 0]	n/a	FR1	2	R1337E
3018.953	1.624	1408353	WORD	n/a	n/a	CLAY	10	13	[0, 0, 0]	n/a	FR1	2	R1337E
3020.577	1.149	1409977	WORD_OFF	n/a	n/a	CLAY	10	13	[0, 0, 0]	n/a	FR1	2	R1337E
3021.726	1.633	1411126	WORD	n/a	n/a	HILL	11	13	[0, 0, 0]	n/a	FR1	2	R1337E
3023.359	0.754	1412759	WORD_OFF	n/a	n/a	HILL	11	13	[0, 0, 0]	n/a	FR1	2	R1337E
3024.113	1.614	1413513	WORD	n/a	n/a	SQUARE	12	13	[0, 0, 0]	n/a	FR1	2	R1337E
3025.727	0.0	1415127	WORD_OFF	n/a	n/a	SQUARE	12	13	[0, 0, 0]	n/a	FR1	2	R1337E
3025.727	0.0	1415127	ENCODING_END	n/a	n/a	n/a	-999	13	[0, 0, 0]	n/a	FR1	2	R1337E
3025.727	0.001	1415127	DISTRACT_START	n/a	n/a	n/a	-999	13	[0, 0, 0]	n/a	FR1	2	R1337E
3025.728	0.016	1415128	START	n/a	n/a	n/a	-999	14	[-999, -999, -999]	n/a	FR1	2	R1337E
3025.744	9.501	1415144	PROB	9.501	n/a	n/a	-999	14	[6, 5, 6]	17	FR1	2	R1337E
3035.245	5.302	1424644	PROB	5.302	n/a	n/a	-999	14	[9, 9, 7]	25	FR1	2	R1337E
3040.547	3.484	1429946	PROB	3.484	n/a	n/a	-999	14	[5, 4, 5]	14	FR1	2	R1337E
3044.031	4.633	1433430	PROB	4.633	n/a	n/a	-999	14	[8, 4, 5]	20	FR1	2	R1337E
3048.664	0.017	1438063	STOP	n/a	n/a	n/a	-999	14	[-999, -999, -999]	n/a	FR1	2	R1337E
3048.681	1.262	1438080	DISTRACT_END	n/a	n/a	n/a	-999	13	[0, 0, 0]	n/a	FR1	2	R1337E
3049.943	1.022	1439342	RETRIEVAL_ORIENT_START	n/a	n/a	n/a	-999	13	[0, 0, 0]	n/a	FR1	2	R1337E
3050.965	0.0	1440364	RETRIEVAL_ORIENT_END	n/a	n/a	n/a	-999	13	[0, 0, 0]	n/a	FR1	2	R1337E
3050.965	0.264	1440364	REC_START	n/a	n/a	n/a	-999	13	[0, 0, 0]	n/a	FR1	2	R1337E
3051.229	1.095	1440628	REC_WORD	1.095	n/a	SHIP	9	13	[0, 0, 0]	n/a	FR1	2	R1337E
3052.324	0.739	1441723	REC_WORD	0.739	n/a	CLAY	10	13	[0, 0, 0]	n/a	FR1	2	R1337E
3053.063	1.121	1442462	REC_WORD	1.121	n/a	SQUARE	12	13	[0, 0, 0]	n/a	FR1	2	R1337E
3054.184	1.762	1443583	REC_WORD	1.762	n/a	TANK	2	13	[0, 0, 0]	n/a	FR1	2	R1337E
3055.946	0.723	1445345	REC_WORD	0.723	n/a	HAT	-999	13	[0, 0, 0]	n/a	FR1	2	R1337E
3056.669	24.809	1446068	REC_WORD	24.809	n/a	WAVE	-999	13	[0, 0, 0]	n/a	FR1	2	R1337E
3081.478	0.0	1470876	WAITING_START	n/a	n/a	n/a	-999	14	[0, 0, 0]	n/a	FR1	2	R1337E
3081.478	0.0	1470876	TRIAL	n/a	n/a	n/a	-999	14	[0, 0, 0]	n/a	FR1	2	R1337E
3081.478	0.0	1470876	REC_END	n/a	n/a	n/a	-999	13	[0, 0, 0]	n/a	FR1	2	R1337E
3081.478	0.0	1470876	TRIAL_END	n/a	n/a	n/a	-999	13	[0, 0, 0]	n/a	FR1	2	R1337E
3081.478	9.61	1470876	TRIAL_START	n/a	n/a	n/a	-999	14	[0, 0, 0]	n/a	FR1	2	R1337E
3091.088	0.0	1480485	WAITING_END	n/a	n/a	n/a	-999	14	[0, 0, 0]	n/a	FR1	2	R1337E
3091.088	0.0	1480485	COUNTDOWN_START	n/a	n/a	n/a	-999	14	[0, 0, 0]	n/a	FR1	2	R1337E
3091.088	0.0	1480485	COUNTDOWN_END	n/a	n/a	n/a	-999	14	[0, 0, 0]	n/a	FR1	2	R1337E
3091.088	11.586	1480485	ORIENT_START	n/a	n/a	n/a	-999	14	[0, 0, 0]	n/a	FR1	2	R1337E
3102.674	0.0	1492071	ORIENT_END	n/a	n/a	n/a	-999	14	[0, 0, 0]	n/a	FR1	2	R1337E
3102.674	0.873	1492071	ENCODING_START	n/a	n/a	n/a	-999	14	[0, 0, 0]	n/a	FR1	2	R1337E
3103.547	1.627	1492944	WORD	n/a	n/a	STORM	1	14	[0, 0, 0]	n/a	FR1	2	R1337E
3105.174	0.862	1494571	WORD_OFF	n/a	n/a	STORM	1	14	[0, 0, 0]	n/a	FR1	2	R1337E
3106.036	1.622	1495433	WORD	n/a	n/a	OAK	2	14	[0, 0, 0]	n/a	FR1	2	R1337E
3107.658	1.128	1497055	WORD_OFF	n/a	n/a	OAK	2	14	[0, 0, 0]	n/a	FR1	2	R1337E
3108.786	1.623	1498183	WORD	n/a	n/a	SUIT	3	14	[0, 0, 0]	n/a	FR1	2	R1337E
3110.409	0.81	1499806	WORD_OFF	n/a	n/a	SUIT	3	14	[0, 0, 0]	n/a	FR1	2	R1337E
3111.219	1.624	1500616	WORD	n/a	n/a	GLOVE	4	14	[0, 0, 0]	n/a	FR1	2	R1337E
3112.843	0.885	1502240	WORD_OFF	n/a	n/a	GLOVE	4	14	[0, 0, 0]	n/a	FR1	2	R1337E
3113.728	1.631	1503125	WORD	n/a	n/a	SCHOOL	5	14	[0, 0, 0]	n/a	FR1	2	R1337E
3115.359	0.933	1504756	WORD_OFF	n/a	n/a	SCHOOL	5	14	[0, 0, 0]	n/a	FR1	2	R1337E
3116.292	1.635	1505689	WORD	n/a	n/a	FOOT	6	14	[0, 0, 0]	n/a	FR1	2	R1337E
3117.927	0.951	1507323	WORD_OFF	n/a	n/a	FOOT	6	14	[0, 0, 0]	n/a	FR1	2	R1337E
3118.878	1.633	1508274	WORD	n/a	n/a	TOY	7	14	[0, 0, 0]	n/a	FR1	2	R1337E
3120.511	0.766	1509907	WORD_OFF	n/a	n/a	TOY	7	14	[0, 0, 0]	n/a	FR1	2	R1337E
3121.277	1.617	1510673	WORD	n/a	n/a	BAG	8	14	[0, 0, 0]	n/a	FR1	2	R1337E
3122.894	0.809	1512290	WORD_OFF	n/a	n/a	BAG	8	14	[0, 0, 0]	n/a	FR1	2	R1337E
3123.703	1.624	1513099	WORD	n/a	n/a	POND	9	14	[0, 0, 0]	n/a	FR1	2	R1337E
3125.327	0.873	1514723	WORD_OFF	n/a	n/a	POND	9	14	[0, 0, 0]	n/a	FR1	2	R1337E
3126.2	1.629	1515596	WORD	n/a	n/a	PANTS	10	14	[0, 0, 0]	n/a	FR1	2	R1337E
3127.829	0.837	1517225	WORD_OFF	n/a	n/a	PANTS	10	14	[0, 0, 0]	n/a	FR1	2	R1337E
3128.666	1.629	1518062	WORD	n/a	n/a	VASE	11	14	[0, 0, 0]	n/a	FR1	2	R1337E
3130.295	0.861	1519691	WORD_OFF	n/a	n/a	VASE	11	14	[0, 0, 0]	n/a	FR1	2	R1337E
3131.156	1.623	1520552	WORD	n/a	n/a	SWAMP	12	14	[0, 0, 0]	n/a	FR1	2	R1337E
3132.779	0.0	1522175	ENCODING_END	n/a	n/a	n/a	-999	14	[0, 0, 0]	n/a	FR1	2	R1337E
3132.779	0.0	1522175	WORD_OFF	n/a	n/a	SWAMP	12	14	[0, 0, 0]	n/a	FR1	2	R1337E
3132.779	0.001	1522175	DISTRACT_START	n/a	n/a	n/a	-999	14	[0, 0, 0]	n/a	FR1	2	R1337E
3132.78	0.016	1522176	START	n/a	n/a	n/a	-999	15	[-999, -999, -999]	n/a	FR1	2	R1337E
3132.796	10.819	1522192	PROB	10.819	n/a	n/a	-999	15	[9, 4, 6]	19	FR1	2	R1337E
3143.615	3.984	1533011	PROB	3.984	n/a	n/a	-999	15	[3, 3, 1]	7	FR1	2	R1337E
3147.599	6.637	1536994	PROB	6.637	n/a	n/a	-999	15	[8, 3, 4]	15	FR1	2	R1337E
3154.236	0.013	1543631	STOP	n/a	n/a	n/a	-999	15	[-999, -999, -999]	n/a	FR1	2	R1337E
3154.249	1.124	1543644	DISTRACT_END	n/a	n/a	n/a	-999	14	[0, 0, 0]	n/a	FR1	2	R1337E
3155.373	1.027	1544768	RETRIEVAL_ORIENT_START	n/a	n/a	n/a	-999	14	[0, 0, 0]	n/a	FR1	2	R1337E
3156.4	0.0	1545795	RETRIEVAL_ORIENT_END	n/a	n/a	n/a	-999	14	[0, 0, 0]	n/a	FR1	2	R1337E
3156.4	0.782	1545795	REC_START	n/a	n/a	n/a	-999	14	[0, 0, 0]	n/a	FR1	2	R1337E
3157.182	0.726	1546577	REC_WORD	0.726	n/a	STORM	1	14	[0, 0, 0]	n/a	FR1	2	R1337E
3157.908	0.846	1547303	REC_WORD	0.846	n/a	FOOT	6	14	[0, 0, 0]	n/a	FR1	2	R1337E
3158.754	0.894	1548149	REC_WORD	0.894	n/a	ROOT	-999	14	[0, 0, 0]	n/a	FR1	2	R1337E
3159.648	0.579	1549043	REC_WORD_VV	0.579	n/a	<>	-999	14	[0, 0, 0]	n/a	FR1	2	R1337E
3160.227	1.979	1549622	REC_WORD_VV	1.979	n/a	<>	-999	14	[0, 0, 0]	n/a	FR1	2	R1337E
3162.206	1.305	1551601	REC_WORD	1.305	n/a	VASE	11	14	[0, 0, 0]	n/a	FR1	2	R1337E
3163.511	2.509	1552906	REC_WORD	2.509	n/a	BANK	-999	14	[0, 0, 0]	n/a	FR1	2	R1337E
3166.02	20.893	1555415	REC_WORD	20.893	n/a	SUIT	3	14	[0, 0, 0]	n/a	FR1	2	R1337E
3186.913	0.0	1576307	TRIAL	n/a	n/a	n/a	-999	15	[0, 0, 0]	n/a	FR1	2	R1337E
3186.913	0.0	1576307	WAITING_START	n/a	n/a	n/a	-999	15	[0, 0, 0]	n/a	FR1	2	R1337E
3186.913	0.0	1576307	TRIAL_END	n/a	n/a	n/a	-999	14	[0, 0, 0]	n/a	FR1	2	R1337E
3186.913	0.0	1576307	TRIAL_START	n/a	n/a	n/a	-999	15	[0, 0, 0]	n/a	FR1	2	R1337E
3186.913	66.153	1576307	REC_END	n/a	n/a	n/a	-999	14	[0, 0, 0]	n/a	FR1	2	R1337E
3253.066	0.0	1642458	ORIENT_START	n/a	n/a	n/a	-999	15	[0, 0, 0]	n/a	FR1	2	R1337E
3253.066	0.0	1642458	WAITING_END	n/a	n/a	n/a	-999	15	[0, 0, 0]	n/a	FR1	2	R1337E
3253.066	0.0	1642458	COUNTDOWN_START	n/a	n/a	n/a	-999	15	[0, 0, 0]	n/a	FR1	2	R1337E
3253.066	11.553	1642458	COUNTDOWN_END	n/a	n/a	n/a	-999	15	[0, 0, 0]	n/a	FR1	2	R1337E
3264.619	0.0	1654010	ORIENT_END	n/a	n/a	n/a	-999	15	[0, 0, 0]	n/a	FR1	2	R1337E
3264.619	0.841	1654010	ENCODING_START	n/a	n/a	n/a	-999	15	[0, 0, 0]	n/a	FR1	2	R1337E
3265.46	1.625	1654851	WORD	n/a	n/a	LEAF	1	15	[0, 0, 0]	n/a	FR1	2	R1337E
3267.085	0.934	1656476	WORD_OFF	n/a	n/a	LEAF	1	15	[0, 0, 0]	n/a	FR1	2	R1337E
3268.019	1.634	1657410	WORD	n/a	n/a	CROW	2	15	[0, 0, 0]	n/a	FR1	2	R1337E
3269.653	1.106	1659044	WORD_OFF	n/a	n/a	CROW	2	15	[0, 0, 0]	n/a	FR1	2	R1337E
3270.759	1.627	1660150	WORD	n/a	n/a	ARK	3	15	[0, 0, 0]	n/a	FR1	2	R1337E
3272.386	0.822	1661777	WORD_OFF	n/a	n/a	ARK	3	15	[0, 0, 0]	n/a	FR1	2	R1337E
3273.208	1.63	1662599	WORD	n/a	n/a	OAR	4	15	[0, 0, 0]	n/a	FR1	2	R1337E
3274.838	1.072	1664229	WORD_OFF	n/a	n/a	OAR	4	15	[0, 0, 0]	n/a	FR1	2	R1337E
3275.91	1.628	1665301	WORD	n/a	n/a	FISH	5	15	[0, 0, 0]	n/a	FR1	2	R1337E
3277.538	1.087	1666929	WORD_OFF	n/a	n/a	FISH	5	15	[0, 0, 0]	n/a	FR1	2	R1337E
3278.625	1.629	1668016	WORD	n/a	n/a	LOCK	6	15	[0, 0, 0]	n/a	FR1	2	R1337E
3280.254	1.007	1669645	WORD_OFF	n/a	n/a	LOCK	6	15	[0, 0, 0]	n/a	FR1	2	R1337E
3281.261	1.628	1670652	WORD	n/a	n/a	SIGN	7	15	[0, 0, 0]	n/a	FR1	2	R1337E
3282.889	0.854	1672280	WORD_OFF	n/a	n/a	SIGN	7	15	[0, 0, 0]	n/a	FR1	2	R1337E
3283.743	1.629	1673134	WORD	n/a	n/a	GOAT	8	15	[0, 0, 0]	n/a	FR1	2	R1337E
3285.372	0.951	1674762	WORD_OFF	n/a	n/a	GOAT	8	15	[0, 0, 0]	n/a	FR1	2	R1337E
3286.323	1.634	1675713	WORD	n/a	n/a	THUMB	9	15	[0, 0, 0]	n/a	FR1	2	R1337E
3287.957	0.869	1677347	WORD_OFF	n/a	n/a	THUMB	9	15	[0, 0, 0]	n/a	FR1	2	R1337E
3288.826	1.631	1678216	WORD	n/a	n/a	PRINCE	10	15	[0, 0, 0]	n/a	FR1	2	R1337E
3290.457	1.03	1679847	WORD_OFF	n/a	n/a	PRINCE	10	15	[0, 0, 0]	n/a	FR1	2	R1337E
3291.487	1.636	1680877	WORD	n/a	n/a	TOOL	11	15	[0, 0, 0]	n/a	FR1	2	R1337E
3293.123	0.935	1682513	WORD_OFF	n/a	n/a	TOOL	11	15	[0, 0, 0]	n/a	FR1	2	R1337E
3294.058	1.617	1683448	WORD	n/a	n/a	FROG	12	15	[0, 0, 0]	n/a	FR1	2	R1337E
3295.675	0.0	1685065	WORD_OFF	n/a	n/a	FROG	12	15	[0, 0, 0]	n/a	FR1	2	R1337E
3295.675	0.0	1685065	ENCODING_END	n/a	n/a	n/a	-999	15	[0, 0, 0]	n/a	FR1	2	R1337E
3295.675	0.001	1685065	DISTRACT_START	n/a	n/a	n/a	-999	15	[0, 0, 0]	n/a	FR1	2	R1337E
3295.676	0.015	1685066	START	n/a	n/a	n/a	-999	16	[-999, -999, -999]	n/a	FR1	2	R1337E
3295.691	8.118	1685081	PROB	8.118	n/a	n/a	-999	16	[9, 5, 6]	20	FR1	2	R1337E
3303.809	5.668	1693199	PROB	5.668	n/a	n/a	-999	16	[9, 8, 6]	23	FR1	2	R1337E
3309.477	3.916	1698867	PROB	3.916	n/a	n/a	-999	16	[3, 8, 7]	18	FR1	2	R1337E
3313.393	5.465	1702782	PROB	5.465	n/a	n/a	-999	16	[8, 3, 7]	18	FR1	2	R1337E
3318.858	0.021	1708247	STOP	n/a	n/a	n/a	-999	16	[-999, -999, -999]	n/a	FR1	2	R1337E
3318.879	1.225	1708268	DISTRACT_END	n/a	n/a	n/a	-999	15	[0, 0, 0]	n/a	FR1	2	R1337E
3320.104	1.024	1709493	RETRIEVAL_ORIENT_START	n/a	n/a	n/a	-999	15	[0, 0, 0]	n/a	FR1	2	R1337E
3321.128	0.0	1710517	REC_START	n/a	n/a	n/a	-999	15	[0, 0, 0]	n/a	FR1	2	R1337E
3321.128	0.462	1710517	RETRIEVAL_ORIENT_END	n/a	n/a	n/a	-999	15	[0, 0, 0]	n/a	FR1	2	R1337E
3321.59	0.65	1710979	REC_WORD	0.65	n/a	PRINCE	10	15	[0, 0, 0]	n/a	FR1	2	R1337E
3322.24	0.47	1711629	REC_WORD	0.47	n/a	TOOL	11	15	[0, 0, 0]	n/a	FR1	2	R1337E
3322.71	28.93	1712099	REC_WORD	28.93	n/a	FROG	12	15	[0, 0, 0]	n/a	FR1	2	R1337E
3351.64	0.0	1741028	REC_END	n/a	n/a	n/a	-999	15	[0, 0, 0]	n/a	FR1	2	R1337E
3351.64	0.0	1741028	TRIAL_END	n/a	n/a	n/a	-999	15	[0, 0, 0]	n/a	FR1	2	R1337E
3351.64	0.0	1741028	TRIAL_START	n/a	n/a	n/a	-999	16	[0, 0, 0]	n/a	FR1	2	R1337E
3351.64	0.0	1741028	TRIAL	n/a	n/a	n/a	-999	16	[0, 0, 0]	n/a	FR1	2	R1337E
3351.64	3.278	1741028	WAITING_START	n/a	n/a	n/a	-999	16	[0, 0, 0]	n/a	FR1	2	R1337E
3354.918	0.0	1744306	WAITING_END	n/a	n/a	n/a	-999	16	[0, 0, 0]	n/a	FR1	2	R1337E
3354.918	0.0	1744306	COUNTDOWN_START	n/a	n/a	n/a	-999	16	[0, 0, 0]	n/a	FR1	2	R1337E
3354.918	0.0	1744306	COUNTDOWN_END	n/a	n/a	n/a	-999	16	[0, 0, 0]	n/a	FR1	2	R1337E
3354.918	11.686	1744306	ORIENT_START	n/a	n/a	n/a	-999	16	[0, 0, 0]	n/a	FR1	2	R1337E
3366.604	0.0	1755992	ORIENT_END	n/a	n/a	n/a	-999	16	[0, 0, 0]	n/a	FR1	2	R1337E
3366.604	0.874	1755992	ENCODING_START	n/a	n/a	n/a	-999	16	[0, 0, 0]	n/a	FR1	2	R1337E
3367.478	1.625	1756865	WORD	n/a	n/a	FUDGE	1	16	[0, 0, 0]	n/a	FR1	2	R1337E
3369.103	0.963	1758490	WORD_OFF	n/a	n/a	FUDGE	1	16	[0, 0, 0]	n/a	FR1	2	R1337E
3370.066	1.622	1759453	WORD	n/a	n/a	PEAR	2	16	[0, 0, 0]	n/a	FR1	2	R1337E
3371.688	0.901	1761075	WORD_OFF	n/a	n/a	PEAR	2	16	[0, 0, 0]	n/a	FR1	2	R1337E
3372.589	1.632	1761976	WORD	n/a	n/a	KEY	3	16	[0, 0, 0]	n/a	FR1	2	R1337E
3374.221	1.047	1763608	WORD_OFF	n/a	n/a	KEY	3	16	[0, 0, 0]	n/a	FR1	2	R1337E
3375.268	1.638	1764655	WORD	n/a	n/a	TRAIN	4	16	[0, 0, 0]	n/a	FR1	2	R1337E
3376.906	0.938	1766293	WORD_OFF	n/a	n/a	TRAIN	4	16	[0, 0, 0]	n/a	FR1	2	R1337E
3377.844	1.629	1767231	WORD	n/a	n/a	FOG	5	16	[0, 0, 0]	n/a	FR1	2	R1337E
3379.473	0.752	1768860	WORD_OFF	n/a	n/a	FOG	5	16	[0, 0, 0]	n/a	FR1	2	R1337E
3380.225	1.631	1769612	WORD	n/a	n/a	PIPE	6	16	[0, 0, 0]	n/a	FR1	2	R1337E
3381.856	0.868	1771243	WORD_OFF	n/a	n/a	PIPE	6	16	[0, 0, 0]	n/a	FR1	2	R1337E
3382.724	1.632	1772111	WORD	n/a	n/a	SOCK	7	16	[0, 0, 0]	n/a	FR1	2	R1337E
3384.356	0.811	1773743	WORD_OFF	n/a	n/a	SOCK	7	16	[0, 0, 0]	n/a	FR1	2	R1337E
3385.167	1.624	1774554	WORD	n/a	n/a	BREAD	8	16	[0, 0, 0]	n/a	FR1	2	R1337E
3386.791	1.082	1776178	WORD_OFF	n/a	n/a	BREAD	8	16	[0, 0, 0]	n/a	FR1	2	R1337E
3387.873	1.635	1777260	WORD	n/a	n/a	MAP	9	16	[0, 0, 0]	n/a	FR1	2	R1337E
3389.508	0.905	1778895	WORD_OFF	n/a	n/a	MAP	9	16	[0, 0, 0]	n/a	FR1	2	R1337E
3390.413	1.629	1779800	WORD	n/a	n/a	BEACH	10	16	[0, 0, 0]	n/a	FR1	2	R1337E
3392.042	1.107	1781429	WORD_OFF	n/a	n/a	BEACH	10	16	[0, 0, 0]	n/a	FR1	2	R1337E
3393.149	1.626	1782536	WORD	n/a	n/a	BRIDGE	11	16	[0, 0, 0]	n/a	FR1	2	R1337E
3394.775	1.052	1784162	WORD_OFF	n/a	n/a	BRIDGE	11	16	[0, 0, 0]	n/a	FR1	2	R1337E
3395.827	1.632	1785213	WORD	n/a	n/a	ANT	12	16	[0, 0, 0]	n/a	FR1	2	R1337E
3397.459	0.0	1786845	ENCODING_END	n/a	n/a	n/a	-999	16	[0, 0, 0]	n/a	FR1	2	R1337E
3397.459	0.0	1786845	WORD_OFF	n/a	n/a	ANT	12	16	[0, 0, 0]	n/a	FR1	2	R1337E
3397.459	0.001	1786845	DISTRACT_START	n/a	n/a	n/a	-999	16	[0, 0, 0]	n/a	FR1	2	R1337E
3397.46	0.016	1786846	START	n/a	n/a	n/a	-999	17	[-999, -999, -999]	n/a	FR1	2	R1337E
3397.476	10.068	1786862	PROB	10.068	n/a	n/a	-999	17	[8, 1, 7]	16	FR1	2	R1337E
3407.544	6.468	1796930	PROB	6.468	n/a	n/a	-999	17	[4, 8, 6]	18	FR1	2	R1337E
3414.012	3.946	1803398	PROB	3.946	n/a	n/a	-999	17	[3, 1, 2]	6	FR1	2	R1337E
3417.958	0.022	1807344	STOP	n/a	n/a	n/a	-999	17	[-999, -999, -999]	n/a	FR1	2	R1337E
3417.98	1.145	1807366	DISTRACT_END	n/a	n/a	n/a	-999	16	[0, 0, 0]	n/a	FR1	2	R1337E
3419.125	1.021	1808511	RETRIEVAL_ORIENT_START	n/a	n/a	n/a	-999	16	[0, 0, 0]	n/a	FR1	2	R1337E
3420.146	0.0	1809532	RETRIEVAL_ORIENT_END	n/a	n/a	n/a	-999	16	[0, 0, 0]	n/a	FR1	2	R1337E
3420.146	1.828	1809532	REC_START	n/a	n/a	n/a	-999	16	[0, 0, 0]	n/a	FR1	2	R1337E
3421.974	5.149	1811360	REC_WORD	5.149	n/a	FUR	-999	16	[0, 0, 0]	n/a	FR1	2	R1337E
3427.123	1.164	1816508	REC_WORD	1.164	n/a	EDGE	-999	16	[0, 0, 0]	n/a	FR1	2	R1337E
3428.287	1.066	1817672	REC_WORD	1.066	n/a	PEACH	-999	16	[0, 0, 0]	n/a	FR1	2	R1337E
3429.353	21.305	1818738	REC_WORD	21.305	n/a	BANK	-999	16	[0, 0, 0]	n/a	FR1	2	R1337E
3450.658	0.0	1840043	REC_END	n/a	n/a	n/a	-999	16	[0, 0, 0]	n/a	FR1	2	R1337E
3450.658	0.0	1840043	TRIAL_END	n/a	n/a	n/a	-999	16	[0, 0, 0]	n/a	FR1	2	R1337E
3450.658	0.0	1840043	TRIAL_START	n/a	n/a	n/a	-999	17	[0, 0, 0]	n/a	FR1	2	R1337E
3450.658	0.0	1840043	TRIAL	n/a	n/a	n/a	-999	17	[0, 0, 0]	n/a	FR1	2	R1337E
3450.658	4.145	1840043	WAITING_START	n/a	n/a	n/a	-999	17	[0, 0, 0]	n/a	FR1	2	R1337E
3454.803	0.0	1844187	ORIENT_START	n/a	n/a	n/a	-999	17	[0, 0, 0]	n/a	FR1	2	R1337E
3454.803	0.0	1844187	COUNTDOWN_START	n/a	n/a	n/a	-999	17	[0, 0, 0]	n/a	FR1	2	R1337E
3454.803	0.0	1844187	WAITING_END	n/a	n/a	n/a	-999	17	[0, 0, 0]	n/a	FR1	2	R1337E
3454.803	11.635	1844187	COUNTDOWN_END	n/a	n/a	n/a	-999	17	[0, 0, 0]	n/a	FR1	2	R1337E
3466.438	0.0	1855822	ENCODING_START	n/a	n/a	n/a	-999	17	[0, 0, 0]	n/a	FR1	2	R1337E
3466.438	0.906	1855822	ORIENT_END	n/a	n/a	n/a	-999	17	[0, 0, 0]	n/a	FR1	2	R1337E
3467.344	1.628	1856728	WORD	n/a	n/a	RUG	1	17	[0, 0, 0]	n/a	FR1	2	R1337E
3468.972	0.945	1858356	WORD_OFF	n/a	n/a	RUG	1	17	[0, 0, 0]	n/a	FR1	2	R1337E
3469.917	1.622	1859301	WORD	n/a	n/a	SKUNK	2	17	[0, 0, 0]	n/a	FR1	2	R1337E
3471.539	1.082	1860923	WORD_OFF	n/a	n/a	SKUNK	2	17	[0, 0, 0]	n/a	FR1	2	R1337E
3472.621	1.634	1862005	WORD	n/a	n/a	EAR	3	17	[0, 0, 0]	n/a	FR1	2	R1337E
3474.255	0.853	1863639	WORD_OFF	n/a	n/a	EAR	3	17	[0, 0, 0]	n/a	FR1	2	R1337E
3475.108	1.632	1864492	WORD	n/a	n/a	FACE	4	17	[0, 0, 0]	n/a	FR1	2	R1337E
3476.74	0.964	1866124	WORD_OFF	n/a	n/a	FACE	4	17	[0, 0, 0]	n/a	FR1	2	R1337E
3477.704	1.635	1867088	WORD	n/a	n/a	HAWK	5	17	[0, 0, 0]	n/a	FR1	2	R1337E
3479.339	0.911	1868722	WORD_OFF	n/a	n/a	HAWK	5	17	[0, 0, 0]	n/a	FR1	2	R1337E
3480.25	1.624	1869633	WORD	n/a	n/a	GRAPE	6	17	[0, 0, 0]	n/a	FR1	2	R1337E
3481.874	0.871	1871257	WORD_OFF	n/a	n/a	GRAPE	6	17	[0, 0, 0]	n/a	FR1	2	R1337E
3482.745	1.628	1872128	WORD	n/a	n/a	SKI	7	17	[0, 0, 0]	n/a	FR1	2	R1337E
3484.373	1.067	1873756	WORD_OFF	n/a	n/a	SKI	7	17	[0, 0, 0]	n/a	FR1	2	R1337E
3485.44	1.634	1874823	WORD	n/a	n/a	WOLF	8	17	[0, 0, 0]	n/a	FR1	2	R1337E
3487.074	1.039	1876457	WORD_OFF	n/a	n/a	WOLF	8	17	[0, 0, 0]	n/a	FR1	2	R1337E
3488.113	1.612	1877496	WORD	n/a	n/a	DUCK	9	17	[0, 0, 0]	n/a	FR1	2	R1337E
3489.725	0.884	1879108	WORD_OFF	n/a	n/a	DUCK	9	17	[0, 0, 0]	n/a	FR1	2	R1337E
3490.609	1.632	1879992	WORD	n/a	n/a	SHARK	10	17	[0, 0, 0]	n/a	FR1	2	R1337E
3492.241	0.752	1881624	WORD_OFF	n/a	n/a	SHARK	10	17	[0, 0, 0]	n/a	FR1	2	R1337E
3492.993	1.633	1882376	WORD	n/a	n/a	SHELL	11	17	[0, 0, 0]	n/a	FR1	2	R1337E
3494.626	0.825	1884009	WORD_OFF	n/a	n/a	SHELL	11	17	[0, 0, 0]	n/a	FR1	2	R1337E
3495.451	1.625	1884834	WORD	n/a	n/a	DOCK	12	17	[0, 0, 0]	n/a	FR1	2	R1337E
3497.076	0.0	1886459	WORD_OFF	n/a	n/a	DOCK	12	17	[0, 0, 0]	n/a	FR1	2	R1337E
3497.076	0.0	1886459	ENCODING_END	n/a	n/a	n/a	-999	17	[0, 0, 0]	n/a	FR1	2	R1337E
3497.076	0.001	1886459	DISTRACT_START	n/a	n/a	n/a	-999	17	[0, 0, 0]	n/a	FR1	2	R1337E
3497.077	0.015	1886460	START	n/a	n/a	n/a	-999	18	[-999, -999, -999]	n/a	FR1	2	R1337E
3497.092	10.82	1886475	PROB	10.82	n/a	n/a	-999	18	[5, 4, 7]	16	FR1	2	R1337E
3507.912	5.283	1897294	PROB	5.283	n/a	n/a	-999	18	[2, 3, 4]	9	FR1	2	R1337E
3513.195	3.635	1902577	PROB	3.635	n/a	n/a	-999	18	[3, 4, 8]	15	FR1	2	R1337E
3516.83	3.838	1906212	PROB	3.838	n/a	n/a	-999	18	[7, 9, 1]	17	FR1	2	R1337E
3520.668	0.013	1910050	STOP	n/a	n/a	n/a	-999	18	[-999, -999, -999]	n/a	FR1	2	R1337E
3520.681	1.304	1910063	DISTRACT_END	n/a	n/a	n/a	-999	17	[0, 0, 0]	n/a	FR1	2	R1337E
3521.985	1.03	1911367	RETRIEVAL_ORIENT_START	n/a	n/a	n/a	-999	17	[0, 0, 0]	n/a	FR1	2	R1337E
3523.015	0.0	1912397	RETRIEVAL_ORIENT_END	n/a	n/a	n/a	-999	17	[0, 0, 0]	n/a	FR1	2	R1337E
3523.015	0.505	1912397	REC_START	n/a	n/a	n/a	-999	17	[0, 0, 0]	n/a	FR1	2	R1337E
3523.52	0.541	1912902	REC_WORD	0.541	n/a	RUG	1	17	[0, 0, 0]	n/a	FR1	2	R1337E
3524.061	0.723	1913443	REC_WORD	0.723	n/a	SKUNK	2	17	[0, 0, 0]	n/a	FR1	2	R1337E
3524.784	0.651	1914166	REC_WORD	0.651	n/a	EAR	3	17	[0, 0, 0]	n/a	FR1	2	R1337E
3525.435	28.091	1914817	REC_WORD	28.091	n/a	HAWK	5	17	[0, 0, 0]	n/a	FR1	2	R1337E
3553.526	0.0	1942907	REC_END	n/a	n/a	n/a	-999	17	[0, 0, 0]	n/a	FR1	2	R1337E
3553.526	0.0	1942907	TRIAL_END	n/a	n/a	n/a	-999	17	[0, 0, 0]	n/a	FR1	2	R1337E
3553.526	0.0	1942907	TRIAL_START	n/a	n/a	n/a	-999	18	[0, 0, 0]	n/a	FR1	2	R1337E
3553.526	0.0	1942907	TRIAL	n/a	n/a	n/a	-999	18	[0, 0, 0]	n/a	FR1	2	R1337E
3553.526	3.495	1942907	WAITING_START	n/a	n/a	n/a	-999	18	[0, 0, 0]	n/a	FR1	2	R1337E
3557.021	0.0	1946402	WAITING_END	n/a	n/a	n/a	-999	18	[0, 0, 0]	n/a	FR1	2	R1337E
3557.021	0.0	1946402	COUNTDOWN_START	n/a	n/a	n/a	-999	18	[0, 0, 0]	n/a	FR1	2	R1337E
3557.021	0.0	1946402	COUNTDOWN_END	n/a	n/a	n/a	-999	18	[0, 0, 0]	n/a	FR1	2	R1337E
3557.021	11.502	1946402	ORIENT_START	n/a	n/a	n/a	-999	18	[0, 0, 0]	n/a	FR1	2	R1337E
3568.523	0.0	1957903	ORIENT_END	n/a	n/a	n/a	-999	18	[0, 0, 0]	n/a	FR1	2	R1337E
3568.523	0.787	1957903	ENCODING_START	n/a	n/a	n/a	-999	18	[0, 0, 0]	n/a	FR1	2	R1337E
3569.31	1.63	1958690	WORD	n/a	n/a	CORD	1	18	[0, 0, 0]	n/a	FR1	2	R1337E
3570.94	1.114	1960320	WORD_OFF	n/a	n/a	CORD	1	18	[0, 0, 0]	n/a	FR1	2	R1337E
3572.054	1.619	1961434	WORD	n/a	n/a	STONE	2	18	[0, 0, 0]	n/a	FR1	2	R1337E
3573.673	0.981	1963053	WORD_OFF	n/a	n/a	STONE	2	18	[0, 0, 0]	n/a	FR1	2	R1337E
3574.654	1.636	1964034	WORD	n/a	n/a	CLOCK	3	18	[0, 0, 0]	n/a	FR1	2	R1337E
3576.29	1.09	1965670	WORD_OFF	n/a	n/a	CLOCK	3	18	[0, 0, 0]	n/a	FR1	2	R1337E
3577.38	1.628	1966760	WORD	n/a	n/a	STEAM	4	18	[0, 0, 0]	n/a	FR1	2	R1337E
3579.008	0.755	1968388	WORD_OFF	n/a	n/a	STEAM	4	18	[0, 0, 0]	n/a	FR1	2	R1337E
3579.763	1.627	1969143	WORD	n/a	n/a	VINE	5	18	[0, 0, 0]	n/a	FR1	2	R1337E
3581.39	0.897	1970770	WORD_OFF	n/a	n/a	VINE	5	18	[0, 0, 0]	n/a	FR1	2	R1337E
3582.287	1.605	1971667	WORD	n/a	n/a	VEST	6	18	[0, 0, 0]	n/a	FR1	2	R1337E
3583.892	0.815	1973272	WORD_OFF	n/a	n/a	VEST	6	18	[0, 0, 0]	n/a	FR1	2	R1337E
3584.707	1.634	1974087	WORD	n/a	n/a	SLIME	7	18	[0, 0, 0]	n/a	FR1	2	R1337E
3586.341	1.063	1975721	WORD_OFF	n/a	n/a	SLIME	7	18	[0, 0, 0]	n/a	FR1	2	R1337E
3587.404	1.622	1976784	WORD	n/a	n/a	LAND	8	18	[0, 0, 0]	n/a	FR1	2	R1337E
3589.026	1.097	1978406	WORD_OFF	n/a	n/a	LAND	8	18	[0, 0, 0]	n/a	FR1	2	R1337E
3590.123	1.637	1979502	WORD	n/a	n/a	SWORD	9	18	[0, 0, 0]	n/a	FR1	2	R1337E
3591.76	1.137	1981139	WORD_OFF	n/a	n/a	SWORD	9	18	[0, 0, 0]	n/a	FR1	2	R1337E
3592.897	1.63	1982276	WORD	n/a	n/a	FLAME	10	18	[0, 0, 0]	n/a	FR1	2	R1337E
3594.527	0.842	1983906	WORD_OFF	n/a	n/a	FLAME	10	18	[0, 0, 0]	n/a	FR1	2	R1337E
3595.369	1.608	1984748	WORD	n/a	n/a	RAIN	11	18	[0, 0, 0]	n/a	FR1	2	R1337E
3596.977	0.837	1986356	WORD_OFF	n/a	n/a	RAIN	11	18	[0, 0, 0]	n/a	FR1	2	R1337E
3597.814	1.631	1987193	WORD	n/a	n/a	CASH	12	18	[0, 0, 0]	n/a	FR1	2	R1337E
3599.445	0.0	1988824	ENCODING_END	n/a	n/a	n/a	-999	18	[0, 0, 0]	n/a	FR1	2	R1337E
3599.445	0.0	1988824	WORD_OFF	n/a	n/a	CASH	12	18	[0, 0, 0]	n/a	FR1	2	R1337E
3599.445	0.001	1988824	DISTRACT_START	n/a	n/a	n/a	-999	18	[0, 0, 0]	n/a	FR1	2	R1337E
3599.446	0.015	1988825	START	n/a	n/a	n/a	-999	19	[-999, -999, -999]	n/a	FR1	2	R1337E
3599.461	10.285	1988840	PROB	10.285	n/a	n/a	-999	19	[3, 1, 6]	10	FR1	2	R1337E
3609.746	4.367	1999125	PROB	4.367	n/a	n/a	-999	19	[8, 8, 5]	21	FR1	2	R1337E
3614.113	2.718	2003492	PROB	2.718	n/a	n/a	-999	19	[7, 4, 2]	13	FR1	2	R1337E
3616.831	3.143	2006210	PROB	3.143	n/a	n/a	-999	19	[1, 4, 2]	7	FR1	2	R1337E
3619.974	0.008	2009352	STOP	n/a	n/a	n/a	-999	19	[-999, -999, -999]	n/a	FR1	2	R1337E
3619.982	1.126	2009360	DISTRACT_END	n/a	n/a	n/a	-999	18	[0, 0, 0]	n/a	FR1	2	R1337E
3621.108	1.023	2010486	RETRIEVAL_ORIENT_START	n/a	n/a	n/a	-999	18	[0, 0, 0]	n/a	FR1	2	R1337E
3622.131	0.0	2011509	RETRIEVAL_ORIENT_END	n/a	n/a	n/a	-999	18	[0, 0, 0]	n/a	FR1	2	R1337E
3622.131	0.133	2011509	REC_START	n/a	n/a	n/a	-999	18	[0, 0, 0]	n/a	FR1	2	R1337E
3622.264	0.893	2011642	REC_WORD	0.893	n/a	LAND	8	18	[0, 0, 0]	n/a	FR1	2	R1337E
3623.157	0.975	2012535	REC_WORD	0.975	n/a	SWORD	9	18	[0, 0, 0]	n/a	FR1	2	R1337E
3624.132	0.869	2013510	REC_WORD	0.869	n/a	CASH	12	18	[0, 0, 0]	n/a	FR1	2	R1337E
3625.001	27.642	2014379	REC_WORD	27.642	n/a	FLAME	10	18	[0, 0, 0]	n/a	FR1	2	R1337E
3652.643	0.0	2042020	REC_END	n/a	n/a	n/a	-999	18	[0, 0, 0]	n/a	FR1	2	R1337E
3652.643	0.0	2042020	TRIAL_END	n/a	n/a	n/a	-999	18	[0, 0, 0]	n/a	FR1	2	R1337E
3652.643	0.0	2042020	TRIAL_START	n/a	n/a	n/a	-999	19	[0, 0, 0]	n/a	FR1	2	R1337E
3652.643	0.0	2042020	TRIAL	n/a	n/a	n/a	-999	19	[0, 0, 0]	n/a	FR1	2	R1337E
3652.643	2.56	2042020	WAITING_START	n/a	n/a	n/a	-999	19	[0, 0, 0]	n/a	FR1	2	R1337E
3655.203	0.0	2044580	ORIENT_START	n/a	n/a	n/a	-999	19	[0, 0, 0]	n/a	FR1	2	R1337E
3655.203	0.0	2044580	COUNTDOWN_END	n/a	n/a	n/a	-999	19	[0, 0, 0]	n/a	FR1	2	R1337E
3655.203	0.0	2044580	WAITING_END	n/a	n/a	n/a	-999	19	[0, 0, 0]	n/a	FR1	2	R1337E
3655.203	11.604	2044580	COUNTDOWN_START	n/a	n/a	n/a	-999	19	[0, 0, 0]	n/a	FR1	2	R1337E
3666.807	0.0	2056184	ORIENT_END	n/a	n/a	n/a	-999	19	[0, 0, 0]	n/a	FR1	2	R1337E
3666.807	0.769	2056184	ENCODING_START	n/a	n/a	n/a	-999	19	[0, 0, 0]	n/a	FR1	2	R1337E
3667.576	1.63	2056953	WORD	n/a	n/a	NET	1	19	[0, 0, 0]	n/a	FR1	2	R1337E
3669.206	1.054	2058583	WORD_OFF	n/a	n/a	NET	1	19	[0, 0, 0]	n/a	FR1	2	R1337E
3670.26	1.631	2059637	WORD	n/a	n/a	SHIRT	2	19	[0, 0, 0]	n/a	FR1	2	R1337E
3671.891	0.985	2061268	WORD_OFF	n/a	n/a	SHIRT	2	19	[0, 0, 0]	n/a	FR1	2	R1337E
3672.876	1.631	2062253	WORD	n/a	n/a	CUP	3	19	[0, 0, 0]	n/a	FR1	2	R1337E
3674.507	0.79	2063883	WORD_OFF	n/a	n/a	CUP	3	19	[0, 0, 0]	n/a	FR1	2	R1337E
3675.297	1.628	2064673	WORD	n/a	n/a	HAND	4	19	[0, 0, 0]	n/a	FR1	2	R1337E
3676.925	0.822	2066301	WORD_OFF	n/a	n/a	HAND	4	19	[0, 0, 0]	n/a	FR1	2	R1337E
3677.747	1.627	2067123	WORD	n/a	n/a	CAKE	5	19	[0, 0, 0]	n/a	FR1	2	R1337E
3679.374	1.003	2068750	WORD_OFF	n/a	n/a	CAKE	5	19	[0, 0, 0]	n/a	FR1	2	R1337E
3680.377	1.632	2069753	WORD	n/a	n/a	RICE	6	19	[0, 0, 0]	n/a	FR1	2	R1337E
3682.009	0.85	2071385	WORD_OFF	n/a	n/a	RICE	6	19	[0, 0, 0]	n/a	FR1	2	R1337E
3682.859	1.634	2072235	WORD	n/a	n/a	BRANCH	7	19	[0, 0, 0]	n/a	FR1	2	R1337E
3684.493	1.071	2073869	WORD_OFF	n/a	n/a	BRANCH	7	19	[0, 0, 0]	n/a	FR1	2	R1337E
3685.564	1.628	2074940	WORD	n/a	n/a	CLOUD	8	19	[0, 0, 0]	n/a	FR1	2	R1337E
3687.192	0.993	2076568	WORD_OFF	n/a	n/a	CLOUD	8	19	[0, 0, 0]	n/a	FR1	2	R1337E
3688.185	1.625	2077561	WORD	n/a	n/a	SPONGE	9	19	[0, 0, 0]	n/a	FR1	2	R1337E
3689.81	0.942	2079186	WORD_OFF	n/a	n/a	SPONGE	9	19	[0, 0, 0]	n/a	FR1	2	R1337E
3690.752	1.625	2080128	WORD	n/a	n/a	BLOOM	10	19	[0, 0, 0]	n/a	FR1	2	R1337E
3692.377	0.852	2081753	WORD_OFF	n/a	n/a	BLOOM	10	19	[0, 0, 0]	n/a	FR1	2	R1337E
3693.229	1.632	2082605	WORD	n/a	n/a	BOWL	11	19	[0, 0, 0]	n/a	FR1	2	R1337E
3694.861	0.904	2084237	WORD_OFF	n/a	n/a	BOWL	11	19	[0, 0, 0]	n/a	FR1	2	R1337E
3695.765	1.63	2085141	WORD	n/a	n/a	SNAKE	12	19	[0, 0, 0]	n/a	FR1	2	R1337E
3697.395	0.0	2086771	WORD_OFF	n/a	n/a	SNAKE	12	19	[0, 0, 0]	n/a	FR1	2	R1337E
3697.395	0.0	2086771	ENCODING_END	n/a	n/a	n/a	-999	19	[0, 0, 0]	n/a	FR1	2	R1337E
3697.395	0.001	2086771	DISTRACT_START	n/a	n/a	n/a	-999	19	[0, 0, 0]	n/a	FR1	2	R1337E
3697.396	0.016	2086772	START	n/a	n/a	n/a	-999	20	[-999, -999, -999]	n/a	FR1	2	R1337E
3697.412	5.8	2086788	PROB	5.8	n/a	n/a	-999	20	[6, 3, 9]	18	FR1	2	R1337E
3703.212	5.502	2092587	PROB	5.502	n/a	n/a	-999	20	[2, 6, 9]	17	FR1	2	R1337E
3708.714	3.483	2098089	PROB	3.483	n/a	n/a	-999	20	[5, 8, 2]	15	FR1	2	R1337E
3712.197	4.017	2101572	PROB	4.017	n/a	n/a	-999	20	[1, 1, 5]	7	FR1	2	R1337E
3716.214	5.183	2105589	PROB	5.183	n/a	n/a	-999	20	[7, 7, 2]	16	FR1	2	R1337E
3721.397	0.019	2110772	STOP	n/a	n/a	n/a	-999	20	[-999, -999, -999]	n/a	FR1	2	R1337E
3721.416	1.229	2110791	DISTRACT_END	n/a	n/a	n/a	-999	19	[0, 0, 0]	n/a	FR1	2	R1337E
3722.645	1.021	2112020	RETRIEVAL_ORIENT_START	n/a	n/a	n/a	-999	19	[0, 0, 0]	n/a	FR1	2	R1337E
3723.666	0.0	2113041	RETRIEVAL_ORIENT_END	n/a	n/a	n/a	-999	19	[0, 0, 0]	n/a	FR1	2	R1337E
3723.666	0.499	2113041	REC_START	n/a	n/a	n/a	-999	19	[0, 0, 0]	n/a	FR1	2	R1337E
3724.165	0.555	2113540	REC_WORD	0.555	n/a	NET	1	19	[0, 0, 0]	n/a	FR1	2	R1337E
3724.72	0.923	2114095	REC_WORD	0.923	n/a	SHIRT	2	19	[0, 0, 0]	n/a	FR1	2	R1337E
3725.643	0.623	2115018	REC_WORD	0.623	n/a	CUP	3	19	[0, 0, 0]	n/a	FR1	2	R1337E
3726.266	27.912	2115641	REC_WORD	27.912	n/a	HAND	4	19	[0, 0, 0]	n/a	FR1	2	R1337E
3754.178	0.0	2143552	TRIAL_START	n/a	n/a	n/a	-999	20	[0, 0, 0]	n/a	FR1	2	R1337E
3754.178	0.0	2143552	WAITING_START	n/a	n/a	n/a	-999	20	[0, 0, 0]	n/a	FR1	2	R1337E
3754.178	0.0	2143552	TRIAL	n/a	n/a	n/a	-999	20	[0, 0, 0]	n/a	FR1	2	R1337E
3754.178	0.0	2143552	REC_END	n/a	n/a	n/a	-999	19	[0, 0, 0]	n/a	FR1	2	R1337E
3754.178	3.21	2143552	TRIAL_END	n/a	n/a	n/a	-999	19	[0, 0, 0]	n/a	FR1	2	R1337E
3757.388	0.0	2146761	WAITING_END	n/a	n/a	n/a	-999	20	[0, 0, 0]	n/a	FR1	2	R1337E
3757.388	0.0	2146761	COUNTDOWN_START	n/a	n/a	n/a	-999	20	[0, 0, 0]	n/a	FR1	2	R1337E
3757.388	0.0	2146761	COUNTDOWN_END	n/a	n/a	n/a	-999	20	[0, 0, 0]	n/a	FR1	2	R1337E
3757.388	11.52	2146761	ORIENT_START	n/a	n/a	n/a	-999	20	[0, 0, 0]	n/a	FR1	2	R1337E
3768.908	0.0	2158281	ORIENT_END	n/a	n/a	n/a	-999	20	[0, 0, 0]	n/a	FR1	2	R1337E
3768.908	1.05	2158281	ENCODING_START	n/a	n/a	n/a	-999	20	[0, 0, 0]	n/a	FR1	2	R1337E
3769.958	1.634	2159331	WORD	n/a	n/a	TEA	1	20	[0, 0, 0]	n/a	FR1	2	R1337E
3771.592	0.871	2160965	WORD_OFF	n/a	n/a	TEA	1	20	[0, 0, 0]	n/a	FR1	2	R1337E
3772.463	1.628	2161836	WORD	n/a	n/a	HOUSE	2	20	[0, 0, 0]	n/a	FR1	2	R1337E
3774.091	0.837	2163464	WORD_OFF	n/a	n/a	HOUSE	2	20	[0, 0, 0]	n/a	FR1	2	R1337E
3774.928	1.631	2164301	WORD	n/a	n/a	BEAK	3	20	[0, 0, 0]	n/a	FR1	2	R1337E
3776.559	1.128	2165932	WORD_OFF	n/a	n/a	BEAK	3	20	[0, 0, 0]	n/a	FR1	2	R1337E
3777.687	1.622	2167060	WORD	n/a	n/a	TOE	4	20	[0, 0, 0]	n/a	FR1	2	R1337E
3779.309	1.118	2168682	WORD_OFF	n/a	n/a	TOE	4	20	[0, 0, 0]	n/a	FR1	2	R1337E
3780.427	1.632	2169800	WORD	n/a	n/a	BRICK	5	20	[0, 0, 0]	n/a	FR1	2	R1337E
3782.059	0.791	2171432	WORD_OFF	n/a	n/a	BRICK	5	20	[0, 0, 0]	n/a	FR1	2	R1337E
3782.85	1.627	2172223	WORD	n/a	n/a	FOX	6	20	[0, 0, 0]	n/a	FR1	2	R1337E
3784.477	0.994	2173849	WORD_OFF	n/a	n/a	FOX	6	20	[0, 0, 0]	n/a	FR1	2	R1337E
3785.471	1.622	2174843	WORD	n/a	n/a	PIG	7	20	[0, 0, 0]	n/a	FR1	2	R1337E
3787.093	0.798	2176465	WORD_OFF	n/a	n/a	PIG	7	20	[0, 0, 0]	n/a	FR1	2	R1337E
3787.891	1.62	2177263	WORD	n/a	n/a	CAGE	8	20	[0, 0, 0]	n/a	FR1	2	R1337E
3789.511	1.048	2178883	WORD_OFF	n/a	n/a	CAGE	8	20	[0, 0, 0]	n/a	FR1	2	R1337E
3790.559	1.635	2179931	WORD	n/a	n/a	BATH	9	20	[0, 0, 0]	n/a	FR1	2	R1337E
3792.194	0.966	2181566	WORD_OFF	n/a	n/a	BATH	9	20	[0, 0, 0]	n/a	FR1	2	R1337E
3793.16	1.636	2182532	WORD	n/a	n/a	SLUSH	10	20	[0, 0, 0]	n/a	FR1	2	R1337E
3794.796	0.998	2184168	WORD_OFF	n/a	n/a	SLUSH	10	20	[0, 0, 0]	n/a	FR1	2	R1337E
3795.794	1.635	2185166	WORD	n/a	n/a	TRUCK	11	20	[0, 0, 0]	n/a	FR1	2	R1337E
3797.429	0.896	2186801	WORD_OFF	n/a	n/a	TRUCK	11	20	[0, 0, 0]	n/a	FR1	2	R1337E
3798.325	1.638	2187697	WORD	n/a	n/a	GRASS	12	20	[0, 0, 0]	n/a	FR1	2	R1337E
3799.963	0.0	2189335	WORD_OFF	n/a	n/a	GRASS	12	20	[0, 0, 0]	n/a	FR1	2	R1337E
3799.963	0.0	2189335	ENCODING_END	n/a	n/a	n/a	-999	20	[0, 0, 0]	n/a	FR1	2	R1337E
3799.963	0.001	2189335	DISTRACT_START	n/a	n/a	n/a	-999	20	[0, 0, 0]	n/a	FR1	2	R1337E
3799.964	0.016	2189336	START	n/a	n/a	n/a	-999	21	[-999, -999, -999]	n/a	FR1	2	R1337E
3799.98	7.367	2189352	PROB	7.367	n/a	n/a	-999	21	[3, 3, 9]	15	FR1	2	R1337E
3807.347	6.185	2196719	PROB	6.185	n/a	n/a	-999	21	[3, 7, 4]	14	FR1	2	R1337E
3813.532	2.968	2202903	PROB	2.968	n/a	n/a	-999	21	[1, 5, 1]	7	FR1	2	R1337E
3816.5	2.565	2205871	PROB	2.565	n/a	n/a	-999	21	[6, 1, 5]	12	FR1	2	R1337E
3819.065	2.526	2208436	PROB	2.526	n/a	n/a	-999	21	[5, 8, 8]	21	FR1	2	R1337E
3821.591	0.009	2210962	STOP	n/a	n/a	n/a	-999	21	[-999, -999, -999]	n/a	FR1	2	R1337E
3821.6	1.279	2210971	DISTRACT_END	n/a	n/a	n/a	-999	20	[0, 0, 0]	n/a	FR1	2	R1337E
3822.879	1.022	2212250	RETRIEVAL_ORIENT_START	n/a	n/a	n/a	-999	20	[0, 0, 0]	n/a	FR1	2	R1337E
3823.901	0.0	2213272	REC_START	n/a	n/a	n/a	-999	20	[0, 0, 0]	n/a	FR1	2	R1337E
3823.901	0.404	2213272	RETRIEVAL_ORIENT_END	n/a	n/a	n/a	-999	20	[0, 0, 0]	n/a	FR1	2	R1337E
3824.305	0.67	2213676	REC_WORD	0.67	n/a	TEA	1	20	[0, 0, 0]	n/a	FR1	2	R1337E
3824.975	0.723	2214346	REC_WORD	0.723	n/a	HOUSE	2	20	[0, 0, 0]	n/a	FR1	2	R1337E
3825.698	0.705	2215069	REC_WORD	0.705	n/a	TOE	4	20	[0, 0, 0]	n/a	FR1	2	R1337E
3826.403	0.527	2215774	REC_WORD	0.527	n/a	PIG	7	20	[0, 0, 0]	n/a	FR1	2	R1337E
3826.93	27.483	2216301	REC_WORD	27.483	n/a	FOX	6	20	[0, 0, 0]	n/a	FR1	2	R1337E
3854.413	0.0	2243783	REC_END	n/a	n/a	n/a	-999	20	[0, 0, 0]	n/a	FR1	2	R1337E
3854.413	0.0	2243783	TRIAL_END	n/a	n/a	n/a	-999	20	[0, 0, 0]	n/a	FR1	2	R1337E
3854.413	0.0	2243783	TRIAL_START	n/a	n/a	n/a	-999	21	[0, 0, 0]	n/a	FR1	2	R1337E
3854.413	0.0	2243783	TRIAL	n/a	n/a	n/a	-999	21	[0, 0, 0]	n/a	FR1	2	R1337E
3854.413	2.277	2243783	WAITING_START	n/a	n/a	n/a	-999	21	[0, 0, 0]	n/a	FR1	2	R1337E
3856.69	0.0	2246060	WAITING_END	n/a	n/a	n/a	-999	21	[0, 0, 0]	n/a	FR1	2	R1337E
3856.69	0.0	2246060	COUNTDOWN_START	n/a	n/a	n/a	-999	21	[0, 0, 0]	n/a	FR1	2	R1337E
3856.69	0.0	2246060	COUNTDOWN_END	n/a	n/a	n/a	-999	21	[0, 0, 0]	n/a	FR1	2	R1337E
3856.69	11.651	2246060	ORIENT_START	n/a	n/a	n/a	-999	21	[0, 0, 0]	n/a	FR1	2	R1337E
3868.341	0.0	2257710	ENCODING_START	n/a	n/a	n/a	-999	21	[0, 0, 0]	n/a	FR1	2	R1337E
3868.341	1.02	2257710	ORIENT_END	n/a	n/a	n/a	-999	21	[0, 0, 0]	n/a	FR1	2	R1337E
3869.361	1.615	2258730	WORD	n/a	n/a	PARK	1	21	[0, 0, 0]	n/a	FR1	2	R1337E
3870.976	0.75	2260345	WORD_OFF	n/a	n/a	PARK	1	21	[0, 0, 0]	n/a	FR1	2	R1337E
3871.726	1.632	2261095	WORD	n/a	n/a	BEAN	2	21	[0, 0, 0]	n/a	FR1	2	R1337E
3873.358	0.78	2262727	WORD_OFF	n/a	n/a	BEAN	2	21	[0, 0, 0]	n/a	FR1	2	R1337E
3874.138	1.622	2263507	WORD	n/a	n/a	PIE	3	21	[0, 0, 0]	n/a	FR1	2	R1337E
3875.76	1.044	2265129	WORD_OFF	n/a	n/a	PIE	3	21	[0, 0, 0]	n/a	FR1	2	R1337E
3876.804	1.623	2266173	WORD	n/a	n/a	FENCE	4	21	[0, 0, 0]	n/a	FR1	2	R1337E
3878.427	0.754	2267796	WORD_OFF	n/a	n/a	FENCE	4	21	[0, 0, 0]	n/a	FR1	2	R1337E
3879.181	1.63	2268550	WORD	n/a	n/a	TIE	5	21	[0, 0, 0]	n/a	FR1	2	R1337E
3880.811	0.871	2270180	WORD_OFF	n/a	n/a	TIE	5	21	[0, 0, 0]	n/a	FR1	2	R1337E
3881.682	1.628	2271051	WORD	n/a	n/a	GOLD	6	21	[0, 0, 0]	n/a	FR1	2	R1337E
3883.31	0.985	2272679	WORD_OFF	n/a	n/a	GOLD	6	21	[0, 0, 0]	n/a	FR1	2	R1337E
3884.295	1.616	2273664	WORD	n/a	n/a	HAT	7	21	[0, 0, 0]	n/a	FR1	2	R1337E
3885.911	1.15	2275280	WORD_OFF	n/a	n/a	HAT	7	21	[0, 0, 0]	n/a	FR1	2	R1337E
3887.061	1.634	2276430	WORD	n/a	n/a	DART	8	21	[0, 0, 0]	n/a	FR1	2	R1337E
3888.695	0.839	2278064	WORD_OFF	n/a	n/a	DART	8	21	[0, 0, 0]	n/a	FR1	2	R1337E
3889.534	1.628	2278903	WORD	n/a	n/a	PIT	9	21	[0, 0, 0]	n/a	FR1	2	R1337E
3891.162	1.033	2280531	WORD_OFF	n/a	n/a	PIT	9	21	[0, 0, 0]	n/a	FR1	2	R1337E
3892.195	1.618	2281564	WORD	n/a	n/a	COUCH	10	21	[0, 0, 0]	n/a	FR1	2	R1337E
3893.813	0.937	2283182	WORD_OFF	n/a	n/a	COUCH	10	21	[0, 0, 0]	n/a	FR1	2	R1337E
3894.75	1.629	2284119	WORD	n/a	n/a	STOOL	11	21	[0, 0, 0]	n/a	FR1	2	R1337E
3896.379	0.859	2285747	WORD_OFF	n/a	n/a	STOOL	11	21	[0, 0, 0]	n/a	FR1	2	R1337E
3897.238	1.626	2286606	WORD	n/a	n/a	STEAK	12	21	[0, 0, 0]	n/a	FR1	2	R1337E
3898.864	0.0	2288232	WORD_OFF	n/a	n/a	STEAK	12	21	[0, 0, 0]	n/a	FR1	2	R1337E
3898.864	0.0	2288232	ENCODING_END	n/a	n/a	n/a	-999	21	[0, 0, 0]	n/a	FR1	2	R1337E
3898.864	0.001	2288232	DISTRACT_START	n/a	n/a	n/a	-999	21	[0, 0, 0]	n/a	FR1	2	R1337E
3898.865	0.016	2288233	START	n/a	n/a	n/a	-999	22	[-999, -999, -999]	n/a	FR1	2	R1337E
3898.881	7.934	2288249	PROB	7.934	n/a	n/a	-999	22	[5, 1, 3]	9	FR1	2	R1337E
3906.815	4.651	2296183	PROB	4.651	n/a	n/a	-999	22	[4, 6, 9]	19	FR1	2	R1337E
3911.466	4.284	2300834	PROB	4.284	n/a	n/a	-999	22	[5, 8, 6]	19	FR1	2	R1337E
3915.75	3.168	2305118	PROB	3.168	n/a	n/a	-999	22	[2, 2, 5]	4	FR1	2	R1337E
3918.918	0.016	2308286	STOP	n/a	n/a	n/a	-999	22	[-999, -999, -999]	n/a	FR1	2	R1337E
3918.934	1.064	2308302	DISTRACT_END	n/a	n/a	n/a	-999	21	[0, 0, 0]	n/a	FR1	2	R1337E
3919.998	1.02	2309366	RETRIEVAL_ORIENT_START	n/a	n/a	n/a	-999	21	[0, 0, 0]	n/a	FR1	2	R1337E
3921.018	0.0	2310386	RETRIEVAL_ORIENT_END	n/a	n/a	n/a	-999	21	[0, 0, 0]	n/a	FR1	2	R1337E
3921.018	3.299	2310386	REC_START	n/a	n/a	n/a	-999	21	[0, 0, 0]	n/a	FR1	2	R1337E
3924.317	1.665	2313684	REC_WORD	1.665	n/a	BEAN	2	21	[0, 0, 0]	n/a	FR1	2	R1337E
3925.982	1.351	2315349	REC_WORD	1.351	n/a	PIE	3	21	[0, 0, 0]	n/a	FR1	2	R1337E
3927.333	3.014	2316700	REC_WORD	3.014	n/a	FENCE	4	21	[0, 0, 0]	n/a	FR1	2	R1337E
3930.347	1.817	2319714	REC_WORD	1.817	n/a	PEACH	-999	21	[0, 0, 0]	n/a	FR1	2	R1337E
3932.164	1.411	2321531	REC_WORD	1.411	n/a	HAND	-999	21	[0, 0, 0]	n/a	FR1	2	R1337E
3933.575	17.956	2322942	REC_WORD_VV	17.956	n/a	<>	-999	21	[0, 0, 0]	n/a	FR1	2	R1337E
3951.531	0.0	2340897	TRIAL_END	n/a	n/a	n/a	-999	21	[0, 0, 0]	n/a	FR1	2	R1337E
3951.531	0.0	2340897	WAITING_START	n/a	n/a	n/a	-999	22	[0, 0, 0]	n/a	FR1	2	R1337E
3951.531	0.0	2340897	REC_END	n/a	n/a	n/a	-999	21	[0, 0, 0]	n/a	FR1	2	R1337E
3951.531	0.0	2340897	TRIAL_START	n/a	n/a	n/a	-999	22	[0, 0, 0]	n/a	FR1	2	R1337E
3951.531	19.745	2340897	TRIAL	n/a	n/a	n/a	-999	22	[0, 0, 0]	n/a	FR1	2	R1337E
3971.276	0.0	2360642	WAITING_END	n/a	n/a	n/a	-999	22	[0, 0, 0]	n/a	FR1	2	R1337E
3971.276	0.0	2360642	COUNTDOWN_START	n/a	n/a	n/a	-999	22	[0, 0, 0]	n/a	FR1	2	R1337E
3971.276	0.0	2360642	COUNTDOWN_END	n/a	n/a	n/a	-999	22	[0, 0, 0]	n/a	FR1	2	R1337E
3971.276	11.553	2360642	ORIENT_START	n/a	n/a	n/a	-999	22	[0, 0, 0]	n/a	FR1	2	R1337E
3982.829	0.0	2372194	ORIENT_END	n/a	n/a	n/a	-999	22	[0, 0, 0]	n/a	FR1	2	R1337E
3982.829	1.113	2372194	ENCODING_START	n/a	n/a	n/a	-999	22	[0, 0, 0]	n/a	FR1	2	R1337E
3983.942	1.637	2373307	WORD	n/a	n/a	BANK	1	22	[0, 0, 0]	n/a	FR1	2	R1337E
3985.579	0.957	2374944	WORD_OFF	n/a	n/a	BANK	1	22	[0, 0, 0]	n/a	FR1	2	R1337E
3986.536	1.626	2375901	WORD	n/a	n/a	ZOO	2	22	[0, 0, 0]	n/a	FR1	2	R1337E
3988.162	1.093	2377527	WORD_OFF	n/a	n/a	ZOO	2	22	[0, 0, 0]	n/a	FR1	2	R1337E
3989.255	1.608	2378620	WORD	n/a	n/a	JEEP	3	22	[0, 0, 0]	n/a	FR1	2	R1337E
3990.863	0.803	2380228	WORD_OFF	n/a	n/a	JEEP	3	22	[0, 0, 0]	n/a	FR1	2	R1337E
3991.666	1.63	2381031	WORD	n/a	n/a	THREAD	4	22	[0, 0, 0]	n/a	FR1	2	R1337E
3993.296	0.876	2382661	WORD_OFF	n/a	n/a	THREAD	4	22	[0, 0, 0]	n/a	FR1	2	R1337E
3994.172	1.626	2383537	WORD	n/a	n/a	ROOM	5	22	[0, 0, 0]	n/a	FR1	2	R1337E
3995.798	1.075	2385163	WORD_OFF	n/a	n/a	ROOM	5	22	[0, 0, 0]	n/a	FR1	2	R1337E
3996.873	1.625	2386238	WORD	n/a	n/a	FLEA	6	22	[0, 0, 0]	n/a	FR1	2	R1337E
3998.498	1.002	2387863	WORD_OFF	n/a	n/a	FLEA	6	22	[0, 0, 0]	n/a	FR1	2	R1337E
3999.5	1.631	2388865	WORD	n/a	n/a	STRAW	7	22	[0, 0, 0]	n/a	FR1	2	R1337E
4001.131	0.974	2390496	WORD_OFF	n/a	n/a	STRAW	7	22	[0, 0, 0]	n/a	FR1	2	R1337E
4002.105	1.611	2391470	WORD	n/a	n/a	BOX	8	22	[0, 0, 0]	n/a	FR1	2	R1337E
4003.716	0.84	2393081	WORD_OFF	n/a	n/a	BOX	8	22	[0, 0, 0]	n/a	FR1	2	R1337E
4004.556	1.626	2393921	WORD	n/a	n/a	CAT	9	22	[0, 0, 0]	n/a	FR1	2	R1337E
4006.182	0.796	2395547	WORD_OFF	n/a	n/a	CAT	9	22	[0, 0, 0]	n/a	FR1	2	R1337E
4006.978	1.622	2396342	WORD	n/a	n/a	TENT	10	22	[0, 0, 0]	n/a	FR1	2	R1337E
4008.6	0.781	2397964	WORD_OFF	n/a	n/a	TENT	10	22	[0, 0, 0]	n/a	FR1	2	R1337E
4009.381	1.636	2398745	WORD	n/a	n/a	EGG	11	22	[0, 0, 0]	n/a	FR1	2	R1337E
4011.017	1.03	2400381	WORD_OFF	n/a	n/a	EGG	11	22	[0, 0, 0]	n/a	FR1	2	R1337E
4012.047	1.62	2401411	WORD	n/a	n/a	PEA	12	22	[0, 0, 0]	n/a	FR1	2	R1337E
4013.667	0.0	2403031	DISTRACT_START	n/a	n/a	n/a	-999	22	[0, 0, 0]	n/a	FR1	2	R1337E
4013.667	0.0	2403031	ENCODING_END	n/a	n/a	n/a	-999	22	[0, 0, 0]	n/a	FR1	2	R1337E
4013.667	0.001	2403031	WORD_OFF	n/a	n/a	PEA	12	22	[0, 0, 0]	n/a	FR1	2	R1337E
4013.668	0.016	2403032	START	n/a	n/a	n/a	-999	23	[-999, -999, -999]	n/a	FR1	2	R1337E
4013.684	5.784	2403048	PROB	5.784	n/a	n/a	-999	23	[1, 9, 3]	13	FR1	2	R1337E
4019.468	4.717	2408832	PROB	4.717	n/a	n/a	-999	23	[7, 8, 4]	17	FR1	2	R1337E
4024.185	4.352	2413549	PROB	4.352	n/a	n/a	-999	23	[7, 1, 5]	13	FR1	2	R1337E
4028.537	3.733	2417901	PROB	3.733	n/a	n/a	-999	23	[3, 8, 9]	20	FR1	2	R1337E
4032.27	3.915	2421634	PROB	3.915	n/a	n/a	-999	23	[6, 6, 8]	22	FR1	2	R1337E
4036.185	0.019	2425548	STOP	n/a	n/a	n/a	-999	23	[-999, -999, -999]	n/a	FR1	2	R1337E
4036.204	1.092	2425567	DISTRACT_END	n/a	n/a	n/a	-999	22	[0, 0, 0]	n/a	FR1	2	R1337E
4037.296	1.025	2426659	RETRIEVAL_ORIENT_START	n/a	n/a	n/a	-999	22	[0, 0, 0]	n/a	FR1	2	R1337E
4038.321	0.0	2427684	RETRIEVAL_ORIENT_END	n/a	n/a	n/a	-999	22	[0, 0, 0]	n/a	FR1	2	R1337E
4038.321	2.345	2427684	REC_START	n/a	n/a	n/a	-999	22	[0, 0, 0]	n/a	FR1	2	R1337E
4040.666	0.631	2430029	REC_WORD	0.631	n/a	BANK	1	22	[0, 0, 0]	n/a	FR1	2	R1337E
4041.297	2.065	2430660	REC_WORD	2.065	n/a	ZOO	2	22	[0, 0, 0]	n/a	FR1	2	R1337E
4043.362	0.745	2432725	REC_WORD	0.745	n/a	JEEP	3	22	[0, 0, 0]	n/a	FR1	2	R1337E
4044.107	24.726	2433470	REC_WORD	24.726	n/a	TENT	10	22	[0, 0, 0]	n/a	FR1	2	R1337E
4068.833	0.0	2458195	REC_END	n/a	n/a	n/a	-999	22	[0, 0, 0]	n/a	FR1	2	R1337E
4068.833	0.0	2458195	TRIAL_END	n/a	n/a	n/a	-999	22	[0, 0, 0]	n/a	FR1	2	R1337E
4068.833	0.0	2458195	TRIAL_START	n/a	n/a	n/a	-999	23	[0, 0, 0]	n/a	FR1	2	R1337E
4068.833	0.0	2458195	TRIAL	n/a	n/a	n/a	-999	23	[0, 0, 0]	n/a	FR1	2	R1337E
4068.833	2.578	2458195	WAITING_START	n/a	n/a	n/a	-999	23	[0, 0, 0]	n/a	FR1	2	R1337E
4071.411	0.0	2460773	WAITING_END	n/a	n/a	n/a	-999	23	[0, 0, 0]	n/a	FR1	2	R1337E
4071.411	0.0	2460773	COUNTDOWN_START	n/a	n/a	n/a	-999	23	[0, 0, 0]	n/a	FR1	2	R1337E
4071.411	0.0	2460773	COUNTDOWN_END	n/a	n/a	n/a	-999	23	[0, 0, 0]	n/a	FR1	2	R1337E
4071.411	11.469	2460773	ORIENT_START	n/a	n/a	n/a	-999	23	[0, 0, 0]	n/a	FR1	2	R1337E
4082.88	0.0	2472242	ORIENT_END	n/a	n/a	n/a	-999	23	[0, 0, 0]	n/a	FR1	2	R1337E
4082.88	1.081	2472242	ENCODING_START	n/a	n/a	n/a	-999	23	[0, 0, 0]	n/a	FR1	2	R1337E
4083.961	1.636	2473323	WORD	n/a	n/a	PIN	1	23	[0, 0, 0]	n/a	FR1	2	R1337E
4085.597	0.785	2474959	WORD_OFF	n/a	n/a	PIN	1	23	[0, 0, 0]	n/a	FR1	2	R1337E
4086.382	1.632	2475744	WORD	n/a	n/a	TRAY	2	23	[0, 0, 0]	n/a	FR1	2	R1337E
4088.014	0.896	2477376	WORD_OFF	n/a	n/a	TRAY	2	23	[0, 0, 0]	n/a	FR1	2	R1337E
4088.91	1.638	2478272	WORD	n/a	n/a	SKY	3	23	[0, 0, 0]	n/a	FR1	2	R1337E
4090.548	1.076	2479909	WORD_OFF	n/a	n/a	SKY	3	23	[0, 0, 0]	n/a	FR1	2	R1337E
4091.624	1.623	2480985	WORD	n/a	n/a	CAPE	4	23	[0, 0, 0]	n/a	FR1	2	R1337E
4093.247	1.131	2482608	WORD_OFF	n/a	n/a	CAPE	4	23	[0, 0, 0]	n/a	FR1	2	R1337E
4094.378	1.637	2483739	WORD	n/a	n/a	SNOW	5	23	[0, 0, 0]	n/a	FR1	2	R1337E
4096.015	0.906	2485376	WORD_OFF	n/a	n/a	SNOW	5	23	[0, 0, 0]	n/a	FR1	2	R1337E
4096.921	1.628	2486282	WORD	n/a	n/a	WEED	6	23	[0, 0, 0]	n/a	FR1	2	R1337E
4098.549	0.83	2487910	WORD_OFF	n/a	n/a	WEED	6	23	[0, 0, 0]	n/a	FR1	2	R1337E
4099.379	1.637	2488740	WORD	n/a	n/a	DRUM	7	23	[0, 0, 0]	n/a	FR1	2	R1337E
4101.016	0.886	2490377	WORD_OFF	n/a	n/a	DRUM	7	23	[0, 0, 0]	n/a	FR1	2	R1337E
4101.902	1.631	2491263	WORD	n/a	n/a	SLEEVE	8	23	[0, 0, 0]	n/a	FR1	2	R1337E
4103.533	1.05	2492894	WORD_OFF	n/a	n/a	SLEEVE	8	23	[0, 0, 0]	n/a	FR1	2	R1337E
4104.583	1.633	2493944	WORD	n/a	n/a	CRANE	9	23	[0, 0, 0]	n/a	FR1	2	R1337E
4106.216	1.062	2495577	WORD_OFF	n/a	n/a	CRANE	9	23	[0, 0, 0]	n/a	FR1	2	R1337E
4107.278	1.606	2496639	WORD	n/a	n/a	FORT	10	23	[0, 0, 0]	n/a	FR1	2	R1337E
4108.884	0.932	2498245	WORD_OFF	n/a	n/a	FORT	10	23	[0, 0, 0]	n/a	FR1	2	R1337E
4109.816	1.635	2499177	WORD	n/a	n/a	CLOTH	11	23	[0, 0, 0]	n/a	FR1	2	R1337E
4111.451	1.117	2500812	WORD_OFF	n/a	n/a	CLOTH	11	23	[0, 0, 0]	n/a	FR1	2	R1337E
4112.568	1.633	2501929	WORD	n/a	n/a	STAIR	12	23	[0, 0, 0]	n/a	FR1	2	R1337E
4114.201	0.0	2503562	WORD_OFF	n/a	n/a	STAIR	12	23	[0, 0, 0]	n/a	FR1	2	R1337E
4114.201	0.0	2503562	ENCODING_END	n/a	n/a	n/a	-999	23	[0, 0, 0]	n/a	FR1	2	R1337E
4114.201	0.001	2503562	DISTRACT_START	n/a	n/a	n/a	-999	23	[0, 0, 0]	n/a	FR1	2	R1337E
4114.202	0.015	2503563	START	n/a	n/a	n/a	-999	24	[-999, -999, -999]	n/a	FR1	2	R1337E
4114.217	5.486	2503578	PROB	5.486	n/a	n/a	-999	24	[3, 4, 4]	11	FR1	2	R1337E
4119.703	4.317	2509063	PROB	4.317	n/a	n/a	-999	24	[2, 9, 9]	20	FR1	2	R1337E
4124.02	4.001	2513380	PROB	4.001	n/a	n/a	-999	24	[2, 1, 7]	10	FR1	2	R1337E
4128.021	4.05	2517381	PROB	4.05	n/a	n/a	-999	24	[2, 4, 1]	7	FR1	2	R1337E
4132.071	2.78	2521431	PROB	2.78	n/a	n/a	-999	24	[3, 3, 3]	9	FR1	2	R1337E
4134.851	0.021	2524211	STOP	n/a	n/a	n/a	-999	24	[-999, -999, -999]	n/a	FR1	2	R1337E
4134.872	1.321	2524232	DISTRACT_END	n/a	n/a	n/a	-999	23	[0, 0, 0]	n/a	FR1	2	R1337E
4136.193	1.028	2525553	RETRIEVAL_ORIENT_START	n/a	n/a	n/a	-999	23	[0, 0, 0]	n/a	FR1	2	R1337E
4137.221	0.0	2526581	RETRIEVAL_ORIENT_END	n/a	n/a	n/a	-999	23	[0, 0, 0]	n/a	FR1	2	R1337E
4137.221	0.421	2526581	REC_START	n/a	n/a	n/a	-999	23	[0, 0, 0]	n/a	FR1	2	R1337E
4137.642	0.822	2527002	REC_WORD	0.822	n/a	PIN	1	23	[0, 0, 0]	n/a	FR1	2	R1337E
4138.464	1.026	2527824	REC_WORD	1.026	n/a	SKY	3	23	[0, 0, 0]	n/a	FR1	2	R1337E
4139.49	0.771	2528850	REC_WORD	0.771	n/a	TRAY	2	23	[0, 0, 0]	n/a	FR1	2	R1337E
4140.261	27.472	2529621	REC_WORD	27.472	n/a	DRUM	7	23	[0, 0, 0]	n/a	FR1	2	R1337E
4167.733	0.0	2557092	WAITING_START	n/a	n/a	n/a	-999	24	[0, 0, 0]	n/a	FR1	2	R1337E
4167.733	0.0	2557092	TRIAL	n/a	n/a	n/a	-999	24	[0, 0, 0]	n/a	FR1	2	R1337E
4167.733	0.0	2557092	TRIAL_END	n/a	n/a	n/a	-999	23	[0, 0, 0]	n/a	FR1	2	R1337E
4167.733	0.0	2557092	TRIAL_START	n/a	n/a	n/a	-999	24	[0, 0, 0]	n/a	FR1	2	R1337E
4167.733	2.012	2557092	REC_END	n/a	n/a	n/a	-999	23	[0, 0, 0]	n/a	FR1	2	R1337E
4169.745	0.0	2559104	WAITING_END	n/a	n/a	n/a	-999	24	[0, 0, 0]	n/a	FR1	2	R1337E
4169.745	0.0	2559104	COUNTDOWN_START	n/a	n/a	n/a	-999	24	[0, 0, 0]	n/a	FR1	2	R1337E
4169.745	0.0	2559104	COUNTDOWN_END	n/a	n/a	n/a	-999	24	[0, 0, 0]	n/a	FR1	2	R1337E
4169.745	11.534	2559104	ORIENT_START	n/a	n/a	n/a	-999	24	[0, 0, 0]	n/a	FR1	2	R1337E
4181.279	0.0	2570637	ORIENT_END	n/a	n/a	n/a	-999	24	[0, 0, 0]	n/a	FR1	2	R1337E
4181.279	0.878	2570637	ENCODING_START	n/a	n/a	n/a	-999	24	[0, 0, 0]	n/a	FR1	2	R1337E
4182.157	1.624	2571515	WORD	n/a	n/a	JAR	1	24	[0, 0, 0]	n/a	FR1	2	R1337E
4183.781	0.944	2573139	WORD_OFF	n/a	n/a	JAR	1	24	[0, 0, 0]	n/a	FR1	2	R1337E
4184.725	1.622	2574083	WORD	n/a	n/a	DOOR	2	24	[0, 0, 0]	n/a	FR1	2	R1337E
4186.347	0.753	2575705	WORD_OFF	n/a	n/a	DOOR	2	24	[0, 0, 0]	n/a	FR1	2	R1337E
4187.1	1.631	2576458	WORD	n/a	n/a	LAMB	3	24	[0, 0, 0]	n/a	FR1	2	R1337E
4188.731	0.794	2578089	WORD_OFF	n/a	n/a	LAMB	3	24	[0, 0, 0]	n/a	FR1	2	R1337E
4189.525	1.623	2578883	WORD	n/a	n/a	HEN	4	24	[0, 0, 0]	n/a	FR1	2	R1337E
4191.148	1.024	2580506	WORD_OFF	n/a	n/a	HEN	4	24	[0, 0, 0]	n/a	FR1	2	R1337E
4192.172	1.61	2581530	WORD	n/a	n/a	WORLD	5	24	[0, 0, 0]	n/a	FR1	2	R1337E
4193.782	1.078	2583140	WORD_OFF	n/a	n/a	WORLD	5	24	[0, 0, 0]	n/a	FR1	2	R1337E
4194.86	1.623	2584218	WORD	n/a	n/a	ROOT	6	24	[0, 0, 0]	n/a	FR1	2	R1337E
4196.483	0.808	2585841	WORD_OFF	n/a	n/a	ROOT	6	24	[0, 0, 0]	n/a	FR1	2	R1337E
4197.291	1.626	2586649	WORD	n/a	n/a	ROPE	7	24	[0, 0, 0]	n/a	FR1	2	R1337E
4198.917	0.775	2588275	WORD_OFF	n/a	n/a	ROPE	7	24	[0, 0, 0]	n/a	FR1	2	R1337E
4199.692	1.624	2589050	WORD	n/a	n/a	SPRING	8	24	[0, 0, 0]	n/a	FR1	2	R1337E
4201.316	1.011	2590673	WORD_OFF	n/a	n/a	SPRING	8	24	[0, 0, 0]	n/a	FR1	2	R1337E
4202.327	1.624	2591684	WORD	n/a	n/a	TAIL	9	24	[0, 0, 0]	n/a	FR1	2	R1337E
4203.951	0.896	2593308	WORD_OFF	n/a	n/a	TAIL	9	24	[0, 0, 0]	n/a	FR1	2	R1337E
4204.847	1.638	2594204	WORD	n/a	n/a	PEN	10	24	[0, 0, 0]	n/a	FR1	2	R1337E
4206.485	1.131	2595842	WORD_OFF	n/a	n/a	PEN	10	24	[0, 0, 0]	n/a	FR1	2	R1337E
4207.616	1.635	2596973	WORD	n/a	n/a	CHIN	11	24	[0, 0, 0]	n/a	FR1	2	R1337E
4209.251	1.104	2598608	WORD_OFF	n/a	n/a	CHIN	11	24	[0, 0, 0]	n/a	FR1	2	R1337E
4210.355	1.631	2599712	WORD	n/a	n/a	BRUSH	12	24	[0, 0, 0]	n/a	FR1	2	R1337E
4211.986	0.0	2601343	WORD_OFF	n/a	n/a	BRUSH	12	24	[0, 0, 0]	n/a	FR1	2	R1337E
4211.986	0.0	2601343	ENCODING_END	n/a	n/a	n/a	-999	24	[0, 0, 0]	n/a	FR1	2	R1337E
4211.986	0.001	2601343	DISTRACT_START	n/a	n/a	n/a	-999	24	[0, 0, 0]	n/a	FR1	2	R1337E
4211.987	0.015	2601344	START	n/a	n/a	n/a	-999	25	[-999, -999, -999]	n/a	FR1	2	R1337E
4212.002	6.535	2601359	PROB	6.535	n/a	n/a	-999	25	[8, 8, 1]	17	FR1	2	R1337E
4218.537	5.334	2607894	PROB	5.334	n/a	n/a	-999	25	[3, 2, 4]	9	FR1	2	R1337E
4223.871	3.951	2613228	PROB	3.951	n/a	n/a	-999	25	[2, 7, 9]	18	FR1	2	R1337E
4227.822	4.899	2617179	PROB	4.899	n/a	n/a	-999	25	[1, 9, 7]	15	FR1	2	R1337E
4232.721	0.018	2622077	STOP	n/a	n/a	n/a	-999	25	[-999, -999, -999]	n/a	FR1	2	R1337E
4232.739	1.261	2622095	DISTRACT_END	n/a	n/a	n/a	-999	24	[0, 0, 0]	n/a	FR1	2	R1337E
4234.0	1.023	2623356	RETRIEVAL_ORIENT_START	n/a	n/a	n/a	-999	24	[0, 0, 0]	n/a	FR1	2	R1337E
4235.023	0.0	2624379	REC_START	n/a	n/a	n/a	-999	24	[0, 0, 0]	n/a	FR1	2	R1337E
4235.023	0.735	2624379	RETRIEVAL_ORIENT_END	n/a	n/a	n/a	-999	24	[0, 0, 0]	n/a	FR1	2	R1337E
