onset	duration	sample	trial_type	response_time	stim_file	item_name	serialpos	list	test	answer	experiment	session	subject
0.0	0.0	71087	INSTRUCT_START	n/a	n/a	n/a	-999	-999	[0, 0, 0]	n/a	FR1	0	R1325C
0.0	10.834	71087	INSTRUCT_END	n/a	n/a	n/a	-999	-999	[0, 0, 0]	n/a	FR1	0	R1325C
10.834	0.0	81920	SESS_START	n/a	n/a	n/a	-999	-999	[0, 0, 0]	n/a	FR1	0	R1325C
10.834	245.853	81920	MIC_TEST	n/a	n/a	n/a	-999	-999	[0, 0, 0]	n/a	FR1	0	R1325C
256.687	13.997	327756	PRACTICE_TRIAL	n/a	n/a	n/a	-999	-1	[0, 0, 0]	n/a	FR1	0	R1325C
270.684	10.428	341752	COUNTDOWN_START	n/a	n/a	n/a	-999	-1	[0, 0, 0]	n/a	FR1	0	R1325C
281.112	0.008	352180	COUNTDOWN_END	n/a	n/a	n/a	-999	-1	[0, 0, 0]	n/a	FR1	0	R1325C
281.12	1.617	352188	PRACTICE_ORIENT	n/a	n/a	n/a	-999	-1	[0, 0, 0]	n/a	FR1	0	R1325C
282.737	2.217	353804	PRACTICE_ORIENT_OFF	n/a	n/a	n/a	-999	-1	[0, 0, 0]	n/a	FR1	0	R1325C
284.954	1.617	356021	PRACTICE_WORD	n/a	n/a	CAMEL	1	-1	[0, 0, 0]	n/a	FR1	0	R1325C
286.571	0.783	357638	PRACTICE_WORD_OFF	n/a	n/a	CAMEL	-999	-1	[0, 0, 0]	n/a	FR1	0	R1325C
287.354	1.618	358421	PRACTICE_WORD	n/a	n/a	WATCH	2	-1	[0, 0, 0]	n/a	FR1	0	R1325C
288.972	1.017	360039	PRACTICE_WORD_OFF	n/a	n/a	WATCH	-999	-1	[0, 0, 0]	n/a	FR1	0	R1325C
289.989	1.617	361056	PRACTICE_WORD	n/a	n/a	COTTON	3	-1	[0, 0, 0]	n/a	FR1	0	R1325C
291.606	0.782	362673	PRACTICE_WORD_OFF	n/a	n/a	COTTON	-999	-1	[0, 0, 0]	n/a	FR1	0	R1325C
292.388	1.618	363455	PRACTICE_WORD	n/a	n/a	WAGON	4	-1	[0, 0, 0]	n/a	FR1	0	R1325C
294.006	0.784	365073	PRACTICE_WORD_OFF	n/a	n/a	WAGON	-999	-1	[0, 0, 0]	n/a	FR1	0	R1325C
294.79	1.616	365857	PRACTICE_WORD	n/a	n/a	CHEST	5	-1	[0, 0, 0]	n/a	FR1	0	R1325C
296.406	0.949	367473	PRACTICE_WORD_OFF	n/a	n/a	CHEST	-999	-1	[0, 0, 0]	n/a	FR1	0	R1325C
297.355	1.602	368421	PRACTICE_WORD	n/a	n/a	IRON	6	-1	[0, 0, 0]	n/a	FR1	0	R1325C
298.957	0.95	370023	PRACTICE_WORD_OFF	n/a	n/a	IRON	-999	-1	[0, 0, 0]	n/a	FR1	0	R1325C
299.907	1.617	370973	PRACTICE_WORD	n/a	n/a	ATTIC	7	-1	[0, 0, 0]	n/a	FR1	0	R1325C
301.524	0.95	372590	PRACTICE_WORD_OFF	n/a	n/a	ATTIC	-999	-1	[0, 0, 0]	n/a	FR1	0	R1325C
302.474	1.617	373540	PRACTICE_WORD	n/a	n/a	RING	8	-1	[0, 0, 0]	n/a	FR1	0	R1325C
304.091	0.867	375157	PRACTICE_WORD_OFF	n/a	n/a	RING	-999	-1	[0, 0, 0]	n/a	FR1	0	R1325C
304.958	1.617	376024	PRACTICE_WORD	n/a	n/a	BEAM	9	-1	[0, 0, 0]	n/a	FR1	0	R1325C
306.575	0.783	377641	PRACTICE_WORD_OFF	n/a	n/a	BEAM	-999	-1	[0, 0, 0]	n/a	FR1	0	R1325C
307.358	1.618	378424	PRACTICE_WORD	n/a	n/a	FLOOD	10	-1	[0, 0, 0]	n/a	FR1	0	R1325C
308.976	0.8	380042	PRACTICE_WORD_OFF	n/a	n/a	FLOOD	-999	-1	[0, 0, 0]	n/a	FR1	0	R1325C
309.776	1.616	380842	PRACTICE_WORD	n/a	n/a	TONGUE	11	-1	[0, 0, 0]	n/a	FR1	0	R1325C
311.392	0.966	382458	PRACTICE_WORD_OFF	n/a	n/a	TONGUE	-999	-1	[0, 0, 0]	n/a	FR1	0	R1325C
312.358	1.618	383423	PRACTICE_WORD	n/a	n/a	RHINO	12	-1	[0, 0, 0]	n/a	FR1	0	R1325C
313.976	0.0	385041	PRACTICE_WORD_OFF	n/a	n/a	RHINO	-999	-1	[0, 0, 0]	n/a	FR1	0	R1325C
313.976	0.001	385041	DISTRACT_START	n/a	n/a	n/a	-999	-1	[0, 0, 0]	n/a	FR1	0	R1325C
313.977	0.016	385042	START	n/a	n/a	n/a	-999	-1	[-999, -999, -999]	n/a	FR1	0	R1325C
313.993	28.544	385058	PROB	28.544	n/a	n/a	-999	-1	[7, 9, 5]	19	FR1	0	R1325C
342.537	0.011	413600	STOP	n/a	n/a	n/a	-999	-1	[-999, -999, -999]	n/a	FR1	0	R1325C
342.548	0.584	413611	DISTRACT_END	n/a	n/a	n/a	-999	-1	[0, 0, 0]	n/a	FR1	0	R1325C
343.132	0.522	414195	RETRIEVAL_ORIENT	n/a	n/a	n/a	-999	-1	[0, 0, 0]	n/a	FR1	0	R1325C
343.654	30.007	414717	PRACTICE_REC_START	n/a	n/a	n/a	-999	-1	[0, 0, 0]	n/a	FR1	0	R1325C
373.661	33.033	444722	PRACTICE_REC_END	n/a	n/a	n/a	-999	-1	[0, 0, 0]	n/a	FR1	0	R1325C
406.694	0.5	477753	TRIAL	n/a	n/a	n/a	-999	1	[0, 0, 0]	n/a	FR1	0	R1325C
407.194	10.428	478253	COUNTDOWN_START	n/a	n/a	n/a	-999	1	[0, 0, 0]	n/a	FR1	0	R1325C
417.622	0.007	488680	COUNTDOWN_END	n/a	n/a	n/a	-999	1	[0, 0, 0]	n/a	FR1	0	R1325C
417.629	1.616	488687	ORIENT	n/a	n/a	n/a	-999	1	[0, 0, 0]	n/a	FR1	0	R1325C
419.245	2.134	490303	ORIENT_OFF	n/a	n/a	n/a	-999	1	[0, 0, 0]	n/a	FR1	0	R1325C
421.379	1.601	492437	WORD	n/a	wordpools/wordpool_EN.txt	SKI	1	1	[0, 0, 0]	n/a	FR1	0	R1325C
422.98	1.017	494038	WORD_OFF	n/a	n/a	SKI	1	1	[0, 0, 0]	n/a	FR1	0	R1325C
423.997	1.617	495055	WORD	n/a	wordpools/wordpool_EN.txt	STEAM	2	1	[0, 0, 0]	n/a	FR1	0	R1325C
425.614	0.834	496672	WORD_OFF	n/a	n/a	STEAM	2	1	[0, 0, 0]	n/a	FR1	0	R1325C
426.448	1.617	497506	WORD	n/a	wordpools/wordpool_EN.txt	VASE	3	1	[0, 0, 0]	n/a	FR1	0	R1325C
428.065	0.8	499123	WORD_OFF	n/a	n/a	VASE	3	1	[0, 0, 0]	n/a	FR1	0	R1325C
428.865	1.617	499922	WORD	n/a	wordpools/wordpool_EN.txt	JUDGE	4	1	[0, 0, 0]	n/a	FR1	0	R1325C
430.482	0.95	501539	WORD_OFF	n/a	n/a	JUDGE	4	1	[0, 0, 0]	n/a	FR1	0	R1325C
431.432	1.617	502489	WORD	n/a	wordpools/wordpool_EN.txt	MILK	5	1	[0, 0, 0]	n/a	FR1	0	R1325C
433.049	0.867	504106	WORD_OFF	n/a	n/a	MILK	5	1	[0, 0, 0]	n/a	FR1	0	R1325C
433.916	1.617	504973	WORD	n/a	wordpools/wordpool_EN.txt	DOLL	6	1	[0, 0, 0]	n/a	FR1	0	R1325C
435.533	0.849	506590	WORD_OFF	n/a	n/a	DOLL	6	1	[0, 0, 0]	n/a	FR1	0	R1325C
436.382	1.618	507439	WORD	n/a	wordpools/wordpool_EN.txt	WEED	7	1	[0, 0, 0]	n/a	FR1	0	R1325C
438.0	0.933	509057	WORD_OFF	n/a	n/a	WEED	7	1	[0, 0, 0]	n/a	FR1	0	R1325C
438.933	1.617	509990	WORD	n/a	wordpools/wordpool_EN.txt	RAT	8	1	[0, 0, 0]	n/a	FR1	0	R1325C
440.55	0.984	511607	WORD_OFF	n/a	n/a	RAT	8	1	[0, 0, 0]	n/a	FR1	0	R1325C
441.534	1.616	512591	WORD	n/a	wordpools/wordpool_EN.txt	DRUM	9	1	[0, 0, 0]	n/a	FR1	0	R1325C
443.15	0.901	514207	WORD_OFF	n/a	n/a	DRUM	9	1	[0, 0, 0]	n/a	FR1	0	R1325C
444.051	1.617	515107	WORD	n/a	wordpools/wordpool_EN.txt	RICE	10	1	[0, 0, 0]	n/a	FR1	0	R1325C
445.668	0.884	516724	WORD_OFF	n/a	n/a	RICE	10	1	[0, 0, 0]	n/a	FR1	0	R1325C
446.552	1.615	517608	WORD	n/a	wordpools/wordpool_EN.txt	BOY	11	1	[0, 0, 0]	n/a	FR1	0	R1325C
448.167	0.785	519223	WORD_OFF	n/a	n/a	BOY	11	1	[0, 0, 0]	n/a	FR1	0	R1325C
448.952	1.617	520008	WORD	n/a	wordpools/wordpool_EN.txt	TOAD	12	1	[0, 0, 0]	n/a	FR1	0	R1325C
450.569	0.0	521625	WORD_OFF	n/a	n/a	TOAD	12	1	[0, 0, 0]	n/a	FR1	0	R1325C
450.569	0.0	521625	DISTRACT_START	n/a	n/a	n/a	-999	1	[0, 0, 0]	n/a	FR1	0	R1325C
450.569	0.017	521625	START	n/a	n/a	n/a	-999	1	[-999, -999, -999]	n/a	FR1	0	R1325C
450.586	17.036	521642	PROB	17.036	n/a	n/a	-999	1	[9, 8, 7]	26	FR1	0	R1325C
467.622	11.628	538677	PROB	11.628	n/a	n/a	-999	1	[3, 6, 1]	10	FR1	0	R1325C
479.25	0.007	550304	STOP	n/a	n/a	n/a	-999	1	[-999, -999, -999]	n/a	FR1	0	R1325C
479.257	0.701	550311	DISTRACT_END	n/a	n/a	n/a	-999	1	[0, 0, 0]	n/a	FR1	0	R1325C
479.958	0.517	551012	RETRIEVAL_ORIENT	n/a	n/a	n/a	-999	1	[0, 0, 0]	n/a	FR1	0	R1325C
480.475	7.051	551529	REC_START	n/a	n/a	n/a	-999	1	[0, 0, 0]	n/a	FR1	0	R1325C
487.526	1.0	558579	REC_WORD_VV	1.0	n/a	<>	-999	1	[0, 0, 0]	n/a	FR1	0	R1325C
488.526	1.22	559579	REC_WORD_VV	1.22	n/a	<>	-999	1	[0, 0, 0]	n/a	FR1	0	R1325C
489.746	1.8	560799	REC_WORD_VV	1.8	n/a	<>	-999	1	[0, 0, 0]	n/a	FR1	0	R1325C
491.546	5.18	562599	REC_WORD_VV	5.18	n/a	<>	-999	1	[0, 0, 0]	n/a	FR1	0	R1325C
496.726	11.751	567779	REC_WORD	11.751	n/a	TOAD	12	1	[0, 0, 0]	n/a	FR1	0	R1325C
508.477	2.01	579529	REC_WORD	2.01	n/a	WEED	7	1	[0, 0, 0]	n/a	FR1	0	R1325C
510.487	11.711	581539	REC_END	n/a	n/a	n/a	-999	1	[0, 0, 0]	n/a	FR1	0	R1325C
522.198	0.5	593249	TRIAL	n/a	n/a	n/a	-999	2	[0, 0, 0]	n/a	FR1	0	R1325C
522.698	10.428	593749	COUNTDOWN_START	n/a	n/a	n/a	-999	2	[0, 0, 0]	n/a	FR1	0	R1325C
533.126	0.008	604176	COUNTDOWN_END	n/a	n/a	n/a	-999	2	[0, 0, 0]	n/a	FR1	0	R1325C
533.134	1.617	604184	ORIENT	n/a	n/a	n/a	-999	2	[0, 0, 0]	n/a	FR1	0	R1325C
534.751	2.201	605801	ORIENT_OFF	n/a	n/a	n/a	-999	2	[0, 0, 0]	n/a	FR1	0	R1325C
536.952	1.617	608002	WORD	n/a	wordpools/wordpool_EN.txt	CAPE	1	2	[0, 0, 0]	n/a	FR1	0	R1325C
538.569	0.799	609619	WORD_OFF	n/a	n/a	CAPE	1	2	[0, 0, 0]	n/a	FR1	0	R1325C
539.368	1.601	610418	WORD	n/a	wordpools/wordpool_EN.txt	VEST	2	2	[0, 0, 0]	n/a	FR1	0	R1325C
540.969	0.9	612019	WORD_OFF	n/a	n/a	VEST	2	2	[0, 0, 0]	n/a	FR1	0	R1325C
541.869	1.617	612919	WORD	n/a	wordpools/wordpool_EN.txt	KITE	3	2	[0, 0, 0]	n/a	FR1	0	R1325C
543.486	0.833	614536	WORD_OFF	n/a	n/a	KITE	3	2	[0, 0, 0]	n/a	FR1	0	R1325C
544.319	1.618	615369	WORD	n/a	wordpools/wordpool_EN.txt	PIG	4	2	[0, 0, 0]	n/a	FR1	0	R1325C
545.937	0.967	616986	WORD_OFF	n/a	n/a	PIG	4	2	[0, 0, 0]	n/a	FR1	0	R1325C
546.904	1.617	617953	WORD	n/a	wordpools/wordpool_EN.txt	SWORD	5	2	[0, 0, 0]	n/a	FR1	0	R1325C
548.521	0.983	619570	WORD_OFF	n/a	n/a	SWORD	5	2	[0, 0, 0]	n/a	FR1	0	R1325C
549.504	1.617	620553	WORD	n/a	wordpools/wordpool_EN.txt	ROOT	6	2	[0, 0, 0]	n/a	FR1	0	R1325C
551.121	0.834	622170	WORD_OFF	n/a	n/a	ROOT	6	2	[0, 0, 0]	n/a	FR1	0	R1325C
551.955	1.617	623004	WORD	n/a	wordpools/wordpool_EN.txt	CONE	7	2	[0, 0, 0]	n/a	FR1	0	R1325C
553.572	1.017	624621	WORD_OFF	n/a	n/a	CONE	7	2	[0, 0, 0]	n/a	FR1	0	R1325C
554.589	1.616	625638	WORD	n/a	wordpools/wordpool_EN.txt	BOOK	8	2	[0, 0, 0]	n/a	FR1	0	R1325C
556.205	0.784	627254	WORD_OFF	n/a	n/a	BOOK	8	2	[0, 0, 0]	n/a	FR1	0	R1325C
556.989	1.617	628038	WORD	n/a	wordpools/wordpool_EN.txt	SHELL	9	2	[0, 0, 0]	n/a	FR1	0	R1325C
558.606	0.833	629655	WORD_OFF	n/a	n/a	SHELL	9	2	[0, 0, 0]	n/a	FR1	0	R1325C
559.439	1.617	630488	WORD	n/a	wordpools/wordpool_EN.txt	WAVE	10	2	[0, 0, 0]	n/a	FR1	0	R1325C
561.056	0.901	632104	WORD_OFF	n/a	n/a	WAVE	10	2	[0, 0, 0]	n/a	FR1	0	R1325C
561.957	1.617	633005	WORD	n/a	wordpools/wordpool_EN.txt	BAT	11	2	[0, 0, 0]	n/a	FR1	0	R1325C
563.574	0.983	634622	WORD_OFF	n/a	n/a	BAT	11	2	[0, 0, 0]	n/a	FR1	0	R1325C
564.557	1.616	635605	WORD	n/a	wordpools/wordpool_EN.txt	BADGE	12	2	[0, 0, 0]	n/a	FR1	0	R1325C
566.173	0.0	637221	WORD_OFF	n/a	n/a	BADGE	12	2	[0, 0, 0]	n/a	FR1	0	R1325C
566.173	0.001	637221	DISTRACT_START	n/a	n/a	n/a	-999	2	[0, 0, 0]	n/a	FR1	0	R1325C
566.174	0.016	637222	START	n/a	n/a	n/a	-999	2	[-999, -999, -999]	n/a	FR1	0	R1325C
566.19	13.77	637238	PROB	13.77	n/a	n/a	-999	2	[5, 8, 4]	20	FR1	0	R1325C
579.96	6.545	651007	PROB	6.545	n/a	n/a	-999	2	[5, 6, 5]	20	FR1	0	R1325C
586.505	0.006	657552	STOP	n/a	n/a	n/a	-999	2	[-999, -999, -999]	n/a	FR1	0	R1325C
586.511	0.567	657558	DISTRACT_END	n/a	n/a	n/a	-999	2	[0, 0, 0]	n/a	FR1	0	R1325C
587.078	0.518	658125	RETRIEVAL_ORIENT	n/a	n/a	n/a	-999	2	[0, 0, 0]	n/a	FR1	0	R1325C
587.596	4.35	658643	REC_START	n/a	n/a	n/a	-999	2	[0, 0, 0]	n/a	FR1	0	R1325C
591.946	10.883	662992	REC_WORD	10.883	n/a	CAKE	-999	2	[0, 0, 0]	n/a	FR1	0	R1325C
602.829	14.777	673875	REC_WORD	14.777	n/a	SWORD	5	2	[0, 0, 0]	n/a	FR1	0	R1325C
617.606	7.545	688651	REC_END	n/a	n/a	n/a	-999	2	[0, 0, 0]	n/a	FR1	0	R1325C
625.151	0.5	696195	TRIAL	n/a	n/a	n/a	-999	3	[0, 0, 0]	n/a	FR1	0	R1325C
625.651	10.428	696695	COUNTDOWN_START	n/a	n/a	n/a	-999	3	[0, 0, 0]	n/a	FR1	0	R1325C
636.079	0.008	707122	COUNTDOWN_END	n/a	n/a	n/a	-999	3	[0, 0, 0]	n/a	FR1	0	R1325C
636.087	1.617	707130	ORIENT	n/a	n/a	n/a	-999	3	[0, 0, 0]	n/a	FR1	0	R1325C
637.704	2.151	708747	ORIENT_OFF	n/a	n/a	n/a	-999	3	[0, 0, 0]	n/a	FR1	0	R1325C
639.855	1.617	710898	WORD	n/a	wordpools/wordpool_EN.txt	WHALE	1	3	[0, 0, 0]	n/a	FR1	0	R1325C
641.472	0.899	712515	WORD_OFF	n/a	n/a	WHALE	1	3	[0, 0, 0]	n/a	FR1	0	R1325C
642.371	1.618	713414	WORD	n/a	wordpools/wordpool_EN.txt	WALL	2	3	[0, 0, 0]	n/a	FR1	0	R1325C
643.989	0.883	715032	WORD_OFF	n/a	n/a	WALL	2	3	[0, 0, 0]	n/a	FR1	0	R1325C
644.872	1.617	715915	WORD	n/a	wordpools/wordpool_EN.txt	NAIL	3	3	[0, 0, 0]	n/a	FR1	0	R1325C
646.489	0.984	717532	WORD_OFF	n/a	n/a	NAIL	3	3	[0, 0, 0]	n/a	FR1	0	R1325C
647.473	1.617	718516	WORD	n/a	wordpools/wordpool_EN.txt	CLOTH	4	3	[0, 0, 0]	n/a	FR1	0	R1325C
649.09	0.8	720132	WORD_OFF	n/a	n/a	CLOTH	4	3	[0, 0, 0]	n/a	FR1	0	R1325C
649.89	1.617	720932	WORD	n/a	wordpools/wordpool_EN.txt	HORN	5	3	[0, 0, 0]	n/a	FR1	0	R1325C
651.507	0.95	722549	WORD_OFF	n/a	n/a	HORN	5	3	[0, 0, 0]	n/a	FR1	0	R1325C
652.457	1.617	723499	WORD	n/a	wordpools/wordpool_EN.txt	BENCH	6	3	[0, 0, 0]	n/a	FR1	0	R1325C
654.074	0.9	725116	WORD_OFF	n/a	n/a	BENCH	6	3	[0, 0, 0]	n/a	FR1	0	R1325C
654.974	1.617	726016	WORD	n/a	wordpools/wordpool_EN.txt	VINE	7	3	[0, 0, 0]	n/a	FR1	0	R1325C
656.591	1.0	727633	WORD_OFF	n/a	n/a	VINE	7	3	[0, 0, 0]	n/a	FR1	0	R1325C
657.591	1.616	728633	WORD	n/a	wordpools/wordpool_EN.txt	PEACH	8	3	[0, 0, 0]	n/a	FR1	0	R1325C
659.207	0.851	730249	WORD_OFF	n/a	n/a	PEACH	8	3	[0, 0, 0]	n/a	FR1	0	R1325C
660.058	1.617	731100	WORD	n/a	wordpools/wordpool_EN.txt	SCHOOL	9	3	[0, 0, 0]	n/a	FR1	0	R1325C
661.675	1.017	732717	WORD_OFF	n/a	n/a	SCHOOL	9	3	[0, 0, 0]	n/a	FR1	0	R1325C
662.692	1.616	733733	WORD	n/a	wordpools/wordpool_EN.txt	STOVE	10	3	[0, 0, 0]	n/a	FR1	0	R1325C
664.308	1.0	735349	WORD_OFF	n/a	n/a	STOVE	10	3	[0, 0, 0]	n/a	FR1	0	R1325C
665.308	1.601	736349	WORD	n/a	wordpools/wordpool_EN.txt	BOARD	11	3	[0, 0, 0]	n/a	FR1	0	R1325C
666.909	0.951	737950	WORD_OFF	n/a	n/a	BOARD	11	3	[0, 0, 0]	n/a	FR1	0	R1325C
667.86	1.617	738901	WORD	n/a	wordpools/wordpool_EN.txt	LOCK	12	3	[0, 0, 0]	n/a	FR1	0	R1325C
669.477	0.0	740518	WORD_OFF	n/a	n/a	LOCK	12	3	[0, 0, 0]	n/a	FR1	0	R1325C
669.477	0.0	740518	DISTRACT_START	n/a	n/a	n/a	-999	3	[0, 0, 0]	n/a	FR1	0	R1325C
669.477	0.017	740518	START	n/a	n/a	n/a	-999	3	[-999, -999, -999]	n/a	FR1	0	R1325C
669.494	17.219	740535	PROB	17.219	n/a	n/a	-999	3	[5, 8, 9]	20	FR1	0	R1325C
686.713	14.929	757753	PROB	14.929	n/a	n/a	-999	3	[6, 6, 8]	19	FR1	0	R1325C
701.642	0.008	772681	STOP	n/a	n/a	n/a	-999	3	[-999, -999, -999]	n/a	FR1	0	R1325C
701.65	0.649	772689	DISTRACT_END	n/a	n/a	n/a	-999	3	[0, 0, 0]	n/a	FR1	0	R1325C
702.299	0.518	773338	RETRIEVAL_ORIENT	n/a	n/a	n/a	-999	3	[0, 0, 0]	n/a	FR1	0	R1325C
702.817	6.331	773856	REC_START	n/a	n/a	n/a	-999	3	[0, 0, 0]	n/a	FR1	0	R1325C
709.148	2.574	780186	REC_WORD	2.574	n/a	WHALE	1	3	[0, 0, 0]	n/a	FR1	0	R1325C
711.722	21.107	782760	REC_WORD	21.107	n/a	SWORD	-999	3	[0, 0, 0]	n/a	FR1	0	R1325C
732.829	6.443	803866	REC_END	n/a	n/a	n/a	-999	3	[0, 0, 0]	n/a	FR1	0	R1325C
739.272	0.5	810308	TRIAL	n/a	n/a	n/a	-999	4	[0, 0, 0]	n/a	FR1	0	R1325C
739.772	10.428	810808	COUNTDOWN_START	n/a	n/a	n/a	-999	4	[0, 0, 0]	n/a	FR1	0	R1325C
750.2	0.008	821236	COUNTDOWN_END	n/a	n/a	n/a	-999	4	[0, 0, 0]	n/a	FR1	0	R1325C
750.208	1.601	821244	ORIENT	n/a	n/a	n/a	-999	4	[0, 0, 0]	n/a	FR1	0	R1325C
751.809	2.234	822844	ORIENT_OFF	n/a	n/a	n/a	-999	4	[0, 0, 0]	n/a	FR1	0	R1325C
754.043	1.617	825078	WORD	n/a	wordpools/wordpool_EN.txt	PLANT	1	4	[0, 0, 0]	n/a	FR1	0	R1325C
755.66	0.767	826695	WORD_OFF	n/a	n/a	PLANT	1	4	[0, 0, 0]	n/a	FR1	0	R1325C
756.427	1.617	827462	WORD	n/a	wordpools/wordpool_EN.txt	SHIRT	2	4	[0, 0, 0]	n/a	FR1	0	R1325C
758.044	0.9	829079	WORD_OFF	n/a	n/a	SHIRT	2	4	[0, 0, 0]	n/a	FR1	0	R1325C
758.944	1.617	829979	WORD	n/a	wordpools/wordpool_EN.txt	ROOF	3	4	[0, 0, 0]	n/a	FR1	0	R1325C
760.561	0.916	831596	WORD_OFF	n/a	n/a	ROOF	3	4	[0, 0, 0]	n/a	FR1	0	R1325C
761.477	1.618	832512	WORD	n/a	wordpools/wordpool_EN.txt	FROG	4	4	[0, 0, 0]	n/a	FR1	0	R1325C
763.095	0.966	834130	WORD_OFF	n/a	n/a	FROG	4	4	[0, 0, 0]	n/a	FR1	0	R1325C
764.061	1.617	835096	WORD	n/a	wordpools/wordpool_EN.txt	CUP	5	4	[0, 0, 0]	n/a	FR1	0	R1325C
765.678	0.767	836712	WORD_OFF	n/a	n/a	CUP	5	4	[0, 0, 0]	n/a	FR1	0	R1325C
766.445	1.617	837479	WORD	n/a	wordpools/wordpool_EN.txt	PALM	6	4	[0, 0, 0]	n/a	FR1	0	R1325C
768.062	0.917	839096	WORD_OFF	n/a	n/a	PALM	6	4	[0, 0, 0]	n/a	FR1	0	R1325C
768.979	1.617	840013	WORD	n/a	wordpools/wordpool_EN.txt	BROOM	7	4	[0, 0, 0]	n/a	FR1	0	R1325C
770.596	0.799	841630	WORD_OFF	n/a	n/a	BROOM	7	4	[0, 0, 0]	n/a	FR1	0	R1325C
771.395	1.601	842429	WORD	n/a	wordpools/wordpool_EN.txt	SOUP	8	4	[0, 0, 0]	n/a	FR1	0	R1325C
772.996	0.784	844030	WORD_OFF	n/a	n/a	SOUP	8	4	[0, 0, 0]	n/a	FR1	0	R1325C
773.78	1.616	844814	WORD	n/a	wordpools/wordpool_EN.txt	BEE	9	4	[0, 0, 0]	n/a	FR1	0	R1325C
775.396	1.0	846430	WORD_OFF	n/a	n/a	BEE	9	4	[0, 0, 0]	n/a	FR1	0	R1325C
776.396	1.618	847430	WORD	n/a	wordpools/wordpool_EN.txt	CANE	10	4	[0, 0, 0]	n/a	FR1	0	R1325C
778.014	0.933	849048	WORD_OFF	n/a	n/a	CANE	10	4	[0, 0, 0]	n/a	FR1	0	R1325C
778.947	1.617	849981	WORD	n/a	wordpools/wordpool_EN.txt	DUCK	11	4	[0, 0, 0]	n/a	FR1	0	R1325C
780.564	0.901	851597	WORD_OFF	n/a	n/a	DUCK	11	4	[0, 0, 0]	n/a	FR1	0	R1325C
781.465	1.617	852498	WORD	n/a	wordpools/wordpool_EN.txt	CROW	12	4	[0, 0, 0]	n/a	FR1	0	R1325C
783.082	0.0	854115	WORD_OFF	n/a	n/a	CROW	12	4	[0, 0, 0]	n/a	FR1	0	R1325C
783.082	0.0	854115	DISTRACT_START	n/a	n/a	n/a	-999	4	[0, 0, 0]	n/a	FR1	0	R1325C
783.082	0.016	854115	START	n/a	n/a	n/a	-999	4	[-999, -999, -999]	n/a	FR1	0	R1325C
783.098	11.402	854131	PROB	11.402	n/a	n/a	-999	4	[1, 3, 8]	13	FR1	0	R1325C
794.5	5.952	865532	PROB	5.952	n/a	n/a	-999	4	[8, 1, 1]	10	FR1	0	R1325C
800.452	5.149	871484	PROB	5.149	n/a	n/a	-999	4	[3, 3, 5]	13	FR1	0	R1325C
805.601	0.018	876633	STOP	n/a	n/a	n/a	-999	4	[-999, -999, -999]	n/a	FR1	0	R1325C
805.619	0.549	876651	DISTRACT_END	n/a	n/a	n/a	-999	4	[0, 0, 0]	n/a	FR1	0	R1325C
806.168	0.519	877200	RETRIEVAL_ORIENT	n/a	n/a	n/a	-999	4	[0, 0, 0]	n/a	FR1	0	R1325C
806.687	30.0	877719	REC_START	n/a	n/a	n/a	-999	4	[0, 0, 0]	n/a	FR1	0	R1325C
836.687	0.009	907717	REC_WORD_VV	0.009	n/a	<>	-999	4	[0, 0, 0]	n/a	FR1	0	R1325C
836.696	6.247	907726	REC_END	n/a	n/a	n/a	-999	4	[0, 0, 0]	n/a	FR1	0	R1325C
842.943	0.5	913972	TRIAL	n/a	n/a	n/a	-999	5	[0, 0, 0]	n/a	FR1	0	R1325C
843.443	10.428	914472	COUNTDOWN_START	n/a	n/a	n/a	-999	5	[0, 0, 0]	n/a	FR1	0	R1325C
853.871	0.007	924899	COUNTDOWN_END	n/a	n/a	n/a	-999	5	[0, 0, 0]	n/a	FR1	0	R1325C
853.878	1.617	924906	ORIENT	n/a	n/a	n/a	-999	5	[0, 0, 0]	n/a	FR1	0	R1325C
855.495	1.967	926523	ORIENT_OFF	n/a	n/a	n/a	-999	5	[0, 0, 0]	n/a	FR1	0	R1325C
857.462	1.617	928490	WORD	n/a	wordpools/wordpool_EN.txt	HAND	1	5	[0, 0, 0]	n/a	FR1	0	R1325C
859.079	0.95	930107	WORD_OFF	n/a	n/a	HAND	1	5	[0, 0, 0]	n/a	FR1	0	R1325C
860.029	1.617	931057	WORD	n/a	wordpools/wordpool_EN.txt	CART	2	5	[0, 0, 0]	n/a	FR1	0	R1325C
861.646	0.817	932674	WORD_OFF	n/a	n/a	CART	2	5	[0, 0, 0]	n/a	FR1	0	R1325C
862.463	1.617	933491	WORD	n/a	wordpools/wordpool_EN.txt	STEAK	3	5	[0, 0, 0]	n/a	FR1	0	R1325C
864.08	0.767	935108	WORD_OFF	n/a	n/a	STEAK	3	5	[0, 0, 0]	n/a	FR1	0	R1325C
864.847	1.617	935875	WORD	n/a	wordpools/wordpool_EN.txt	PEA	4	5	[0, 0, 0]	n/a	FR1	0	R1325C
866.464	0.866	937492	WORD_OFF	n/a	n/a	PEA	4	5	[0, 0, 0]	n/a	FR1	0	R1325C
867.33	1.601	938358	WORD	n/a	wordpools/wordpool_EN.txt	CROWN	5	5	[0, 0, 0]	n/a	FR1	0	R1325C
868.931	0.8	939958	WORD_OFF	n/a	n/a	CROWN	5	5	[0, 0, 0]	n/a	FR1	0	R1325C
869.731	1.616	940758	WORD	n/a	wordpools/wordpool_EN.txt	TIE	6	5	[0, 0, 0]	n/a	FR1	0	R1325C
871.347	0.785	942374	WORD_OFF	n/a	n/a	TIE	6	5	[0, 0, 0]	n/a	FR1	0	R1325C
872.132	1.617	943159	WORD	n/a	wordpools/wordpool_EN.txt	CLAY	7	5	[0, 0, 0]	n/a	FR1	0	R1325C
873.749	0.783	944776	WORD_OFF	n/a	n/a	CLAY	7	5	[0, 0, 0]	n/a	FR1	0	R1325C
874.532	1.616	945559	WORD	n/a	wordpools/wordpool_EN.txt	GRASS	8	5	[0, 0, 0]	n/a	FR1	0	R1325C
876.148	0.818	947175	WORD_OFF	n/a	n/a	GRASS	8	5	[0, 0, 0]	n/a	FR1	0	R1325C
876.966	1.617	947993	WORD	n/a	wordpools/wordpool_EN.txt	DIME	9	5	[0, 0, 0]	n/a	FR1	0	R1325C
878.583	0.833	949610	WORD_OFF	n/a	n/a	DIME	9	5	[0, 0, 0]	n/a	FR1	0	R1325C
879.416	1.617	950443	WORD	n/a	wordpools/wordpool_EN.txt	STOOL	10	5	[0, 0, 0]	n/a	FR1	0	R1325C
881.033	0.884	952060	WORD_OFF	n/a	n/a	STOOL	10	5	[0, 0, 0]	n/a	FR1	0	R1325C
881.917	1.617	952944	WORD	n/a	wordpools/wordpool_EN.txt	CALF	11	5	[0, 0, 0]	n/a	FR1	0	R1325C
883.534	1.0	954560	WORD_OFF	n/a	n/a	CALF	11	5	[0, 0, 0]	n/a	FR1	0	R1325C
884.534	1.616	955560	WORD	n/a	wordpools/wordpool_EN.txt	BOOT	12	5	[0, 0, 0]	n/a	FR1	0	R1325C
886.15	0.0	957176	WORD_OFF	n/a	n/a	BOOT	12	5	[0, 0, 0]	n/a	FR1	0	R1325C
886.15	0.0	957176	DISTRACT_START	n/a	n/a	n/a	-999	5	[0, 0, 0]	n/a	FR1	0	R1325C
886.15	0.017	957176	START	n/a	n/a	n/a	-999	5	[-999, -999, -999]	n/a	FR1	0	R1325C
886.167	9.636	957193	PROB	9.636	n/a	n/a	-999	5	[8, 2, 1]	11	FR1	0	R1325C
895.803	5.868	966829	PROB	5.868	n/a	n/a	-999	5	[3, 1, 7]	12	FR1	0	R1325C
901.671	11.188	972696	PROB	11.188	n/a	n/a	-999	5	[4, 8, 3]	16	FR1	0	R1325C
912.859	0.014	983883	STOP	n/a	n/a	n/a	-999	5	[-999, -999, -999]	n/a	FR1	0	R1325C
912.873	0.515	983897	DISTRACT_END	n/a	n/a	n/a	-999	5	[0, 0, 0]	n/a	FR1	0	R1325C
913.388	0.519	984412	RETRIEVAL_ORIENT	n/a	n/a	n/a	-999	5	[0, 0, 0]	n/a	FR1	0	R1325C
913.907	19.236	984931	REC_START	n/a	n/a	n/a	-999	5	[0, 0, 0]	n/a	FR1	0	R1325C
933.143	2.482	1004166	REC_WORD	2.482	n/a	TEA	-999	5	[0, 0, 0]	n/a	FR1	0	R1325C
935.625	3.039	1006648	REC_WORD	3.039	n/a	CAN	-999	5	[0, 0, 0]	n/a	FR1	0	R1325C
938.664	5.254	1009687	REC_WORD	5.254	n/a	TIE	6	5	[0, 0, 0]	n/a	FR1	0	R1325C
943.918	6.712	1014940	REC_END	n/a	n/a	n/a	-999	5	[0, 0, 0]	n/a	FR1	0	R1325C
950.63	0.5	1021652	TRIAL	n/a	n/a	n/a	-999	6	[0, 0, 0]	n/a	FR1	0	R1325C
951.13	10.428	1022152	COUNTDOWN_START	n/a	n/a	n/a	-999	6	[0, 0, 0]	n/a	FR1	0	R1325C
961.558	0.007	1032579	COUNTDOWN_END	n/a	n/a	n/a	-999	6	[0, 0, 0]	n/a	FR1	0	R1325C
961.565	1.616	1032586	ORIENT	n/a	n/a	n/a	-999	6	[0, 0, 0]	n/a	FR1	0	R1325C
963.181	2.034	1034202	ORIENT_OFF	n/a	n/a	n/a	-999	6	[0, 0, 0]	n/a	FR1	0	R1325C
965.215	1.601	1036236	WORD	n/a	wordpools/wordpool_EN.txt	LEG	1	6	[0, 0, 0]	n/a	FR1	0	R1325C
966.816	0.85	1037837	WORD_OFF	n/a	n/a	LEG	1	6	[0, 0, 0]	n/a	FR1	0	R1325C
967.666	1.616	1038687	WORD	n/a	wordpools/wordpool_EN.txt	STONE	2	6	[0, 0, 0]	n/a	FR1	0	R1325C
969.282	0.984	1040303	WORD_OFF	n/a	n/a	STONE	2	6	[0, 0, 0]	n/a	FR1	0	R1325C
970.266	1.601	1041286	WORD	n/a	wordpools/wordpool_EN.txt	OAK	3	6	[0, 0, 0]	n/a	FR1	0	R1325C
971.867	0.967	1042887	WORD_OFF	n/a	n/a	OAK	3	6	[0, 0, 0]	n/a	FR1	0	R1325C
972.834	1.617	1043854	WORD	n/a	wordpools/wordpool_EN.txt	STICK	4	6	[0, 0, 0]	n/a	FR1	0	R1325C
974.451	0.95	1045471	WORD_OFF	n/a	n/a	STICK	4	6	[0, 0, 0]	n/a	FR1	0	R1325C
975.401	1.617	1046421	WORD	n/a	wordpools/wordpool_EN.txt	ELF	5	6	[0, 0, 0]	n/a	FR1	0	R1325C
977.018	0.9	1048038	WORD_OFF	n/a	n/a	ELF	5	6	[0, 0, 0]	n/a	FR1	0	R1325C
977.918	1.617	1048938	WORD	n/a	wordpools/wordpool_EN.txt	PANTS	6	6	[0, 0, 0]	n/a	FR1	0	R1325C
979.535	1.0	1050555	WORD_OFF	n/a	n/a	PANTS	6	6	[0, 0, 0]	n/a	FR1	0	R1325C
980.535	1.616	1051555	WORD	n/a	wordpools/wordpool_EN.txt	DESK	7	6	[0, 0, 0]	n/a	FR1	0	R1325C
982.151	0.802	1053171	WORD_OFF	n/a	n/a	DESK	7	6	[0, 0, 0]	n/a	FR1	0	R1325C
982.953	1.617	1053973	WORD	n/a	wordpools/wordpool_EN.txt	DRESS	8	6	[0, 0, 0]	n/a	FR1	0	R1325C
984.57	0.85	1055589	WORD_OFF	n/a	n/a	DRESS	8	6	[0, 0, 0]	n/a	FR1	0	R1325C
985.42	1.617	1056439	WORD	n/a	wordpools/wordpool_EN.txt	BAND	9	6	[0, 0, 0]	n/a	FR1	0	R1325C
987.037	0.833	1058056	WORD_OFF	n/a	n/a	BAND	9	6	[0, 0, 0]	n/a	FR1	0	R1325C
987.87	1.617	1058889	WORD	n/a	wordpools/wordpool_EN.txt	YARD	10	6	[0, 0, 0]	n/a	FR1	0	R1325C
989.487	0.849	1060506	WORD_OFF	n/a	n/a	YARD	10	6	[0, 0, 0]	n/a	FR1	0	R1325C
990.336	1.618	1061355	WORD	n/a	wordpools/wordpool_EN.txt	SHIELD	11	6	[0, 0, 0]	n/a	FR1	0	R1325C
991.954	1.001	1062973	WORD_OFF	n/a	n/a	SHIELD	11	6	[0, 0, 0]	n/a	FR1	0	R1325C
992.955	1.617	1063974	WORD	n/a	wordpools/wordpool_EN.txt	CHIN	12	6	[0, 0, 0]	n/a	FR1	0	R1325C
994.572	0.0	1065591	WORD_OFF	n/a	n/a	CHIN	12	6	[0, 0, 0]	n/a	FR1	0	R1325C
994.572	0.0	1065591	DISTRACT_START	n/a	n/a	n/a	-999	6	[0, 0, 0]	n/a	FR1	0	R1325C
994.572	0.016	1065591	START	n/a	n/a	n/a	-999	6	[-999, -999, -999]	n/a	FR1	0	R1325C
994.588	9.269	1065607	PROB	9.269	n/a	n/a	-999	6	[7, 2, 9]	18	FR1	0	R1325C
1003.857	7.851	1074875	PROB	7.851	n/a	n/a	-999	6	[8, 6, 6]	19	FR1	0	R1325C
1011.708	6.806	1082726	PROB	6.806	n/a	n/a	-999	6	[1, 8, 4]	13	FR1	0	R1325C
1018.514	0.012	1089531	STOP	n/a	n/a	n/a	-999	6	[-999, -999, -999]	n/a	FR1	0	R1325C
1018.526	0.616	1089543	DISTRACT_END	n/a	n/a	n/a	-999	6	[0, 0, 0]	n/a	FR1	0	R1325C
1019.142	0.519	1090159	RETRIEVAL_ORIENT	n/a	n/a	n/a	-999	6	[0, 0, 0]	n/a	FR1	0	R1325C
1019.661	8.142	1090678	REC_START	n/a	n/a	n/a	-999	6	[0, 0, 0]	n/a	FR1	0	R1325C
1027.803	1.84	1098820	REC_WORD	1.84	n/a	PANTS	6	6	[0, 0, 0]	n/a	FR1	0	R1325C
1029.643	10.581	1100659	REC_WORD	10.581	n/a	ELF	5	6	[0, 0, 0]	n/a	FR1	0	R1325C
1040.224	9.447	1111240	REC_WORD	9.447	n/a	SHIRT	-999	6	[0, 0, 0]	n/a	FR1	0	R1325C
1049.671	6.195	1120686	REC_END	n/a	n/a	n/a	-999	6	[0, 0, 0]	n/a	FR1	0	R1325C
1055.866	0.5	1126881	TRIAL	n/a	n/a	n/a	-999	7	[0, 0, 0]	n/a	FR1	0	R1325C
1056.366	10.428	1127381	COUNTDOWN_START	n/a	n/a	n/a	-999	7	[0, 0, 0]	n/a	FR1	0	R1325C
1066.794	0.008	1137808	COUNTDOWN_END	n/a	n/a	n/a	-999	7	[0, 0, 0]	n/a	FR1	0	R1325C
1066.802	1.617	1137816	ORIENT	n/a	n/a	n/a	-999	7	[0, 0, 0]	n/a	FR1	0	R1325C
1068.419	2.184	1139433	ORIENT_OFF	n/a	n/a	n/a	-999	7	[0, 0, 0]	n/a	FR1	0	R1325C
1070.603	1.615	1141617	WORD	n/a	wordpools/wordpool_EN.txt	HOUSE	1	7	[0, 0, 0]	n/a	FR1	0	R1325C
1072.218	0.918	1143232	WORD_OFF	n/a	n/a	HOUSE	1	7	[0, 0, 0]	n/a	FR1	0	R1325C
1073.136	1.617	1144149	WORD	n/a	wordpools/wordpool_EN.txt	OWL	2	7	[0, 0, 0]	n/a	FR1	0	R1325C
1074.753	0.767	1145766	WORD_OFF	n/a	n/a	OWL	2	7	[0, 0, 0]	n/a	FR1	0	R1325C
1075.52	1.617	1146533	WORD	n/a	wordpools/wordpool_EN.txt	HOOF	3	7	[0, 0, 0]	n/a	FR1	0	R1325C
1077.137	0.817	1148150	WORD_OFF	n/a	n/a	HOOF	3	7	[0, 0, 0]	n/a	FR1	0	R1325C
1077.954	1.617	1148967	WORD	n/a	wordpools/wordpool_EN.txt	TANK	4	7	[0, 0, 0]	n/a	FR1	0	R1325C
1079.571	0.867	1150584	WORD_OFF	n/a	n/a	TANK	4	7	[0, 0, 0]	n/a	FR1	0	R1325C
1080.438	1.617	1151451	WORD	n/a	wordpools/wordpool_EN.txt	MOON	5	7	[0, 0, 0]	n/a	FR1	0	R1325C
1082.055	0.95	1153068	WORD_OFF	n/a	n/a	MOON	5	7	[0, 0, 0]	n/a	FR1	0	R1325C
1083.005	1.617	1154018	WORD	n/a	wordpools/wordpool_EN.txt	SKY	6	7	[0, 0, 0]	n/a	FR1	0	R1325C
1084.622	0.917	1155635	WORD_OFF	n/a	n/a	SKY	6	7	[0, 0, 0]	n/a	FR1	0	R1325C
1085.539	1.616	1156552	WORD	n/a	wordpools/wordpool_EN.txt	SEED	7	7	[0, 0, 0]	n/a	FR1	0	R1325C
1087.155	0.917	1158167	WORD_OFF	n/a	n/a	SEED	7	7	[0, 0, 0]	n/a	FR1	0	R1325C
1088.072	1.617	1159084	WORD	n/a	wordpools/wordpool_EN.txt	BARN	8	7	[0, 0, 0]	n/a	FR1	0	R1325C
1089.689	0.901	1160701	WORD_OFF	n/a	n/a	BARN	8	7	[0, 0, 0]	n/a	FR1	0	R1325C
1090.59	1.616	1161602	WORD	n/a	wordpools/wordpool_EN.txt	STEM	9	7	[0, 0, 0]	n/a	FR1	0	R1325C
1092.206	0.851	1163218	WORD_OFF	n/a	n/a	STEM	9	7	[0, 0, 0]	n/a	FR1	0	R1325C
1093.057	1.617	1164069	WORD	n/a	wordpools/wordpool_EN.txt	STORE	10	7	[0, 0, 0]	n/a	FR1	0	R1325C
1094.674	0.933	1165686	WORD_OFF	n/a	n/a	STORE	10	7	[0, 0, 0]	n/a	FR1	0	R1325C
1095.607	1.616	1166619	WORD	n/a	wordpools/wordpool_EN.txt	PLANE	11	7	[0, 0, 0]	n/a	FR1	0	R1325C
1097.223	0.768	1168235	WORD_OFF	n/a	n/a	PLANE	11	7	[0, 0, 0]	n/a	FR1	0	R1325C
1097.991	1.617	1169003	WORD	n/a	wordpools/wordpool_EN.txt	FOOD	12	7	[0, 0, 0]	n/a	FR1	0	R1325C
1099.608	0.0	1170620	WORD_OFF	n/a	n/a	FOOD	12	7	[0, 0, 0]	n/a	FR1	0	R1325C
1099.608	0.001	1170620	DISTRACT_START	n/a	n/a	n/a	-999	7	[0, 0, 0]	n/a	FR1	0	R1325C
1099.609	0.016	1170621	START	n/a	n/a	n/a	-999	7	[-999, -999, -999]	n/a	FR1	0	R1325C
1099.625	9.468	1170637	PROB	9.468	n/a	n/a	-999	7	[8, 8, 2]	18	FR1	0	R1325C
1109.093	6.15	1180104	PROB	6.15	n/a	n/a	-999	7	[5, 8, 5]	18	FR1	0	R1325C
1115.243	5.198	1186254	PROB	5.198	n/a	n/a	-999	7	[8, 1, 1]	11	FR1	0	R1325C
1120.441	0.021	1191451	STOP	n/a	n/a	n/a	-999	7	[-999, -999, -999]	n/a	FR1	0	R1325C
1120.462	0.633	1191472	DISTRACT_END	n/a	n/a	n/a	-999	7	[0, 0, 0]	n/a	FR1	0	R1325C
1121.095	0.518	1192105	RETRIEVAL_ORIENT	n/a	n/a	n/a	-999	7	[0, 0, 0]	n/a	FR1	0	R1325C
1121.613	7.952	1192623	REC_START	n/a	n/a	n/a	-999	7	[0, 0, 0]	n/a	FR1	0	R1325C
1129.565	1.907	1200575	REC_WORD	1.907	n/a	PLANT	-999	7	[0, 0, 0]	n/a	FR1	0	R1325C
1131.472	2.95	1202481	REC_WORD	2.95	n/a	WOOD	-999	7	[0, 0, 0]	n/a	FR1	0	R1325C
1134.422	5.532	1205431	REC_WORD	5.532	n/a	SKY	6	7	[0, 0, 0]	n/a	FR1	0	R1325C
1139.954	7.738	1210963	REC_WORD	7.738	n/a	MOON	5	7	[0, 0, 0]	n/a	FR1	0	R1325C
1147.692	3.931	1218700	REC_WORD	3.931	n/a	PLANT	-999	7	[0, 0, 0]	n/a	FR1	0	R1325C
1151.623	6.562	1222631	REC_END	n/a	n/a	n/a	-999	7	[0, 0, 0]	n/a	FR1	0	R1325C
1158.185	0.5	1229193	TRIAL	n/a	n/a	n/a	-999	8	[0, 0, 0]	n/a	FR1	0	R1325C
1158.685	10.428	1229693	COUNTDOWN_START	n/a	n/a	n/a	-999	8	[0, 0, 0]	n/a	FR1	0	R1325C
1169.113	0.008	1240120	COUNTDOWN_END	n/a	n/a	n/a	-999	8	[0, 0, 0]	n/a	FR1	0	R1325C
1169.121	1.617	1240128	ORIENT	n/a	n/a	n/a	-999	8	[0, 0, 0]	n/a	FR1	0	R1325C
1170.738	2.034	1241745	ORIENT_OFF	n/a	n/a	n/a	-999	8	[0, 0, 0]	n/a	FR1	0	R1325C
1172.772	1.616	1243779	WORD	n/a	wordpools/wordpool_EN.txt	GOAT	1	8	[0, 0, 0]	n/a	FR1	0	R1325C
1174.388	0.883	1245395	WORD_OFF	n/a	n/a	GOAT	1	8	[0, 0, 0]	n/a	FR1	0	R1325C
1175.271	1.618	1246277	WORD	n/a	wordpools/wordpool_EN.txt	MAIL	2	8	[0, 0, 0]	n/a	FR1	0	R1325C
1176.889	0.967	1247895	WORD_OFF	n/a	n/a	MAIL	2	8	[0, 0, 0]	n/a	FR1	0	R1325C
1177.856	1.617	1248862	WORD	n/a	wordpools/wordpool_EN.txt	FORT	3	8	[0, 0, 0]	n/a	FR1	0	R1325C
1179.473	0.782	1250479	WORD_OFF	n/a	n/a	FORT	3	8	[0, 0, 0]	n/a	FR1	0	R1325C
1180.255	1.618	1251261	WORD	n/a	wordpools/wordpool_EN.txt	JET	4	8	[0, 0, 0]	n/a	FR1	0	R1325C
1181.873	0.984	1252879	WORD_OFF	n/a	n/a	JET	4	8	[0, 0, 0]	n/a	FR1	0	R1325C
1182.857	1.617	1253863	WORD	n/a	wordpools/wordpool_EN.txt	PET	5	8	[0, 0, 0]	n/a	FR1	0	R1325C
1184.474	0.967	1255480	WORD_OFF	n/a	n/a	PET	5	8	[0, 0, 0]	n/a	FR1	0	R1325C
1185.441	1.617	1256447	WORD	n/a	wordpools/wordpool_EN.txt	SHIP	6	8	[0, 0, 0]	n/a	FR1	0	R1325C
1187.058	0.85	1258064	WORD_OFF	n/a	n/a	SHIP	6	8	[0, 0, 0]	n/a	FR1	0	R1325C
1187.908	1.617	1258914	WORD	n/a	wordpools/wordpool_EN.txt	TREE	7	8	[0, 0, 0]	n/a	FR1	0	R1325C
1189.525	0.832	1260530	WORD_OFF	n/a	n/a	TREE	7	8	[0, 0, 0]	n/a	FR1	0	R1325C
1190.357	1.618	1261362	WORD	n/a	wordpools/wordpool_EN.txt	EEL	8	8	[0, 0, 0]	n/a	FR1	0	R1325C
1191.975	0.85	1262980	WORD_OFF	n/a	n/a	EEL	8	8	[0, 0, 0]	n/a	FR1	0	R1325C
1192.825	1.617	1263830	WORD	n/a	wordpools/wordpool_EN.txt	STAIR	9	8	[0, 0, 0]	n/a	FR1	0	R1325C
1194.442	0.933	1265447	WORD_OFF	n/a	n/a	STAIR	9	8	[0, 0, 0]	n/a	FR1	0	R1325C
1195.375	1.618	1266380	WORD	n/a	wordpools/wordpool_EN.txt	BOAT	10	8	[0, 0, 0]	n/a	FR1	0	R1325C
1196.993	0.8	1267998	WORD_OFF	n/a	n/a	BOAT	10	8	[0, 0, 0]	n/a	FR1	0	R1325C
1197.793	1.617	1268798	WORD	n/a	wordpools/wordpool_EN.txt	ZOO	11	8	[0, 0, 0]	n/a	FR1	0	R1325C
1199.41	0.966	1270415	WORD_OFF	n/a	n/a	ZOO	11	8	[0, 0, 0]	n/a	FR1	0	R1325C
1200.376	1.601	1271381	WORD	n/a	wordpools/wordpool_EN.txt	PEAR	12	8	[0, 0, 0]	n/a	FR1	0	R1325C
1201.977	0.0	1272982	WORD_OFF	n/a	n/a	PEAR	12	8	[0, 0, 0]	n/a	FR1	0	R1325C
1201.977	0.001	1272982	DISTRACT_START	n/a	n/a	n/a	-999	8	[0, 0, 0]	n/a	FR1	0	R1325C
1201.978	0.016	1272983	START	n/a	n/a	n/a	-999	8	[-999, -999, -999]	n/a	FR1	0	R1325C
1201.994	12.301	1272999	PROB	12.301	n/a	n/a	-999	8	[7, 6, 9]	22	FR1	0	R1325C
1214.295	11.491	1285299	PROB	11.491	n/a	n/a	-999	8	[4, 5, 6]	14	FR1	0	R1325C
1225.786	0.012	1296789	STOP	n/a	n/a	n/a	-999	8	[-999, -999, -999]	n/a	FR1	0	R1325C
1225.798	0.617	1296801	DISTRACT_END	n/a	n/a	n/a	-999	8	[0, 0, 0]	n/a	FR1	0	R1325C
1226.415	0.517	1297418	RETRIEVAL_ORIENT	n/a	n/a	n/a	-999	8	[0, 0, 0]	n/a	FR1	0	R1325C
1226.932	9.12	1297935	REC_START	n/a	n/a	n/a	-999	8	[0, 0, 0]	n/a	FR1	0	R1325C
1236.052	0.966	1307054	REC_WORD	0.966	n/a	TREE	7	8	[0, 0, 0]	n/a	FR1	0	R1325C
1237.018	6.86	1308020	REC_WORD	6.86	n/a	GOAT	1	8	[0, 0, 0]	n/a	FR1	0	R1325C
1243.878	8.408	1314880	REC_WORD	8.408	n/a	EEL	8	8	[0, 0, 0]	n/a	FR1	0	R1325C
1252.286	4.657	1323287	REC_WORD	4.657	n/a	SKY	-999	8	[0, 0, 0]	n/a	FR1	0	R1325C
1256.943	5.646	1327944	REC_END	n/a	n/a	n/a	-999	8	[0, 0, 0]	n/a	FR1	0	R1325C
1262.589	0.5	1333589	TRIAL	n/a	n/a	n/a	-999	9	[0, 0, 0]	n/a	FR1	0	R1325C
1263.089	10.428	1334089	COUNTDOWN_START	n/a	n/a	n/a	-999	9	[0, 0, 0]	n/a	FR1	0	R1325C
1273.517	0.007	1344517	COUNTDOWN_END	n/a	n/a	n/a	-999	9	[0, 0, 0]	n/a	FR1	0	R1325C
1273.524	1.616	1344524	ORIENT	n/a	n/a	n/a	-999	9	[0, 0, 0]	n/a	FR1	0	R1325C
1275.14	2.134	1346140	ORIENT_OFF	n/a	n/a	n/a	-999	9	[0, 0, 0]	n/a	FR1	0	R1325C
1277.274	1.618	1348273	WORD	n/a	wordpools/wordpool_EN.txt	FILM	1	9	[0, 0, 0]	n/a	FR1	0	R1325C
1278.892	0.9	1349891	WORD_OFF	n/a	n/a	FILM	1	9	[0, 0, 0]	n/a	FR1	0	R1325C
1279.792	1.617	1350791	WORD	n/a	wordpools/wordpool_EN.txt	NEST	2	9	[0, 0, 0]	n/a	FR1	0	R1325C
1281.409	1.017	1352408	WORD_OFF	n/a	n/a	NEST	2	9	[0, 0, 0]	n/a	FR1	0	R1325C
1282.426	1.617	1353425	WORD	n/a	wordpools/wordpool_EN.txt	MOTH	3	9	[0, 0, 0]	n/a	FR1	0	R1325C
1284.043	0.783	1355042	WORD_OFF	n/a	n/a	MOTH	3	9	[0, 0, 0]	n/a	FR1	0	R1325C
1284.826	1.617	1355825	WORD	n/a	wordpools/wordpool_EN.txt	SHRIMP	4	9	[0, 0, 0]	n/a	FR1	0	R1325C
1286.443	0.866	1357442	WORD_OFF	n/a	n/a	SHRIMP	4	9	[0, 0, 0]	n/a	FR1	0	R1325C
1287.309	1.601	1358308	WORD	n/a	wordpools/wordpool_EN.txt	CHALK	5	9	[0, 0, 0]	n/a	FR1	0	R1325C
1288.91	0.784	1359909	WORD_OFF	n/a	n/a	CHALK	5	9	[0, 0, 0]	n/a	FR1	0	R1325C
1289.694	1.616	1360693	WORD	n/a	wordpools/wordpool_EN.txt	ROCK	6	9	[0, 0, 0]	n/a	FR1	0	R1325C
1291.31	0.801	1362309	WORD_OFF	n/a	n/a	ROCK	6	9	[0, 0, 0]	n/a	FR1	0	R1325C
1292.111	1.617	1363109	WORD	n/a	wordpools/wordpool_EN.txt	GOLD	7	9	[0, 0, 0]	n/a	FR1	0	R1325C
1293.728	0.833	1364726	WORD_OFF	n/a	n/a	GOLD	7	9	[0, 0, 0]	n/a	FR1	0	R1325C
1294.561	1.616	1365559	WORD	n/a	wordpools/wordpool_EN.txt	CORD	8	9	[0, 0, 0]	n/a	FR1	0	R1325C
1296.177	0.918	1367175	WORD_OFF	n/a	n/a	CORD	8	9	[0, 0, 0]	n/a	FR1	0	R1325C
1297.095	1.617	1368093	WORD	n/a	wordpools/wordpool_EN.txt	BED	9	9	[0, 0, 0]	n/a	FR1	0	R1325C
1298.712	1.0	1369710	WORD_OFF	n/a	n/a	BED	9	9	[0, 0, 0]	n/a	FR1	0	R1325C
1299.712	1.616	1370710	WORD	n/a	wordpools/wordpool_EN.txt	SLUSH	10	9	[0, 0, 0]	n/a	FR1	0	R1325C
1301.328	0.984	1372326	WORD_OFF	n/a	n/a	SLUSH	10	9	[0, 0, 0]	n/a	FR1	0	R1325C
1302.312	1.618	1373310	WORD	n/a	wordpools/wordpool_EN.txt	TRASH	11	9	[0, 0, 0]	n/a	FR1	0	R1325C
1303.93	0.95	1374928	WORD_OFF	n/a	n/a	TRASH	11	9	[0, 0, 0]	n/a	FR1	0	R1325C
1304.88	1.617	1375878	WORD	n/a	wordpools/wordpool_EN.txt	POND	12	9	[0, 0, 0]	n/a	FR1	0	R1325C
1306.497	0.0	1377494	WORD_OFF	n/a	n/a	POND	12	9	[0, 0, 0]	n/a	FR1	0	R1325C
1306.497	0.0	1377494	DISTRACT_START	n/a	n/a	n/a	-999	9	[0, 0, 0]	n/a	FR1	0	R1325C
1306.497	0.017	1377494	START	n/a	n/a	n/a	-999	9	[-999, -999, -999]	n/a	FR1	0	R1325C
1306.514	13.602	1377511	PROB	13.602	n/a	n/a	-999	9	[3, 9, 4]	13	FR1	0	R1325C
1320.116	4.834	1391113	PROB	4.834	n/a	n/a	-999	9	[1, 7, 2]	10	FR1	0	R1325C
1324.95	5.933	1395946	PROB	5.933	n/a	n/a	-999	9	[9, 5, 1]	15	FR1	0	R1325C
1330.883	0.019	1401879	STOP	n/a	n/a	n/a	-999	9	[-999, -999, -999]	n/a	FR1	0	R1325C
1330.902	0.683	1401898	DISTRACT_END	n/a	n/a	n/a	-999	9	[0, 0, 0]	n/a	FR1	0	R1325C
1331.585	0.517	1402581	RETRIEVAL_ORIENT	n/a	n/a	n/a	-999	9	[0, 0, 0]	n/a	FR1	0	R1325C
1332.102	10.224	1403098	REC_START	n/a	n/a	n/a	-999	9	[0, 0, 0]	n/a	FR1	0	R1325C
1342.326	3.883	1413321	REC_WORD	3.883	n/a	MOON	-999	9	[0, 0, 0]	n/a	FR1	0	R1325C
1346.209	5.584	1417204	REC_WORD	5.584	n/a	STORE	-999	9	[0, 0, 0]	n/a	FR1	0	R1325C
1351.793	8.187	1422787	REC_WORD	8.187	n/a	MOTH	3	9	[0, 0, 0]	n/a	FR1	0	R1325C
1359.98	2.134	1430974	REC_WORD	2.134	n/a	SKY	-999	9	[0, 0, 0]	n/a	FR1	0	R1325C
1362.114	14.095	1433108	REC_END	n/a	n/a	n/a	-999	9	[0, 0, 0]	n/a	FR1	0	R1325C
1376.209	0.5	1447202	TRIAL	n/a	n/a	n/a	-999	10	[0, 0, 0]	n/a	FR1	0	R1325C
1376.709	10.428	1447702	COUNTDOWN_START	n/a	n/a	n/a	-999	10	[0, 0, 0]	n/a	FR1	0	R1325C
1387.137	0.007	1458129	COUNTDOWN_END	n/a	n/a	n/a	-999	10	[0, 0, 0]	n/a	FR1	0	R1325C
1387.144	1.618	1458136	ORIENT	n/a	n/a	n/a	-999	10	[0, 0, 0]	n/a	FR1	0	R1325C
1388.762	2.284	1459754	ORIENT_OFF	n/a	n/a	n/a	-999	10	[0, 0, 0]	n/a	FR1	0	R1325C
1391.046	1.617	1462038	WORD	n/a	wordpools/wordpool_EN.txt	SHEEP	1	10	[0, 0, 0]	n/a	FR1	0	R1325C
1392.663	0.784	1463655	WORD_OFF	n/a	n/a	SHEEP	1	10	[0, 0, 0]	n/a	FR1	0	R1325C
1393.447	1.617	1464439	WORD	n/a	wordpools/wordpool_EN.txt	NET	2	10	[0, 0, 0]	n/a	FR1	0	R1325C
1395.064	0.866	1466055	WORD_OFF	n/a	n/a	NET	2	10	[0, 0, 0]	n/a	FR1	0	R1325C
1395.93	1.617	1466921	WORD	n/a	wordpools/wordpool_EN.txt	LEAF	3	10	[0, 0, 0]	n/a	FR1	0	R1325C
1397.547	0.901	1468538	WORD_OFF	n/a	n/a	LEAF	3	10	[0, 0, 0]	n/a	FR1	0	R1325C
1398.448	1.617	1469439	WORD	n/a	wordpools/wordpool_EN.txt	BRANCH	4	10	[0, 0, 0]	n/a	FR1	0	R1325C
1400.065	0.883	1471056	WORD_OFF	n/a	n/a	BRANCH	4	10	[0, 0, 0]	n/a	FR1	0	R1325C
1400.948	1.617	1471939	WORD	n/a	wordpools/wordpool_EN.txt	BREAD	5	10	[0, 0, 0]	n/a	FR1	0	R1325C
1402.565	1.0	1473556	WORD_OFF	n/a	n/a	BREAD	5	10	[0, 0, 0]	n/a	FR1	0	R1325C
1403.565	1.616	1474556	WORD	n/a	wordpools/wordpool_EN.txt	JAIL	6	10	[0, 0, 0]	n/a	FR1	0	R1325C
1405.181	0.868	1476172	WORD_OFF	n/a	n/a	JAIL	6	10	[0, 0, 0]	n/a	FR1	0	R1325C
1406.049	1.617	1477040	WORD	n/a	wordpools/wordpool_EN.txt	ROOM	7	10	[0, 0, 0]	n/a	FR1	0	R1325C
1407.666	0.883	1478657	WORD_OFF	n/a	n/a	ROOM	7	10	[0, 0, 0]	n/a	FR1	0	R1325C
1408.549	1.616	1479540	WORD	n/a	wordpools/wordpool_EN.txt	GRAPE	8	10	[0, 0, 0]	n/a	FR1	0	R1325C
1410.165	0.768	1481155	WORD_OFF	n/a	n/a	GRAPE	8	10	[0, 0, 0]	n/a	FR1	0	R1325C
1410.933	1.617	1481923	WORD	n/a	wordpools/wordpool_EN.txt	THREAD	9	10	[0, 0, 0]	n/a	FR1	0	R1325C
1412.55	1.017	1483540	WORD_OFF	n/a	n/a	THREAD	9	10	[0, 0, 0]	n/a	FR1	0	R1325C
1413.567	1.616	1484557	WORD	n/a	wordpools/wordpool_EN.txt	GEESE	10	10	[0, 0, 0]	n/a	FR1	0	R1325C
1415.183	0.967	1486173	WORD_OFF	n/a	n/a	GEESE	10	10	[0, 0, 0]	n/a	FR1	0	R1325C
1416.15	1.618	1487140	WORD	n/a	wordpools/wordpool_EN.txt	BEACH	11	10	[0, 0, 0]	n/a	FR1	0	R1325C
1417.768	1.0	1488758	WORD_OFF	n/a	n/a	BEACH	11	10	[0, 0, 0]	n/a	FR1	0	R1325C
1418.768	1.616	1489758	WORD	n/a	wordpools/wordpool_EN.txt	FLUTE	12	10	[0, 0, 0]	n/a	FR1	0	R1325C
1420.384	0.0	1491374	WORD_OFF	n/a	n/a	FLUTE	12	10	[0, 0, 0]	n/a	FR1	0	R1325C
1420.384	0.001	1491374	DISTRACT_START	n/a	n/a	n/a	-999	10	[0, 0, 0]	n/a	FR1	0	R1325C
1420.385	0.017	1491375	START	n/a	n/a	n/a	-999	10	[-999, -999, -999]	n/a	FR1	0	R1325C
1420.402	6.933	1491392	PROB	6.933	n/a	n/a	-999	10	[1, 7, 2]	10	FR1	0	R1325C
1427.335	8.969	1498324	PROB	8.969	n/a	n/a	-999	10	[4, 5, 6]	15	FR1	0	R1325C
1436.304	8.491	1507293	PROB	8.491	n/a	n/a	-999	10	[3, 2, 6]	12	FR1	0	R1325C
1444.795	0.011	1515783	STOP	n/a	n/a	n/a	-999	10	[-999, -999, -999]	n/a	FR1	0	R1325C
1444.806	0.516	1515794	DISTRACT_END	n/a	n/a	n/a	-999	10	[0, 0, 0]	n/a	FR1	0	R1325C
1445.322	0.519	1516310	RETRIEVAL_ORIENT	n/a	n/a	n/a	-999	10	[0, 0, 0]	n/a	FR1	0	R1325C
1445.841	19.121	1516829	REC_START	n/a	n/a	n/a	-999	10	[0, 0, 0]	n/a	FR1	0	R1325C
1464.962	10.89	1535949	REC_WORD	10.89	n/a	FLUTE	12	10	[0, 0, 0]	n/a	FR1	0	R1325C
1475.852	6.828	1546838	REC_END	n/a	n/a	n/a	-999	10	[0, 0, 0]	n/a	FR1	0	R1325C
1482.68	0.5	1553665	TRIAL	n/a	n/a	n/a	-999	11	[0, 0, 0]	n/a	FR1	0	R1325C
1483.18	10.428	1554165	COUNTDOWN_START	n/a	n/a	n/a	-999	11	[0, 0, 0]	n/a	FR1	0	R1325C
1493.608	0.008	1564593	COUNTDOWN_END	n/a	n/a	n/a	-999	11	[0, 0, 0]	n/a	FR1	0	R1325C
1493.616	1.615	1564601	ORIENT	n/a	n/a	n/a	-999	11	[0, 0, 0]	n/a	FR1	0	R1325C
1495.231	1.984	1566216	ORIENT_OFF	n/a	n/a	n/a	-999	11	[0, 0, 0]	n/a	FR1	0	R1325C
1497.215	1.618	1568199	WORD	n/a	wordpools/wordpool_EN.txt	HEN	1	11	[0, 0, 0]	n/a	FR1	0	R1325C
1498.833	0.967	1569817	WORD_OFF	n/a	n/a	HEN	1	11	[0, 0, 0]	n/a	FR1	0	R1325C
1499.8	1.617	1570784	WORD	n/a	wordpools/wordpool_EN.txt	SLIME	2	11	[0, 0, 0]	n/a	FR1	0	R1325C
1501.417	0.816	1572401	WORD_OFF	n/a	n/a	SLIME	2	11	[0, 0, 0]	n/a	FR1	0	R1325C
1502.233	1.601	1573217	WORD	n/a	wordpools/wordpool_EN.txt	FARM	3	11	[0, 0, 0]	n/a	FR1	0	R1325C
1503.834	0.984	1574818	WORD_OFF	n/a	n/a	FARM	3	11	[0, 0, 0]	n/a	FR1	0	R1325C
1504.818	1.617	1575802	WORD	n/a	wordpools/wordpool_EN.txt	GATE	4	11	[0, 0, 0]	n/a	FR1	0	R1325C
1506.435	0.915	1577419	WORD_OFF	n/a	n/a	GATE	4	11	[0, 0, 0]	n/a	FR1	0	R1325C
1507.35	1.618	1578334	WORD	n/a	wordpools/wordpool_EN.txt	TRAY	5	11	[0, 0, 0]	n/a	FR1	0	R1325C
1508.968	0.984	1579952	WORD_OFF	n/a	n/a	TRAY	5	11	[0, 0, 0]	n/a	FR1	0	R1325C
1509.952	1.617	1580936	WORD	n/a	wordpools/wordpool_EN.txt	MOUTH	6	11	[0, 0, 0]	n/a	FR1	0	R1325C
1511.569	0.917	1582552	WORD_OFF	n/a	n/a	MOUTH	6	11	[0, 0, 0]	n/a	FR1	0	R1325C
1512.486	1.617	1583469	WORD	n/a	wordpools/wordpool_EN.txt	MUD	7	11	[0, 0, 0]	n/a	FR1	0	R1325C
1514.103	0.9	1585086	WORD_OFF	n/a	n/a	MUD	7	11	[0, 0, 0]	n/a	FR1	0	R1325C
1515.003	1.617	1585986	WORD	n/a	wordpools/wordpool_EN.txt	BRUSH	8	11	[0, 0, 0]	n/a	FR1	0	R1325C
1516.62	0.867	1587603	WORD_OFF	n/a	n/a	BRUSH	8	11	[0, 0, 0]	n/a	FR1	0	R1325C
1517.487	1.617	1588470	WORD	n/a	wordpools/wordpool_EN.txt	ROAD	9	11	[0, 0, 0]	n/a	FR1	0	R1325C
1519.104	1.0	1590087	WORD_OFF	n/a	n/a	ROAD	9	11	[0, 0, 0]	n/a	FR1	0	R1325C
1520.104	1.617	1591087	WORD	n/a	wordpools/wordpool_EN.txt	RUG	10	11	[0, 0, 0]	n/a	FR1	0	R1325C
1521.721	0.933	1592704	WORD_OFF	n/a	n/a	RUG	10	11	[0, 0, 0]	n/a	FR1	0	R1325C
1522.654	1.616	1593637	WORD	n/a	wordpools/wordpool_EN.txt	WHEEL	11	11	[0, 0, 0]	n/a	FR1	0	R1325C
1524.27	0.835	1595253	WORD_OFF	n/a	n/a	WHEEL	11	11	[0, 0, 0]	n/a	FR1	0	R1325C
1525.105	1.617	1596088	WORD	n/a	wordpools/wordpool_EN.txt	FOOT	12	11	[0, 0, 0]	n/a	FR1	0	R1325C
1526.722	0.0	1597704	DISTRACT_START	n/a	n/a	n/a	-999	11	[0, 0, 0]	n/a	FR1	0	R1325C
1526.722	0.0	1597704	WORD_OFF	n/a	n/a	FOOT	12	11	[0, 0, 0]	n/a	FR1	0	R1325C
1526.722	0.016	1597704	START	n/a	n/a	n/a	-999	11	[-999, -999, -999]	n/a	FR1	0	R1325C
1526.738	11.669	1597720	PROB	11.669	n/a	n/a	-999	11	[6, 6, 7]	17	FR1	0	R1325C
1538.407	7.452	1609389	PROB	7.452	n/a	n/a	-999	11	[3, 4, 6]	13	FR1	0	R1325C
1545.859	7.759	1616840	PROB	7.759	n/a	n/a	-999	11	[4, 9, 5]	17	FR1	0	R1325C
1553.618	0.009	1624599	STOP	n/a	n/a	n/a	-999	11	[-999, -999, -999]	n/a	FR1	0	R1325C
1553.627	0.615	1624608	DISTRACT_END	n/a	n/a	n/a	-999	11	[0, 0, 0]	n/a	FR1	0	R1325C
1554.242	0.519	1625223	RETRIEVAL_ORIENT	n/a	n/a	n/a	-999	11	[0, 0, 0]	n/a	FR1	0	R1325C
1554.761	10.186	1625742	REC_START	n/a	n/a	n/a	-999	11	[0, 0, 0]	n/a	FR1	0	R1325C
1564.947	3.235	1635927	REC_WORD	3.235	n/a	WHEEL	11	11	[0, 0, 0]	n/a	FR1	0	R1325C
1568.182	4.865	1639162	REC_WORD	4.865	n/a	BRUSH	8	11	[0, 0, 0]	n/a	FR1	0	R1325C
1573.047	11.144	1644026	REC_WORD	11.144	n/a	FLUTE	-999	11	[0, 0, 0]	n/a	FR1	0	R1325C
1584.191	0.579	1655170	REC_WORD	0.579	n/a	WOOD	-999	11	[0, 0, 0]	n/a	FR1	0	R1325C
1584.77	6.081	1655748	REC_END	n/a	n/a	n/a	-999	11	[0, 0, 0]	n/a	FR1	0	R1325C
1590.851	0.5	1661829	TRIAL	n/a	n/a	n/a	-999	12	[0, 0, 0]	n/a	FR1	0	R1325C
1591.351	10.428	1662329	COUNTDOWN_START	n/a	n/a	n/a	-999	12	[0, 0, 0]	n/a	FR1	0	R1325C
1601.779	0.007	1672756	COUNTDOWN_END	n/a	n/a	n/a	-999	12	[0, 0, 0]	n/a	FR1	0	R1325C
1601.786	1.617	1672763	ORIENT	n/a	n/a	n/a	-999	12	[0, 0, 0]	n/a	FR1	0	R1325C
1603.403	2.167	1674380	ORIENT_OFF	n/a	n/a	n/a	-999	12	[0, 0, 0]	n/a	FR1	0	R1325C
1605.57	1.616	1676547	WORD	n/a	wordpools/wordpool_EN.txt	SQUARE	1	12	[0, 0, 0]	n/a	FR1	0	R1325C
1607.186	1.0	1678163	WORD_OFF	n/a	n/a	SQUARE	1	12	[0, 0, 0]	n/a	FR1	0	R1325C
1608.186	1.618	1679163	WORD	n/a	wordpools/wordpool_EN.txt	LIP	2	12	[0, 0, 0]	n/a	FR1	0	R1325C
1609.804	0.917	1680781	WORD_OFF	n/a	n/a	LIP	2	12	[0, 0, 0]	n/a	FR1	0	R1325C
1610.721	1.616	1681698	WORD	n/a	wordpools/wordpool_EN.txt	PIN	3	12	[0, 0, 0]	n/a	FR1	0	R1325C
1612.337	0.9	1683314	WORD_OFF	n/a	n/a	PIN	3	12	[0, 0, 0]	n/a	FR1	0	R1325C
1613.237	1.618	1684214	WORD	n/a	wordpools/wordpool_EN.txt	SIGN	4	12	[0, 0, 0]	n/a	FR1	0	R1325C
1614.855	0.834	1685831	WORD_OFF	n/a	n/a	SIGN	4	12	[0, 0, 0]	n/a	FR1	0	R1325C
1615.689	1.616	1686665	WORD	n/a	wordpools/wordpool_EN.txt	BOMB	5	12	[0, 0, 0]	n/a	FR1	0	R1325C
1617.305	0.933	1688281	WORD_OFF	n/a	n/a	BOMB	5	12	[0, 0, 0]	n/a	FR1	0	R1325C
1618.238	1.601	1689214	WORD	n/a	wordpools/wordpool_EN.txt	SOAP	6	12	[0, 0, 0]	n/a	FR1	0	R1325C
1619.839	0.901	1690815	WORD_OFF	n/a	n/a	SOAP	6	12	[0, 0, 0]	n/a	FR1	0	R1325C
1620.74	1.616	1691716	WORD	n/a	wordpools/wordpool_EN.txt	STORM	7	12	[0, 0, 0]	n/a	FR1	0	R1325C
1622.356	0.95	1693332	WORD_OFF	n/a	n/a	STORM	7	12	[0, 0, 0]	n/a	FR1	0	R1325C
1623.306	1.618	1694282	WORD	n/a	wordpools/wordpool_EN.txt	ARK	8	12	[0, 0, 0]	n/a	FR1	0	R1325C
1624.924	0.783	1695900	WORD_OFF	n/a	n/a	ARK	8	12	[0, 0, 0]	n/a	FR1	0	R1325C
1625.707	1.616	1696683	WORD	n/a	wordpools/wordpool_EN.txt	MOUSE	9	12	[0, 0, 0]	n/a	FR1	0	R1325C
1627.323	0.917	1698299	WORD_OFF	n/a	n/a	MOUSE	9	12	[0, 0, 0]	n/a	FR1	0	R1325C
1628.24	1.618	1699216	WORD	n/a	wordpools/wordpool_EN.txt	BAG	10	12	[0, 0, 0]	n/a	FR1	0	R1325C
1629.858	0.883	1700833	WORD_OFF	n/a	n/a	BAG	10	12	[0, 0, 0]	n/a	FR1	0	R1325C
1630.741	1.616	1701716	WORD	n/a	wordpools/wordpool_EN.txt	FOAM	11	12	[0, 0, 0]	n/a	FR1	0	R1325C
1632.357	0.851	1703332	WORD_OFF	n/a	n/a	FOAM	11	12	[0, 0, 0]	n/a	FR1	0	R1325C
1633.208	1.618	1704183	WORD	n/a	wordpools/wordpool_EN.txt	LAWN	12	12	[0, 0, 0]	n/a	FR1	0	R1325C
1634.826	0.0	1705801	WORD_OFF	n/a	n/a	LAWN	12	12	[0, 0, 0]	n/a	FR1	0	R1325C
1634.826	0.0	1705801	DISTRACT_START	n/a	n/a	n/a	-999	12	[0, 0, 0]	n/a	FR1	0	R1325C
1634.826	0.016	1705801	START	n/a	n/a	n/a	-999	12	[-999, -999, -999]	n/a	FR1	0	R1325C
1634.842	7.451	1705817	PROB	7.451	n/a	n/a	-999	12	[7, 1, 4]	12	FR1	0	R1325C
1642.293	6.368	1713268	PROB	6.368	n/a	n/a	-999	12	[6, 5, 5]	16	FR1	0	R1325C
1648.661	8.523	1719635	PROB	8.523	n/a	n/a	-999	12	[2, 8, 5]	15	FR1	0	R1325C
1657.184	0.011	1728158	STOP	n/a	n/a	n/a	-999	12	[-999, -999, -999]	n/a	FR1	0	R1325C
1657.195	0.635	1728169	DISTRACT_END	n/a	n/a	n/a	-999	12	[0, 0, 0]	n/a	FR1	0	R1325C
1657.83	0.516	1728803	RETRIEVAL_ORIENT	n/a	n/a	n/a	-999	12	[0, 0, 0]	n/a	FR1	0	R1325C
1658.346	4.019	1729319	REC_START	n/a	n/a	n/a	-999	12	[0, 0, 0]	n/a	FR1	0	R1325C
1662.365	7.572	1733338	REC_WORD_VV	7.572	n/a	<>	-999	12	[0, 0, 0]	n/a	FR1	0	R1325C
1669.937	17.004	1740910	REC_WORD	17.004	n/a	STEM	-999	12	[0, 0, 0]	n/a	FR1	0	R1325C
1686.941	1.416	1757912	REC_WORD_VV	1.416	n/a	<>	-999	12	[0, 0, 0]	n/a	FR1	0	R1325C
1688.357	6.13	1759328	REC_END	n/a	n/a	n/a	-999	12	[0, 0, 0]	n/a	FR1	0	R1325C
1694.487	0.5	1765458	TRIAL	n/a	n/a	n/a	-999	13	[0, 0, 0]	n/a	FR1	0	R1325C
1694.987	10.428	1765958	COUNTDOWN_START	n/a	n/a	n/a	-999	13	[0, 0, 0]	n/a	FR1	0	R1325C
1705.415	0.007	1776385	COUNTDOWN_END	n/a	n/a	n/a	-999	13	[0, 0, 0]	n/a	FR1	0	R1325C
1705.422	1.617	1776392	ORIENT	n/a	n/a	n/a	-999	13	[0, 0, 0]	n/a	FR1	0	R1325C
1707.039	2.283	1778009	ORIENT_OFF	n/a	n/a	n/a	-999	13	[0, 0, 0]	n/a	FR1	0	R1325C
1709.322	1.618	1780292	WORD	n/a	wordpools/wordpool_EN.txt	BLUSH	1	13	[0, 0, 0]	n/a	FR1	0	R1325C
1710.94	0.933	1781910	WORD_OFF	n/a	n/a	BLUSH	1	13	[0, 0, 0]	n/a	FR1	0	R1325C
1711.873	1.617	1782843	WORD	n/a	wordpools/wordpool_EN.txt	HILL	2	13	[0, 0, 0]	n/a	FR1	0	R1325C
1713.49	0.816	1784460	WORD_OFF	n/a	n/a	HILL	2	13	[0, 0, 0]	n/a	FR1	0	R1325C
1714.306	1.618	1785276	WORD	n/a	wordpools/wordpool_EN.txt	WEB	3	13	[0, 0, 0]	n/a	FR1	0	R1325C
1715.924	0.85	1786894	WORD_OFF	n/a	n/a	WEB	3	13	[0, 0, 0]	n/a	FR1	0	R1325C
1716.774	1.616	1787743	WORD	n/a	wordpools/wordpool_EN.txt	SEA	4	13	[0, 0, 0]	n/a	FR1	0	R1325C
1718.39	0.95	1789359	WORD_OFF	n/a	n/a	SEA	4	13	[0, 0, 0]	n/a	FR1	0	R1325C
1719.34	1.618	1790309	WORD	n/a	wordpools/wordpool_EN.txt	SNAIL	5	13	[0, 0, 0]	n/a	FR1	0	R1325C
1720.958	0.884	1791927	WORD_OFF	n/a	n/a	SNAIL	5	13	[0, 0, 0]	n/a	FR1	0	R1325C
1721.842	1.617	1792811	WORD	n/a	wordpools/wordpool_EN.txt	CRANE	6	13	[0, 0, 0]	n/a	FR1	0	R1325C
1723.459	1.0	1794428	WORD_OFF	n/a	n/a	CRANE	6	13	[0, 0, 0]	n/a	FR1	0	R1325C
1724.459	1.617	1795428	WORD	n/a	wordpools/wordpool_EN.txt	PARK	7	13	[0, 0, 0]	n/a	FR1	0	R1325C
1726.076	0.884	1797045	WORD_OFF	n/a	n/a	PARK	7	13	[0, 0, 0]	n/a	FR1	0	R1325C
1726.96	1.616	1797929	WORD	n/a	wordpools/wordpool_EN.txt	HEART	8	13	[0, 0, 0]	n/a	FR1	0	R1325C
1728.576	0.884	1799545	WORD_OFF	n/a	n/a	HEART	8	13	[0, 0, 0]	n/a	FR1	0	R1325C
1729.46	1.617	1800429	WORD	n/a	wordpools/wordpool_EN.txt	BANK	9	13	[0, 0, 0]	n/a	FR1	0	R1325C
1731.077	0.917	1802045	WORD_OFF	n/a	n/a	BANK	9	13	[0, 0, 0]	n/a	FR1	0	R1325C
1731.994	1.617	1802962	WORD	n/a	wordpools/wordpool_EN.txt	BALL	10	13	[0, 0, 0]	n/a	FR1	0	R1325C
1733.611	0.983	1804579	WORD_OFF	n/a	n/a	BALL	10	13	[0, 0, 0]	n/a	FR1	0	R1325C
1734.594	1.616	1805562	WORD	n/a	wordpools/wordpool_EN.txt	FOX	11	13	[0, 0, 0]	n/a	FR1	0	R1325C
1736.21	1.0	1807178	WORD_OFF	n/a	n/a	FOX	11	13	[0, 0, 0]	n/a	FR1	0	R1325C
1737.21	1.602	1808178	WORD	n/a	wordpools/wordpool_EN.txt	PEARL	12	13	[0, 0, 0]	n/a	FR1	0	R1325C
1738.812	0.0	1809780	WORD_OFF	n/a	n/a	PEARL	12	13	[0, 0, 0]	n/a	FR1	0	R1325C
1738.812	0.0	1809780	DISTRACT_START	n/a	n/a	n/a	-999	13	[0, 0, 0]	n/a	FR1	0	R1325C
1738.812	0.016	1809780	START	n/a	n/a	n/a	-999	13	[-999, -999, -999]	n/a	FR1	0	R1325C
1738.828	9.252	1809796	PROB	9.252	n/a	n/a	-999	13	[6, 8, 4]	18	FR1	0	R1325C
1748.08	5.868	1819047	PROB	5.868	n/a	n/a	-999	13	[4, 2, 6]	12	FR1	0	R1325C
1753.948	6.342	1824915	PROB	6.342	n/a	n/a	-999	13	[2, 5, 1]	8	FR1	0	R1325C
1760.29	0.008	1831256	STOP	n/a	n/a	n/a	-999	13	[-999, -999, -999]	n/a	FR1	0	R1325C
1760.298	0.668	1831264	DISTRACT_END	n/a	n/a	n/a	-999	13	[0, 0, 0]	n/a	FR1	0	R1325C
1760.966	0.517	1831932	RETRIEVAL_ORIENT	n/a	n/a	n/a	-999	13	[0, 0, 0]	n/a	FR1	0	R1325C
1761.483	20.513	1832449	REC_START	n/a	n/a	n/a	-999	13	[0, 0, 0]	n/a	FR1	0	R1325C
1781.996	9.496	1852961	REC_WORD	9.496	n/a	PARK	7	13	[0, 0, 0]	n/a	FR1	0	R1325C
1791.492	264598.917	1862456	REC_END	n/a	n/a	n/a	-999	13	[0, 0, 0]	n/a	FR1	0	R1325C
266390.409	0.0	266443289	SESSION_SKIPPED	n/a	n/a	n/a	-999	13	[0, 0, 0]	n/a	FR1	0	R1325C
