onset	duration	sample	trial_type	response_time	stim_file	item_name	serialpos	list	test	answer	experiment	session	subject
0.0	0.0	621679	INSTRUCT_START	n/a	n/a	n/a	-999	-999	[0, 0, 0]	n/a	FR1	3	R1236J
0.0	11.04	621679	INSTRUCT_END	n/a	n/a	n/a	-999	-999	[0, 0, 0]	n/a	FR1	3	R1236J
11.04	0.0	632719	SESS_START	n/a	n/a	n/a	-999	-999	[0, 0, 0]	n/a	FR1	3	R1236J
11.04	24.501	632719	MIC_TEST	n/a	n/a	n/a	-999	-999	[0, 0, 0]	n/a	FR1	3	R1236J
35.541	18.816	657220	PRACTICE_TRIAL	n/a	n/a	n/a	-999	-1	[0, 0, 0]	n/a	FR1	3	R1236J
54.357	10.428	676036	COUNTDOWN_START	n/a	n/a	n/a	-999	-1	[0, 0, 0]	n/a	FR1	3	R1236J
64.785	0.007	686464	COUNTDOWN_END	n/a	n/a	n/a	-999	-1	[0, 0, 0]	n/a	FR1	3	R1236J
64.792	1.617	686471	PRACTICE_ORIENT	n/a	n/a	n/a	-999	-1	[0, 0, 0]	n/a	FR1	3	R1236J
66.409	2.25	688088	PRACTICE_ORIENT_OFF	n/a	n/a	n/a	-999	-1	[0, 0, 0]	n/a	FR1	3	R1236J
68.659	1.616	690338	PRACTICE_WORD	n/a	n/a	CHEST	1	-1	[0, 0, 0]	n/a	FR1	3	R1236J
70.275	0.933	691954	PRACTICE_WORD_OFF	n/a	n/a	CHEST	-999	-1	[0, 0, 0]	n/a	FR1	3	R1236J
71.208	1.618	692887	PRACTICE_WORD	n/a	n/a	IRON	2	-1	[0, 0, 0]	n/a	FR1	3	R1236J
72.826	0.933	694505	PRACTICE_WORD_OFF	n/a	n/a	IRON	-999	-1	[0, 0, 0]	n/a	FR1	3	R1236J
73.759	1.616	695438	PRACTICE_WORD	n/a	n/a	RING	3	-1	[0, 0, 0]	n/a	FR1	3	R1236J
75.375	1.0	697054	PRACTICE_WORD_OFF	n/a	n/a	RING	-999	-1	[0, 0, 0]	n/a	FR1	3	R1236J
76.375	1.601	698054	PRACTICE_WORD	n/a	n/a	COTTON	4	-1	[0, 0, 0]	n/a	FR1	3	R1236J
77.976	0.95	699655	PRACTICE_WORD_OFF	n/a	n/a	COTTON	-999	-1	[0, 0, 0]	n/a	FR1	3	R1236J
78.926	1.617	700605	PRACTICE_WORD	n/a	n/a	TONGUE	5	-1	[0, 0, 0]	n/a	FR1	3	R1236J
80.543	0.833	702222	PRACTICE_WORD_OFF	n/a	n/a	TONGUE	-999	-1	[0, 0, 0]	n/a	FR1	3	R1236J
81.376	1.618	703055	PRACTICE_WORD	n/a	n/a	RHINO	6	-1	[0, 0, 0]	n/a	FR1	3	R1236J
82.994	0.9	704673	PRACTICE_WORD_OFF	n/a	n/a	RHINO	-999	-1	[0, 0, 0]	n/a	FR1	3	R1236J
83.894	1.617	705573	PRACTICE_WORD	n/a	n/a	ATTIC	7	-1	[0, 0, 0]	n/a	FR1	3	R1236J
85.511	0.95	707190	PRACTICE_WORD_OFF	n/a	n/a	ATTIC	-999	-1	[0, 0, 0]	n/a	FR1	3	R1236J
86.461	1.617	708140	PRACTICE_WORD	n/a	n/a	BEAM	8	-1	[0, 0, 0]	n/a	FR1	3	R1236J
88.078	0.967	709757	PRACTICE_WORD_OFF	n/a	n/a	BEAM	-999	-1	[0, 0, 0]	n/a	FR1	3	R1236J
89.045	1.617	710724	PRACTICE_WORD	n/a	n/a	FLOOD	9	-1	[0, 0, 0]	n/a	FR1	3	R1236J
90.662	0.85	712341	PRACTICE_WORD_OFF	n/a	n/a	FLOOD	-999	-1	[0, 0, 0]	n/a	FR1	3	R1236J
91.512	1.617	713191	PRACTICE_WORD	n/a	n/a	WATCH	10	-1	[0, 0, 0]	n/a	FR1	3	R1236J
93.129	0.916	714808	PRACTICE_WORD_OFF	n/a	n/a	WATCH	-999	-1	[0, 0, 0]	n/a	FR1	3	R1236J
94.045	1.617	715724	PRACTICE_WORD	n/a	n/a	WAGON	11	-1	[0, 0, 0]	n/a	FR1	3	R1236J
95.662	1.0	717341	PRACTICE_WORD_OFF	n/a	n/a	WAGON	-999	-1	[0, 0, 0]	n/a	FR1	3	R1236J
96.662	1.616	718341	PRACTICE_WORD	n/a	n/a	CAMEL	12	-1	[0, 0, 0]	n/a	FR1	3	R1236J
98.278	0.0	719957	PRACTICE_WORD_OFF	n/a	n/a	CAMEL	-999	-1	[0, 0, 0]	n/a	FR1	3	R1236J
98.278	0.001	719957	DISTRACT_START	n/a	n/a	n/a	-999	-1	[0, 0, 0]	n/a	FR1	3	R1236J
98.279	0.016	719958	START	n/a	n/a	n/a	-999	-1	[-999, -999, -999]	n/a	FR1	3	R1236J
98.295	3.351	719974	PROB	3.351	n/a	n/a	-999	-1	[4, 1, 9]	14	FR1	3	R1236J
101.646	3.549	723325	PROB	3.549	n/a	n/a	-999	-1	[2, 7, 6]	15	FR1	3	R1236J
105.195	5.502	726874	PROB	5.502	n/a	n/a	-999	-1	[3, 5, 8]	16	FR1	3	R1236J
110.697	4.251	732376	PROB	4.251	n/a	n/a	-999	-1	[7, 9, 7]	23	FR1	3	R1236J
114.948	3.133	736627	PROB	3.133	n/a	n/a	-999	-1	[7, 7, 1]	15	FR1	3	R1236J
118.081	4.866	739760	PROB	4.866	n/a	n/a	-999	-1	[5, 3, 1]	9	FR1	3	R1236J
122.947	0.019	744626	STOP	n/a	n/a	n/a	-999	-1	[-999, -999, -999]	n/a	FR1	3	R1236J
122.966	0.716	744645	DISTRACT_END	n/a	n/a	n/a	-999	-1	[0, 0, 0]	n/a	FR1	3	R1236J
123.682	0.523	745361	RETRIEVAL_ORIENT	n/a	n/a	n/a	-999	-1	[0, 0, 0]	n/a	FR1	3	R1236J
124.205	30.004	745884	PRACTICE_REC_START	n/a	n/a	n/a	-999	-1	[0, 0, 0]	n/a	FR1	3	R1236J
154.209	5.294	775888	PRACTICE_REC_END	n/a	n/a	n/a	-999	-1	[0, 0, 0]	n/a	FR1	3	R1236J
159.503	0.5	781182	TRIAL	n/a	n/a	n/a	-999	1	[0, 0, 0]	n/a	FR1	3	R1236J
160.003	10.428	781682	COUNTDOWN_START	n/a	n/a	n/a	-999	1	[0, 0, 0]	n/a	FR1	3	R1236J
170.431	0.007	792110	COUNTDOWN_END	n/a	n/a	n/a	-999	1	[0, 0, 0]	n/a	FR1	3	R1236J
170.438	1.617	792117	ORIENT	n/a	n/a	n/a	-999	1	[0, 0, 0]	n/a	FR1	3	R1236J
172.055	2.017	793734	ORIENT_OFF	n/a	n/a	n/a	-999	1	[0, 0, 0]	n/a	FR1	3	R1236J
174.072	1.617	795751	WORD	n/a	wordpools/wordpool_EN.txt	MOON	1	1	[0, 0, 0]	n/a	FR1	3	R1236J
175.689	0.983	797368	WORD_OFF	n/a	n/a	MOON	1	1	[0, 0, 0]	n/a	FR1	3	R1236J
176.672	1.616	798351	WORD	n/a	wordpools/wordpool_EN.txt	OWL	2	1	[0, 0, 0]	n/a	FR1	3	R1236J
178.288	0.784	799967	WORD_OFF	n/a	n/a	OWL	2	1	[0, 0, 0]	n/a	FR1	3	R1236J
179.072	1.618	800751	WORD	n/a	wordpools/wordpool_EN.txt	SEED	3	1	[0, 0, 0]	n/a	FR1	3	R1236J
180.69	0.8	802369	WORD_OFF	n/a	n/a	SEED	3	1	[0, 0, 0]	n/a	FR1	3	R1236J
181.49	1.617	803169	WORD	n/a	wordpools/wordpool_EN.txt	PLANE	4	1	[0, 0, 0]	n/a	FR1	3	R1236J
183.107	0.983	804786	WORD_OFF	n/a	n/a	PLANE	4	1	[0, 0, 0]	n/a	FR1	3	R1236J
184.09	1.617	805769	WORD	n/a	wordpools/wordpool_EN.txt	HOOF	5	1	[0, 0, 0]	n/a	FR1	3	R1236J
185.707	0.817	807386	WORD_OFF	n/a	n/a	HOOF	5	1	[0, 0, 0]	n/a	FR1	3	R1236J
186.524	1.616	808203	WORD	n/a	wordpools/wordpool_EN.txt	SKY	6	1	[0, 0, 0]	n/a	FR1	3	R1236J
188.14	0.85	809819	WORD_OFF	n/a	n/a	SKY	6	1	[0, 0, 0]	n/a	FR1	3	R1236J
188.99	1.617	810669	WORD	n/a	wordpools/wordpool_EN.txt	STORE	7	1	[0, 0, 0]	n/a	FR1	3	R1236J
190.607	0.984	812286	WORD_OFF	n/a	n/a	STORE	7	1	[0, 0, 0]	n/a	FR1	3	R1236J
191.591	1.616	813270	WORD	n/a	wordpools/wordpool_EN.txt	TANK	8	1	[0, 0, 0]	n/a	FR1	3	R1236J
193.207	0.901	814886	WORD_OFF	n/a	n/a	TANK	8	1	[0, 0, 0]	n/a	FR1	3	R1236J
194.108	1.617	815787	WORD	n/a	wordpools/wordpool_EN.txt	HOUSE	9	1	[0, 0, 0]	n/a	FR1	3	R1236J
195.725	0.85	817404	WORD_OFF	n/a	n/a	HOUSE	9	1	[0, 0, 0]	n/a	FR1	3	R1236J
196.575	1.616	818254	WORD	n/a	wordpools/wordpool_EN.txt	STEM	10	1	[0, 0, 0]	n/a	FR1	3	R1236J
198.191	0.767	819870	WORD_OFF	n/a	n/a	STEM	10	1	[0, 0, 0]	n/a	FR1	3	R1236J
198.958	1.617	820637	WORD	n/a	wordpools/wordpool_EN.txt	FOOD	11	1	[0, 0, 0]	n/a	FR1	3	R1236J
200.575	0.783	822254	WORD_OFF	n/a	n/a	FOOD	11	1	[0, 0, 0]	n/a	FR1	3	R1236J
201.358	1.618	823037	WORD	n/a	wordpools/wordpool_EN.txt	BARN	12	1	[0, 0, 0]	n/a	FR1	3	R1236J
202.976	0.0	824655	WORD_OFF	n/a	n/a	BARN	12	1	[0, 0, 0]	n/a	FR1	3	R1236J
202.976	0.001	824655	DISTRACT_START	n/a	n/a	n/a	-999	1	[0, 0, 0]	n/a	FR1	3	R1236J
202.977	0.015	824656	START	n/a	n/a	n/a	-999	1	[-999, -999, -999]	n/a	FR1	3	R1236J
202.992	3.367	824671	PROB	3.367	n/a	n/a	-999	1	[1, 6, 6]	13	FR1	3	R1236J
206.359	2.567	828038	PROB	2.567	n/a	n/a	-999	1	[7, 3, 4]	14	FR1	3	R1236J
208.926	4.568	830605	PROB	4.568	n/a	n/a	-999	1	[4, 6, 3]	13	FR1	3	R1236J
213.494	4.934	835173	PROB	4.934	n/a	n/a	-999	1	[5, 8, 4]	17	FR1	3	R1236J
218.428	3.167	840107	PROB	3.167	n/a	n/a	-999	1	[1, 7, 2]	10	FR1	3	R1236J
221.595	4.013	843274	PROB	4.013	n/a	n/a	-999	1	[2, 4, 2]	8	FR1	3	R1236J
225.608	0.021	847287	STOP	n/a	n/a	n/a	-999	1	[-999, -999, -999]	n/a	FR1	3	R1236J
225.629	0.682	847308	DISTRACT_END	n/a	n/a	n/a	-999	1	[0, 0, 0]	n/a	FR1	3	R1236J
226.311	0.518	847990	RETRIEVAL_ORIENT	n/a	n/a	n/a	-999	1	[0, 0, 0]	n/a	FR1	3	R1236J
226.829	1.104	848508	REC_START	n/a	n/a	n/a	-999	1	[0, 0, 0]	n/a	FR1	3	R1236J
227.933	2.053	849612	REC_WORD	2.053	n/a	SEED	3	1	[0, 0, 0]	n/a	FR1	3	R1236J
229.986	1.171	851665	REC_WORD	1.171	n/a	OWL	2	1	[0, 0, 0]	n/a	FR1	3	R1236J
231.157	3.446	852836	REC_WORD	3.446	n/a	MOON	1	1	[0, 0, 0]	n/a	FR1	3	R1236J
234.603	22.239	856282	REC_WORD	22.239	n/a	BARN	12	1	[0, 0, 0]	n/a	FR1	3	R1236J
256.842	4.558	878521	REC_END	n/a	n/a	n/a	-999	1	[0, 0, 0]	n/a	FR1	3	R1236J
261.4	0.5	883079	TRIAL	n/a	n/a	n/a	-999	2	[0, 0, 0]	n/a	FR1	3	R1236J
261.9	10.428	883579	COUNTDOWN_START	n/a	n/a	n/a	-999	2	[0, 0, 0]	n/a	FR1	3	R1236J
272.328	0.005	894007	COUNTDOWN_END	n/a	n/a	n/a	-999	2	[0, 0, 0]	n/a	FR1	3	R1236J
272.333	1.602	894012	ORIENT	n/a	n/a	n/a	-999	2	[0, 0, 0]	n/a	FR1	3	R1236J
273.935	2.232	895614	ORIENT_OFF	n/a	n/a	n/a	-999	2	[0, 0, 0]	n/a	FR1	3	R1236J
276.167	1.618	897846	WORD	n/a	wordpools/wordpool_EN.txt	PIN	1	2	[0, 0, 0]	n/a	FR1	3	R1236J
277.785	0.817	899464	WORD_OFF	n/a	n/a	PIN	1	2	[0, 0, 0]	n/a	FR1	3	R1236J
278.602	1.616	900281	WORD	n/a	wordpools/wordpool_EN.txt	STORM	2	2	[0, 0, 0]	n/a	FR1	3	R1236J
280.218	1.0	901897	WORD_OFF	n/a	n/a	STORM	2	2	[0, 0, 0]	n/a	FR1	3	R1236J
281.218	1.618	902897	WORD	n/a	wordpools/wordpool_EN.txt	LIP	3	2	[0, 0, 0]	n/a	FR1	3	R1236J
282.836	0.783	904515	WORD_OFF	n/a	n/a	LIP	3	2	[0, 0, 0]	n/a	FR1	3	R1236J
283.619	1.616	905298	WORD	n/a	wordpools/wordpool_EN.txt	MOUSE	4	2	[0, 0, 0]	n/a	FR1	3	R1236J
285.235	0.902	906914	WORD_OFF	n/a	n/a	MOUSE	4	2	[0, 0, 0]	n/a	FR1	3	R1236J
286.137	1.616	907816	WORD	n/a	wordpools/wordpool_EN.txt	LAWN	5	2	[0, 0, 0]	n/a	FR1	3	R1236J
287.753	0.834	909432	WORD_OFF	n/a	n/a	LAWN	5	2	[0, 0, 0]	n/a	FR1	3	R1236J
288.587	1.615	910266	WORD	n/a	wordpools/wordpool_EN.txt	BAG	6	2	[0, 0, 0]	n/a	FR1	3	R1236J
290.202	0.868	911881	WORD_OFF	n/a	n/a	BAG	6	2	[0, 0, 0]	n/a	FR1	3	R1236J
291.07	1.617	912749	WORD	n/a	wordpools/wordpool_EN.txt	SIGN	7	2	[0, 0, 0]	n/a	FR1	3	R1236J
292.687	0.884	914366	WORD_OFF	n/a	n/a	SIGN	7	2	[0, 0, 0]	n/a	FR1	3	R1236J
293.571	1.615	915250	WORD	n/a	wordpools/wordpool_EN.txt	ARK	8	2	[0, 0, 0]	n/a	FR1	3	R1236J
295.186	1.017	916865	WORD_OFF	n/a	n/a	ARK	8	2	[0, 0, 0]	n/a	FR1	3	R1236J
296.203	1.618	917882	WORD	n/a	wordpools/wordpool_EN.txt	FOAM	9	2	[0, 0, 0]	n/a	FR1	3	R1236J
297.821	0.983	919500	WORD_OFF	n/a	n/a	FOAM	9	2	[0, 0, 0]	n/a	FR1	3	R1236J
298.804	1.617	920483	WORD	n/a	wordpools/wordpool_EN.txt	SQUARE	10	2	[0, 0, 0]	n/a	FR1	3	R1236J
300.421	0.783	922100	WORD_OFF	n/a	n/a	SQUARE	10	2	[0, 0, 0]	n/a	FR1	3	R1236J
301.204	1.618	922883	WORD	n/a	wordpools/wordpool_EN.txt	SOAP	11	2	[0, 0, 0]	n/a	FR1	3	R1236J
302.822	0.8	924501	WORD_OFF	n/a	n/a	SOAP	11	2	[0, 0, 0]	n/a	FR1	3	R1236J
303.622	1.616	925301	WORD	n/a	wordpools/wordpool_EN.txt	BOMB	12	2	[0, 0, 0]	n/a	FR1	3	R1236J
305.238	0.0	926917	WORD_OFF	n/a	n/a	BOMB	12	2	[0, 0, 0]	n/a	FR1	3	R1236J
305.238	0.001	926917	DISTRACT_START	n/a	n/a	n/a	-999	2	[0, 0, 0]	n/a	FR1	3	R1236J
305.239	0.016	926918	START	n/a	n/a	n/a	-999	2	[-999, -999, -999]	n/a	FR1	3	R1236J
305.255	12.218	926934	PROB	12.218	n/a	n/a	-999	2	[9, 7, 8]	24	FR1	3	R1236J
317.473	4.451	939152	PROB	4.451	n/a	n/a	-999	2	[9, 2, 5]	16	FR1	3	R1236J
321.924	3.815	943603	PROB	3.815	n/a	n/a	-999	2	[3, 7, 2]	12	FR1	3	R1236J
325.739	0.019	947418	STOP	n/a	n/a	n/a	-999	2	[-999, -999, -999]	n/a	FR1	3	R1236J
325.758	0.549	947437	DISTRACT_END	n/a	n/a	n/a	-999	2	[0, 0, 0]	n/a	FR1	3	R1236J
326.307	0.518	947986	RETRIEVAL_ORIENT	n/a	n/a	n/a	-999	2	[0, 0, 0]	n/a	FR1	3	R1236J
326.825	5.252	948504	REC_START	n/a	n/a	n/a	-999	2	[0, 0, 0]	n/a	FR1	3	R1236J
332.077	1.543	953756	REC_WORD	1.543	n/a	PIN	1	2	[0, 0, 0]	n/a	FR1	3	R1236J
333.62	23.217	955299	REC_WORD	23.217	n/a	STORM	2	2	[0, 0, 0]	n/a	FR1	3	R1236J
356.837	6.542	978516	REC_END	n/a	n/a	n/a	-999	2	[0, 0, 0]	n/a	FR1	3	R1236J
363.379	0.5	985058	TRIAL	n/a	n/a	n/a	-999	3	[0, 0, 0]	n/a	FR1	3	R1236J
363.879	10.428	985558	COUNTDOWN_START	n/a	n/a	n/a	-999	3	[0, 0, 0]	n/a	FR1	3	R1236J
374.307	0.006	995986	COUNTDOWN_END	n/a	n/a	n/a	-999	3	[0, 0, 0]	n/a	FR1	3	R1236J
374.313	1.618	995992	ORIENT	n/a	n/a	n/a	-999	3	[0, 0, 0]	n/a	FR1	3	R1236J
375.931	2.217	997610	ORIENT_OFF	n/a	n/a	n/a	-999	3	[0, 0, 0]	n/a	FR1	3	R1236J
378.148	1.617	999827	WORD	n/a	wordpools/wordpool_EN.txt	GUARD	1	3	[0, 0, 0]	n/a	FR1	3	R1236J
379.765	0.817	1001444	WORD_OFF	n/a	n/a	GUARD	1	3	[0, 0, 0]	n/a	FR1	3	R1236J
380.582	1.616	1002261	WORD	n/a	wordpools/wordpool_EN.txt	COUCH	2	3	[0, 0, 0]	n/a	FR1	3	R1236J
382.198	0.801	1003877	WORD_OFF	n/a	n/a	COUCH	2	3	[0, 0, 0]	n/a	FR1	3	R1236J
382.999	1.617	1004678	WORD	n/a	wordpools/wordpool_EN.txt	ROSE	3	3	[0, 0, 0]	n/a	FR1	3	R1236J
384.616	0.933	1006295	WORD_OFF	n/a	n/a	ROSE	3	3	[0, 0, 0]	n/a	FR1	3	R1236J
385.549	1.616	1007228	WORD	n/a	wordpools/wordpool_EN.txt	SPRING	4	3	[0, 0, 0]	n/a	FR1	3	R1236J
387.165	0.851	1008844	WORD_OFF	n/a	n/a	SPRING	4	3	[0, 0, 0]	n/a	FR1	3	R1236J
388.016	1.617	1009695	WORD	n/a	wordpools/wordpool_EN.txt	BUSH	5	3	[0, 0, 0]	n/a	FR1	3	R1236J
389.633	1.0	1011312	WORD_OFF	n/a	n/a	BUSH	5	3	[0, 0, 0]	n/a	FR1	3	R1236J
390.633	1.616	1012312	WORD	n/a	wordpools/wordpool_EN.txt	FRUIT	6	3	[0, 0, 0]	n/a	FR1	3	R1236J
392.249	0.917	1013928	WORD_OFF	n/a	n/a	FRUIT	6	3	[0, 0, 0]	n/a	FR1	3	R1236J
393.166	1.618	1014845	WORD	n/a	wordpools/wordpool_EN.txt	PURSE	7	3	[0, 0, 0]	n/a	FR1	3	R1236J
394.784	0.95	1016463	WORD_OFF	n/a	n/a	PURSE	7	3	[0, 0, 0]	n/a	FR1	3	R1236J
395.734	1.615	1017413	WORD	n/a	wordpools/wordpool_EN.txt	FACE	8	3	[0, 0, 0]	n/a	FR1	3	R1236J
397.349	0.867	1019028	WORD_OFF	n/a	n/a	FACE	8	3	[0, 0, 0]	n/a	FR1	3	R1236J
398.216	1.618	1019895	WORD	n/a	wordpools/wordpool_EN.txt	FLAME	9	3	[0, 0, 0]	n/a	FR1	3	R1236J
399.834	0.8	1021513	WORD_OFF	n/a	n/a	FLAME	9	3	[0, 0, 0]	n/a	FR1	3	R1236J
400.634	1.616	1022313	WORD	n/a	wordpools/wordpool_EN.txt	BOX	10	3	[0, 0, 0]	n/a	FR1	3	R1236J
402.25	0.851	1023929	WORD_OFF	n/a	n/a	BOX	10	3	[0, 0, 0]	n/a	FR1	3	R1236J
403.101	1.617	1024780	WORD	n/a	wordpools/wordpool_EN.txt	MOOSE	11	3	[0, 0, 0]	n/a	FR1	3	R1236J
404.718	0.833	1026397	WORD_OFF	n/a	n/a	MOOSE	11	3	[0, 0, 0]	n/a	FR1	3	R1236J
405.551	1.616	1027230	WORD	n/a	wordpools/wordpool_EN.txt	PHONE	12	3	[0, 0, 0]	n/a	FR1	3	R1236J
407.167	0.0	1028846	WORD_OFF	n/a	n/a	PHONE	12	3	[0, 0, 0]	n/a	FR1	3	R1236J
407.167	0.001	1028846	DISTRACT_START	n/a	n/a	n/a	-999	3	[0, 0, 0]	n/a	FR1	3	R1236J
407.168	0.016	1028847	START	n/a	n/a	n/a	-999	3	[-999, -999, -999]	n/a	FR1	3	R1236J
407.184	5.952	1028863	PROB	5.952	n/a	n/a	-999	3	[5, 9, 5]	19	FR1	3	R1236J
413.136	5.133	1034815	PROB	5.133	n/a	n/a	-999	3	[7, 2, 4]	13	FR1	3	R1236J
418.269	3.701	1039948	PROB	3.701	n/a	n/a	-999	3	[9, 9, 9]	27	FR1	3	R1236J
421.97	9.197	1043649	PROB	9.197	n/a	n/a	-999	3	[6, 8, 9]	23	FR1	3	R1236J
431.167	0.02	1052847	STOP	n/a	n/a	n/a	-999	3	[-999, -999, -999]	n/a	FR1	3	R1236J
431.187	0.601	1052867	DISTRACT_END	n/a	n/a	n/a	-999	3	[0, 0, 0]	n/a	FR1	3	R1236J
431.788	0.517	1053468	RETRIEVAL_ORIENT	n/a	n/a	n/a	-999	3	[0, 0, 0]	n/a	FR1	3	R1236J
432.305	5.567	1053985	REC_START	n/a	n/a	n/a	-999	3	[0, 0, 0]	n/a	FR1	3	R1236J
437.872	0.995	1059552	REC_WORD	0.995	n/a	BOX	10	3	[0, 0, 0]	n/a	FR1	3	R1236J
438.867	2.61	1060547	REC_WORD	2.61	n/a	ROSE	3	3	[0, 0, 0]	n/a	FR1	3	R1236J
441.477	20.839	1063157	REC_WORD	20.839	n/a	SPRING	4	3	[0, 0, 0]	n/a	FR1	3	R1236J
462.316	4.276	1083996	REC_END	n/a	n/a	n/a	-999	3	[0, 0, 0]	n/a	FR1	3	R1236J
466.592	0.5	1088272	TRIAL	n/a	n/a	n/a	-999	4	[0, 0, 0]	n/a	FR1	3	R1236J
467.092	10.428	1088772	COUNTDOWN_START	n/a	n/a	n/a	-999	4	[0, 0, 0]	n/a	FR1	3	R1236J
477.52	0.007	1099200	COUNTDOWN_END	n/a	n/a	n/a	-999	4	[0, 0, 0]	n/a	FR1	3	R1236J
477.527	1.617	1099207	ORIENT	n/a	n/a	n/a	-999	4	[0, 0, 0]	n/a	FR1	3	R1236J
479.144	2.017	1100824	ORIENT_OFF	n/a	n/a	n/a	-999	4	[0, 0, 0]	n/a	FR1	3	R1236J
481.161	1.617	1102841	WORD	n/a	wordpools/wordpool_EN.txt	DOOR	1	4	[0, 0, 0]	n/a	FR1	3	R1236J
482.778	0.817	1104458	WORD_OFF	n/a	n/a	DOOR	1	4	[0, 0, 0]	n/a	FR1	3	R1236J
483.595	1.616	1105275	WORD	n/a	wordpools/wordpool_EN.txt	POLE	2	4	[0, 0, 0]	n/a	FR1	3	R1236J
485.211	0.918	1106891	WORD_OFF	n/a	n/a	POLE	2	4	[0, 0, 0]	n/a	FR1	3	R1236J
486.129	1.616	1107809	WORD	n/a	wordpools/wordpool_EN.txt	OAR	3	4	[0, 0, 0]	n/a	FR1	3	R1236J
487.745	0.967	1109425	WORD_OFF	n/a	n/a	OAR	3	4	[0, 0, 0]	n/a	FR1	3	R1236J
488.712	1.616	1110392	WORD	n/a	wordpools/wordpool_EN.txt	FUR	4	4	[0, 0, 0]	n/a	FR1	3	R1236J
490.328	0.9	1112008	WORD_OFF	n/a	n/a	FUR	4	4	[0, 0, 0]	n/a	FR1	3	R1236J
491.228	1.618	1112908	WORD	n/a	wordpools/wordpool_EN.txt	WOLF	5	4	[0, 0, 0]	n/a	FR1	3	R1236J
492.846	0.933	1114526	WORD_OFF	n/a	n/a	WOLF	5	4	[0, 0, 0]	n/a	FR1	3	R1236J
493.779	1.617	1115459	WORD	n/a	wordpools/wordpool_EN.txt	CHAIR	6	4	[0, 0, 0]	n/a	FR1	3	R1236J
495.396	0.833	1117076	WORD_OFF	n/a	n/a	CHAIR	6	4	[0, 0, 0]	n/a	FR1	3	R1236J
496.229	1.617	1117909	WORD	n/a	wordpools/wordpool_EN.txt	SHOE	7	4	[0, 0, 0]	n/a	FR1	3	R1236J
497.846	1.001	1119526	WORD_OFF	n/a	n/a	SHOE	7	4	[0, 0, 0]	n/a	FR1	3	R1236J
498.847	1.616	1120527	WORD	n/a	wordpools/wordpool_EN.txt	EGG	8	4	[0, 0, 0]	n/a	FR1	3	R1236J
500.463	0.9	1122143	WORD_OFF	n/a	n/a	EGG	8	4	[0, 0, 0]	n/a	FR1	3	R1236J
501.363	1.618	1123043	WORD	n/a	wordpools/wordpool_EN.txt	STREET	9	4	[0, 0, 0]	n/a	FR1	3	R1236J
502.981	0.85	1124661	WORD_OFF	n/a	n/a	STREET	9	4	[0, 0, 0]	n/a	FR1	3	R1236J
503.831	1.617	1125511	WORD	n/a	wordpools/wordpool_EN.txt	CAKE	10	4	[0, 0, 0]	n/a	FR1	3	R1236J
505.448	0.849	1127128	WORD_OFF	n/a	n/a	CAKE	10	4	[0, 0, 0]	n/a	FR1	3	R1236J
506.297	1.617	1127977	WORD	n/a	wordpools/wordpool_EN.txt	EAR	11	4	[0, 0, 0]	n/a	FR1	3	R1236J
507.914	0.784	1129594	WORD_OFF	n/a	n/a	EAR	11	4	[0, 0, 0]	n/a	FR1	3	R1236J
508.698	1.616	1130378	WORD	n/a	wordpools/wordpool_EN.txt	CLIFF	12	4	[0, 0, 0]	n/a	FR1	3	R1236J
510.314	0.0	1131994	DISTRACT_START	n/a	n/a	n/a	-999	4	[0, 0, 0]	n/a	FR1	3	R1236J
510.314	0.001	1131994	WORD_OFF	n/a	n/a	CLIFF	12	4	[0, 0, 0]	n/a	FR1	3	R1236J
510.315	0.015	1131995	START	n/a	n/a	n/a	-999	4	[-999, -999, -999]	n/a	FR1	3	R1236J
510.33	5.336	1132010	PROB	5.336	n/a	n/a	-999	4	[4, 3, 3]	10	FR1	3	R1236J
515.666	3.515	1137346	PROB	3.515	n/a	n/a	-999	4	[5, 5, 6]	16	FR1	3	R1236J
519.181	2.935	1140861	PROB	2.935	n/a	n/a	-999	4	[4, 6, 2]	12	FR1	3	R1236J
522.116	4.601	1143796	PROB	4.601	n/a	n/a	-999	4	[6, 8, 1]	15	FR1	3	R1236J
526.717	5.62	1148397	PROB	5.62	n/a	n/a	-999	4	[4, 5, 6]	15	FR1	3	R1236J
532.337	0.013	1154017	STOP	n/a	n/a	n/a	-999	4	[-999, -999, -999]	n/a	FR1	3	R1236J
532.35	0.551	1154030	DISTRACT_END	n/a	n/a	n/a	-999	4	[0, 0, 0]	n/a	FR1	3	R1236J
532.901	0.518	1154581	RETRIEVAL_ORIENT	n/a	n/a	n/a	-999	4	[0, 0, 0]	n/a	FR1	3	R1236J
533.419	4.898	1155099	REC_START	n/a	n/a	n/a	-999	4	[0, 0, 0]	n/a	FR1	3	R1236J
538.317	1.539	1159997	REC_WORD	1.539	n/a	WOLF	5	4	[0, 0, 0]	n/a	FR1	3	R1236J
539.856	3.85	1161536	REC_WORD	3.85	n/a	FUR	4	4	[0, 0, 0]	n/a	FR1	3	R1236J
543.706	19.723	1165386	REC_WORD	19.723	n/a	OAR	3	4	[0, 0, 0]	n/a	FR1	3	R1236J
563.429	7.377	1185109	REC_END	n/a	n/a	n/a	-999	4	[0, 0, 0]	n/a	FR1	3	R1236J
570.806	0.5	1192486	TRIAL	n/a	n/a	n/a	-999	5	[0, 0, 0]	n/a	FR1	3	R1236J
571.306	10.428	1192986	COUNTDOWN_START	n/a	n/a	n/a	-999	5	[0, 0, 0]	n/a	FR1	3	R1236J
581.734	0.007	1203414	COUNTDOWN_END	n/a	n/a	n/a	-999	5	[0, 0, 0]	n/a	FR1	3	R1236J
581.741	1.615	1203421	ORIENT	n/a	n/a	n/a	-999	5	[0, 0, 0]	n/a	FR1	3	R1236J
583.356	1.867	1205036	ORIENT_OFF	n/a	n/a	n/a	-999	5	[0, 0, 0]	n/a	FR1	3	R1236J
585.223	1.601	1206903	WORD	n/a	wordpools/wordpool_EN.txt	TRAY	1	5	[0, 0, 0]	n/a	FR1	3	R1236J
586.824	0.85	1208504	WORD_OFF	n/a	n/a	TRAY	1	5	[0, 0, 0]	n/a	FR1	3	R1236J
587.674	1.616	1209354	WORD	n/a	wordpools/wordpool_EN.txt	FOOT	2	5	[0, 0, 0]	n/a	FR1	3	R1236J
589.29	0.884	1210970	WORD_OFF	n/a	n/a	FOOT	2	5	[0, 0, 0]	n/a	FR1	3	R1236J
590.174	1.618	1211854	WORD	n/a	wordpools/wordpool_EN.txt	RUG	3	5	[0, 0, 0]	n/a	FR1	3	R1236J
591.792	1.0	1213472	WORD_OFF	n/a	n/a	RUG	3	5	[0, 0, 0]	n/a	FR1	3	R1236J
592.792	1.617	1214472	WORD	n/a	wordpools/wordpool_EN.txt	MOUTH	4	5	[0, 0, 0]	n/a	FR1	3	R1236J
594.409	0.849	1216089	WORD_OFF	n/a	n/a	MOUTH	4	5	[0, 0, 0]	n/a	FR1	3	R1236J
595.258	1.618	1216938	WORD	n/a	wordpools/wordpool_EN.txt	MUD	5	5	[0, 0, 0]	n/a	FR1	3	R1236J
596.876	0.833	1218556	WORD_OFF	n/a	n/a	MUD	5	5	[0, 0, 0]	n/a	FR1	3	R1236J
597.709	1.616	1219389	WORD	n/a	wordpools/wordpool_EN.txt	WHEEL	6	5	[0, 0, 0]	n/a	FR1	3	R1236J
599.325	0.983	1221005	WORD_OFF	n/a	n/a	WHEEL	6	5	[0, 0, 0]	n/a	FR1	3	R1236J
600.308	1.618	1221988	WORD	n/a	wordpools/wordpool_EN.txt	ROAD	7	5	[0, 0, 0]	n/a	FR1	3	R1236J
601.926	0.917	1223606	WORD_OFF	n/a	n/a	ROAD	7	5	[0, 0, 0]	n/a	FR1	3	R1236J
602.843	1.617	1224523	WORD	n/a	wordpools/wordpool_EN.txt	FARM	8	5	[0, 0, 0]	n/a	FR1	3	R1236J
604.46	0.799	1226140	WORD_OFF	n/a	n/a	FARM	8	5	[0, 0, 0]	n/a	FR1	3	R1236J
605.259	1.601	1226939	WORD	n/a	wordpools/wordpool_EN.txt	BRUSH	9	5	[0, 0, 0]	n/a	FR1	3	R1236J
606.86	0.934	1228540	WORD_OFF	n/a	n/a	BRUSH	9	5	[0, 0, 0]	n/a	FR1	3	R1236J
607.794	1.617	1229474	WORD	n/a	wordpools/wordpool_EN.txt	HEN	10	5	[0, 0, 0]	n/a	FR1	3	R1236J
609.411	0.799	1231091	WORD_OFF	n/a	n/a	HEN	10	5	[0, 0, 0]	n/a	FR1	3	R1236J
610.21	1.618	1231890	WORD	n/a	wordpools/wordpool_EN.txt	SLIME	11	5	[0, 0, 0]	n/a	FR1	3	R1236J
611.828	1.0	1233508	WORD_OFF	n/a	n/a	SLIME	11	5	[0, 0, 0]	n/a	FR1	3	R1236J
612.828	1.617	1234508	WORD	n/a	wordpools/wordpool_EN.txt	GATE	12	5	[0, 0, 0]	n/a	FR1	3	R1236J
614.445	0.0	1236125	WORD_OFF	n/a	n/a	GATE	12	5	[0, 0, 0]	n/a	FR1	3	R1236J
614.445	0.001	1236125	DISTRACT_START	n/a	n/a	n/a	-999	5	[0, 0, 0]	n/a	FR1	3	R1236J
614.446	0.015	1236126	START	n/a	n/a	n/a	-999	5	[-999, -999, -999]	n/a	FR1	3	R1236J
614.461	7.368	1236141	PROB	7.368	n/a	n/a	-999	5	[9, 6, 5]	20	FR1	3	R1236J
621.829	3.084	1243509	PROB	3.084	n/a	n/a	-999	5	[1, 5, 9]	15	FR1	3	R1236J
624.913	5.184	1246593	PROB	5.184	n/a	n/a	-999	5	[4, 2, 9]	15	FR1	3	R1236J
630.097	3.166	1251777	PROB	3.166	n/a	n/a	-999	5	[1, 9, 6]	16	FR1	3	R1236J
633.263	2.576	1254943	PROB	2.576	n/a	n/a	-999	5	[1, 8, 2]	11	FR1	3	R1236J
635.839	0.009	1257519	STOP	n/a	n/a	n/a	-999	5	[-999, -999, -999]	n/a	FR1	3	R1236J
635.848	0.616	1257528	DISTRACT_END	n/a	n/a	n/a	-999	5	[0, 0, 0]	n/a	FR1	3	R1236J
636.464	0.517	1258144	RETRIEVAL_ORIENT	n/a	n/a	n/a	-999	5	[0, 0, 0]	n/a	FR1	3	R1236J
636.981	1.326	1258661	REC_START	n/a	n/a	n/a	-999	5	[0, 0, 0]	n/a	FR1	3	R1236J
638.307	1.488	1259987	REC_WORD	1.488	n/a	TRAY	1	5	[0, 0, 0]	n/a	FR1	3	R1236J
639.795	1.246	1261475	REC_WORD	1.246	n/a	FOOT	2	5	[0, 0, 0]	n/a	FR1	3	R1236J
641.041	25.952	1262721	REC_WORD	25.952	n/a	SLIME	11	5	[0, 0, 0]	n/a	FR1	3	R1236J
666.993	6.109	1288673	REC_END	n/a	n/a	n/a	-999	5	[0, 0, 0]	n/a	FR1	3	R1236J
673.102	0.5	1294782	TRIAL	n/a	n/a	n/a	-999	6	[0, 0, 0]	n/a	FR1	3	R1236J
673.602	10.428	1295282	COUNTDOWN_START	n/a	n/a	n/a	-999	6	[0, 0, 0]	n/a	FR1	3	R1236J
684.03	0.007	1305710	COUNTDOWN_END	n/a	n/a	n/a	-999	6	[0, 0, 0]	n/a	FR1	3	R1236J
684.037	1.617	1305717	ORIENT	n/a	n/a	n/a	-999	6	[0, 0, 0]	n/a	FR1	3	R1236J
685.654	2.217	1307334	ORIENT_OFF	n/a	n/a	n/a	-999	6	[0, 0, 0]	n/a	FR1	3	R1236J
687.871	1.617	1309551	WORD	n/a	wordpools/wordpool_EN.txt	WORLD	1	6	[0, 0, 0]	n/a	FR1	3	R1236J
689.488	0.865	1311168	WORD_OFF	n/a	n/a	WORLD	1	6	[0, 0, 0]	n/a	FR1	3	R1236J
690.353	1.618	1312033	WORD	n/a	wordpools/wordpool_EN.txt	SNAKE	2	6	[0, 0, 0]	n/a	FR1	3	R1236J
691.971	0.9	1313651	WORD_OFF	n/a	n/a	SNAKE	2	6	[0, 0, 0]	n/a	FR1	3	R1236J
692.871	1.617	1314551	WORD	n/a	wordpools/wordpool_EN.txt	HORSE	3	6	[0, 0, 0]	n/a	FR1	3	R1236J
694.488	0.799	1316168	WORD_OFF	n/a	n/a	HORSE	3	6	[0, 0, 0]	n/a	FR1	3	R1236J
695.287	1.618	1316967	WORD	n/a	wordpools/wordpool_EN.txt	KEY	4	6	[0, 0, 0]	n/a	FR1	3	R1236J
696.905	0.95	1318585	WORD_OFF	n/a	n/a	KEY	4	6	[0, 0, 0]	n/a	FR1	3	R1236J
697.855	1.617	1319535	WORD	n/a	wordpools/wordpool_EN.txt	BLOOM	5	6	[0, 0, 0]	n/a	FR1	3	R1236J
699.472	0.883	1321152	WORD_OFF	n/a	n/a	BLOOM	5	6	[0, 0, 0]	n/a	FR1	3	R1236J
700.355	1.618	1322035	WORD	n/a	wordpools/wordpool_EN.txt	SPOON	6	6	[0, 0, 0]	n/a	FR1	3	R1236J
701.973	0.766	1323653	WORD_OFF	n/a	n/a	SPOON	6	6	[0, 0, 0]	n/a	FR1	3	R1236J
702.739	1.616	1324419	WORD	n/a	wordpools/wordpool_EN.txt	VAN	7	6	[0, 0, 0]	n/a	FR1	3	R1236J
704.355	0.917	1326035	WORD_OFF	n/a	n/a	VAN	7	6	[0, 0, 0]	n/a	FR1	3	R1236J
705.272	1.618	1326952	WORD	n/a	wordpools/wordpool_EN.txt	COW	8	6	[0, 0, 0]	n/a	FR1	3	R1236J
706.89	0.95	1328570	WORD_OFF	n/a	n/a	COW	8	6	[0, 0, 0]	n/a	FR1	3	R1236J
707.84	1.617	1329520	WORD	n/a	wordpools/wordpool_EN.txt	HAWK	9	6	[0, 0, 0]	n/a	FR1	3	R1236J
709.457	0.966	1331137	WORD_OFF	n/a	n/a	HAWK	9	6	[0, 0, 0]	n/a	FR1	3	R1236J
710.423	1.617	1332103	WORD	n/a	wordpools/wordpool_EN.txt	PEN	10	6	[0, 0, 0]	n/a	FR1	3	R1236J
712.04	0.967	1333720	WORD_OFF	n/a	n/a	PEN	10	6	[0, 0, 0]	n/a	FR1	3	R1236J
713.007	1.617	1334687	WORD	n/a	wordpools/wordpool_EN.txt	MAP	11	6	[0, 0, 0]	n/a	FR1	3	R1236J
714.624	0.984	1336304	WORD_OFF	n/a	n/a	MAP	11	6	[0, 0, 0]	n/a	FR1	3	R1236J
715.608	1.615	1337288	WORD	n/a	wordpools/wordpool_EN.txt	DEER	12	6	[0, 0, 0]	n/a	FR1	3	R1236J
717.223	0.0	1338903	DISTRACT_START	n/a	n/a	n/a	-999	6	[0, 0, 0]	n/a	FR1	3	R1236J
717.223	0.001	1338903	WORD_OFF	n/a	n/a	DEER	12	6	[0, 0, 0]	n/a	FR1	3	R1236J
717.224	0.016	1338904	START	n/a	n/a	n/a	-999	6	[-999, -999, -999]	n/a	FR1	3	R1236J
717.24	4.117	1338920	PROB	4.117	n/a	n/a	-999	6	[2, 5, 9]	16	FR1	3	R1236J
721.357	2.668	1343037	PROB	2.668	n/a	n/a	-999	6	[7, 7, 7]	21	FR1	3	R1236J
724.025	3.316	1345705	PROB	3.316	n/a	n/a	-999	6	[8, 8, 3]	19	FR1	3	R1236J
727.341	4.702	1349021	PROB	4.702	n/a	n/a	-999	6	[6, 7, 6]	19	FR1	3	R1236J
732.043	5.712	1353723	PROB	5.712	n/a	n/a	-999	6	[9, 9, 7]	25	FR1	3	R1236J
737.755	0.022	1359435	STOP	n/a	n/a	n/a	-999	6	[-999, -999, -999]	n/a	FR1	3	R1236J
737.777	0.667	1359457	DISTRACT_END	n/a	n/a	n/a	-999	6	[0, 0, 0]	n/a	FR1	3	R1236J
738.444	0.517	1360124	RETRIEVAL_ORIENT	n/a	n/a	n/a	-999	6	[0, 0, 0]	n/a	FR1	3	R1236J
738.961	0.908	1360641	REC_START	n/a	n/a	n/a	-999	6	[0, 0, 0]	n/a	FR1	3	R1236J
739.869	0.955	1361549	REC_WORD	0.955	n/a	SNAKE	2	6	[0, 0, 0]	n/a	FR1	3	R1236J
740.824	13.708	1362504	REC_WORD	13.708	n/a	HORSE	3	6	[0, 0, 0]	n/a	FR1	3	R1236J
754.532	14.439	1376212	REC_WORD	14.439	n/a	KEY	4	6	[0, 0, 0]	n/a	FR1	3	R1236J
768.971	6.393	1390651	REC_END	n/a	n/a	n/a	-999	6	[0, 0, 0]	n/a	FR1	3	R1236J
775.364	0.5	1397044	TRIAL	n/a	n/a	n/a	-999	7	[0, 0, 0]	n/a	FR1	3	R1236J
775.864	10.428	1397544	COUNTDOWN_START	n/a	n/a	n/a	-999	7	[0, 0, 0]	n/a	FR1	3	R1236J
786.292	0.007	1407972	COUNTDOWN_END	n/a	n/a	n/a	-999	7	[0, 0, 0]	n/a	FR1	3	R1236J
786.299	1.601	1407979	ORIENT	n/a	n/a	n/a	-999	7	[0, 0, 0]	n/a	FR1	3	R1236J
787.9	2.167	1409580	ORIENT_OFF	n/a	n/a	n/a	-999	7	[0, 0, 0]	n/a	FR1	3	R1236J
790.067	1.617	1411747	WORD	n/a	wordpools/wordpool_EN.txt	LAMB	1	7	[0, 0, 0]	n/a	FR1	3	R1236J
791.684	0.833	1413364	WORD_OFF	n/a	n/a	LAMB	1	7	[0, 0, 0]	n/a	FR1	3	R1236J
792.517	1.617	1414197	WORD	n/a	wordpools/wordpool_EN.txt	DOCK	2	7	[0, 0, 0]	n/a	FR1	3	R1236J
794.134	0.917	1415814	WORD_OFF	n/a	n/a	DOCK	2	7	[0, 0, 0]	n/a	FR1	3	R1236J
795.051	1.617	1416731	WORD	n/a	wordpools/wordpool_EN.txt	SKUNK	3	7	[0, 0, 0]	n/a	FR1	3	R1236J
796.668	1.0	1418348	WORD_OFF	n/a	n/a	SKUNK	3	7	[0, 0, 0]	n/a	FR1	3	R1236J
797.668	1.616	1419348	WORD	n/a	wordpools/wordpool_EN.txt	CLOWN	4	7	[0, 0, 0]	n/a	FR1	3	R1236J
799.284	0.933	1420964	WORD_OFF	n/a	n/a	CLOWN	4	7	[0, 0, 0]	n/a	FR1	3	R1236J
800.217	1.601	1421897	WORD	n/a	wordpools/wordpool_EN.txt	SINK	5	7	[0, 0, 0]	n/a	FR1	3	R1236J
801.818	0.901	1423498	WORD_OFF	n/a	n/a	SINK	5	7	[0, 0, 0]	n/a	FR1	3	R1236J
802.719	1.616	1424399	WORD	n/a	wordpools/wordpool_EN.txt	THUMB	6	7	[0, 0, 0]	n/a	FR1	3	R1236J
804.335	1.016	1426015	WORD_OFF	n/a	n/a	THUMB	6	7	[0, 0, 0]	n/a	FR1	3	R1236J
805.351	1.618	1427031	WORD	n/a	wordpools/wordpool_EN.txt	CAVE	7	7	[0, 0, 0]	n/a	FR1	3	R1236J
806.969	0.883	1428649	WORD_OFF	n/a	n/a	CAVE	7	7	[0, 0, 0]	n/a	FR1	3	R1236J
807.852	1.617	1429532	WORD	n/a	wordpools/wordpool_EN.txt	MOLE	8	7	[0, 0, 0]	n/a	FR1	3	R1236J
809.469	0.967	1431149	WORD_OFF	n/a	n/a	MOLE	8	7	[0, 0, 0]	n/a	FR1	3	R1236J
810.436	1.617	1432116	WORD	n/a	wordpools/wordpool_EN.txt	TAIL	9	7	[0, 0, 0]	n/a	FR1	3	R1236J
812.053	0.817	1433733	WORD_OFF	n/a	n/a	TAIL	9	7	[0, 0, 0]	n/a	FR1	3	R1236J
812.87	1.617	1434550	WORD	n/a	wordpools/wordpool_EN.txt	FUDGE	10	7	[0, 0, 0]	n/a	FR1	3	R1236J
814.487	0.95	1436167	WORD_OFF	n/a	n/a	FUDGE	10	7	[0, 0, 0]	n/a	FR1	3	R1236J
815.437	1.617	1437117	WORD	n/a	wordpools/wordpool_EN.txt	BIRD	11	7	[0, 0, 0]	n/a	FR1	3	R1236J
817.054	1.0	1438734	WORD_OFF	n/a	n/a	BIRD	11	7	[0, 0, 0]	n/a	FR1	3	R1236J
818.054	1.617	1439734	WORD	n/a	wordpools/wordpool_EN.txt	TOAST	12	7	[0, 0, 0]	n/a	FR1	3	R1236J
819.671	0.0	1441351	WORD_OFF	n/a	n/a	TOAST	12	7	[0, 0, 0]	n/a	FR1	3	R1236J
819.671	0.0	1441351	DISTRACT_START	n/a	n/a	n/a	-999	7	[0, 0, 0]	n/a	FR1	3	R1236J
819.671	0.016	1441351	START	n/a	n/a	n/a	-999	7	[-999, -999, -999]	n/a	FR1	3	R1236J
819.687	4.151	1441367	PROB	4.151	n/a	n/a	-999	7	[7, 1, 2]	10	FR1	3	R1236J
823.838	4.8	1445518	PROB	4.8	n/a	n/a	-999	7	[9, 9, 6]	24	FR1	3	R1236J
828.638	4.617	1450318	PROB	4.617	n/a	n/a	-999	7	[8, 3, 7]	18	FR1	3	R1236J
833.255	4.067	1454935	PROB	4.067	n/a	n/a	-999	7	[5, 4, 1]	10	FR1	3	R1236J
837.322	8.947	1459002	PROB	8.947	n/a	n/a	-999	7	[5, 4, 9]	18	FR1	3	R1236J
846.269	0.021	1467949	STOP	n/a	n/a	n/a	-999	7	[-999, -999, -999]	n/a	FR1	3	R1236J
846.29	0.684	1467970	DISTRACT_END	n/a	n/a	n/a	-999	7	[0, 0, 0]	n/a	FR1	3	R1236J
846.974	0.518	1468654	RETRIEVAL_ORIENT	n/a	n/a	n/a	-999	7	[0, 0, 0]	n/a	FR1	3	R1236J
847.492	13.153	1469172	REC_START	n/a	n/a	n/a	-999	7	[0, 0, 0]	n/a	FR1	3	R1236J
860.645	16.857	1482325	REC_WORD	16.857	n/a	LAMB	1	7	[0, 0, 0]	n/a	FR1	3	R1236J
877.502	4.393	1499183	REC_END	n/a	n/a	n/a	-999	7	[0, 0, 0]	n/a	FR1	3	R1236J
881.895	0.5	1503576	TRIAL	n/a	n/a	n/a	-999	8	[0, 0, 0]	n/a	FR1	3	R1236J
882.395	10.428	1504076	COUNTDOWN_START	n/a	n/a	n/a	-999	8	[0, 0, 0]	n/a	FR1	3	R1236J
892.823	0.007	1514504	COUNTDOWN_END	n/a	n/a	n/a	-999	8	[0, 0, 0]	n/a	FR1	3	R1236J
892.83	1.617	1514511	ORIENT	n/a	n/a	n/a	-999	8	[0, 0, 0]	n/a	FR1	3	R1236J
894.447	2.167	1516128	ORIENT_OFF	n/a	n/a	n/a	-999	8	[0, 0, 0]	n/a	FR1	3	R1236J
896.614	1.616	1518295	WORD	n/a	wordpools/wordpool_EN.txt	FISH	1	8	[0, 0, 0]	n/a	FR1	3	R1236J
898.23	0.884	1519911	WORD_OFF	n/a	n/a	FISH	1	8	[0, 0, 0]	n/a	FR1	3	R1236J
899.114	1.617	1520795	WORD	n/a	wordpools/wordpool_EN.txt	POOL	2	8	[0, 0, 0]	n/a	FR1	3	R1236J
900.731	0.8	1522412	WORD_OFF	n/a	n/a	POOL	2	8	[0, 0, 0]	n/a	FR1	3	R1236J
901.531	1.617	1523212	WORD	n/a	wordpools/wordpool_EN.txt	CAR	3	8	[0, 0, 0]	n/a	FR1	3	R1236J
903.148	0.867	1524829	WORD_OFF	n/a	n/a	CAR	3	8	[0, 0, 0]	n/a	FR1	3	R1236J
904.015	1.617	1525696	WORD	n/a	wordpools/wordpool_EN.txt	JEEP	4	8	[0, 0, 0]	n/a	FR1	3	R1236J
905.632	0.916	1527313	WORD_OFF	n/a	n/a	JEEP	4	8	[0, 0, 0]	n/a	FR1	3	R1236J
906.548	1.616	1528229	WORD	n/a	wordpools/wordpool_EN.txt	SPONGE	5	8	[0, 0, 0]	n/a	FR1	3	R1236J
908.164	0.935	1529845	WORD_OFF	n/a	n/a	SPONGE	5	8	[0, 0, 0]	n/a	FR1	3	R1236J
909.099	1.617	1530780	WORD	n/a	wordpools/wordpool_EN.txt	TRAIN	6	8	[0, 0, 0]	n/a	FR1	3	R1236J
910.716	0.766	1532397	WORD_OFF	n/a	n/a	TRAIN	6	8	[0, 0, 0]	n/a	FR1	3	R1236J
911.482	1.617	1533163	WORD	n/a	wordpools/wordpool_EN.txt	SEAT	7	8	[0, 0, 0]	n/a	FR1	3	R1236J
913.099	0.784	1534780	WORD_OFF	n/a	n/a	SEAT	7	8	[0, 0, 0]	n/a	FR1	3	R1236J
913.883	1.617	1535564	WORD	n/a	wordpools/wordpool_EN.txt	CHIEF	8	8	[0, 0, 0]	n/a	FR1	3	R1236J
915.5	1.0	1537181	WORD_OFF	n/a	n/a	CHIEF	8	8	[0, 0, 0]	n/a	FR1	3	R1236J
916.5	1.617	1538181	WORD	n/a	wordpools/wordpool_EN.txt	SHARK	9	8	[0, 0, 0]	n/a	FR1	3	R1236J
918.117	0.8	1539798	WORD_OFF	n/a	n/a	SHARK	9	8	[0, 0, 0]	n/a	FR1	3	R1236J
918.917	1.617	1540598	WORD	n/a	wordpools/wordpool_EN.txt	LAKE	10	8	[0, 0, 0]	n/a	FR1	3	R1236J
920.534	1.0	1542215	WORD_OFF	n/a	n/a	LAKE	10	8	[0, 0, 0]	n/a	FR1	3	R1236J
921.534	1.617	1543215	WORD	n/a	wordpools/wordpool_EN.txt	COIN	11	8	[0, 0, 0]	n/a	FR1	3	R1236J
923.151	0.8	1544832	WORD_OFF	n/a	n/a	COIN	11	8	[0, 0, 0]	n/a	FR1	3	R1236J
923.951	1.617	1545632	WORD	n/a	wordpools/wordpool_EN.txt	SPEAR	12	8	[0, 0, 0]	n/a	FR1	3	R1236J
925.568	0.0	1547249	WORD_OFF	n/a	n/a	SPEAR	12	8	[0, 0, 0]	n/a	FR1	3	R1236J
925.568	0.001	1547249	DISTRACT_START	n/a	n/a	n/a	-999	8	[0, 0, 0]	n/a	FR1	3	R1236J
925.569	0.015	1547250	START	n/a	n/a	n/a	-999	8	[-999, -999, -999]	n/a	FR1	3	R1236J
925.584	3.783	1547265	PROB	3.783	n/a	n/a	-999	8	[6, 6, 3]	15	FR1	3	R1236J
929.367	5.118	1551048	PROB	5.118	n/a	n/a	-999	8	[3, 2, 9]	14	FR1	3	R1236J
934.485	3.167	1556166	PROB	3.167	n/a	n/a	-999	8	[9, 1, 6]	16	FR1	3	R1236J
937.652	3.301	1559333	PROB	3.301	n/a	n/a	-999	8	[3, 5, 4]	12	FR1	3	R1236J
940.953	6.521	1562634	PROB	6.521	n/a	n/a	-999	8	[5, 4, 6]	15	FR1	3	R1236J
947.474	0.013	1569155	STOP	n/a	n/a	n/a	-999	8	[-999, -999, -999]	n/a	FR1	3	R1236J
947.487	0.682	1569168	DISTRACT_END	n/a	n/a	n/a	-999	8	[0, 0, 0]	n/a	FR1	3	R1236J
948.169	0.519	1569850	RETRIEVAL_ORIENT	n/a	n/a	n/a	-999	8	[0, 0, 0]	n/a	FR1	3	R1236J
948.688	14.537	1570369	REC_START	n/a	n/a	n/a	-999	8	[0, 0, 0]	n/a	FR1	3	R1236J
963.225	1.003	1584906	REC_WORD	1.003	n/a	TRAIN	6	8	[0, 0, 0]	n/a	FR1	3	R1236J
964.228	6.337	1585909	REC_WORD	6.337	n/a	SEAT	7	8	[0, 0, 0]	n/a	FR1	3	R1236J
970.565	4.263	1592246	REC_WORD	4.263	n/a	CAR	3	8	[0, 0, 0]	n/a	FR1	3	R1236J
974.828	2.481	1596509	REC_WORD	2.481	n/a	FISH	1	8	[0, 0, 0]	n/a	FR1	3	R1236J
977.309	1.39	1598990	REC_WORD	1.39	n/a	POOL	2	8	[0, 0, 0]	n/a	FR1	3	R1236J
978.699	4.209	1600380	REC_END	n/a	n/a	n/a	-999	8	[0, 0, 0]	n/a	FR1	3	R1236J
982.908	0.5	1604589	TRIAL	n/a	n/a	n/a	-999	9	[0, 0, 0]	n/a	FR1	3	R1236J
983.408	10.428	1605089	COUNTDOWN_START	n/a	n/a	n/a	-999	9	[0, 0, 0]	n/a	FR1	3	R1236J
993.836	0.007	1615517	COUNTDOWN_END	n/a	n/a	n/a	-999	9	[0, 0, 0]	n/a	FR1	3	R1236J
993.843	1.617	1615524	ORIENT	n/a	n/a	n/a	-999	9	[0, 0, 0]	n/a	FR1	3	R1236J
995.46	2.133	1617141	ORIENT_OFF	n/a	n/a	n/a	-999	9	[0, 0, 0]	n/a	FR1	3	R1236J
997.593	1.616	1619274	WORD	n/a	wordpools/wordpool_EN.txt	HEART	1	9	[0, 0, 0]	n/a	FR1	3	R1236J
999.209	0.868	1620890	WORD_OFF	n/a	n/a	HEART	1	9	[0, 0, 0]	n/a	FR1	3	R1236J
1000.077	1.617	1621758	WORD	n/a	wordpools/wordpool_EN.txt	SNAIL	2	9	[0, 0, 0]	n/a	FR1	3	R1236J
1001.694	0.917	1623375	WORD_OFF	n/a	n/a	SNAIL	2	9	[0, 0, 0]	n/a	FR1	3	R1236J
1002.611	1.616	1624292	WORD	n/a	wordpools/wordpool_EN.txt	SEA	3	9	[0, 0, 0]	n/a	FR1	3	R1236J
1004.227	0.884	1625908	WORD_OFF	n/a	n/a	SEA	3	9	[0, 0, 0]	n/a	FR1	3	R1236J
1005.111	1.617	1626792	WORD	n/a	wordpools/wordpool_EN.txt	WEB	4	9	[0, 0, 0]	n/a	FR1	3	R1236J
1006.728	0.883	1628409	WORD_OFF	n/a	n/a	WEB	4	9	[0, 0, 0]	n/a	FR1	3	R1236J
1007.611	1.616	1629292	WORD	n/a	wordpools/wordpool_EN.txt	PARK	5	9	[0, 0, 0]	n/a	FR1	3	R1236J
1009.227	0.818	1630908	WORD_OFF	n/a	n/a	PARK	5	9	[0, 0, 0]	n/a	FR1	3	R1236J
1010.045	1.617	1631726	WORD	n/a	wordpools/wordpool_EN.txt	CRANE	6	9	[0, 0, 0]	n/a	FR1	3	R1236J
1011.662	0.8	1633343	WORD_OFF	n/a	n/a	CRANE	6	9	[0, 0, 0]	n/a	FR1	3	R1236J
1012.462	1.617	1634143	WORD	n/a	wordpools/wordpool_EN.txt	PEARL	7	9	[0, 0, 0]	n/a	FR1	3	R1236J
1014.079	1.0	1635760	WORD_OFF	n/a	n/a	PEARL	7	9	[0, 0, 0]	n/a	FR1	3	R1236J
1015.079	1.617	1636760	WORD	n/a	wordpools/wordpool_EN.txt	BALL	8	9	[0, 0, 0]	n/a	FR1	3	R1236J
1016.696	0.933	1638377	WORD_OFF	n/a	n/a	BALL	8	9	[0, 0, 0]	n/a	FR1	3	R1236J
1017.629	1.616	1639310	WORD	n/a	wordpools/wordpool_EN.txt	HILL	9	9	[0, 0, 0]	n/a	FR1	3	R1236J
1019.245	0.785	1640926	WORD_OFF	n/a	n/a	HILL	9	9	[0, 0, 0]	n/a	FR1	3	R1236J
1020.03	1.616	1641711	WORD	n/a	wordpools/wordpool_EN.txt	BLUSH	10	9	[0, 0, 0]	n/a	FR1	3	R1236J
1021.646	0.867	1643327	WORD_OFF	n/a	n/a	BLUSH	10	9	[0, 0, 0]	n/a	FR1	3	R1236J
1022.513	1.617	1644194	WORD	n/a	wordpools/wordpool_EN.txt	FOX	11	9	[0, 0, 0]	n/a	FR1	3	R1236J
1024.13	0.9	1645811	WORD_OFF	n/a	n/a	FOX	11	9	[0, 0, 0]	n/a	FR1	3	R1236J
1025.03	1.617	1646711	WORD	n/a	wordpools/wordpool_EN.txt	BANK	12	9	[0, 0, 0]	n/a	FR1	3	R1236J
1026.647	0.0	1648328	WORD_OFF	n/a	n/a	BANK	12	9	[0, 0, 0]	n/a	FR1	3	R1236J
1026.647	0.001	1648328	DISTRACT_START	n/a	n/a	n/a	-999	9	[0, 0, 0]	n/a	FR1	3	R1236J
1026.648	0.016	1648329	START	n/a	n/a	n/a	-999	9	[-999, -999, -999]	n/a	FR1	3	R1236J
1026.664	3.85	1648345	PROB	3.85	n/a	n/a	-999	9	[7, 9, 1]	17	FR1	3	R1236J
1030.514	4.634	1652195	PROB	4.634	n/a	n/a	-999	9	[7, 8, 3]	18	FR1	3	R1236J
1035.148	3.233	1656829	PROB	3.233	n/a	n/a	-999	9	[2, 4, 2]	8	FR1	3	R1236J
1038.381	8.001	1660062	PROB	8.001	n/a	n/a	-999	9	[6, 6, 5]	17	FR1	3	R1236J
1046.382	4.631	1668063	PROB	4.631	n/a	n/a	-999	9	[4, 4, 8]	16	FR1	3	R1236J
1051.013	0.021	1672694	STOP	n/a	n/a	n/a	-999	9	[-999, -999, -999]	n/a	FR1	3	R1236J
1051.034	0.516	1672715	DISTRACT_END	n/a	n/a	n/a	-999	9	[0, 0, 0]	n/a	FR1	3	R1236J
1051.55	0.518	1673231	RETRIEVAL_ORIENT	n/a	n/a	n/a	-999	9	[0, 0, 0]	n/a	FR1	3	R1236J
1052.068	7.164	1673749	REC_START	n/a	n/a	n/a	-999	9	[0, 0, 0]	n/a	FR1	3	R1236J
1059.232	5.626	1680913	REC_WORD	5.626	n/a	CHIEF	-999	9	[0, 0, 0]	n/a	FR1	3	R1236J
1064.858	14.138	1686539	REC_WORD	14.138	n/a	HEART	1	9	[0, 0, 0]	n/a	FR1	3	R1236J
1078.996	3.082	1700677	REC_WORD	3.082	n/a	FOX	11	9	[0, 0, 0]	n/a	FR1	3	R1236J
1082.078	3.81	1703759	REC_END	n/a	n/a	n/a	-999	9	[0, 0, 0]	n/a	FR1	3	R1236J
1085.888	0.5	1707569	TRIAL	n/a	n/a	n/a	-999	10	[0, 0, 0]	n/a	FR1	3	R1236J
1086.388	10.428	1708069	COUNTDOWN_START	n/a	n/a	n/a	-999	10	[0, 0, 0]	n/a	FR1	3	R1236J
1096.816	0.006	1718497	COUNTDOWN_END	n/a	n/a	n/a	-999	10	[0, 0, 0]	n/a	FR1	3	R1236J
1096.822	1.617	1718503	ORIENT	n/a	n/a	n/a	-999	10	[0, 0, 0]	n/a	FR1	3	R1236J
1098.439	2.234	1720120	ORIENT_OFF	n/a	n/a	n/a	-999	10	[0, 0, 0]	n/a	FR1	3	R1236J
1100.673	1.616	1722354	WORD	n/a	wordpools/wordpool_EN.txt	CHEEK	1	10	[0, 0, 0]	n/a	FR1	3	R1236J
1102.289	0.768	1723970	WORD_OFF	n/a	n/a	CHEEK	1	10	[0, 0, 0]	n/a	FR1	3	R1236J
1103.057	1.617	1724738	WORD	n/a	wordpools/wordpool_EN.txt	PIE	2	10	[0, 0, 0]	n/a	FR1	3	R1236J
1104.674	0.833	1726355	WORD_OFF	n/a	n/a	PIE	2	10	[0, 0, 0]	n/a	FR1	3	R1236J
1105.507	1.617	1727188	WORD	n/a	wordpools/wordpool_EN.txt	FENCE	3	10	[0, 0, 0]	n/a	FR1	3	R1236J
1107.124	0.8	1728805	WORD_OFF	n/a	n/a	FENCE	3	10	[0, 0, 0]	n/a	FR1	3	R1236J
1107.924	1.617	1729605	WORD	n/a	wordpools/wordpool_EN.txt	TENT	4	10	[0, 0, 0]	n/a	FR1	3	R1236J
1109.541	0.917	1731222	WORD_OFF	n/a	n/a	TENT	4	10	[0, 0, 0]	n/a	FR1	3	R1236J
1110.458	1.617	1732139	WORD	n/a	wordpools/wordpool_EN.txt	SMILE	5	10	[0, 0, 0]	n/a	FR1	3	R1236J
1112.075	0.783	1733756	WORD_OFF	n/a	n/a	SMILE	5	10	[0, 0, 0]	n/a	FR1	3	R1236J
1112.858	1.617	1734539	WORD	n/a	wordpools/wordpool_EN.txt	SUIT	6	10	[0, 0, 0]	n/a	FR1	3	R1236J
1114.475	0.917	1736156	WORD_OFF	n/a	n/a	SUIT	6	10	[0, 0, 0]	n/a	FR1	3	R1236J
1115.392	1.616	1737073	WORD	n/a	wordpools/wordpool_EN.txt	MUG	7	10	[0, 0, 0]	n/a	FR1	3	R1236J
1117.008	0.934	1738689	WORD_OFF	n/a	n/a	MUG	7	10	[0, 0, 0]	n/a	FR1	3	R1236J
1117.942	1.617	1739623	WORD	n/a	wordpools/wordpool_EN.txt	RIB	8	10	[0, 0, 0]	n/a	FR1	3	R1236J
1119.559	0.967	1741240	WORD_OFF	n/a	n/a	RIB	8	10	[0, 0, 0]	n/a	FR1	3	R1236J
1120.526	1.617	1742207	WORD	n/a	wordpools/wordpool_EN.txt	LAMP	9	10	[0, 0, 0]	n/a	FR1	3	R1236J
1122.143	0.983	1743824	WORD_OFF	n/a	n/a	LAMP	9	10	[0, 0, 0]	n/a	FR1	3	R1236J
1123.126	1.617	1744807	WORD	n/a	wordpools/wordpool_EN.txt	PLATE	10	10	[0, 0, 0]	n/a	FR1	3	R1236J
1124.743	0.8	1746424	WORD_OFF	n/a	n/a	PLATE	10	10	[0, 0, 0]	n/a	FR1	3	R1236J
1125.543	1.617	1747224	WORD	n/a	wordpools/wordpool_EN.txt	PASTE	11	10	[0, 0, 0]	n/a	FR1	3	R1236J
1127.16	0.816	1748841	WORD_OFF	n/a	n/a	PASTE	11	10	[0, 0, 0]	n/a	FR1	3	R1236J
1127.976	1.618	1749657	WORD	n/a	wordpools/wordpool_EN.txt	BRICK	12	10	[0, 0, 0]	n/a	FR1	3	R1236J
1129.594	0.0	1751275	WORD_OFF	n/a	n/a	BRICK	12	10	[0, 0, 0]	n/a	FR1	3	R1236J
1129.594	0.0	1751275	DISTRACT_START	n/a	n/a	n/a	-999	10	[0, 0, 0]	n/a	FR1	3	R1236J
1129.594	0.016	1751275	START	n/a	n/a	n/a	-999	10	[-999, -999, -999]	n/a	FR1	3	R1236J
1129.61	5.501	1751291	PROB	5.501	n/a	n/a	-999	10	[2, 5, 6]	13	FR1	3	R1236J
1135.111	4.567	1756792	PROB	4.567	n/a	n/a	-999	10	[9, 6, 2]	17	FR1	3	R1236J
1139.678	3.151	1761359	PROB	3.151	n/a	n/a	-999	10	[9, 4, 5]	18	FR1	3	R1236J
1142.829	3.117	1764510	PROB	3.117	n/a	n/a	-999	10	[3, 1, 1]	5	FR1	3	R1236J
1145.946	3.5	1767627	PROB	3.5	n/a	n/a	-999	10	[2, 7, 2]	11	FR1	3	R1236J
1149.446	3.651	1771127	PROB	3.651	n/a	n/a	-999	10	[2, 9, 5]	16	FR1	3	R1236J
1153.097	0.016	1774778	STOP	n/a	n/a	n/a	-999	10	[-999, -999, -999]	n/a	FR1	3	R1236J
1153.113	0.65	1774794	DISTRACT_END	n/a	n/a	n/a	-999	10	[0, 0, 0]	n/a	FR1	3	R1236J
1153.763	0.517	1775444	RETRIEVAL_ORIENT	n/a	n/a	n/a	-999	10	[0, 0, 0]	n/a	FR1	3	R1236J
1154.28	1.721	1775961	REC_START	n/a	n/a	n/a	-999	10	[0, 0, 0]	n/a	FR1	3	R1236J
1156.001	1.373	1777682	REC_WORD	1.373	n/a	PIE	2	10	[0, 0, 0]	n/a	FR1	3	R1236J
1157.374	1.118	1779055	REC_WORD	1.118	n/a	CHEEK	1	10	[0, 0, 0]	n/a	FR1	3	R1236J
1158.492	3.671	1780173	REC_WORD	3.671	n/a	SMILE	5	10	[0, 0, 0]	n/a	FR1	3	R1236J
1162.163	1.373	1783844	REC_WORD	1.373	n/a	PLATE	10	10	[0, 0, 0]	n/a	FR1	3	R1236J
1163.536	13.246	1785217	REC_WORD	13.246	n/a	MUG	7	10	[0, 0, 0]	n/a	FR1	3	R1236J
1176.782	7.51	1798463	REC_WORD	7.51	n/a	HEART	-999	10	[0, 0, 0]	n/a	FR1	3	R1236J
1184.292	10.026	1805973	REC_END	n/a	n/a	n/a	-999	10	[0, 0, 0]	n/a	FR1	3	R1236J
1194.318	0.5	1815999	TRIAL	n/a	n/a	n/a	-999	11	[0, 0, 0]	n/a	FR1	3	R1236J
1194.818	10.428	1816499	COUNTDOWN_START	n/a	n/a	n/a	-999	11	[0, 0, 0]	n/a	FR1	3	R1236J
1205.246	0.006	1826927	COUNTDOWN_END	n/a	n/a	n/a	-999	11	[0, 0, 0]	n/a	FR1	3	R1236J
1205.252	1.618	1826933	ORIENT	n/a	n/a	n/a	-999	11	[0, 0, 0]	n/a	FR1	3	R1236J
1206.87	1.967	1828551	ORIENT_OFF	n/a	n/a	n/a	-999	11	[0, 0, 0]	n/a	FR1	3	R1236J
1208.837	1.617	1830518	WORD	n/a	wordpools/wordpool_EN.txt	CROWN	1	11	[0, 0, 0]	n/a	FR1	3	R1236J
1210.454	0.816	1832135	WORD_OFF	n/a	n/a	CROWN	1	11	[0, 0, 0]	n/a	FR1	3	R1236J
1211.27	1.618	1832951	WORD	n/a	wordpools/wordpool_EN.txt	HAND	2	11	[0, 0, 0]	n/a	FR1	3	R1236J
1212.888	0.816	1834569	WORD_OFF	n/a	n/a	HAND	2	11	[0, 0, 0]	n/a	FR1	3	R1236J
1213.704	1.616	1835385	WORD	n/a	wordpools/wordpool_EN.txt	CALF	3	11	[0, 0, 0]	n/a	FR1	3	R1236J
1215.32	0.984	1837001	WORD_OFF	n/a	n/a	CALF	3	11	[0, 0, 0]	n/a	FR1	3	R1236J
1216.304	1.617	1837985	WORD	n/a	wordpools/wordpool_EN.txt	DIME	4	11	[0, 0, 0]	n/a	FR1	3	R1236J
1217.921	0.901	1839602	WORD_OFF	n/a	n/a	DIME	4	11	[0, 0, 0]	n/a	FR1	3	R1236J
1218.822	1.616	1840503	WORD	n/a	wordpools/wordpool_EN.txt	STOOL	5	11	[0, 0, 0]	n/a	FR1	3	R1236J
1220.438	0.85	1842119	WORD_OFF	n/a	n/a	STOOL	5	11	[0, 0, 0]	n/a	FR1	3	R1236J
1221.288	1.617	1842969	WORD	n/a	wordpools/wordpool_EN.txt	STEAK	6	11	[0, 0, 0]	n/a	FR1	3	R1236J
1222.905	0.784	1844586	WORD_OFF	n/a	n/a	STEAK	6	11	[0, 0, 0]	n/a	FR1	3	R1236J
1223.689	1.616	1845370	WORD	n/a	wordpools/wordpool_EN.txt	TIE	7	11	[0, 0, 0]	n/a	FR1	3	R1236J
1225.305	0.983	1846986	WORD_OFF	n/a	n/a	TIE	7	11	[0, 0, 0]	n/a	FR1	3	R1236J
1226.288	1.618	1847969	WORD	n/a	wordpools/wordpool_EN.txt	GRASS	8	11	[0, 0, 0]	n/a	FR1	3	R1236J
1227.906	0.8	1849587	WORD_OFF	n/a	n/a	GRASS	8	11	[0, 0, 0]	n/a	FR1	3	R1236J
1228.706	1.616	1850387	WORD	n/a	wordpools/wordpool_EN.txt	CART	9	11	[0, 0, 0]	n/a	FR1	3	R1236J
1230.322	0.984	1852003	WORD_OFF	n/a	n/a	CART	9	11	[0, 0, 0]	n/a	FR1	3	R1236J
1231.306	1.617	1852987	WORD	n/a	wordpools/wordpool_EN.txt	CLAY	10	11	[0, 0, 0]	n/a	FR1	3	R1236J
1232.923	0.901	1854604	WORD_OFF	n/a	n/a	CLAY	10	11	[0, 0, 0]	n/a	FR1	3	R1236J
1233.824	1.616	1855505	WORD	n/a	wordpools/wordpool_EN.txt	BOOT	11	11	[0, 0, 0]	n/a	FR1	3	R1236J
1235.44	0.85	1857121	WORD_OFF	n/a	n/a	BOOT	11	11	[0, 0, 0]	n/a	FR1	3	R1236J
1236.29	1.617	1857971	WORD	n/a	wordpools/wordpool_EN.txt	PEA	12	11	[0, 0, 0]	n/a	FR1	3	R1236J
1237.907	0.0	1859588	WORD_OFF	n/a	n/a	PEA	12	11	[0, 0, 0]	n/a	FR1	3	R1236J
1237.907	0.001	1859588	DISTRACT_START	n/a	n/a	n/a	-999	11	[0, 0, 0]	n/a	FR1	3	R1236J
1237.908	0.016	1859589	START	n/a	n/a	n/a	-999	11	[-999, -999, -999]	n/a	FR1	3	R1236J
1237.924	4.316	1859605	PROB	4.316	n/a	n/a	-999	11	[7, 7, 6]	23	FR1	3	R1236J
1242.24	3.652	1863921	PROB	3.652	n/a	n/a	-999	11	[4, 4, 2]	10	FR1	3	R1236J
1245.892	2.867	1867573	PROB	2.867	n/a	n/a	-999	11	[4, 3, 7]	14	FR1	3	R1236J
1248.759	8.034	1870440	PROB	8.034	n/a	n/a	-999	11	[7, 8, 5]	20	FR1	3	R1236J
1256.793	4.379	1878474	PROB	4.379	n/a	n/a	-999	11	[9, 8, 9]	26	FR1	3	R1236J
1261.172	0.021	1882853	STOP	n/a	n/a	n/a	-999	11	[-999, -999, -999]	n/a	FR1	3	R1236J
1261.193	0.534	1882874	DISTRACT_END	n/a	n/a	n/a	-999	11	[0, 0, 0]	n/a	FR1	3	R1236J
1261.727	0.517	1883408	RETRIEVAL_ORIENT	n/a	n/a	n/a	-999	11	[0, 0, 0]	n/a	FR1	3	R1236J
1262.244	1.826	1883925	REC_START	n/a	n/a	n/a	-999	11	[0, 0, 0]	n/a	FR1	3	R1236J
1264.07	3.795	1885751	REC_WORD	3.795	n/a	CART	9	11	[0, 0, 0]	n/a	FR1	3	R1236J
1267.865	1.683	1889546	REC_WORD	1.683	n/a	CALF	3	11	[0, 0, 0]	n/a	FR1	3	R1236J
1269.548	5.351	1891229	REC_WORD	5.351	n/a	BOOT	11	11	[0, 0, 0]	n/a	FR1	3	R1236J
1274.899	17.357	1896580	REC_WORD	17.357	n/a	FOOT	-999	11	[0, 0, 0]	n/a	FR1	3	R1236J
1292.256	5.941	1913937	REC_END	n/a	n/a	n/a	-999	11	[0, 0, 0]	n/a	FR1	3	R1236J
1298.197	0.5	1919878	TRIAL	n/a	n/a	n/a	-999	12	[0, 0, 0]	n/a	FR1	3	R1236J
1298.697	10.428	1920378	COUNTDOWN_START	n/a	n/a	n/a	-999	12	[0, 0, 0]	n/a	FR1	3	R1236J
1309.125	0.008	1930807	COUNTDOWN_END	n/a	n/a	n/a	-999	12	[0, 0, 0]	n/a	FR1	3	R1236J
1309.133	1.617	1930815	ORIENT	n/a	n/a	n/a	-999	12	[0, 0, 0]	n/a	FR1	3	R1236J
1310.75	2.15	1932432	ORIENT_OFF	n/a	n/a	n/a	-999	12	[0, 0, 0]	n/a	FR1	3	R1236J
1312.9	1.617	1934582	WORD	n/a	wordpools/wordpool_EN.txt	WALL	1	12	[0, 0, 0]	n/a	FR1	3	R1236J
1314.517	0.9	1936199	WORD_OFF	n/a	n/a	WALL	1	12	[0, 0, 0]	n/a	FR1	3	R1236J
1315.417	1.617	1937099	WORD	n/a	wordpools/wordpool_EN.txt	HORN	2	12	[0, 0, 0]	n/a	FR1	3	R1236J
1317.034	0.967	1938716	WORD_OFF	n/a	n/a	HORN	2	12	[0, 0, 0]	n/a	FR1	3	R1236J
1318.001	1.617	1939683	WORD	n/a	wordpools/wordpool_EN.txt	SCHOOL	3	12	[0, 0, 0]	n/a	FR1	3	R1236J
1319.618	0.95	1941300	WORD_OFF	n/a	n/a	SCHOOL	3	12	[0, 0, 0]	n/a	FR1	3	R1236J
1320.568	1.616	1942250	WORD	n/a	wordpools/wordpool_EN.txt	WHALE	4	12	[0, 0, 0]	n/a	FR1	3	R1236J
1322.184	1.0	1943866	WORD_OFF	n/a	n/a	WHALE	4	12	[0, 0, 0]	n/a	FR1	3	R1236J
1323.184	1.618	1944866	WORD	n/a	wordpools/wordpool_EN.txt	BENCH	5	12	[0, 0, 0]	n/a	FR1	3	R1236J
1324.802	0.95	1946484	WORD_OFF	n/a	n/a	BENCH	5	12	[0, 0, 0]	n/a	FR1	3	R1236J
1325.752	1.616	1947434	WORD	n/a	wordpools/wordpool_EN.txt	STOVE	6	12	[0, 0, 0]	n/a	FR1	3	R1236J
1327.368	0.917	1949050	WORD_OFF	n/a	n/a	STOVE	6	12	[0, 0, 0]	n/a	FR1	3	R1236J
1328.285	1.617	1949967	WORD	n/a	wordpools/wordpool_EN.txt	LOCK	7	12	[0, 0, 0]	n/a	FR1	3	R1236J
1329.902	0.9	1951584	WORD_OFF	n/a	n/a	LOCK	7	12	[0, 0, 0]	n/a	FR1	3	R1236J
1330.802	1.618	1952484	WORD	n/a	wordpools/wordpool_EN.txt	VINE	8	12	[0, 0, 0]	n/a	FR1	3	R1236J
1332.42	0.832	1954102	WORD_OFF	n/a	n/a	VINE	8	12	[0, 0, 0]	n/a	FR1	3	R1236J
1333.252	1.618	1954934	WORD	n/a	wordpools/wordpool_EN.txt	BOARD	9	12	[0, 0, 0]	n/a	FR1	3	R1236J
1334.87	0.817	1956552	WORD_OFF	n/a	n/a	BOARD	9	12	[0, 0, 0]	n/a	FR1	3	R1236J
1335.687	1.615	1957369	WORD	n/a	wordpools/wordpool_EN.txt	CLOTH	10	12	[0, 0, 0]	n/a	FR1	3	R1236J
1337.302	0.851	1958984	WORD_OFF	n/a	n/a	CLOTH	10	12	[0, 0, 0]	n/a	FR1	3	R1236J
1338.153	1.617	1959835	WORD	n/a	wordpools/wordpool_EN.txt	NAIL	11	12	[0, 0, 0]	n/a	FR1	3	R1236J
1339.77	0.934	1961452	WORD_OFF	n/a	n/a	NAIL	11	12	[0, 0, 0]	n/a	FR1	3	R1236J
1340.704	1.616	1962386	WORD	n/a	wordpools/wordpool_EN.txt	PEACH	12	12	[0, 0, 0]	n/a	FR1	3	R1236J
1342.32	0.0	1964002	DISTRACT_START	n/a	n/a	n/a	-999	12	[0, 0, 0]	n/a	FR1	3	R1236J
1342.32	0.001	1964002	WORD_OFF	n/a	n/a	PEACH	12	12	[0, 0, 0]	n/a	FR1	3	R1236J
1342.321	0.015	1964003	START	n/a	n/a	n/a	-999	12	[-999, -999, -999]	n/a	FR1	3	R1236J
1342.336	12.386	1964018	PROB	12.386	n/a	n/a	-999	12	[7, 5, 8]	20	FR1	3	R1236J
1354.722	4.051	1976404	PROB	4.051	n/a	n/a	-999	12	[8, 6, 1]	15	FR1	3	R1236J
1358.773	5.554	1980455	PROB	5.554	n/a	n/a	-999	12	[9, 5, 3]	17	FR1	3	R1236J
1364.327	0.012	1986009	STOP	n/a	n/a	n/a	-999	12	[-999, -999, -999]	n/a	FR1	3	R1236J
1364.339	0.568	1986021	DISTRACT_END	n/a	n/a	n/a	-999	12	[0, 0, 0]	n/a	FR1	3	R1236J
1364.907	0.517	1986589	RETRIEVAL_ORIENT	n/a	n/a	n/a	-999	12	[0, 0, 0]	n/a	FR1	3	R1236J
1365.424	5.965	1987106	REC_START	n/a	n/a	n/a	-999	12	[0, 0, 0]	n/a	FR1	3	R1236J
1371.389	24.047	1993071	REC_WORD	24.047	n/a	WALL	1	12	[0, 0, 0]	n/a	FR1	3	R1236J
1395.436	4.709	2017118	REC_END	n/a	n/a	n/a	-999	12	[0, 0, 0]	n/a	FR1	3	R1236J
1400.145	0.5	2021827	TRIAL	n/a	n/a	n/a	-999	13	[0, 0, 0]	n/a	FR1	3	R1236J
1400.645	10.428	2022327	COUNTDOWN_START	n/a	n/a	n/a	-999	13	[0, 0, 0]	n/a	FR1	3	R1236J
1411.073	0.006	2032755	COUNTDOWN_END	n/a	n/a	n/a	-999	13	[0, 0, 0]	n/a	FR1	3	R1236J
1411.079	1.617	2032761	ORIENT	n/a	n/a	n/a	-999	13	[0, 0, 0]	n/a	FR1	3	R1236J
1412.696	2.234	2034378	ORIENT_OFF	n/a	n/a	n/a	-999	13	[0, 0, 0]	n/a	FR1	3	R1236J
1414.93	1.617	2036612	WORD	n/a	wordpools/wordpool_EN.txt	DOG	1	13	[0, 0, 0]	n/a	FR1	3	R1236J
1416.547	0.95	2038229	WORD_OFF	n/a	n/a	DOG	1	13	[0, 0, 0]	n/a	FR1	3	R1236J
1417.497	1.617	2039179	WORD	n/a	wordpools/wordpool_EN.txt	SUN	2	13	[0, 0, 0]	n/a	FR1	3	R1236J
1419.114	0.916	2040796	WORD_OFF	n/a	n/a	SUN	2	13	[0, 0, 0]	n/a	FR1	3	R1236J
1420.03	1.617	2041712	WORD	n/a	wordpools/wordpool_EN.txt	TEA	3	13	[0, 0, 0]	n/a	FR1	3	R1236J
1421.647	0.817	2043329	WORD_OFF	n/a	n/a	TEA	3	13	[0, 0, 0]	n/a	FR1	3	R1236J
1422.464	1.617	2044146	WORD	n/a	wordpools/wordpool_EN.txt	APE	4	13	[0, 0, 0]	n/a	FR1	3	R1236J
1424.081	0.834	2045763	WORD_OFF	n/a	n/a	APE	4	13	[0, 0, 0]	n/a	FR1	3	R1236J
1424.915	1.616	2046597	WORD	n/a	wordpools/wordpool_EN.txt	HOLE	5	13	[0, 0, 0]	n/a	FR1	3	R1236J
1426.531	0.799	2048213	WORD_OFF	n/a	n/a	HOLE	5	13	[0, 0, 0]	n/a	FR1	3	R1236J
1427.33	1.601	2049012	WORD	n/a	wordpools/wordpool_EN.txt	FORK	6	13	[0, 0, 0]	n/a	FR1	3	R1236J
1428.931	0.868	2050613	WORD_OFF	n/a	n/a	FORK	6	13	[0, 0, 0]	n/a	FR1	3	R1236J
1429.799	1.616	2051481	WORD	n/a	wordpools/wordpool_EN.txt	FOG	7	13	[0, 0, 0]	n/a	FR1	3	R1236J
1431.415	1.001	2053097	WORD_OFF	n/a	n/a	FOG	7	13	[0, 0, 0]	n/a	FR1	3	R1236J
1432.416	1.616	2054098	WORD	n/a	wordpools/wordpool_EN.txt	PRINCE	8	13	[0, 0, 0]	n/a	FR1	3	R1236J
1434.032	0.867	2055714	WORD_OFF	n/a	n/a	PRINCE	8	13	[0, 0, 0]	n/a	FR1	3	R1236J
1434.899	1.617	2056581	WORD	n/a	wordpools/wordpool_EN.txt	BEAR	9	13	[0, 0, 0]	n/a	FR1	3	R1236J
1436.516	0.816	2058198	WORD_OFF	n/a	n/a	BEAR	9	13	[0, 0, 0]	n/a	FR1	3	R1236J
1437.332	1.618	2059014	WORD	n/a	wordpools/wordpool_EN.txt	SOCK	10	13	[0, 0, 0]	n/a	FR1	3	R1236J
1438.95	0.85	2060632	WORD_OFF	n/a	n/a	SOCK	10	13	[0, 0, 0]	n/a	FR1	3	R1236J
1439.8	1.617	2061482	WORD	n/a	wordpools/wordpool_EN.txt	TRUCK	11	13	[0, 0, 0]	n/a	FR1	3	R1236J
1441.417	0.949	2063099	WORD_OFF	n/a	n/a	TRUCK	11	13	[0, 0, 0]	n/a	FR1	3	R1236J
1442.366	1.618	2064048	WORD	n/a	wordpools/wordpool_EN.txt	CAGE	12	13	[0, 0, 0]	n/a	FR1	3	R1236J
1443.984	0.0	2065666	WORD_OFF	n/a	n/a	CAGE	12	13	[0, 0, 0]	n/a	FR1	3	R1236J
1443.984	0.001	2065666	DISTRACT_START	n/a	n/a	n/a	-999	13	[0, 0, 0]	n/a	FR1	3	R1236J
1443.985	0.015	2065667	START	n/a	n/a	n/a	-999	13	[-999, -999, -999]	n/a	FR1	3	R1236J
1444.0	6.418	2065682	PROB	6.418	n/a	n/a	-999	13	[9, 5, 7]	21	FR1	3	R1236J
1450.418	4.1	2072100	PROB	4.1	n/a	n/a	-999	13	[9, 8, 9]	26	FR1	3	R1236J
1454.518	3.951	2076200	PROB	3.951	n/a	n/a	-999	13	[3, 7, 8]	18	FR1	3	R1236J
1458.469	3.0	2080151	PROB	3.0	n/a	n/a	-999	13	[3, 9, 1]	13	FR1	3	R1236J
1461.469	6.655	2083151	PROB	6.655	n/a	n/a	-999	13	[5, 7, 5]	17	FR1	3	R1236J
1468.124	0.013	2089806	STOP	n/a	n/a	n/a	-999	13	[-999, -999, -999]	n/a	FR1	3	R1236J
1468.137	0.7	2089819	DISTRACT_END	n/a	n/a	n/a	-999	13	[0, 0, 0]	n/a	FR1	3	R1236J
1468.837	0.52	2090519	RETRIEVAL_ORIENT	n/a	n/a	n/a	-999	13	[0, 0, 0]	n/a	FR1	3	R1236J
1469.357	5.583	2091039	REC_START	n/a	n/a	n/a	-999	13	[0, 0, 0]	n/a	FR1	3	R1236J
1474.94	1.176	2096622	REC_WORD	1.176	n/a	HOLE	5	13	[0, 0, 0]	n/a	FR1	3	R1236J
1476.116	23.25	2097798	REC_WORD	23.25	n/a	FOG	7	13	[0, 0, 0]	n/a	FR1	3	R1236J
1499.366	4.692	2121048	REC_END	n/a	n/a	n/a	-999	13	[0, 0, 0]	n/a	FR1	3	R1236J
1504.058	0.5	2125740	TRIAL	n/a	n/a	n/a	-999	14	[0, 0, 0]	n/a	FR1	3	R1236J
1504.558	10.428	2126240	COUNTDOWN_START	n/a	n/a	n/a	-999	14	[0, 0, 0]	n/a	FR1	3	R1236J
1514.986	0.007	2136668	COUNTDOWN_END	n/a	n/a	n/a	-999	14	[0, 0, 0]	n/a	FR1	3	R1236J
1514.993	1.616	2136675	ORIENT	n/a	n/a	n/a	-999	14	[0, 0, 0]	n/a	FR1	3	R1236J
1516.609	2.034	2138291	ORIENT_OFF	n/a	n/a	n/a	-999	14	[0, 0, 0]	n/a	FR1	3	R1236J
1518.643	1.616	2140325	WORD	n/a	wordpools/wordpool_EN.txt	TREE	1	14	[0, 0, 0]	n/a	FR1	3	R1236J
1520.259	1.0	2141941	WORD_OFF	n/a	n/a	TREE	1	14	[0, 0, 0]	n/a	FR1	3	R1236J
1521.259	1.618	2142941	WORD	n/a	wordpools/wordpool_EN.txt	PET	2	14	[0, 0, 0]	n/a	FR1	3	R1236J
1522.877	0.9	2144559	WORD_OFF	n/a	n/a	PET	2	14	[0, 0, 0]	n/a	FR1	3	R1236J
1523.777	1.617	2145459	WORD	n/a	wordpools/wordpool_EN.txt	FORT	3	14	[0, 0, 0]	n/a	FR1	3	R1236J
1525.394	1.0	2147076	WORD_OFF	n/a	n/a	FORT	3	14	[0, 0, 0]	n/a	FR1	3	R1236J
1526.394	1.617	2148076	WORD	n/a	wordpools/wordpool_EN.txt	SHIP	4	14	[0, 0, 0]	n/a	FR1	3	R1236J
1528.011	0.917	2149693	WORD_OFF	n/a	n/a	SHIP	4	14	[0, 0, 0]	n/a	FR1	3	R1236J
1528.928	1.617	2150610	WORD	n/a	wordpools/wordpool_EN.txt	STAIR	5	14	[0, 0, 0]	n/a	FR1	3	R1236J
1530.545	0.983	2152227	WORD_OFF	n/a	n/a	STAIR	5	14	[0, 0, 0]	n/a	FR1	3	R1236J
1531.528	1.617	2153210	WORD	n/a	wordpools/wordpool_EN.txt	EEL	6	14	[0, 0, 0]	n/a	FR1	3	R1236J
1533.145	0.9	2154827	WORD_OFF	n/a	n/a	EEL	6	14	[0, 0, 0]	n/a	FR1	3	R1236J
1534.045	1.617	2155727	WORD	n/a	wordpools/wordpool_EN.txt	GOAT	7	14	[0, 0, 0]	n/a	FR1	3	R1236J
1535.662	0.983	2157344	WORD_OFF	n/a	n/a	GOAT	7	14	[0, 0, 0]	n/a	FR1	3	R1236J
1536.645	1.616	2158327	WORD	n/a	wordpools/wordpool_EN.txt	JET	8	14	[0, 0, 0]	n/a	FR1	3	R1236J
1538.261	0.785	2159943	WORD_OFF	n/a	n/a	JET	8	14	[0, 0, 0]	n/a	FR1	3	R1236J
1539.046	1.617	2160728	WORD	n/a	wordpools/wordpool_EN.txt	MAIL	9	14	[0, 0, 0]	n/a	FR1	3	R1236J
1540.663	1.0	2162345	WORD_OFF	n/a	n/a	MAIL	9	14	[0, 0, 0]	n/a	FR1	3	R1236J
1541.663	1.616	2163345	WORD	n/a	wordpools/wordpool_EN.txt	ZOO	10	14	[0, 0, 0]	n/a	FR1	3	R1236J
1543.279	0.933	2164961	WORD_OFF	n/a	n/a	ZOO	10	14	[0, 0, 0]	n/a	FR1	3	R1236J
1544.212	1.601	2165894	WORD	n/a	wordpools/wordpool_EN.txt	PEAR	11	14	[0, 0, 0]	n/a	FR1	3	R1236J
1545.813	0.917	2167495	WORD_OFF	n/a	n/a	PEAR	11	14	[0, 0, 0]	n/a	FR1	3	R1236J
1546.73	1.616	2168412	WORD	n/a	wordpools/wordpool_EN.txt	BOAT	12	14	[0, 0, 0]	n/a	FR1	3	R1236J
1548.346	0.0	2170028	WORD_OFF	n/a	n/a	BOAT	12	14	[0, 0, 0]	n/a	FR1	3	R1236J
1548.346	0.001	2170028	DISTRACT_START	n/a	n/a	n/a	-999	14	[0, 0, 0]	n/a	FR1	3	R1236J
1548.347	0.016	2170029	START	n/a	n/a	n/a	-999	14	[-999, -999, -999]	n/a	FR1	3	R1236J
1548.363	6.402	2170045	PROB	6.402	n/a	n/a	-999	14	[7, 8, 8]	23	FR1	3	R1236J
1554.765	3.549	2176447	PROB	3.549	n/a	n/a	-999	14	[2, 4, 1]	7	FR1	3	R1236J
1558.314	3.451	2179996	PROB	3.451	n/a	n/a	-999	14	[6, 6, 5]	17	FR1	3	R1236J
1561.765	2.784	2183447	PROB	2.784	n/a	n/a	-999	14	[9, 2, 1]	12	FR1	3	R1236J
1564.549	4.155	2186231	PROB	4.155	n/a	n/a	-999	14	[3, 8, 3]	14	FR1	3	R1236J
1568.704	0.012	2190386	STOP	n/a	n/a	n/a	-999	14	[-999, -999, -999]	n/a	FR1	3	R1236J
1568.716	0.649	2190398	DISTRACT_END	n/a	n/a	n/a	-999	14	[0, 0, 0]	n/a	FR1	3	R1236J
1569.365	0.519	2191047	RETRIEVAL_ORIENT	n/a	n/a	n/a	-999	14	[0, 0, 0]	n/a	FR1	3	R1236J
1569.884	1.226	2191566	REC_START	n/a	n/a	n/a	-999	14	[0, 0, 0]	n/a	FR1	3	R1236J
1571.11	4.745	2192792	REC_WORD	4.745	n/a	PET	2	14	[0, 0, 0]	n/a	FR1	3	R1236J
1575.855	2.802	2197537	REC_WORD	2.802	n/a	TREE	1	14	[0, 0, 0]	n/a	FR1	3	R1236J
1578.657	21.241	2200339	REC_WORD	21.241	n/a	CAVE	-999	14	[0, 0, 0]	n/a	FR1	3	R1236J
1599.898	4.573	2221580	REC_END	n/a	n/a	n/a	-999	14	[0, 0, 0]	n/a	FR1	3	R1236J
1604.471	0.5	2226153	TRIAL	n/a	n/a	n/a	-999	15	[0, 0, 0]	n/a	FR1	3	R1236J
1604.971	10.428	2226653	COUNTDOWN_START	n/a	n/a	n/a	-999	15	[0, 0, 0]	n/a	FR1	3	R1236J
1615.399	0.007	2237081	COUNTDOWN_END	n/a	n/a	n/a	-999	15	[0, 0, 0]	n/a	FR1	3	R1236J
1615.406	1.616	2237088	ORIENT	n/a	n/a	n/a	-999	15	[0, 0, 0]	n/a	FR1	3	R1236J
1617.022	1.934	2238704	ORIENT_OFF	n/a	n/a	n/a	-999	15	[0, 0, 0]	n/a	FR1	3	R1236J
1618.956	1.617	2240638	WORD	n/a	wordpools/wordpool_EN.txt	BAND	1	15	[0, 0, 0]	n/a	FR1	3	R1236J
1620.573	0.983	2242255	WORD_OFF	n/a	n/a	BAND	1	15	[0, 0, 0]	n/a	FR1	3	R1236J
1621.556	1.616	2243238	WORD	n/a	wordpools/wordpool_EN.txt	PANTS	2	15	[0, 0, 0]	n/a	FR1	3	R1236J
1623.172	0.885	2244854	WORD_OFF	n/a	n/a	PANTS	2	15	[0, 0, 0]	n/a	FR1	3	R1236J
1624.057	1.617	2245739	WORD	n/a	wordpools/wordpool_EN.txt	STONE	3	15	[0, 0, 0]	n/a	FR1	3	R1236J
1625.674	1.016	2247356	WORD_OFF	n/a	n/a	STONE	3	15	[0, 0, 0]	n/a	FR1	3	R1236J
1626.69	1.616	2248372	WORD	n/a	wordpools/wordpool_EN.txt	OAK	4	15	[0, 0, 0]	n/a	FR1	3	R1236J
1628.306	0.818	2249988	WORD_OFF	n/a	n/a	OAK	4	15	[0, 0, 0]	n/a	FR1	3	R1236J
1629.124	1.617	2250806	WORD	n/a	wordpools/wordpool_EN.txt	DESK	5	15	[0, 0, 0]	n/a	FR1	3	R1236J
1630.741	0.767	2252423	WORD_OFF	n/a	n/a	DESK	5	15	[0, 0, 0]	n/a	FR1	3	R1236J
1631.508	1.617	2253190	WORD	n/a	wordpools/wordpool_EN.txt	SHIELD	6	15	[0, 0, 0]	n/a	FR1	3	R1236J
1633.125	0.9	2254807	WORD_OFF	n/a	n/a	SHIELD	6	15	[0, 0, 0]	n/a	FR1	3	R1236J
1634.025	1.617	2255707	WORD	n/a	wordpools/wordpool_EN.txt	YARD	7	15	[0, 0, 0]	n/a	FR1	3	R1236J
1635.642	0.783	2257324	WORD_OFF	n/a	n/a	YARD	7	15	[0, 0, 0]	n/a	FR1	3	R1236J
1636.425	1.617	2258107	WORD	n/a	wordpools/wordpool_EN.txt	STICK	8	15	[0, 0, 0]	n/a	FR1	3	R1236J
1638.042	0.883	2259724	WORD_OFF	n/a	n/a	STICK	8	15	[0, 0, 0]	n/a	FR1	3	R1236J
1638.925	1.617	2260607	WORD	n/a	wordpools/wordpool_EN.txt	ELF	9	15	[0, 0, 0]	n/a	FR1	3	R1236J
1640.542	0.883	2262224	WORD_OFF	n/a	n/a	ELF	9	15	[0, 0, 0]	n/a	FR1	3	R1236J
1641.425	1.618	2263107	WORD	n/a	wordpools/wordpool_EN.txt	LEG	10	15	[0, 0, 0]	n/a	FR1	3	R1236J
1643.043	0.916	2264725	WORD_OFF	n/a	n/a	LEG	10	15	[0, 0, 0]	n/a	FR1	3	R1236J
1643.959	1.617	2265641	WORD	n/a	wordpools/wordpool_EN.txt	CHIN	11	15	[0, 0, 0]	n/a	FR1	3	R1236J
1645.576	0.883	2267258	WORD_OFF	n/a	n/a	CHIN	11	15	[0, 0, 0]	n/a	FR1	3	R1236J
1646.459	1.617	2268141	WORD	n/a	wordpools/wordpool_EN.txt	DRESS	12	15	[0, 0, 0]	n/a	FR1	3	R1236J
1648.076	0.0	2269758	WORD_OFF	n/a	n/a	DRESS	12	15	[0, 0, 0]	n/a	FR1	3	R1236J
1648.076	0.001	2269758	DISTRACT_START	n/a	n/a	n/a	-999	15	[0, 0, 0]	n/a	FR1	3	R1236J
1648.077	0.016	2269759	START	n/a	n/a	n/a	-999	15	[-999, -999, -999]	n/a	FR1	3	R1236J
1648.093	3.45	2269775	PROB	3.45	n/a	n/a	-999	15	[2, 7, 2]	11	FR1	3	R1236J
1651.543	5.134	2273225	PROB	5.134	n/a	n/a	-999	15	[4, 8, 6]	18	FR1	3	R1236J
1656.677	3.301	2278359	PROB	3.301	n/a	n/a	-999	15	[6, 3, 8]	16	FR1	3	R1236J
1659.978	4.901	2281660	PROB	4.901	n/a	n/a	-999	15	[4, 6, 9]	19	FR1	3	R1236J
1664.879	3.167	2286561	PROB	3.167	n/a	n/a	-999	15	[5, 3, 2]	10	FR1	3	R1236J
1668.046	4.607	2289728	PROB	4.607	n/a	n/a	-999	15	[3, 5, 4]	12	FR1	3	R1236J
1672.653	0.01	2294335	STOP	n/a	n/a	n/a	-999	15	[-999, -999, -999]	n/a	FR1	3	R1236J
1672.663	0.516	2294345	DISTRACT_END	n/a	n/a	n/a	-999	15	[0, 0, 0]	n/a	FR1	3	R1236J
1673.179	0.518	2294861	RETRIEVAL_ORIENT	n/a	n/a	n/a	-999	15	[0, 0, 0]	n/a	FR1	3	R1236J
1673.697	1.776	2295379	REC_START	n/a	n/a	n/a	-999	15	[0, 0, 0]	n/a	FR1	3	R1236J
1675.473	1.287	2297155	REC_WORD	1.287	n/a	BAND	1	15	[0, 0, 0]	n/a	FR1	3	R1236J
1676.76	26.948	2298442	REC_WORD	26.948	n/a	PANTS	2	15	[0, 0, 0]	n/a	FR1	3	R1236J
1703.708	5.393	2325390	REC_END	n/a	n/a	n/a	-999	15	[0, 0, 0]	n/a	FR1	3	R1236J
1709.101	0.5	2330783	TRIAL	n/a	n/a	n/a	-999	16	[0, 0, 0]	n/a	FR1	3	R1236J
1709.601	10.428	2331283	COUNTDOWN_START	n/a	n/a	n/a	-999	16	[0, 0, 0]	n/a	FR1	3	R1236J
1720.029	0.007	2341711	COUNTDOWN_END	n/a	n/a	n/a	-999	16	[0, 0, 0]	n/a	FR1	3	R1236J
1720.036	1.616	2341718	ORIENT	n/a	n/a	n/a	-999	16	[0, 0, 0]	n/a	FR1	3	R1236J
1721.652	2.051	2343334	ORIENT_OFF	n/a	n/a	n/a	-999	16	[0, 0, 0]	n/a	FR1	3	R1236J
1723.703	1.616	2345385	WORD	n/a	wordpools/wordpool_EN.txt	GOLD	1	16	[0, 0, 0]	n/a	FR1	3	R1236J
1725.319	1.017	2347001	WORD_OFF	n/a	n/a	GOLD	1	16	[0, 0, 0]	n/a	FR1	3	R1236J
1726.336	1.617	2348018	WORD	n/a	wordpools/wordpool_EN.txt	POND	2	16	[0, 0, 0]	n/a	FR1	3	R1236J
1727.953	0.784	2349635	WORD_OFF	n/a	n/a	POND	2	16	[0, 0, 0]	n/a	FR1	3	R1236J
1728.737	1.615	2350419	WORD	n/a	wordpools/wordpool_EN.txt	CORD	3	16	[0, 0, 0]	n/a	FR1	3	R1236J
1730.352	0.867	2352034	WORD_OFF	n/a	n/a	CORD	3	16	[0, 0, 0]	n/a	FR1	3	R1236J
1731.219	1.601	2352901	WORD	n/a	wordpools/wordpool_EN.txt	CHALK	4	16	[0, 0, 0]	n/a	FR1	3	R1236J
1732.82	1.017	2354502	WORD_OFF	n/a	n/a	CHALK	4	16	[0, 0, 0]	n/a	FR1	3	R1236J
1733.837	1.617	2355519	WORD	n/a	wordpools/wordpool_EN.txt	MOTH	5	16	[0, 0, 0]	n/a	FR1	3	R1236J
1735.454	0.967	2357136	WORD_OFF	n/a	n/a	MOTH	5	16	[0, 0, 0]	n/a	FR1	3	R1236J
1736.421	1.617	2358103	WORD	n/a	wordpools/wordpool_EN.txt	SLUSH	6	16	[0, 0, 0]	n/a	FR1	3	R1236J
1738.038	0.85	2359720	WORD_OFF	n/a	n/a	SLUSH	6	16	[0, 0, 0]	n/a	FR1	3	R1236J
1738.888	1.617	2360570	WORD	n/a	wordpools/wordpool_EN.txt	FILM	7	16	[0, 0, 0]	n/a	FR1	3	R1236J
1740.505	0.883	2362187	WORD_OFF	n/a	n/a	FILM	7	16	[0, 0, 0]	n/a	FR1	3	R1236J
1741.388	1.617	2363071	WORD	n/a	wordpools/wordpool_EN.txt	ROCK	8	16	[0, 0, 0]	n/a	FR1	3	R1236J
1743.005	0.8	2364688	WORD_OFF	n/a	n/a	ROCK	8	16	[0, 0, 0]	n/a	FR1	3	R1236J
1743.805	1.617	2365488	WORD	n/a	wordpools/wordpool_EN.txt	BED	9	16	[0, 0, 0]	n/a	FR1	3	R1236J
1745.422	0.984	2367105	WORD_OFF	n/a	n/a	BED	9	16	[0, 0, 0]	n/a	FR1	3	R1236J
1746.406	1.616	2368089	WORD	n/a	wordpools/wordpool_EN.txt	SHRIMP	10	16	[0, 0, 0]	n/a	FR1	3	R1236J
1748.022	0.967	2369705	WORD_OFF	n/a	n/a	SHRIMP	10	16	[0, 0, 0]	n/a	FR1	3	R1236J
1748.989	1.617	2370672	WORD	n/a	wordpools/wordpool_EN.txt	TRASH	11	16	[0, 0, 0]	n/a	FR1	3	R1236J
1750.606	0.817	2372289	WORD_OFF	n/a	n/a	TRASH	11	16	[0, 0, 0]	n/a	FR1	3	R1236J
1751.423	1.617	2373106	WORD	n/a	wordpools/wordpool_EN.txt	NEST	12	16	[0, 0, 0]	n/a	FR1	3	R1236J
1753.04	0.0	2374723	WORD_OFF	n/a	n/a	NEST	12	16	[0, 0, 0]	n/a	FR1	3	R1236J
1753.04	0.0	2374723	DISTRACT_START	n/a	n/a	n/a	-999	16	[0, 0, 0]	n/a	FR1	3	R1236J
1753.04	0.016	2374723	START	n/a	n/a	n/a	-999	16	[-999, -999, -999]	n/a	FR1	3	R1236J
1753.056	3.25	2374739	PROB	3.25	n/a	n/a	-999	16	[2, 2, 8]	12	FR1	3	R1236J
1756.306	4.451	2377989	PROB	4.451	n/a	n/a	-999	16	[4, 3, 6]	13	FR1	3	R1236J
1760.757	2.868	2382440	PROB	2.868	n/a	n/a	-999	16	[2, 8, 5]	15	FR1	3	R1236J
1763.625	3.766	2385308	PROB	3.766	n/a	n/a	-999	16	[4, 1, 6]	9	FR1	3	R1236J
1767.391	9.808	2389074	PROB	9.808	n/a	n/a	-999	16	[7, 4, 7]	18	FR1	3	R1236J
1777.199	0.009	2398882	STOP	n/a	n/a	n/a	-999	16	[-999, -999, -999]	n/a	FR1	3	R1236J
1777.208	0.701	2398891	DISTRACT_END	n/a	n/a	n/a	-999	16	[0, 0, 0]	n/a	FR1	3	R1236J
1777.909	0.518	2399592	RETRIEVAL_ORIENT	n/a	n/a	n/a	-999	16	[0, 0, 0]	n/a	FR1	3	R1236J
1778.427	2.247	2400110	REC_START	n/a	n/a	n/a	-999	16	[0, 0, 0]	n/a	FR1	3	R1236J
1780.674	1.247	2402357	REC_WORD	1.247	n/a	POND	2	16	[0, 0, 0]	n/a	FR1	3	R1236J
1781.921	17.851	2403604	REC_WORD	17.851	n/a	TRASH	11	16	[0, 0, 0]	n/a	FR1	3	R1236J
1799.772	3.571	2421455	REC_WORD	3.571	n/a	GOLD	1	16	[0, 0, 0]	n/a	FR1	3	R1236J
1803.343	5.094	2425026	REC_WORD	5.094	n/a	CHALK	4	16	[0, 0, 0]	n/a	FR1	3	R1236J
1808.437	4.444	2430120	REC_END	n/a	n/a	n/a	-999	16	[0, 0, 0]	n/a	FR1	3	R1236J
1812.881	0.5	2434564	TRIAL	n/a	n/a	n/a	-999	17	[0, 0, 0]	n/a	FR1	3	R1236J
1813.381	10.428	2435064	COUNTDOWN_START	n/a	n/a	n/a	-999	17	[0, 0, 0]	n/a	FR1	3	R1236J
1823.809	0.007	2445492	COUNTDOWN_END	n/a	n/a	n/a	-999	17	[0, 0, 0]	n/a	FR1	3	R1236J
1823.816	1.616	2445499	ORIENT	n/a	n/a	n/a	-999	17	[0, 0, 0]	n/a	FR1	3	R1236J
1825.432	1.967	2447115	ORIENT_OFF	n/a	n/a	n/a	-999	17	[0, 0, 0]	n/a	FR1	3	R1236J
1827.399	1.617	2449082	WORD	n/a	wordpools/wordpool_EN.txt	JAIL	1	17	[0, 0, 0]	n/a	FR1	3	R1236J
1829.016	0.917	2450699	WORD_OFF	n/a	n/a	JAIL	1	17	[0, 0, 0]	n/a	FR1	3	R1236J
1829.933	1.617	2451616	WORD	n/a	wordpools/wordpool_EN.txt	ROOM	2	17	[0, 0, 0]	n/a	FR1	3	R1236J
1831.55	0.95	2453233	WORD_OFF	n/a	n/a	ROOM	2	17	[0, 0, 0]	n/a	FR1	3	R1236J
1832.5	1.617	2454183	WORD	n/a	wordpools/wordpool_EN.txt	LEAF	3	17	[0, 0, 0]	n/a	FR1	3	R1236J
1834.117	0.883	2455800	WORD_OFF	n/a	n/a	LEAF	3	17	[0, 0, 0]	n/a	FR1	3	R1236J
1835.0	1.617	2456683	WORD	n/a	wordpools/wordpool_EN.txt	THREAD	4	17	[0, 0, 0]	n/a	FR1	3	R1236J
1836.617	0.783	2458300	WORD_OFF	n/a	n/a	THREAD	4	17	[0, 0, 0]	n/a	FR1	3	R1236J
1837.4	1.617	2459083	WORD	n/a	wordpools/wordpool_EN.txt	BEACH	5	17	[0, 0, 0]	n/a	FR1	3	R1236J
1839.017	0.867	2460700	WORD_OFF	n/a	n/a	BEACH	5	17	[0, 0, 0]	n/a	FR1	3	R1236J
1839.884	1.617	2461567	WORD	n/a	wordpools/wordpool_EN.txt	FLUTE	6	17	[0, 0, 0]	n/a	FR1	3	R1236J
1841.501	0.984	2463184	WORD_OFF	n/a	n/a	FLUTE	6	17	[0, 0, 0]	n/a	FR1	3	R1236J
1842.485	1.616	2464168	WORD	n/a	wordpools/wordpool_EN.txt	GRAPE	7	17	[0, 0, 0]	n/a	FR1	3	R1236J
1844.101	0.901	2465784	WORD_OFF	n/a	n/a	GRAPE	7	17	[0, 0, 0]	n/a	FR1	3	R1236J
1845.002	1.616	2466685	WORD	n/a	wordpools/wordpool_EN.txt	BRANCH	8	17	[0, 0, 0]	n/a	FR1	3	R1236J
1846.618	0.784	2468301	WORD_OFF	n/a	n/a	BRANCH	8	17	[0, 0, 0]	n/a	FR1	3	R1236J
1847.402	1.617	2469085	WORD	n/a	wordpools/wordpool_EN.txt	GEESE	9	17	[0, 0, 0]	n/a	FR1	3	R1236J
1849.019	0.883	2470702	WORD_OFF	n/a	n/a	GEESE	9	17	[0, 0, 0]	n/a	FR1	3	R1236J
1849.902	1.617	2471585	WORD	n/a	wordpools/wordpool_EN.txt	NET	10	17	[0, 0, 0]	n/a	FR1	3	R1236J
1851.519	0.984	2473202	WORD_OFF	n/a	n/a	NET	10	17	[0, 0, 0]	n/a	FR1	3	R1236J
1852.503	1.616	2474186	WORD	n/a	wordpools/wordpool_EN.txt	BREAD	11	17	[0, 0, 0]	n/a	FR1	3	R1236J
1854.119	0.784	2475802	WORD_OFF	n/a	n/a	BREAD	11	17	[0, 0, 0]	n/a	FR1	3	R1236J
1854.903	1.616	2476586	WORD	n/a	wordpools/wordpool_EN.txt	SHEEP	12	17	[0, 0, 0]	n/a	FR1	3	R1236J
1856.519	0.0	2478202	WORD_OFF	n/a	n/a	SHEEP	12	17	[0, 0, 0]	n/a	FR1	3	R1236J
1856.519	0.001	2478202	DISTRACT_START	n/a	n/a	n/a	-999	17	[0, 0, 0]	n/a	FR1	3	R1236J
1856.52	0.016	2478203	START	n/a	n/a	n/a	-999	17	[-999, -999, -999]	n/a	FR1	3	R1236J
1856.536	7.501	2478219	PROB	7.501	n/a	n/a	-999	17	[6, 7, 5]	18	FR1	3	R1236J
1864.037	3.617	2485720	PROB	3.617	n/a	n/a	-999	17	[7, 4, 2]	13	FR1	3	R1236J
1867.654	3.401	2489337	PROB	3.401	n/a	n/a	-999	17	[3, 1, 7]	11	FR1	3	R1236J
1871.055	2.717	2492738	PROB	2.717	n/a	n/a	-999	17	[2, 5, 4]	11	FR1	3	R1236J
1873.772	3.24	2495455	PROB	3.24	n/a	n/a	-999	17	[3, 9, 9]	21	FR1	3	R1236J
1877.012	0.01	2498695	STOP	n/a	n/a	n/a	-999	17	[-999, -999, -999]	n/a	FR1	3	R1236J
1877.022	0.6	2498705	DISTRACT_END	n/a	n/a	n/a	-999	17	[0, 0, 0]	n/a	FR1	3	R1236J
1877.622	0.518	2499305	RETRIEVAL_ORIENT	n/a	n/a	n/a	-999	17	[0, 0, 0]	n/a	FR1	3	R1236J
1878.14	1.47	2499823	REC_START	n/a	n/a	n/a	-999	17	[0, 0, 0]	n/a	FR1	3	R1236J
1879.61	1.597	2501293	REC_WORD	1.597	n/a	JAIL	1	17	[0, 0, 0]	n/a	FR1	3	R1236J
1881.207	1.222	2502890	REC_WORD	1.222	n/a	ROOM	2	17	[0, 0, 0]	n/a	FR1	3	R1236J
1882.429	25.722	2504112	REC_WORD	25.722	n/a	BREAD	11	17	[0, 0, 0]	n/a	FR1	3	R1236J
1908.151	4.426	2529834	REC_END	n/a	n/a	n/a	-999	17	[0, 0, 0]	n/a	FR1	3	R1236J
1912.577	0.5	2534260	TRIAL	n/a	n/a	n/a	-999	18	[0, 0, 0]	n/a	FR1	3	R1236J
1913.077	10.428	2534760	COUNTDOWN_START	n/a	n/a	n/a	-999	18	[0, 0, 0]	n/a	FR1	3	R1236J
1923.505	0.006	2545188	COUNTDOWN_END	n/a	n/a	n/a	-999	18	[0, 0, 0]	n/a	FR1	3	R1236J
1923.511	1.618	2545194	ORIENT	n/a	n/a	n/a	-999	18	[0, 0, 0]	n/a	FR1	3	R1236J
1925.129	2.198	2546812	ORIENT_OFF	n/a	n/a	n/a	-999	18	[0, 0, 0]	n/a	FR1	3	R1236J
1927.327	1.602	2549010	WORD	n/a	wordpools/wordpool_EN.txt	SALT	1	18	[0, 0, 0]	n/a	FR1	3	R1236J
1928.929	0.766	2550612	WORD_OFF	n/a	n/a	SALT	1	18	[0, 0, 0]	n/a	FR1	3	R1236J
1929.695	1.617	2551378	WORD	n/a	wordpools/wordpool_EN.txt	WORM	2	18	[0, 0, 0]	n/a	FR1	3	R1236J
1931.312	0.966	2552995	WORD_OFF	n/a	n/a	WORM	2	18	[0, 0, 0]	n/a	FR1	3	R1236J
1932.278	1.618	2553961	WORD	n/a	wordpools/wordpool_EN.txt	SMOKE	3	18	[0, 0, 0]	n/a	FR1	3	R1236J
1933.896	0.934	2555579	WORD_OFF	n/a	n/a	SMOKE	3	18	[0, 0, 0]	n/a	FR1	3	R1236J
1934.83	1.616	2556513	WORD	n/a	wordpools/wordpool_EN.txt	ANT	4	18	[0, 0, 0]	n/a	FR1	3	R1236J
1936.446	1.001	2558129	WORD_OFF	n/a	n/a	ANT	4	18	[0, 0, 0]	n/a	FR1	3	R1236J
1937.447	1.616	2559130	WORD	n/a	wordpools/wordpool_EN.txt	WING	5	18	[0, 0, 0]	n/a	FR1	3	R1236J
1939.063	1.017	2560746	WORD_OFF	n/a	n/a	WING	5	18	[0, 0, 0]	n/a	FR1	3	R1236J
1940.08	1.617	2561763	WORD	n/a	wordpools/wordpool_EN.txt	HAT	6	18	[0, 0, 0]	n/a	FR1	3	R1236J
1941.697	1.0	2563380	WORD_OFF	n/a	n/a	HAT	6	18	[0, 0, 0]	n/a	FR1	3	R1236J
1942.697	1.616	2564380	WORD	n/a	wordpools/wordpool_EN.txt	CASH	7	18	[0, 0, 0]	n/a	FR1	3	R1236J
1944.313	0.801	2565996	WORD_OFF	n/a	n/a	CASH	7	18	[0, 0, 0]	n/a	FR1	3	R1236J
1945.114	1.617	2566797	WORD	n/a	wordpools/wordpool_EN.txt	DART	8	18	[0, 0, 0]	n/a	FR1	3	R1236J
1946.731	0.967	2568414	WORD_OFF	n/a	n/a	DART	8	18	[0, 0, 0]	n/a	FR1	3	R1236J
1947.698	1.616	2569381	WORD	n/a	wordpools/wordpool_EN.txt	SEAL	9	18	[0, 0, 0]	n/a	FR1	3	R1236J
1949.314	0.867	2570997	WORD_OFF	n/a	n/a	SEAL	9	18	[0, 0, 0]	n/a	FR1	3	R1236J
1950.181	1.617	2571864	WORD	n/a	wordpools/wordpool_EN.txt	GLOVE	10	18	[0, 0, 0]	n/a	FR1	3	R1236J
1951.798	0.884	2573481	WORD_OFF	n/a	n/a	GLOVE	10	18	[0, 0, 0]	n/a	FR1	3	R1236J
1952.682	1.616	2574365	WORD	n/a	wordpools/wordpool_EN.txt	STAR	11	18	[0, 0, 0]	n/a	FR1	3	R1236J
1954.298	0.967	2575981	WORD_OFF	n/a	n/a	STAR	11	18	[0, 0, 0]	n/a	FR1	3	R1236J
1955.265	1.617	2576948	WORD	n/a	wordpools/wordpool_EN.txt	CORN	12	18	[0, 0, 0]	n/a	FR1	3	R1236J
1956.882	0.0	2578565	WORD_OFF	n/a	n/a	CORN	12	18	[0, 0, 0]	n/a	FR1	3	R1236J
1956.882	0.001	2578565	DISTRACT_START	n/a	n/a	n/a	-999	18	[0, 0, 0]	n/a	FR1	3	R1236J
1956.883	0.016	2578566	START	n/a	n/a	n/a	-999	18	[-999, -999, -999]	n/a	FR1	3	R1236J
1956.899	5.918	2578582	PROB	5.918	n/a	n/a	-999	18	[7, 6, 9]	22	FR1	3	R1236J
1962.817	3.683	2584500	PROB	3.683	n/a	n/a	-999	18	[1, 7, 4]	12	FR1	3	R1236J
1966.5	3.7	2588183	PROB	3.7	n/a	n/a	-999	18	[6, 5, 1]	12	FR1	3	R1236J
1970.2	5.518	2591883	PROB	5.518	n/a	n/a	-999	18	[5, 8, 8]	21	FR1	3	R1236J
1975.718	2.937	2597401	PROB	2.937	n/a	n/a	-999	18	[3, 3, 7]	13	FR1	3	R1236J
1978.655	0.013	2600338	STOP	n/a	n/a	n/a	-999	18	[-999, -999, -999]	n/a	FR1	3	R1236J
1978.668	0.633	2600351	DISTRACT_END	n/a	n/a	n/a	-999	18	[0, 0, 0]	n/a	FR1	3	R1236J
1979.301	0.519	2600984	RETRIEVAL_ORIENT	n/a	n/a	n/a	-999	18	[0, 0, 0]	n/a	FR1	3	R1236J
1979.82	3.318	2601503	REC_START	n/a	n/a	n/a	-999	18	[0, 0, 0]	n/a	FR1	3	R1236J
1983.138	26.694	2604821	REC_WORD	26.694	n/a	SALT	1	18	[0, 0, 0]	n/a	FR1	3	R1236J
2009.832	4.324	2631515	REC_END	n/a	n/a	n/a	-999	18	[0, 0, 0]	n/a	FR1	3	R1236J
2014.156	0.5	2635839	TRIAL	n/a	n/a	n/a	-999	19	[0, 0, 0]	n/a	FR1	3	R1236J
2014.656	10.428	2636339	COUNTDOWN_START	n/a	n/a	n/a	-999	19	[0, 0, 0]	n/a	FR1	3	R1236J
2025.084	0.007	2646767	COUNTDOWN_END	n/a	n/a	n/a	-999	19	[0, 0, 0]	n/a	FR1	3	R1236J
2025.091	1.617	2646774	ORIENT	n/a	n/a	n/a	-999	19	[0, 0, 0]	n/a	FR1	3	R1236J
2026.708	2.267	2648391	ORIENT_OFF	n/a	n/a	n/a	-999	19	[0, 0, 0]	n/a	FR1	3	R1236J
2028.975	1.617	2650658	WORD	n/a	wordpools/wordpool_EN.txt	CROW	1	19	[0, 0, 0]	n/a	FR1	3	R1236J
2030.592	1.0	2652275	WORD_OFF	n/a	n/a	CROW	1	19	[0, 0, 0]	n/a	FR1	3	R1236J
2031.592	1.616	2653275	WORD	n/a	wordpools/wordpool_EN.txt	SOUP	2	19	[0, 0, 0]	n/a	FR1	3	R1236J
2033.208	1.017	2654891	WORD_OFF	n/a	n/a	SOUP	2	19	[0, 0, 0]	n/a	FR1	3	R1236J
2034.225	1.618	2655908	WORD	n/a	wordpools/wordpool_EN.txt	FROG	3	19	[0, 0, 0]	n/a	FR1	3	R1236J
2035.843	0.799	2657526	WORD_OFF	n/a	n/a	FROG	3	19	[0, 0, 0]	n/a	FR1	3	R1236J
2036.642	1.616	2658325	WORD	n/a	wordpools/wordpool_EN.txt	SHIRT	4	19	[0, 0, 0]	n/a	FR1	3	R1236J
2038.258	0.917	2659941	WORD_OFF	n/a	n/a	SHIRT	4	19	[0, 0, 0]	n/a	FR1	3	R1236J
2039.175	1.601	2660858	WORD	n/a	wordpools/wordpool_EN.txt	CUP	5	19	[0, 0, 0]	n/a	FR1	3	R1236J
2040.776	0.867	2662459	WORD_OFF	n/a	n/a	CUP	5	19	[0, 0, 0]	n/a	FR1	3	R1236J
2041.643	1.616	2663326	WORD	n/a	wordpools/wordpool_EN.txt	PALM	6	19	[0, 0, 0]	n/a	FR1	3	R1236J
2043.259	0.967	2664942	WORD_OFF	n/a	n/a	PALM	6	19	[0, 0, 0]	n/a	FR1	3	R1236J
2044.226	1.618	2665909	WORD	n/a	wordpools/wordpool_EN.txt	ROOF	7	19	[0, 0, 0]	n/a	FR1	3	R1236J
2045.844	0.95	2667527	WORD_OFF	n/a	n/a	ROOF	7	19	[0, 0, 0]	n/a	FR1	3	R1236J
2046.794	1.617	2668477	WORD	n/a	wordpools/wordpool_EN.txt	PLANT	8	19	[0, 0, 0]	n/a	FR1	3	R1236J
2048.411	0.983	2670094	WORD_OFF	n/a	n/a	PLANT	8	19	[0, 0, 0]	n/a	FR1	3	R1236J
2049.394	1.617	2671077	WORD	n/a	wordpools/wordpool_EN.txt	CANE	9	19	[0, 0, 0]	n/a	FR1	3	R1236J
2051.011	0.967	2672694	WORD_OFF	n/a	n/a	CANE	9	19	[0, 0, 0]	n/a	FR1	3	R1236J
2051.978	1.617	2673661	WORD	n/a	wordpools/wordpool_EN.txt	BROOM	10	19	[0, 0, 0]	n/a	FR1	3	R1236J
2053.595	0.917	2675278	WORD_OFF	n/a	n/a	BROOM	10	19	[0, 0, 0]	n/a	FR1	3	R1236J
2054.512	1.617	2676195	WORD	n/a	wordpools/wordpool_EN.txt	BEE	11	19	[0, 0, 0]	n/a	FR1	3	R1236J
2056.129	0.833	2677812	WORD_OFF	n/a	n/a	BEE	11	19	[0, 0, 0]	n/a	FR1	3	R1236J
2056.962	1.617	2678645	WORD	n/a	wordpools/wordpool_EN.txt	DUCK	12	19	[0, 0, 0]	n/a	FR1	3	R1236J
2058.579	0.0	2680262	DISTRACT_START	n/a	n/a	n/a	-999	19	[0, 0, 0]	n/a	FR1	3	R1236J
2058.579	0.0	2680262	WORD_OFF	n/a	n/a	DUCK	12	19	[0, 0, 0]	n/a	FR1	3	R1236J
2058.579	0.016	2680262	START	n/a	n/a	n/a	-999	19	[-999, -999, -999]	n/a	FR1	3	R1236J
2058.595	4.734	2680278	PROB	4.734	n/a	n/a	-999	19	[3, 1, 7]	11	FR1	3	R1236J
2063.329	3.933	2685012	PROB	3.933	n/a	n/a	-999	19	[2, 1, 4]	7	FR1	3	R1236J
2067.262	4.285	2688945	PROB	4.285	n/a	n/a	-999	19	[4, 7, 7]	18	FR1	3	R1236J
2071.547	3.501	2693230	PROB	3.501	n/a	n/a	-999	19	[3, 6, 6]	15	FR1	3	R1236J
2075.048	4.444	2696731	PROB	4.444	n/a	n/a	-999	19	[5, 7, 5]	17	FR1	3	R1236J
2079.492	0.006	2701175	STOP	n/a	n/a	n/a	-999	19	[-999, -999, -999]	n/a	FR1	3	R1236J
2079.498	0.567	2701181	DISTRACT_END	n/a	n/a	n/a	-999	19	[0, 0, 0]	n/a	FR1	3	R1236J
2080.065	0.517	2701748	RETRIEVAL_ORIENT	n/a	n/a	n/a	-999	19	[0, 0, 0]	n/a	FR1	3	R1236J
2080.582	9.191	2702265	REC_START	n/a	n/a	n/a	-999	19	[0, 0, 0]	n/a	FR1	3	R1236J
2089.773	20.822	2711456	REC_WORD	20.822	n/a	PIE	-999	19	[0, 0, 0]	n/a	FR1	3	R1236J
2110.595	5.491	2732278	REC_END	n/a	n/a	n/a	-999	19	[0, 0, 0]	n/a	FR1	3	R1236J
2116.086	0.5	2737769	TRIAL	n/a	n/a	n/a	-999	20	[0, 0, 0]	n/a	FR1	3	R1236J
2116.586	10.428	2738269	COUNTDOWN_START	n/a	n/a	n/a	-999	20	[0, 0, 0]	n/a	FR1	3	R1236J
2127.014	0.006	2748697	COUNTDOWN_END	n/a	n/a	n/a	-999	20	[0, 0, 0]	n/a	FR1	3	R1236J
2127.02	1.618	2748703	ORIENT	n/a	n/a	n/a	-999	20	[0, 0, 0]	n/a	FR1	3	R1236J
2128.638	1.95	2750321	ORIENT_OFF	n/a	n/a	n/a	-999	20	[0, 0, 0]	n/a	FR1	3	R1236J
2130.588	1.616	2752271	WORD	n/a	wordpools/wordpool_EN.txt	ICE	1	20	[0, 0, 0]	n/a	FR1	3	R1236J
2132.204	0.784	2753887	WORD_OFF	n/a	n/a	ICE	1	20	[0, 0, 0]	n/a	FR1	3	R1236J
2132.988	1.617	2754671	WORD	n/a	wordpools/wordpool_EN.txt	TOOTH	2	20	[0, 0, 0]	n/a	FR1	3	R1236J
2134.605	0.967	2756288	WORD_OFF	n/a	n/a	TOOTH	2	20	[0, 0, 0]	n/a	FR1	3	R1236J
2135.572	1.616	2757255	WORD	n/a	wordpools/wordpool_EN.txt	SAIL	3	20	[0, 0, 0]	n/a	FR1	3	R1236J
2137.188	0.801	2758871	WORD_OFF	n/a	n/a	SAIL	3	20	[0, 0, 0]	n/a	FR1	3	R1236J
2137.989	1.617	2759672	WORD	n/a	wordpools/wordpool_EN.txt	ARM	4	20	[0, 0, 0]	n/a	FR1	3	R1236J
2139.606	0.967	2761289	WORD_OFF	n/a	n/a	ARM	4	20	[0, 0, 0]	n/a	FR1	3	R1236J
2140.573	1.615	2762256	WORD	n/a	wordpools/wordpool_EN.txt	MAZE	5	20	[0, 0, 0]	n/a	FR1	3	R1236J
2142.188	0.902	2763871	WORD_OFF	n/a	n/a	MAZE	5	20	[0, 0, 0]	n/a	FR1	3	R1236J
2143.09	1.617	2764773	WORD	n/a	wordpools/wordpool_EN.txt	TOY	6	20	[0, 0, 0]	n/a	FR1	3	R1236J
2144.707	0.866	2766390	WORD_OFF	n/a	n/a	TOY	6	20	[0, 0, 0]	n/a	FR1	3	R1236J
2145.573	1.616	2767256	WORD	n/a	wordpools/wordpool_EN.txt	CAT	7	20	[0, 0, 0]	n/a	FR1	3	R1236J
2147.189	0.901	2768872	WORD_OFF	n/a	n/a	CAT	7	20	[0, 0, 0]	n/a	FR1	3	R1236J
2148.09	1.617	2769773	WORD	n/a	wordpools/wordpool_EN.txt	SNOW	8	20	[0, 0, 0]	n/a	FR1	3	R1236J
2149.707	0.767	2771390	WORD_OFF	n/a	n/a	SNOW	8	20	[0, 0, 0]	n/a	FR1	3	R1236J
2150.474	1.617	2772157	WORD	n/a	wordpools/wordpool_EN.txt	LAND	9	20	[0, 0, 0]	n/a	FR1	3	R1236J
2152.091	0.95	2773774	WORD_OFF	n/a	n/a	LAND	9	20	[0, 0, 0]	n/a	FR1	3	R1236J
2153.041	1.617	2774724	WORD	n/a	wordpools/wordpool_EN.txt	FLAG	10	20	[0, 0, 0]	n/a	FR1	3	R1236J
2154.658	0.867	2776341	WORD_OFF	n/a	n/a	FLAG	10	20	[0, 0, 0]	n/a	FR1	3	R1236J
2155.525	1.616	2777208	WORD	n/a	wordpools/wordpool_EN.txt	RAKE	11	20	[0, 0, 0]	n/a	FR1	3	R1236J
2157.141	0.884	2778824	WORD_OFF	n/a	n/a	RAKE	11	20	[0, 0, 0]	n/a	FR1	3	R1236J
2158.025	1.617	2779708	WORD	n/a	wordpools/wordpool_EN.txt	RAIN	12	20	[0, 0, 0]	n/a	FR1	3	R1236J
2159.642	0.0	2781325	WORD_OFF	n/a	n/a	RAIN	12	20	[0, 0, 0]	n/a	FR1	3	R1236J
2159.642	0.0	2781325	DISTRACT_START	n/a	n/a	n/a	-999	20	[0, 0, 0]	n/a	FR1	3	R1236J
2159.642	0.016	2781325	START	n/a	n/a	n/a	-999	20	[-999, -999, -999]	n/a	FR1	3	R1236J
2159.658	10.302	2781341	PROB	10.302	n/a	n/a	-999	20	[9, 6, 8]	23	FR1	3	R1236J
2169.96	3.717	2791643	PROB	3.717	n/a	n/a	-999	20	[1, 4, 7]	12	FR1	3	R1236J
2173.677	3.45	2795360	PROB	3.45	n/a	n/a	-999	20	[9, 1, 7]	17	FR1	3	R1236J
2177.127	3.328	2798810	PROB	3.328	n/a	n/a	-999	20	[1, 5, 3]	9	FR1	3	R1236J
2180.455	0.006	2802139	STOP	n/a	n/a	n/a	-999	20	[-999, -999, -999]	n/a	FR1	3	R1236J
2180.461	0.517	2802145	DISTRACT_END	n/a	n/a	n/a	-999	20	[0, 0, 0]	n/a	FR1	3	R1236J
2180.978	0.517	2802662	RETRIEVAL_ORIENT	n/a	n/a	n/a	-999	20	[0, 0, 0]	n/a	FR1	3	R1236J
2181.495	1.22	2803179	REC_START	n/a	n/a	n/a	-999	20	[0, 0, 0]	n/a	FR1	3	R1236J
2182.715	14.545	2804399	REC_WORD	14.545	n/a	FLAG	10	20	[0, 0, 0]	n/a	FR1	3	R1236J
2197.26	14.246	2818944	REC_WORD	14.246	n/a	RAKE	11	20	[0, 0, 0]	n/a	FR1	3	R1236J
2211.506	4.659	2833190	REC_END	n/a	n/a	n/a	-999	20	[0, 0, 0]	n/a	FR1	3	R1236J
2216.165	0.5	2837849	TRIAL	n/a	n/a	n/a	-999	21	[0, 0, 0]	n/a	FR1	3	R1236J
2216.665	10.428	2838349	COUNTDOWN_START	n/a	n/a	n/a	-999	21	[0, 0, 0]	n/a	FR1	3	R1236J
2227.093	0.007	2848777	COUNTDOWN_END	n/a	n/a	n/a	-999	21	[0, 0, 0]	n/a	FR1	3	R1236J
2227.1	1.617	2848784	ORIENT	n/a	n/a	n/a	-999	21	[0, 0, 0]	n/a	FR1	3	R1236J
2228.717	2.084	2850401	ORIENT_OFF	n/a	n/a	n/a	-999	21	[0, 0, 0]	n/a	FR1	3	R1236J
2230.801	1.617	2852485	WORD	n/a	wordpools/wordpool_EN.txt	VEST	1	21	[0, 0, 0]	n/a	FR1	3	R1236J
2232.418	0.983	2854102	WORD_OFF	n/a	n/a	VEST	1	21	[0, 0, 0]	n/a	FR1	3	R1236J
2233.401	1.617	2855085	WORD	n/a	wordpools/wordpool_EN.txt	SHELL	2	21	[0, 0, 0]	n/a	FR1	3	R1236J
2235.018	0.984	2856702	WORD_OFF	n/a	n/a	SHELL	2	21	[0, 0, 0]	n/a	FR1	3	R1236J
2236.002	1.616	2857686	WORD	n/a	wordpools/wordpool_EN.txt	BADGE	3	21	[0, 0, 0]	n/a	FR1	3	R1236J
2237.618	0.8	2859302	WORD_OFF	n/a	n/a	BADGE	3	21	[0, 0, 0]	n/a	FR1	3	R1236J
2238.418	1.617	2860102	WORD	n/a	wordpools/wordpool_EN.txt	BAT	4	21	[0, 0, 0]	n/a	FR1	3	R1236J
2240.035	1.0	2861719	WORD_OFF	n/a	n/a	BAT	4	21	[0, 0, 0]	n/a	FR1	3	R1236J
2241.035	1.617	2862719	WORD	n/a	wordpools/wordpool_EN.txt	CAPE	5	21	[0, 0, 0]	n/a	FR1	3	R1236J
2242.652	0.934	2864336	WORD_OFF	n/a	n/a	CAPE	5	21	[0, 0, 0]	n/a	FR1	3	R1236J
2243.586	1.616	2865270	WORD	n/a	wordpools/wordpool_EN.txt	SWORD	6	21	[0, 0, 0]	n/a	FR1	3	R1236J
2245.202	0.868	2866886	WORD_OFF	n/a	n/a	SWORD	6	21	[0, 0, 0]	n/a	FR1	3	R1236J
2246.07	1.616	2867754	WORD	n/a	wordpools/wordpool_EN.txt	KITE	7	21	[0, 0, 0]	n/a	FR1	3	R1236J
2247.686	0.867	2869370	WORD_OFF	n/a	n/a	KITE	7	21	[0, 0, 0]	n/a	FR1	3	R1236J
2248.553	1.616	2870237	WORD	n/a	wordpools/wordpool_EN.txt	PIG	8	21	[0, 0, 0]	n/a	FR1	3	R1236J
2250.169	0.818	2871853	WORD_OFF	n/a	n/a	PIG	8	21	[0, 0, 0]	n/a	FR1	3	R1236J
2250.987	1.617	2872671	WORD	n/a	wordpools/wordpool_EN.txt	WAVE	9	21	[0, 0, 0]	n/a	FR1	3	R1236J
2252.604	0.783	2874288	WORD_OFF	n/a	n/a	WAVE	9	21	[0, 0, 0]	n/a	FR1	3	R1236J
2253.387	1.617	2875071	WORD	n/a	wordpools/wordpool_EN.txt	ROOT	10	21	[0, 0, 0]	n/a	FR1	3	R1236J
2255.004	0.834	2876688	WORD_OFF	n/a	n/a	ROOT	10	21	[0, 0, 0]	n/a	FR1	3	R1236J
2255.838	1.616	2877522	WORD	n/a	wordpools/wordpool_EN.txt	BOOK	11	21	[0, 0, 0]	n/a	FR1	3	R1236J
2257.454	0.916	2879138	WORD_OFF	n/a	n/a	BOOK	11	21	[0, 0, 0]	n/a	FR1	3	R1236J
2258.37	1.601	2880054	WORD	n/a	wordpools/wordpool_EN.txt	CONE	12	21	[0, 0, 0]	n/a	FR1	3	R1236J
2259.971	0.0	2881655	WORD_OFF	n/a	n/a	CONE	12	21	[0, 0, 0]	n/a	FR1	3	R1236J
2259.971	0.0	2881655	DISTRACT_START	n/a	n/a	n/a	-999	21	[0, 0, 0]	n/a	FR1	3	R1236J
2259.971	0.017	2881655	START	n/a	n/a	n/a	-999	21	[-999, -999, -999]	n/a	FR1	3	R1236J
2259.988	5.117	2881672	PROB	5.117	n/a	n/a	-999	21	[9, 8, 3]	20	FR1	3	R1236J
2265.105	11.401	2886789	PROB	11.401	n/a	n/a	-999	21	[8, 7, 6]	21	FR1	3	R1236J
2276.506	4.832	2898190	PROB	4.832	n/a	n/a	-999	21	[3, 8, 5]	16	FR1	3	R1236J
2281.338	0.018	2903022	STOP	n/a	n/a	n/a	-999	21	[-999, -999, -999]	n/a	FR1	3	R1236J
2281.356	0.601	2903040	DISTRACT_END	n/a	n/a	n/a	-999	21	[0, 0, 0]	n/a	FR1	3	R1236J
2281.957	0.518	2903641	RETRIEVAL_ORIENT	n/a	n/a	n/a	-999	21	[0, 0, 0]	n/a	FR1	3	R1236J
2282.475	3.852	2904159	REC_START	n/a	n/a	n/a	-999	21	[0, 0, 0]	n/a	FR1	3	R1236J
2286.327	1.468	2908011	REC_WORD	1.468	n/a	BADGE	3	21	[0, 0, 0]	n/a	FR1	3	R1236J
2287.795	2.944	2909479	REC_WORD	2.944	n/a	CAPE	5	21	[0, 0, 0]	n/a	FR1	3	R1236J
2290.739	2.204	2912423	REC_WORD	2.204	n/a	VEST	1	21	[0, 0, 0]	n/a	FR1	3	R1236J
2292.943	19.543	2914627	REC_WORD	19.543	n/a	SHELL	2	21	[0, 0, 0]	n/a	FR1	3	R1236J
2312.486	3.976	2934170	REC_END	n/a	n/a	n/a	-999	21	[0, 0, 0]	n/a	FR1	3	R1236J
2316.462	0.5	2938146	TRIAL	n/a	n/a	n/a	-999	22	[0, 0, 0]	n/a	FR1	3	R1236J
2316.962	10.428	2938646	COUNTDOWN_START	n/a	n/a	n/a	-999	22	[0, 0, 0]	n/a	FR1	3	R1236J
2327.39	0.023	2949074	COUNTDOWN_END	n/a	n/a	n/a	-999	22	[0, 0, 0]	n/a	FR1	3	R1236J
2327.413	1.617	2949097	ORIENT	n/a	n/a	n/a	-999	22	[0, 0, 0]	n/a	FR1	3	R1236J
2329.03	2.017	2950714	ORIENT_OFF	n/a	n/a	n/a	-999	22	[0, 0, 0]	n/a	FR1	3	R1236J
2331.047	1.617	2952731	WORD	n/a	wordpools/wordpool_EN.txt	VASE	1	22	[0, 0, 0]	n/a	FR1	3	R1236J
2332.664	0.833	2954348	WORD_OFF	n/a	n/a	VASE	1	22	[0, 0, 0]	n/a	FR1	3	R1236J
2333.497	1.617	2955181	WORD	n/a	wordpools/wordpool_EN.txt	BOY	2	22	[0, 0, 0]	n/a	FR1	3	R1236J
2335.114	0.784	2956798	WORD_OFF	n/a	n/a	BOY	2	22	[0, 0, 0]	n/a	FR1	3	R1236J
2335.898	1.616	2957582	WORD	n/a	wordpools/wordpool_EN.txt	DOLL	3	22	[0, 0, 0]	n/a	FR1	3	R1236J
2337.514	1.017	2959198	WORD_OFF	n/a	n/a	DOLL	3	22	[0, 0, 0]	n/a	FR1	3	R1236J
2338.531	1.617	2960215	WORD	n/a	wordpools/wordpool_EN.txt	DRUM	4	22	[0, 0, 0]	n/a	FR1	3	R1236J
2340.148	0.883	2961832	WORD_OFF	n/a	n/a	DRUM	4	22	[0, 0, 0]	n/a	FR1	3	R1236J
2341.031	1.617	2962715	WORD	n/a	wordpools/wordpool_EN.txt	TOAD	5	22	[0, 0, 0]	n/a	FR1	3	R1236J
2342.648	0.784	2964332	WORD_OFF	n/a	n/a	TOAD	5	22	[0, 0, 0]	n/a	FR1	3	R1236J
2343.432	1.617	2965116	WORD	n/a	wordpools/wordpool_EN.txt	SKI	6	22	[0, 0, 0]	n/a	FR1	3	R1236J
2345.049	0.817	2966733	WORD_OFF	n/a	n/a	SKI	6	22	[0, 0, 0]	n/a	FR1	3	R1236J
2345.866	1.616	2967550	WORD	n/a	wordpools/wordpool_EN.txt	STEAM	7	22	[0, 0, 0]	n/a	FR1	3	R1236J
2347.482	0.766	2969166	WORD_OFF	n/a	n/a	STEAM	7	22	[0, 0, 0]	n/a	FR1	3	R1236J
2348.248	1.618	2969932	WORD	n/a	wordpools/wordpool_EN.txt	MILK	8	22	[0, 0, 0]	n/a	FR1	3	R1236J
2349.866	0.95	2971550	WORD_OFF	n/a	n/a	MILK	8	22	[0, 0, 0]	n/a	FR1	3	R1236J
2350.816	1.617	2972500	WORD	n/a	wordpools/wordpool_EN.txt	WEED	9	22	[0, 0, 0]	n/a	FR1	3	R1236J
2352.433	0.967	2974117	WORD_OFF	n/a	n/a	WEED	9	22	[0, 0, 0]	n/a	FR1	3	R1236J
2353.4	1.617	2975084	WORD	n/a	wordpools/wordpool_EN.txt	JUDGE	10	22	[0, 0, 0]	n/a	FR1	3	R1236J
2355.017	0.833	2976701	WORD_OFF	n/a	n/a	JUDGE	10	22	[0, 0, 0]	n/a	FR1	3	R1236J
2355.85	1.617	2977534	WORD	n/a	wordpools/wordpool_EN.txt	RAT	11	22	[0, 0, 0]	n/a	FR1	3	R1236J
2357.467	1.0	2979151	WORD_OFF	n/a	n/a	RAT	11	22	[0, 0, 0]	n/a	FR1	3	R1236J
2358.467	1.617	2980151	WORD	n/a	wordpools/wordpool_EN.txt	RICE	12	22	[0, 0, 0]	n/a	FR1	3	R1236J
2360.084	0.0	2981768	WORD_OFF	n/a	n/a	RICE	12	22	[0, 0, 0]	n/a	FR1	3	R1236J
2360.084	0.0	2981768	DISTRACT_START	n/a	n/a	n/a	-999	22	[0, 0, 0]	n/a	FR1	3	R1236J
2360.084	0.017	2981768	START	n/a	n/a	n/a	-999	22	[-999, -999, -999]	n/a	FR1	3	R1236J
2360.101	5.017	2981785	PROB	5.017	n/a	n/a	-999	22	[3, 2, 6]	11	FR1	3	R1236J
2365.118	3.116	2986802	PROB	3.116	n/a	n/a	-999	22	[1, 2, 5]	8	FR1	3	R1236J
2368.234	3.0	2989918	PROB	3.0	n/a	n/a	-999	22	[1, 3, 7]	11	FR1	3	R1236J
2371.234	3.185	2992918	PROB	3.185	n/a	n/a	-999	22	[7, 3, 3]	13	FR1	3	R1236J
2374.419	4.883	2996103	PROB	4.883	n/a	n/a	-999	22	[6, 3, 5]	13	FR1	3	R1236J
2379.302	4.241	3000986	PROB	4.241	n/a	n/a	-999	22	[3, 8, 8]	19	FR1	3	R1236J
2383.543	0.011	3005227	STOP	n/a	n/a	n/a	-999	22	[-999, -999, -999]	n/a	FR1	3	R1236J
2383.554	0.715	3005238	DISTRACT_END	n/a	n/a	n/a	-999	22	[0, 0, 0]	n/a	FR1	3	R1236J
2384.269	0.519	3005953	RETRIEVAL_ORIENT	n/a	n/a	n/a	-999	22	[0, 0, 0]	n/a	FR1	3	R1236J
2384.788	1.425	3006472	REC_START	n/a	n/a	n/a	-999	22	[0, 0, 0]	n/a	FR1	3	R1236J
2386.213	3.478	3007897	REC_WORD	3.478	n/a	BOY	2	22	[0, 0, 0]	n/a	FR1	3	R1236J
2389.691	4.219	3011375	REC_WORD_VV	4.219	n/a	<>	-999	22	[0, 0, 0]	n/a	FR1	3	R1236J
2393.91	2.375	3015594	REC_WORD	2.375	n/a	STEAM	7	22	[0, 0, 0]	n/a	FR1	3	R1236J
2396.285	18.513	3017969	REC_WORD	18.513	n/a	MILK	8	22	[0, 0, 0]	n/a	FR1	3	R1236J
2414.798	4.96	3036482	REC_END	n/a	n/a	n/a	-999	22	[0, 0, 0]	n/a	FR1	3	R1236J
2419.758	0.5	3041442	TRIAL	n/a	n/a	n/a	-999	23	[0, 0, 0]	n/a	FR1	3	R1236J
2420.258	10.428	3041942	COUNTDOWN_START	n/a	n/a	n/a	-999	23	[0, 0, 0]	n/a	FR1	3	R1236J
2430.686	0.007	3052370	COUNTDOWN_END	n/a	n/a	n/a	-999	23	[0, 0, 0]	n/a	FR1	3	R1236J
2430.693	1.616	3052377	ORIENT	n/a	n/a	n/a	-999	23	[0, 0, 0]	n/a	FR1	3	R1236J
2432.309	2.101	3053993	ORIENT_OFF	n/a	n/a	n/a	-999	23	[0, 0, 0]	n/a	FR1	3	R1236J
2434.41	1.617	3056094	WORD	n/a	wordpools/wordpool_EN.txt	JUICE	1	23	[0, 0, 0]	n/a	FR1	3	R1236J
2436.027	0.817	3057711	WORD_OFF	n/a	n/a	JUICE	1	23	[0, 0, 0]	n/a	FR1	3	R1236J
2436.844	1.616	3058528	WORD	n/a	wordpools/wordpool_EN.txt	ROPE	2	23	[0, 0, 0]	n/a	FR1	3	R1236J
2438.46	0.967	3060144	WORD_OFF	n/a	n/a	ROPE	2	23	[0, 0, 0]	n/a	FR1	3	R1236J
2439.427	1.617	3061111	WORD	n/a	wordpools/wordpool_EN.txt	SPARK	3	23	[0, 0, 0]	n/a	FR1	3	R1236J
2441.044	0.85	3062728	WORD_OFF	n/a	n/a	SPARK	3	23	[0, 0, 0]	n/a	FR1	3	R1236J
2441.894	1.617	3063578	WORD	n/a	wordpools/wordpool_EN.txt	BEAK	4	23	[0, 0, 0]	n/a	FR1	3	R1236J
2443.511	0.917	3065195	WORD_OFF	n/a	n/a	BEAK	4	23	[0, 0, 0]	n/a	FR1	3	R1236J
2444.428	1.617	3066112	WORD	n/a	wordpools/wordpool_EN.txt	AXE	5	23	[0, 0, 0]	n/a	FR1	3	R1236J
2446.045	0.95	3067729	WORD_OFF	n/a	n/a	AXE	5	23	[0, 0, 0]	n/a	FR1	3	R1236J
2446.995	1.617	3068679	WORD	n/a	wordpools/wordpool_EN.txt	NOSE	6	23	[0, 0, 0]	n/a	FR1	3	R1236J
2448.612	0.95	3070296	WORD_OFF	n/a	n/a	NOSE	6	23	[0, 0, 0]	n/a	FR1	3	R1236J
2449.562	1.616	3071246	WORD	n/a	wordpools/wordpool_EN.txt	SLEEVE	7	23	[0, 0, 0]	n/a	FR1	3	R1236J
2451.178	0.918	3072862	WORD_OFF	n/a	n/a	SLEEVE	7	23	[0, 0, 0]	n/a	FR1	3	R1236J
2452.096	1.617	3073780	WORD	n/a	wordpools/wordpool_EN.txt	MAT	8	23	[0, 0, 0]	n/a	FR1	3	R1236J
2453.713	0.983	3075397	WORD_OFF	n/a	n/a	MAT	8	23	[0, 0, 0]	n/a	FR1	3	R1236J
2454.696	1.616	3076380	WORD	n/a	wordpools/wordpool_EN.txt	BEAN	9	23	[0, 0, 0]	n/a	FR1	3	R1236J
2456.312	0.9	3077996	WORD_OFF	n/a	n/a	BEAN	9	23	[0, 0, 0]	n/a	FR1	3	R1236J
2457.212	1.618	3078896	WORD	n/a	wordpools/wordpool_EN.txt	MULE	10	23	[0, 0, 0]	n/a	FR1	3	R1236J
2458.83	0.85	3080514	WORD_OFF	n/a	n/a	MULE	10	23	[0, 0, 0]	n/a	FR1	3	R1236J
2459.68	1.616	3081364	WORD	n/a	wordpools/wordpool_EN.txt	FAN	11	23	[0, 0, 0]	n/a	FR1	3	R1236J
2461.296	0.983	3082980	WORD_OFF	n/a	n/a	FAN	11	23	[0, 0, 0]	n/a	FR1	3	R1236J
2462.279	1.602	3083963	WORD	n/a	wordpools/wordpool_EN.txt	HOOK	12	23	[0, 0, 0]	n/a	FR1	3	R1236J
2463.881	0.0	3085565	WORD_OFF	n/a	n/a	HOOK	12	23	[0, 0, 0]	n/a	FR1	3	R1236J
2463.881	0.0	3085565	DISTRACT_START	n/a	n/a	n/a	-999	23	[0, 0, 0]	n/a	FR1	3	R1236J
2463.881	0.016	3085565	START	n/a	n/a	n/a	-999	23	[-999, -999, -999]	n/a	FR1	3	R1236J
2463.897	3.917	3085581	PROB	3.917	n/a	n/a	-999	23	[3, 6, 1]	10	FR1	3	R1236J
2467.814	7.268	3089498	PROB	7.268	n/a	n/a	-999	23	[5, 7, 7]	19	FR1	3	R1236J
2475.082	3.299	3096766	PROB	3.299	n/a	n/a	-999	23	[3, 2, 2]	7	FR1	3	R1236J
2478.381	6.478	3100065	PROB	6.478	n/a	n/a	-999	23	[7, 4, 7]	18	FR1	3	R1236J
2484.859	0.008	3106543	STOP	n/a	n/a	n/a	-999	23	[-999, -999, -999]	n/a	FR1	3	R1236J
2484.867	0.515	3106551	DISTRACT_END	n/a	n/a	n/a	-999	23	[0, 0, 0]	n/a	FR1	3	R1236J
2485.382	0.519	3107066	RETRIEVAL_ORIENT	n/a	n/a	n/a	-999	23	[0, 0, 0]	n/a	FR1	3	R1236J
2485.901	2.433	3107585	REC_START	n/a	n/a	n/a	-999	23	[0, 0, 0]	n/a	FR1	3	R1236J
2488.334	27.579	3110018	REC_WORD_VV	27.579	n/a	<>	-999	23	[0, 0, 0]	n/a	FR1	3	R1236J
2515.913	4.475	3137597	REC_END	n/a	n/a	n/a	-999	23	[0, 0, 0]	n/a	FR1	3	R1236J
2520.388	0.5	3142072	TRIAL	n/a	n/a	n/a	-999	24	[0, 0, 0]	n/a	FR1	3	R1236J
2520.888	10.428	3142572	COUNTDOWN_START	n/a	n/a	n/a	-999	24	[0, 0, 0]	n/a	FR1	3	R1236J
2531.316	0.005	3153000	COUNTDOWN_END	n/a	n/a	n/a	-999	24	[0, 0, 0]	n/a	FR1	3	R1236J
2531.321	1.602	3153005	ORIENT	n/a	n/a	n/a	-999	24	[0, 0, 0]	n/a	FR1	3	R1236J
2532.923	2.2	3154607	ORIENT_OFF	n/a	n/a	n/a	-999	24	[0, 0, 0]	n/a	FR1	3	R1236J
2535.123	1.617	3156807	WORD	n/a	wordpools/wordpool_EN.txt	BOWL	1	24	[0, 0, 0]	n/a	FR1	3	R1236J
2536.74	0.983	3158424	WORD_OFF	n/a	n/a	BOWL	1	24	[0, 0, 0]	n/a	FR1	3	R1236J
2537.723	1.616	3159407	WORD	n/a	wordpools/wordpool_EN.txt	PIT	2	24	[0, 0, 0]	n/a	FR1	3	R1236J
2539.339	0.768	3161023	WORD_OFF	n/a	n/a	PIT	2	24	[0, 0, 0]	n/a	FR1	3	R1236J
2540.107	1.617	3161791	WORD	n/a	wordpools/wordpool_EN.txt	TOE	3	24	[0, 0, 0]	n/a	FR1	3	R1236J
2541.724	0.9	3163408	WORD_OFF	n/a	n/a	TOE	3	24	[0, 0, 0]	n/a	FR1	3	R1236J
2542.624	1.616	3164308	WORD	n/a	wordpools/wordpool_EN.txt	GLASS	4	24	[0, 0, 0]	n/a	FR1	3	R1236J
2544.24	1.0	3165924	WORD_OFF	n/a	n/a	GLASS	4	24	[0, 0, 0]	n/a	FR1	3	R1236J
2545.24	1.618	3166924	WORD	n/a	wordpools/wordpool_EN.txt	BRIDGE	5	24	[0, 0, 0]	n/a	FR1	3	R1236J
2546.858	0.966	3168542	WORD_OFF	n/a	n/a	BRIDGE	5	24	[0, 0, 0]	n/a	FR1	3	R1236J
2547.824	1.617	3169508	WORD	n/a	wordpools/wordpool_EN.txt	CUBE	6	24	[0, 0, 0]	n/a	FR1	3	R1236J
2549.441	0.933	3171125	WORD_OFF	n/a	n/a	CUBE	6	24	[0, 0, 0]	n/a	FR1	3	R1236J
2550.374	1.618	3172058	WORD	n/a	wordpools/wordpool_EN.txt	SWAMP	7	24	[0, 0, 0]	n/a	FR1	3	R1236J
2551.992	0.85	3173676	WORD_OFF	n/a	n/a	SWAMP	7	24	[0, 0, 0]	n/a	FR1	3	R1236J
2552.842	1.617	3174526	WORD	n/a	wordpools/wordpool_EN.txt	BATH	8	24	[0, 0, 0]	n/a	FR1	3	R1236J
2554.459	0.95	3176143	WORD_OFF	n/a	n/a	BATH	8	24	[0, 0, 0]	n/a	FR1	3	R1236J
2555.409	1.617	3177093	WORD	n/a	wordpools/wordpool_EN.txt	PIPE	9	24	[0, 0, 0]	n/a	FR1	3	R1236J
2557.026	0.816	3178710	WORD_OFF	n/a	n/a	PIPE	9	24	[0, 0, 0]	n/a	FR1	3	R1236J
2557.842	1.617	3179526	WORD	n/a	wordpools/wordpool_EN.txt	STRAW	10	24	[0, 0, 0]	n/a	FR1	3	R1236J
2559.459	0.833	3181143	WORD_OFF	n/a	n/a	STRAW	10	24	[0, 0, 0]	n/a	FR1	3	R1236J
2560.292	1.601	3181976	WORD	n/a	wordpools/wordpool_EN.txt	TOOL	11	24	[0, 0, 0]	n/a	FR1	3	R1236J
2561.893	0.934	3183577	WORD_OFF	n/a	n/a	TOOL	11	24	[0, 0, 0]	n/a	FR1	3	R1236J
2562.827	1.617	3184511	WORD	n/a	wordpools/wordpool_EN.txt	SHEET	12	24	[0, 0, 0]	n/a	FR1	3	R1236J
2564.444	0.0	3186128	WORD_OFF	n/a	n/a	SHEET	12	24	[0, 0, 0]	n/a	FR1	3	R1236J
2564.444	0.0	3186128	DISTRACT_START	n/a	n/a	n/a	-999	24	[0, 0, 0]	n/a	FR1	3	R1236J
2564.444	0.016	3186128	START	n/a	n/a	n/a	-999	24	[-999, -999, -999]	n/a	FR1	3	R1236J
2564.46	4.117	3186144	PROB	4.117	n/a	n/a	-999	24	[1, 7, 9]	17	FR1	3	R1236J
2568.577	4.851	3190261	PROB	4.851	n/a	n/a	-999	24	[8, 9, 8]	25	FR1	3	R1236J
2573.428	3.717	3195112	PROB	3.717	n/a	n/a	-999	24	[8, 4, 1]	13	FR1	3	R1236J
2577.145	6.918	3198829	PROB	6.918	n/a	n/a	-999	24	[6, 3, 5]	14	FR1	3	R1236J
2584.063	7.286	3205747	PROB	7.286	n/a	n/a	-999	24	[7, 6, 5]	18	FR1	3	R1236J
2591.349	0.014	3213033	STOP	n/a	n/a	n/a	-999	24	[-999, -999, -999]	n/a	FR1	3	R1236J
2591.363	0.567	3213047	DISTRACT_END	n/a	n/a	n/a	-999	24	[0, 0, 0]	n/a	FR1	3	R1236J
2591.93	0.518	3213614	RETRIEVAL_ORIENT	n/a	n/a	n/a	-999	24	[0, 0, 0]	n/a	FR1	3	R1236J
2592.448	1.139	3214132	REC_START	n/a	n/a	n/a	-999	24	[0, 0, 0]	n/a	FR1	3	R1236J
2593.587	1.768	3215271	REC_WORD	1.768	n/a	SLEEVE	-999	24	[0, 0, 0]	n/a	FR1	3	R1236J
2595.355	27.105	3217039	REC_WORD	27.105	n/a	PIPE	9	24	[0, 0, 0]	n/a	FR1	3	R1236J
2622.46	6.075	3244145	REC_END	n/a	n/a	n/a	-999	24	[0, 0, 0]	n/a	FR1	3	R1236J
2628.535	0.5	3250220	TRIAL	n/a	n/a	n/a	-999	25	[0, 0, 0]	n/a	FR1	3	R1236J
2629.035	10.428	3250720	COUNTDOWN_START	n/a	n/a	n/a	-999	25	[0, 0, 0]	n/a	FR1	3	R1236J
2639.463	0.007	3261148	COUNTDOWN_END	n/a	n/a	n/a	-999	25	[0, 0, 0]	n/a	FR1	3	R1236J
2639.47	1.617	3261155	ORIENT	n/a	n/a	n/a	-999	25	[0, 0, 0]	n/a	FR1	3	R1236J
2641.087	2.182	3262772	ORIENT_OFF	n/a	n/a	n/a	-999	25	[0, 0, 0]	n/a	FR1	3	R1236J
2643.269	1.618	3264954	WORD	n/a	wordpools/wordpool_EN.txt	HOSE	1	25	[0, 0, 0]	n/a	FR1	3	R1236J
2644.887	0.8	3266572	WORD_OFF	n/a	n/a	HOSE	1	25	[0, 0, 0]	n/a	FR1	3	R1236J
2645.687	1.616	3267372	WORD	n/a	wordpools/wordpool_EN.txt	JAR	2	25	[0, 0, 0]	n/a	FR1	3	R1236J
2647.303	0.9	3268988	WORD_OFF	n/a	n/a	JAR	2	25	[0, 0, 0]	n/a	FR1	3	R1236J
2648.203	1.618	3269888	WORD	n/a	wordpools/wordpool_EN.txt	FLEA	3	25	[0, 0, 0]	n/a	FR1	3	R1236J
2649.821	0.833	3271506	WORD_OFF	n/a	n/a	FLEA	3	25	[0, 0, 0]	n/a	FR1	3	R1236J
2650.654	1.616	3272339	WORD	n/a	wordpools/wordpool_EN.txt	DITCH	4	25	[0, 0, 0]	n/a	FR1	3	R1236J
2652.27	0.868	3273955	WORD_OFF	n/a	n/a	DITCH	4	25	[0, 0, 0]	n/a	FR1	3	R1236J
2653.138	1.617	3274823	WORD	n/a	wordpools/wordpool_EN.txt	CLOCK	5	25	[0, 0, 0]	n/a	FR1	3	R1236J
2654.755	0.934	3276440	WORD_OFF	n/a	n/a	CLOCK	5	25	[0, 0, 0]	n/a	FR1	3	R1236J
2655.689	1.615	3277374	WORD	n/a	wordpools/wordpool_EN.txt	TEETH	6	25	[0, 0, 0]	n/a	FR1	3	R1236J
2657.304	0.801	3278989	WORD_OFF	n/a	n/a	TEETH	6	25	[0, 0, 0]	n/a	FR1	3	R1236J
2658.105	1.617	3279790	WORD	n/a	wordpools/wordpool_EN.txt	STRING	7	25	[0, 0, 0]	n/a	FR1	3	R1236J
2659.722	0.8	3281407	WORD_OFF	n/a	n/a	STRING	7	25	[0, 0, 0]	n/a	FR1	3	R1236J
2660.522	1.617	3282207	WORD	n/a	wordpools/wordpool_EN.txt	WAND	8	25	[0, 0, 0]	n/a	FR1	3	R1236J
2662.139	1.017	3283824	WORD_OFF	n/a	n/a	WAND	8	25	[0, 0, 0]	n/a	FR1	3	R1236J
2663.156	1.617	3284841	WORD	n/a	wordpools/wordpool_EN.txt	INK	9	25	[0, 0, 0]	n/a	FR1	3	R1236J
2664.773	0.783	3286458	WORD_OFF	n/a	n/a	INK	9	25	[0, 0, 0]	n/a	FR1	3	R1236J
2665.556	1.616	3287241	WORD	n/a	wordpools/wordpool_EN.txt	FLOOR	10	25	[0, 0, 0]	n/a	FR1	3	R1236J
2667.172	0.851	3288857	WORD_OFF	n/a	n/a	FLOOR	10	25	[0, 0, 0]	n/a	FR1	3	R1236J
2668.023	1.617	3289708	WORD	n/a	wordpools/wordpool_EN.txt	CLOUD	11	25	[0, 0, 0]	n/a	FR1	3	R1236J
2669.64	0.767	3291325	WORD_OFF	n/a	n/a	CLOUD	11	25	[0, 0, 0]	n/a	FR1	3	R1236J
2670.407	1.617	3292092	WORD	n/a	wordpools/wordpool_EN.txt	WOOD	12	25	[0, 0, 0]	n/a	FR1	3	R1236J
2672.024	0.0	3293709	WORD_OFF	n/a	n/a	WOOD	12	25	[0, 0, 0]	n/a	FR1	3	R1236J
2672.024	0.001	3293709	DISTRACT_START	n/a	n/a	n/a	-999	25	[0, 0, 0]	n/a	FR1	3	R1236J
2672.025	0.015	3293710	START	n/a	n/a	n/a	-999	25	[-999, -999, -999]	n/a	FR1	3	R1236J
2672.04	5.018	3293725	PROB	5.018	n/a	n/a	-999	25	[9, 6, 4]	19	FR1	3	R1236J
2677.058	4.567	3298743	PROB	4.567	n/a	n/a	-999	25	[4, 5, 9]	18	FR1	3	R1236J
2681.625	5.917	3303310	PROB	5.917	n/a	n/a	-999	25	[5, 7, 8]	20	FR1	3	R1236J
2687.542	3.168	3309227	PROB	3.168	n/a	n/a	-999	25	[5, 5, 7]	12	FR1	3	R1236J
2690.71	5.516	3312395	PROB	5.516	n/a	n/a	-999	25	[9, 5, 3]	17	FR1	3	R1236J
2696.226	0.017	3317911	STOP	n/a	n/a	n/a	-999	25	[-999, -999, -999]	n/a	FR1	3	R1236J
2696.243	0.6	3317928	DISTRACT_END	n/a	n/a	n/a	-999	25	[0, 0, 0]	n/a	FR1	3	R1236J
2696.843	0.517	3318528	RETRIEVAL_ORIENT	n/a	n/a	n/a	-999	25	[0, 0, 0]	n/a	FR1	3	R1236J
2697.36	11.399	3319045	REC_START	n/a	n/a	n/a	-999	25	[0, 0, 0]	n/a	FR1	3	R1236J
2708.759	1.7	3330444	REC_WORD	1.7	n/a	FLEA	3	25	[0, 0, 0]	n/a	FR1	3	R1236J
2710.459	3.45	3332144	REC_WORD	3.45	n/a	JAR	2	25	[0, 0, 0]	n/a	FR1	3	R1236J
2713.909	13.464	3335594	REC_WORD	13.464	n/a	DITCH	4	25	[0, 0, 0]	n/a	FR1	3	R1236J
2727.373	0.0	3349058	REC_END	n/a	n/a	n/a	-999	25	[0, 0, 0]	n/a	FR1	3	R1236J
