onset	duration	sample	trial_type	response_time	stim_file	item_name	serialpos	list	test	answer	experiment	session	subject
0.0	0.0	155408	INSTRUCT_START	n/a	n/a	n/a	-999	-999	[0, 0, 0]	n/a	FR1	0	R1260D
0.0	10.96	155408	INSTRUCT_END	n/a	n/a	n/a	-999	-999	[0, 0, 0]	n/a	FR1	0	R1260D
10.96	0.0	166367	SESS_START	n/a	n/a	n/a	-999	-999	[0, 0, 0]	n/a	FR1	0	R1260D
10.96	23.0	166367	MIC_TEST	n/a	n/a	n/a	-999	-999	[0, 0, 0]	n/a	FR1	0	R1260D
33.96	4.312	189366	PRACTICE_TRIAL	n/a	n/a	n/a	-999	-1	[0, 0, 0]	n/a	FR1	0	R1260D
38.272	10.428	193678	COUNTDOWN_START	n/a	n/a	n/a	-999	-1	[0, 0, 0]	n/a	FR1	0	R1260D
48.7	0.008	204105	COUNTDOWN_END	n/a	n/a	n/a	-999	-1	[0, 0, 0]	n/a	FR1	0	R1260D
48.708	1.618	204113	PRACTICE_ORIENT	n/a	n/a	n/a	-999	-1	[0, 0, 0]	n/a	FR1	0	R1260D
50.326	2.017	205731	PRACTICE_ORIENT_OFF	n/a	n/a	n/a	-999	-1	[0, 0, 0]	n/a	FR1	0	R1260D
52.343	1.615	207748	PRACTICE_WORD	n/a	n/a	BEAM	1	-1	[0, 0, 0]	n/a	FR1	0	R1260D
53.958	0.934	209363	PRACTICE_WORD_OFF	n/a	n/a	BEAM	-999	-1	[0, 0, 0]	n/a	FR1	0	R1260D
54.892	1.618	210297	PRACTICE_WORD	n/a	n/a	RING	2	-1	[0, 0, 0]	n/a	FR1	0	R1260D
56.51	0.884	211915	PRACTICE_WORD_OFF	n/a	n/a	RING	-999	-1	[0, 0, 0]	n/a	FR1	0	R1260D
57.394	1.616	212799	PRACTICE_WORD	n/a	n/a	ATTIC	3	-1	[0, 0, 0]	n/a	FR1	0	R1260D
59.01	0.833	214415	PRACTICE_WORD_OFF	n/a	n/a	ATTIC	-999	-1	[0, 0, 0]	n/a	FR1	0	R1260D
59.843	1.618	215247	PRACTICE_WORD	n/a	n/a	WATCH	4	-1	[0, 0, 0]	n/a	FR1	0	R1260D
61.461	1.017	216865	PRACTICE_WORD_OFF	n/a	n/a	WATCH	-999	-1	[0, 0, 0]	n/a	FR1	0	R1260D
62.478	1.617	217882	PRACTICE_WORD	n/a	n/a	FLOOD	5	-1	[0, 0, 0]	n/a	FR1	0	R1260D
64.095	0.967	219499	PRACTICE_WORD_OFF	n/a	n/a	FLOOD	-999	-1	[0, 0, 0]	n/a	FR1	0	R1260D
65.062	1.615	220466	PRACTICE_WORD	n/a	n/a	IRON	6	-1	[0, 0, 0]	n/a	FR1	0	R1260D
66.677	0.785	222081	PRACTICE_WORD_OFF	n/a	n/a	IRON	-999	-1	[0, 0, 0]	n/a	FR1	0	R1260D
67.462	1.617	222866	PRACTICE_WORD	n/a	n/a	WAGON	7	-1	[0, 0, 0]	n/a	FR1	0	R1260D
69.079	0.917	224483	PRACTICE_WORD_OFF	n/a	n/a	WAGON	-999	-1	[0, 0, 0]	n/a	FR1	0	R1260D
69.996	1.616	225400	PRACTICE_WORD	n/a	n/a	COTTON	8	-1	[0, 0, 0]	n/a	FR1	0	R1260D
71.612	0.901	227016	PRACTICE_WORD_OFF	n/a	n/a	COTTON	-999	-1	[0, 0, 0]	n/a	FR1	0	R1260D
72.513	1.617	227917	PRACTICE_WORD	n/a	n/a	TONGUE	9	-1	[0, 0, 0]	n/a	FR1	0	R1260D
74.13	0.832	229534	PRACTICE_WORD_OFF	n/a	n/a	TONGUE	-999	-1	[0, 0, 0]	n/a	FR1	0	R1260D
74.962	1.617	230366	PRACTICE_WORD	n/a	n/a	CHEST	10	-1	[0, 0, 0]	n/a	FR1	0	R1260D
76.579	0.768	231983	PRACTICE_WORD_OFF	n/a	n/a	CHEST	-999	-1	[0, 0, 0]	n/a	FR1	0	R1260D
77.347	1.616	232750	PRACTICE_WORD	n/a	n/a	CAMEL	11	-1	[0, 0, 0]	n/a	FR1	0	R1260D
78.963	0.867	234366	PRACTICE_WORD_OFF	n/a	n/a	CAMEL	-999	-1	[0, 0, 0]	n/a	FR1	0	R1260D
79.83	1.618	235233	PRACTICE_WORD	n/a	n/a	RHINO	12	-1	[0, 0, 0]	n/a	FR1	0	R1260D
81.448	0.0	236851	PRACTICE_WORD_OFF	n/a	n/a	RHINO	-999	-1	[0, 0, 0]	n/a	FR1	0	R1260D
81.448	0.0	236851	DISTRACT_START	n/a	n/a	n/a	-999	-1	[0, 0, 0]	n/a	FR1	0	R1260D
81.448	0.017	236851	START	n/a	n/a	n/a	-999	-1	[-999, -999, -999]	n/a	FR1	0	R1260D
81.465	12.952	236868	PROB	12.952	n/a	n/a	-999	-1	[4, 4, 1]	9	FR1	0	R1260D
94.417	7.587	249820	PROB	7.587	n/a	n/a	-999	-1	[1, 1, 8]	10	FR1	0	R1260D
102.004	0.014	257406	STOP	n/a	n/a	n/a	-999	-1	[-999, -999, -999]	n/a	FR1	0	R1260D
102.018	0.516	257420	DISTRACT_END	n/a	n/a	n/a	-999	-1	[0, 0, 0]	n/a	FR1	0	R1260D
102.534	0.522	257936	RETRIEVAL_ORIENT	n/a	n/a	n/a	-999	-1	[0, 0, 0]	n/a	FR1	0	R1260D
103.056	30.009	258458	PRACTICE_REC_START	n/a	n/a	n/a	-999	-1	[0, 0, 0]	n/a	FR1	0	R1260D
133.065	44.25	288465	PRACTICE_REC_END	n/a	n/a	n/a	-999	-1	[0, 0, 0]	n/a	FR1	0	R1260D
177.315	0.5	332713	TRIAL	n/a	n/a	n/a	-999	1	[0, 0, 0]	n/a	FR1	0	R1260D
177.815	10.428	333213	COUNTDOWN_START	n/a	n/a	n/a	-999	1	[0, 0, 0]	n/a	FR1	0	R1260D
188.243	0.008	343640	COUNTDOWN_END	n/a	n/a	n/a	-999	1	[0, 0, 0]	n/a	FR1	0	R1260D
188.251	1.616	343648	ORIENT	n/a	n/a	n/a	-999	1	[0, 0, 0]	n/a	FR1	0	R1260D
189.867	2.033	345264	ORIENT_OFF	n/a	n/a	n/a	-999	1	[0, 0, 0]	n/a	FR1	0	R1260D
191.9	1.618	347297	WORD	n/a	wordpools/wordpool_EN.txt	FLOOR	1	1	[0, 0, 0]	n/a	FR1	0	R1260D
193.518	0.85	348915	WORD_OFF	n/a	n/a	FLOOR	1	1	[0, 0, 0]	n/a	FR1	0	R1260D
194.368	1.617	349765	WORD	n/a	wordpools/wordpool_EN.txt	DITCH	2	1	[0, 0, 0]	n/a	FR1	0	R1260D
195.985	0.966	351382	WORD_OFF	n/a	n/a	DITCH	2	1	[0, 0, 0]	n/a	FR1	0	R1260D
196.951	1.617	352348	WORD	n/a	wordpools/wordpool_EN.txt	CLOUD	3	1	[0, 0, 0]	n/a	FR1	0	R1260D
198.568	0.851	353965	WORD_OFF	n/a	n/a	CLOUD	3	1	[0, 0, 0]	n/a	FR1	0	R1260D
199.419	1.617	354816	WORD	n/a	wordpools/wordpool_EN.txt	INK	4	1	[0, 0, 0]	n/a	FR1	0	R1260D
201.036	0.933	356433	WORD_OFF	n/a	n/a	INK	4	1	[0, 0, 0]	n/a	FR1	0	R1260D
201.969	1.617	357365	WORD	n/a	wordpools/wordpool_EN.txt	WAND	5	1	[0, 0, 0]	n/a	FR1	0	R1260D
203.586	0.768	358982	WORD_OFF	n/a	n/a	WAND	5	1	[0, 0, 0]	n/a	FR1	0	R1260D
204.354	1.616	359750	WORD	n/a	wordpools/wordpool_EN.txt	TEETH	6	1	[0, 0, 0]	n/a	FR1	0	R1260D
205.97	0.866	361366	WORD_OFF	n/a	n/a	TEETH	6	1	[0, 0, 0]	n/a	FR1	0	R1260D
206.836	1.618	362232	WORD	n/a	wordpools/wordpool_EN.txt	HOSE	7	1	[0, 0, 0]	n/a	FR1	0	R1260D
208.454	0.967	363850	WORD_OFF	n/a	n/a	HOSE	7	1	[0, 0, 0]	n/a	FR1	0	R1260D
209.421	1.617	364817	WORD	n/a	wordpools/wordpool_EN.txt	JAR	8	1	[0, 0, 0]	n/a	FR1	0	R1260D
211.038	0.967	366434	WORD_OFF	n/a	n/a	JAR	8	1	[0, 0, 0]	n/a	FR1	0	R1260D
212.005	1.616	367401	WORD	n/a	wordpools/wordpool_EN.txt	WOOD	9	1	[0, 0, 0]	n/a	FR1	0	R1260D
213.621	0.851	369017	WORD_OFF	n/a	n/a	WOOD	9	1	[0, 0, 0]	n/a	FR1	0	R1260D
214.472	1.617	369868	WORD	n/a	wordpools/wordpool_EN.txt	STRING	10	1	[0, 0, 0]	n/a	FR1	0	R1260D
216.089	0.849	371485	WORD_OFF	n/a	n/a	STRING	10	1	[0, 0, 0]	n/a	FR1	0	R1260D
216.938	1.617	372334	WORD	n/a	wordpools/wordpool_EN.txt	CLOCK	11	1	[0, 0, 0]	n/a	FR1	0	R1260D
218.555	0.935	373951	WORD_OFF	n/a	n/a	CLOCK	11	1	[0, 0, 0]	n/a	FR1	0	R1260D
219.49	1.617	374885	WORD	n/a	wordpools/wordpool_EN.txt	FLEA	12	1	[0, 0, 0]	n/a	FR1	0	R1260D
221.107	0.0	376502	WORD_OFF	n/a	n/a	FLEA	12	1	[0, 0, 0]	n/a	FR1	0	R1260D
221.107	0.0	376502	DISTRACT_START	n/a	n/a	n/a	-999	1	[0, 0, 0]	n/a	FR1	0	R1260D
221.107	0.016	376502	START	n/a	n/a	n/a	-999	1	[-999, -999, -999]	n/a	FR1	0	R1260D
221.123	7.318	376518	PROB	7.318	n/a	n/a	-999	1	[7, 2, 5]	14	FR1	0	R1260D
228.441	7.15	383836	PROB	7.15	n/a	n/a	-999	1	[6, 1, 2]	9	FR1	0	R1260D
235.591	6.5	390986	PROB	6.5	n/a	n/a	-999	1	[2, 3, 9]	14	FR1	0	R1260D
242.091	0.019	397485	STOP	n/a	n/a	n/a	-999	1	[-999, -999, -999]	n/a	FR1	0	R1260D
242.11	0.7	397504	DISTRACT_END	n/a	n/a	n/a	-999	1	[0, 0, 0]	n/a	FR1	0	R1260D
242.81	0.518	398204	RETRIEVAL_ORIENT	n/a	n/a	n/a	-999	1	[0, 0, 0]	n/a	FR1	0	R1260D
243.328	5.208	398722	REC_START	n/a	n/a	n/a	-999	1	[0, 0, 0]	n/a	FR1	0	R1260D
248.536	2.905	403930	REC_WORD_VV	2.905	n/a	<>	-999	1	[0, 0, 0]	n/a	FR1	0	R1260D
251.441	3.05	406835	REC_WORD_VV	3.05	n/a	<>	-999	1	[0, 0, 0]	n/a	FR1	0	R1260D
254.491	3.5	409885	REC_WORD_VV	3.5	n/a	<>	-999	1	[0, 0, 0]	n/a	FR1	0	R1260D
257.991	1.287	413384	REC_WORD_VV	1.287	n/a	<>	-999	1	[0, 0, 0]	n/a	FR1	0	R1260D
259.278	3.545	414671	REC_WORD_VV	3.545	n/a	<>	-999	1	[0, 0, 0]	n/a	FR1	0	R1260D
262.823	3.822	418216	REC_WORD	3.822	n/a	MASON	-999	1	[0, 0, 0]	n/a	FR1	0	R1260D
266.645	3.063	422038	REC_WORD_VV	3.063	n/a	<>	-999	1	[0, 0, 0]	n/a	FR1	0	R1260D
269.708	2.85	425101	REC_WORD	2.85	n/a	TEETH	-999	1	[0, 0, 0]	n/a	FR1	0	R1260D
272.558	0.781	427951	REC_WORD	0.781	n/a	JAR	-999	1	[0, 0, 0]	n/a	FR1	0	R1260D
273.339	7.762	428731	REC_END	n/a	n/a	n/a	-999	1	[0, 0, 0]	n/a	FR1	0	R1260D
281.101	0.5	436493	TRIAL	n/a	n/a	n/a	-999	2	[0, 0, 0]	n/a	FR1	0	R1260D
281.601	10.428	436993	COUNTDOWN_START	n/a	n/a	n/a	-999	2	[0, 0, 0]	n/a	FR1	0	R1260D
292.029	0.007	447420	COUNTDOWN_END	n/a	n/a	n/a	-999	2	[0, 0, 0]	n/a	FR1	0	R1260D
292.036	1.616	447427	ORIENT	n/a	n/a	n/a	-999	2	[0, 0, 0]	n/a	FR1	0	R1260D
293.652	2.017	449043	ORIENT_OFF	n/a	n/a	n/a	-999	2	[0, 0, 0]	n/a	FR1	0	R1260D
295.669	1.618	451060	WORD	n/a	wordpools/wordpool_EN.txt	GATE	1	2	[0, 0, 0]	n/a	FR1	0	R1260D
297.287	0.9	452678	WORD_OFF	n/a	n/a	GATE	1	2	[0, 0, 0]	n/a	FR1	0	R1260D
298.187	1.616	453578	WORD	n/a	wordpools/wordpool_EN.txt	HEN	2	2	[0, 0, 0]	n/a	FR1	0	R1260D
299.803	0.951	455194	WORD_OFF	n/a	n/a	HEN	2	2	[0, 0, 0]	n/a	FR1	0	R1260D
300.754	1.617	456145	WORD	n/a	wordpools/wordpool_EN.txt	ROAD	3	2	[0, 0, 0]	n/a	FR1	0	R1260D
302.371	0.934	457762	WORD_OFF	n/a	n/a	ROAD	3	2	[0, 0, 0]	n/a	FR1	0	R1260D
303.305	1.616	458696	WORD	n/a	wordpools/wordpool_EN.txt	WHEEL	4	2	[0, 0, 0]	n/a	FR1	0	R1260D
304.921	0.85	460312	WORD_OFF	n/a	n/a	WHEEL	4	2	[0, 0, 0]	n/a	FR1	0	R1260D
305.771	1.618	461162	WORD	n/a	wordpools/wordpool_EN.txt	FOOT	5	2	[0, 0, 0]	n/a	FR1	0	R1260D
307.389	0.817	462780	WORD_OFF	n/a	n/a	FOOT	5	2	[0, 0, 0]	n/a	FR1	0	R1260D
308.206	1.616	463596	WORD	n/a	wordpools/wordpool_EN.txt	TRAY	6	2	[0, 0, 0]	n/a	FR1	0	R1260D
309.822	0.783	465212	WORD_OFF	n/a	n/a	TRAY	6	2	[0, 0, 0]	n/a	FR1	0	R1260D
310.605	1.618	465995	WORD	n/a	wordpools/wordpool_EN.txt	MOUTH	7	2	[0, 0, 0]	n/a	FR1	0	R1260D
312.223	0.867	467613	WORD_OFF	n/a	n/a	MOUTH	7	2	[0, 0, 0]	n/a	FR1	0	R1260D
313.09	1.616	468480	WORD	n/a	wordpools/wordpool_EN.txt	MUD	8	2	[0, 0, 0]	n/a	FR1	0	R1260D
314.706	0.967	470096	WORD_OFF	n/a	n/a	MUD	8	2	[0, 0, 0]	n/a	FR1	0	R1260D
315.673	1.618	471063	WORD	n/a	wordpools/wordpool_EN.txt	SLIME	9	2	[0, 0, 0]	n/a	FR1	0	R1260D
317.291	0.933	472681	WORD_OFF	n/a	n/a	SLIME	9	2	[0, 0, 0]	n/a	FR1	0	R1260D
318.224	1.616	473614	WORD	n/a	wordpools/wordpool_EN.txt	FARM	10	2	[0, 0, 0]	n/a	FR1	0	R1260D
319.84	0.917	475230	WORD_OFF	n/a	n/a	FARM	10	2	[0, 0, 0]	n/a	FR1	0	R1260D
320.757	1.601	476147	WORD	n/a	wordpools/wordpool_EN.txt	RUG	11	2	[0, 0, 0]	n/a	FR1	0	R1260D
322.358	0.951	477748	WORD_OFF	n/a	n/a	RUG	11	2	[0, 0, 0]	n/a	FR1	0	R1260D
323.309	1.616	478699	WORD	n/a	wordpools/wordpool_EN.txt	BRUSH	12	2	[0, 0, 0]	n/a	FR1	0	R1260D
324.925	0.0	480315	WORD_OFF	n/a	n/a	BRUSH	12	2	[0, 0, 0]	n/a	FR1	0	R1260D
324.925	0.0	480315	DISTRACT_START	n/a	n/a	n/a	-999	2	[0, 0, 0]	n/a	FR1	0	R1260D
324.925	0.016	480315	START	n/a	n/a	n/a	-999	2	[-999, -999, -999]	n/a	FR1	0	R1260D
324.941	5.502	480331	PROB	5.502	n/a	n/a	-999	2	[3, 3, 2]	8	FR1	0	R1260D
330.443	15.697	485832	PROB	15.697	n/a	n/a	-999	2	[7, 9, 8]	24	FR1	0	R1260D
346.14	0.006	501528	STOP	n/a	n/a	n/a	-999	2	[-999, -999, -999]	n/a	FR1	0	R1260D
346.146	0.566	501534	DISTRACT_END	n/a	n/a	n/a	-999	2	[0, 0, 0]	n/a	FR1	0	R1260D
346.712	0.518	502100	RETRIEVAL_ORIENT	n/a	n/a	n/a	-999	2	[0, 0, 0]	n/a	FR1	0	R1260D
347.23	3.281	502618	REC_START	n/a	n/a	n/a	-999	2	[0, 0, 0]	n/a	FR1	0	R1260D
350.511	0.945	505899	REC_WORD	0.945	n/a	HEN	-999	2	[0, 0, 0]	n/a	FR1	0	R1260D
351.456	1.373	506844	REC_WORD	1.373	n/a	ROAD	-999	2	[0, 0, 0]	n/a	FR1	0	R1260D
352.829	2.647	508217	REC_WORD	2.647	n/a	GATE	-999	2	[0, 0, 0]	n/a	FR1	0	R1260D
355.476	3.745	510864	REC_WORD_VV	3.745	n/a	<>	-999	2	[0, 0, 0]	n/a	FR1	0	R1260D
359.221	0.45	514609	REC_WORD_VV	0.45	n/a	<>	-999	2	[0, 0, 0]	n/a	FR1	0	R1260D
359.671	0.431	515059	REC_WORD	0.431	n/a	JAR	-999	2	[0, 0, 0]	n/a	FR1	0	R1260D
360.102	2.14	515490	REC_WORD_VV	2.14	n/a	<>	-999	2	[0, 0, 0]	n/a	FR1	0	R1260D
362.242	3.071	517629	REC_WORD	3.071	n/a	JAR	-999	2	[0, 0, 0]	n/a	FR1	0	R1260D
365.313	2.469	520700	REC_WORD_VV	2.469	n/a	<>	-999	2	[0, 0, 0]	n/a	FR1	0	R1260D
367.782	2.399	523169	REC_WORD_VV	2.399	n/a	<>	-999	2	[0, 0, 0]	n/a	FR1	0	R1260D
370.181	7.061	525568	REC_WORD_VV	7.061	n/a	<>	-999	2	[0, 0, 0]	n/a	FR1	0	R1260D
377.242	9.928	532629	REC_END	n/a	n/a	n/a	-999	2	[0, 0, 0]	n/a	FR1	0	R1260D
387.17	0.5	542556	TRIAL	n/a	n/a	n/a	-999	3	[0, 0, 0]	n/a	FR1	0	R1260D
387.67	10.428	543056	COUNTDOWN_START	n/a	n/a	n/a	-999	3	[0, 0, 0]	n/a	FR1	0	R1260D
398.098	0.008	553483	COUNTDOWN_END	n/a	n/a	n/a	-999	3	[0, 0, 0]	n/a	FR1	0	R1260D
398.106	1.616	553491	ORIENT	n/a	n/a	n/a	-999	3	[0, 0, 0]	n/a	FR1	0	R1260D
399.722	2.067	555107	ORIENT_OFF	n/a	n/a	n/a	-999	3	[0, 0, 0]	n/a	FR1	0	R1260D
401.789	1.618	557174	WORD	n/a	wordpools/wordpool_EN.txt	BIRD	1	3	[0, 0, 0]	n/a	FR1	0	R1260D
403.407	0.966	558792	WORD_OFF	n/a	n/a	BIRD	1	3	[0, 0, 0]	n/a	FR1	0	R1260D
404.373	1.617	559758	WORD	n/a	wordpools/wordpool_EN.txt	TAIL	2	3	[0, 0, 0]	n/a	FR1	0	R1260D
405.99	0.9	561375	WORD_OFF	n/a	n/a	TAIL	2	3	[0, 0, 0]	n/a	FR1	0	R1260D
406.89	1.618	562275	WORD	n/a	wordpools/wordpool_EN.txt	CAVE	3	3	[0, 0, 0]	n/a	FR1	0	R1260D
408.508	0.833	563893	WORD_OFF	n/a	n/a	CAVE	3	3	[0, 0, 0]	n/a	FR1	0	R1260D
409.341	1.616	564726	WORD	n/a	wordpools/wordpool_EN.txt	MOLE	4	3	[0, 0, 0]	n/a	FR1	0	R1260D
410.957	0.967	566342	WORD_OFF	n/a	n/a	MOLE	4	3	[0, 0, 0]	n/a	FR1	0	R1260D
411.924	1.617	567309	WORD	n/a	wordpools/wordpool_EN.txt	DOCK	5	3	[0, 0, 0]	n/a	FR1	0	R1260D
413.541	0.901	568926	WORD_OFF	n/a	n/a	DOCK	5	3	[0, 0, 0]	n/a	FR1	0	R1260D
414.442	1.617	569827	WORD	n/a	wordpools/wordpool_EN.txt	TOAST	6	3	[0, 0, 0]	n/a	FR1	0	R1260D
416.059	0.933	571443	WORD_OFF	n/a	n/a	TOAST	6	3	[0, 0, 0]	n/a	FR1	0	R1260D
416.992	1.616	572376	WORD	n/a	wordpools/wordpool_EN.txt	SINK	7	3	[0, 0, 0]	n/a	FR1	0	R1260D
418.608	0.835	573992	WORD_OFF	n/a	n/a	SINK	7	3	[0, 0, 0]	n/a	FR1	0	R1260D
419.443	1.617	574827	WORD	n/a	wordpools/wordpool_EN.txt	SKUNK	8	3	[0, 0, 0]	n/a	FR1	0	R1260D
421.06	0.95	576444	WORD_OFF	n/a	n/a	SKUNK	8	3	[0, 0, 0]	n/a	FR1	0	R1260D
422.01	1.616	577394	WORD	n/a	wordpools/wordpool_EN.txt	CLOWN	9	3	[0, 0, 0]	n/a	FR1	0	R1260D
423.626	0.917	579010	WORD_OFF	n/a	n/a	CLOWN	9	3	[0, 0, 0]	n/a	FR1	0	R1260D
424.543	1.618	579927	WORD	n/a	wordpools/wordpool_EN.txt	THUMB	10	3	[0, 0, 0]	n/a	FR1	0	R1260D
426.161	0.883	581545	WORD_OFF	n/a	n/a	THUMB	10	3	[0, 0, 0]	n/a	FR1	0	R1260D
427.044	1.616	582428	WORD	n/a	wordpools/wordpool_EN.txt	LAMB	11	3	[0, 0, 0]	n/a	FR1	0	R1260D
428.66	0.851	584044	WORD_OFF	n/a	n/a	LAMB	11	3	[0, 0, 0]	n/a	FR1	0	R1260D
429.511	1.617	584895	WORD	n/a	wordpools/wordpool_EN.txt	FUDGE	12	3	[0, 0, 0]	n/a	FR1	0	R1260D
431.128	0.0	586512	DISTRACT_START	n/a	n/a	n/a	-999	3	[0, 0, 0]	n/a	FR1	0	R1260D
431.128	0.001	586512	WORD_OFF	n/a	n/a	FUDGE	12	3	[0, 0, 0]	n/a	FR1	0	R1260D
431.129	0.016	586513	START	n/a	n/a	n/a	-999	3	[-999, -999, -999]	n/a	FR1	0	R1260D
431.145	9.784	586529	PROB	9.784	n/a	n/a	-999	3	[1, 7, 6]	14	FR1	0	R1260D
440.929	11.754	596312	PROB	11.754	n/a	n/a	-999	3	[2, 4, 2]	8	FR1	0	R1260D
452.683	0.015	608065	STOP	n/a	n/a	n/a	-999	3	[-999, -999, -999]	n/a	FR1	0	R1260D
452.698	0.684	608080	DISTRACT_END	n/a	n/a	n/a	-999	3	[0, 0, 0]	n/a	FR1	0	R1260D
453.382	0.517	608764	RETRIEVAL_ORIENT	n/a	n/a	n/a	-999	3	[0, 0, 0]	n/a	FR1	0	R1260D
453.899	1.975	609281	REC_START	n/a	n/a	n/a	-999	3	[0, 0, 0]	n/a	FR1	0	R1260D
455.874	1.076	611256	REC_WORD_VV	1.076	n/a	<>	-999	3	[0, 0, 0]	n/a	FR1	0	R1260D
456.95	0.702	612332	REC_WORD	0.702	n/a	CAVE	-999	3	[0, 0, 0]	n/a	FR1	0	R1260D
457.652	2.733	613034	REC_WORD	2.733	n/a	BAT	-999	3	[0, 0, 0]	n/a	FR1	0	R1260D
460.385	3.975	615767	REC_WORD	3.975	n/a	CLOUD	-999	3	[0, 0, 0]	n/a	FR1	0	R1260D
464.36	4.176	619742	REC_WORD	4.176	n/a	MOLE	-999	3	[0, 0, 0]	n/a	FR1	0	R1260D
468.536	2.001	623917	REC_WORD	2.001	n/a	HEM	-999	3	[0, 0, 0]	n/a	FR1	0	R1260D
470.537	4.079	625918	REC_WORD_VV	4.079	n/a	<>	-999	3	[0, 0, 0]	n/a	FR1	0	R1260D
474.616	3.932	629997	REC_WORD	3.932	n/a	WALK	-999	3	[0, 0, 0]	n/a	FR1	0	R1260D
478.548	0.874	633929	REC_WORD_VV	0.874	n/a	<>	-999	3	[0, 0, 0]	n/a	FR1	0	R1260D
479.422	4.488	634803	REC_WORD	4.488	n/a	CLOWN	-999	3	[0, 0, 0]	n/a	FR1	0	R1260D
483.91	4.878	639291	REC_END	n/a	n/a	n/a	-999	3	[0, 0, 0]	n/a	FR1	0	R1260D
488.788	0.5	644168	TRIAL	n/a	n/a	n/a	-999	4	[0, 0, 0]	n/a	FR1	0	R1260D
489.288	10.428	644668	COUNTDOWN_START	n/a	n/a	n/a	-999	4	[0, 0, 0]	n/a	FR1	0	R1260D
499.716	0.007	655096	COUNTDOWN_END	n/a	n/a	n/a	-999	4	[0, 0, 0]	n/a	FR1	0	R1260D
499.723	1.618	655103	ORIENT	n/a	n/a	n/a	-999	4	[0, 0, 0]	n/a	FR1	0	R1260D
501.341	1.817	656721	ORIENT_OFF	n/a	n/a	n/a	-999	4	[0, 0, 0]	n/a	FR1	0	R1260D
503.158	1.616	658538	WORD	n/a	wordpools/wordpool_EN.txt	BUSH	1	4	[0, 0, 0]	n/a	FR1	0	R1260D
504.774	0.934	660153	WORD_OFF	n/a	n/a	BUSH	1	4	[0, 0, 0]	n/a	FR1	0	R1260D
505.708	1.618	661087	WORD	n/a	wordpools/wordpool_EN.txt	FRUIT	2	4	[0, 0, 0]	n/a	FR1	0	R1260D
507.326	0.866	662705	WORD_OFF	n/a	n/a	FRUIT	2	4	[0, 0, 0]	n/a	FR1	0	R1260D
508.192	1.616	663571	WORD	n/a	wordpools/wordpool_EN.txt	COUCH	3	4	[0, 0, 0]	n/a	FR1	0	R1260D
509.808	0.884	665187	WORD_OFF	n/a	n/a	COUCH	3	4	[0, 0, 0]	n/a	FR1	0	R1260D
510.692	1.618	666071	WORD	n/a	wordpools/wordpool_EN.txt	SPRING	4	4	[0, 0, 0]	n/a	FR1	0	R1260D
512.31	0.95	667689	WORD_OFF	n/a	n/a	SPRING	4	4	[0, 0, 0]	n/a	FR1	0	R1260D
513.26	1.616	668639	WORD	n/a	wordpools/wordpool_EN.txt	ROSE	5	4	[0, 0, 0]	n/a	FR1	0	R1260D
514.876	0.9	670255	WORD_OFF	n/a	n/a	ROSE	5	4	[0, 0, 0]	n/a	FR1	0	R1260D
515.776	1.618	671155	WORD	n/a	wordpools/wordpool_EN.txt	FACE	6	4	[0, 0, 0]	n/a	FR1	0	R1260D
517.394	0.767	672773	WORD_OFF	n/a	n/a	FACE	6	4	[0, 0, 0]	n/a	FR1	0	R1260D
518.161	1.616	673540	WORD	n/a	wordpools/wordpool_EN.txt	PHONE	7	4	[0, 0, 0]	n/a	FR1	0	R1260D
519.777	0.85	675156	WORD_OFF	n/a	n/a	PHONE	7	4	[0, 0, 0]	n/a	FR1	0	R1260D
520.627	1.618	676006	WORD	n/a	wordpools/wordpool_EN.txt	GUARD	8	4	[0, 0, 0]	n/a	FR1	0	R1260D
522.245	0.85	677623	WORD_OFF	n/a	n/a	GUARD	8	4	[0, 0, 0]	n/a	FR1	0	R1260D
523.095	1.616	678473	WORD	n/a	wordpools/wordpool_EN.txt	PURSE	9	4	[0, 0, 0]	n/a	FR1	0	R1260D
524.711	0.834	680089	WORD_OFF	n/a	n/a	PURSE	9	4	[0, 0, 0]	n/a	FR1	0	R1260D
525.545	1.618	680923	WORD	n/a	wordpools/wordpool_EN.txt	MOOSE	10	4	[0, 0, 0]	n/a	FR1	0	R1260D
527.163	0.866	682541	WORD_OFF	n/a	n/a	MOOSE	10	4	[0, 0, 0]	n/a	FR1	0	R1260D
528.029	1.616	683407	WORD	n/a	wordpools/wordpool_EN.txt	BOX	11	4	[0, 0, 0]	n/a	FR1	0	R1260D
529.645	1.0	685023	WORD_OFF	n/a	n/a	BOX	11	4	[0, 0, 0]	n/a	FR1	0	R1260D
530.645	1.602	686023	WORD	n/a	wordpools/wordpool_EN.txt	FLAME	12	4	[0, 0, 0]	n/a	FR1	0	R1260D
532.247	0.0	687625	DISTRACT_START	n/a	n/a	n/a	-999	4	[0, 0, 0]	n/a	FR1	0	R1260D
532.247	0.0	687625	WORD_OFF	n/a	n/a	FLAME	12	4	[0, 0, 0]	n/a	FR1	0	R1260D
532.247	0.016	687625	START	n/a	n/a	n/a	-999	4	[-999, -999, -999]	n/a	FR1	0	R1260D
532.263	5.334	687641	PROB	5.334	n/a	n/a	-999	4	[8, 1, 8]	17	FR1	0	R1260D
537.597	23.735	692975	PROB	23.735	n/a	n/a	-999	4	[1, 2, 3]	6	FR1	0	R1260D
561.332	0.02	716708	STOP	n/a	n/a	n/a	-999	4	[-999, -999, -999]	n/a	FR1	0	R1260D
561.352	0.684	716728	DISTRACT_END	n/a	n/a	n/a	-999	4	[0, 0, 0]	n/a	FR1	0	R1260D
562.036	0.516	717412	RETRIEVAL_ORIENT	n/a	n/a	n/a	-999	4	[0, 0, 0]	n/a	FR1	0	R1260D
562.552	2.245	717928	REC_START	n/a	n/a	n/a	-999	4	[0, 0, 0]	n/a	FR1	0	R1260D
564.797	2.601	720173	REC_WORD_VV	2.601	n/a	<>	-999	4	[0, 0, 0]	n/a	FR1	0	R1260D
567.398	2.527	722774	REC_WORD_VV	2.527	n/a	<>	-999	4	[0, 0, 0]	n/a	FR1	0	R1260D
569.925	3.106	725301	REC_WORD_VV	3.106	n/a	<>	-999	4	[0, 0, 0]	n/a	FR1	0	R1260D
573.031	1.15	728407	REC_WORD	1.15	n/a	ROSE	-999	4	[0, 0, 0]	n/a	FR1	0	R1260D
574.181	4.744	729557	REC_WORD	4.744	n/a	FACE	-999	4	[0, 0, 0]	n/a	FR1	0	R1260D
578.925	5.619	734300	REC_WORD_VV	5.619	n/a	<>	-999	4	[0, 0, 0]	n/a	FR1	0	R1260D
584.544	8.018	739919	REC_WORD	8.018	n/a	BOTTLE	-999	4	[0, 0, 0]	n/a	FR1	0	R1260D
592.562	171.927	747937	REC_END	n/a	n/a	n/a	-999	4	[0, 0, 0]	n/a	FR1	0	R1260D
764.489	0.5	919854	TRIAL	n/a	n/a	n/a	-999	5	[0, 0, 0]	n/a	FR1	0	R1260D
764.989	10.428	920354	COUNTDOWN_START	n/a	n/a	n/a	-999	5	[0, 0, 0]	n/a	FR1	0	R1260D
775.417	0.008	930781	COUNTDOWN_END	n/a	n/a	n/a	-999	5	[0, 0, 0]	n/a	FR1	0	R1260D
775.425	1.616	930789	ORIENT	n/a	n/a	n/a	-999	5	[0, 0, 0]	n/a	FR1	0	R1260D
777.041	2.017	932405	ORIENT_OFF	n/a	n/a	n/a	-999	5	[0, 0, 0]	n/a	FR1	0	R1260D
779.058	1.616	934422	WORD	n/a	wordpools/wordpool_EN.txt	CHIEF	1	5	[0, 0, 0]	n/a	FR1	0	R1260D
780.674	0.85	936038	WORD_OFF	n/a	n/a	CHIEF	1	5	[0, 0, 0]	n/a	FR1	0	R1260D
781.524	1.602	936888	WORD	n/a	wordpools/wordpool_EN.txt	SEAT	2	5	[0, 0, 0]	n/a	FR1	0	R1260D
783.126	0.9	938490	WORD_OFF	n/a	n/a	SEAT	2	5	[0, 0, 0]	n/a	FR1	0	R1260D
784.026	1.616	939390	WORD	n/a	wordpools/wordpool_EN.txt	SPEAR	3	5	[0, 0, 0]	n/a	FR1	0	R1260D
785.642	0.818	941006	WORD_OFF	n/a	n/a	SPEAR	3	5	[0, 0, 0]	n/a	FR1	0	R1260D
786.46	1.617	941824	WORD	n/a	wordpools/wordpool_EN.txt	COIN	4	5	[0, 0, 0]	n/a	FR1	0	R1260D
788.077	1.0	943441	WORD_OFF	n/a	n/a	COIN	4	5	[0, 0, 0]	n/a	FR1	0	R1260D
789.077	1.616	944440	WORD	n/a	wordpools/wordpool_EN.txt	FISH	5	5	[0, 0, 0]	n/a	FR1	0	R1260D
790.693	0.85	946056	WORD_OFF	n/a	n/a	FISH	5	5	[0, 0, 0]	n/a	FR1	0	R1260D
791.543	1.618	946906	WORD	n/a	wordpools/wordpool_EN.txt	POOL	6	5	[0, 0, 0]	n/a	FR1	0	R1260D
793.161	1.0	948524	WORD_OFF	n/a	n/a	POOL	6	5	[0, 0, 0]	n/a	FR1	0	R1260D
794.161	1.616	949524	WORD	n/a	wordpools/wordpool_EN.txt	JEEP	7	5	[0, 0, 0]	n/a	FR1	0	R1260D
795.777	1.0	951140	WORD_OFF	n/a	n/a	JEEP	7	5	[0, 0, 0]	n/a	FR1	0	R1260D
796.777	1.602	952140	WORD	n/a	wordpools/wordpool_EN.txt	TRAIN	8	5	[0, 0, 0]	n/a	FR1	0	R1260D
798.379	0.867	953742	WORD_OFF	n/a	n/a	TRAIN	8	5	[0, 0, 0]	n/a	FR1	0	R1260D
799.246	1.616	954609	WORD	n/a	wordpools/wordpool_EN.txt	LAKE	9	5	[0, 0, 0]	n/a	FR1	0	R1260D
800.862	0.8	956225	WORD_OFF	n/a	n/a	LAKE	9	5	[0, 0, 0]	n/a	FR1	0	R1260D
801.662	1.618	957025	WORD	n/a	wordpools/wordpool_EN.txt	CAR	10	5	[0, 0, 0]	n/a	FR1	0	R1260D
803.28	0.883	958643	WORD_OFF	n/a	n/a	CAR	10	5	[0, 0, 0]	n/a	FR1	0	R1260D
804.163	1.616	959526	WORD	n/a	wordpools/wordpool_EN.txt	SHARK	11	5	[0, 0, 0]	n/a	FR1	0	R1260D
805.779	0.867	961142	WORD_OFF	n/a	n/a	SHARK	11	5	[0, 0, 0]	n/a	FR1	0	R1260D
806.646	1.618	962008	WORD	n/a	wordpools/wordpool_EN.txt	SPONGE	12	5	[0, 0, 0]	n/a	FR1	0	R1260D
808.264	0.0	963626	WORD_OFF	n/a	n/a	SPONGE	12	5	[0, 0, 0]	n/a	FR1	0	R1260D
808.264	0.0	963626	DISTRACT_START	n/a	n/a	n/a	-999	5	[0, 0, 0]	n/a	FR1	0	R1260D
808.264	0.016	963626	START	n/a	n/a	n/a	-999	5	[-999, -999, -999]	n/a	FR1	0	R1260D
808.28	7.935	963642	PROB	7.935	n/a	n/a	-999	5	[6, 6, 8]	20	FR1	0	R1260D
816.215	5.45	971577	PROB	5.45	n/a	n/a	-999	5	[4, 5, 1]	10	FR1	0	R1260D
821.665	9.793	977027	PROB	9.793	n/a	n/a	-999	5	[2, 5, 6]	13	FR1	0	R1260D
831.458	0.01	986819	STOP	n/a	n/a	n/a	-999	5	[-999, -999, -999]	n/a	FR1	0	R1260D
831.468	0.634	986829	DISTRACT_END	n/a	n/a	n/a	-999	5	[0, 0, 0]	n/a	FR1	0	R1260D
832.102	0.516	987463	RETRIEVAL_ORIENT	n/a	n/a	n/a	-999	5	[0, 0, 0]	n/a	FR1	0	R1260D
832.618	1.259	987979	REC_START	n/a	n/a	n/a	-999	5	[0, 0, 0]	n/a	FR1	0	R1260D
833.877	2.595	989238	REC_WORD_VV	2.595	n/a	<>	-999	5	[0, 0, 0]	n/a	FR1	0	R1260D
836.472	1.711	991833	REC_WORD	1.711	n/a	CHIEF	-999	5	[0, 0, 0]	n/a	FR1	0	R1260D
838.183	1.008	993544	REC_WORD	1.008	n/a	SPARK	-999	5	[0, 0, 0]	n/a	FR1	0	R1260D
839.191	2.272	994552	REC_WORD	2.272	n/a	SEAT	-999	5	[0, 0, 0]	n/a	FR1	0	R1260D
841.463	4.662	996824	REC_WORD	4.662	n/a	FISH	-999	5	[0, 0, 0]	n/a	FR1	0	R1260D
846.125	4.858	1001485	REC_WORD	4.858	n/a	SPEAR	-999	5	[0, 0, 0]	n/a	FR1	0	R1260D
850.983	1.902	1006343	REC_WORD	1.902	n/a	CAR	-999	5	[0, 0, 0]	n/a	FR1	0	R1260D
852.885	3.576	1008245	REC_WORD_VV	3.576	n/a	<>	-999	5	[0, 0, 0]	n/a	FR1	0	R1260D
856.461	0.664	1011821	REC_WORD_VV	0.664	n/a	<>	-999	5	[0, 0, 0]	n/a	FR1	0	R1260D
857.125	1.734	1012485	REC_WORD	1.734	n/a	CHEAP	-999	5	[0, 0, 0]	n/a	FR1	0	R1260D
858.859	0.705	1014219	REC_WORD	0.705	n/a	JEEP	-999	5	[0, 0, 0]	n/a	FR1	0	R1260D
859.564	3.063	1014924	REC_WORD_VV	3.063	n/a	<>	-999	5	[0, 0, 0]	n/a	FR1	0	R1260D
862.627	4.08	1017986	REC_END	n/a	n/a	n/a	-999	5	[0, 0, 0]	n/a	FR1	0	R1260D
866.707	0.5	1022066	TRIAL	n/a	n/a	n/a	-999	6	[0, 0, 0]	n/a	FR1	0	R1260D
867.207	10.428	1022566	COUNTDOWN_START	n/a	n/a	n/a	-999	6	[0, 0, 0]	n/a	FR1	0	R1260D
877.635	0.007	1032993	COUNTDOWN_END	n/a	n/a	n/a	-999	6	[0, 0, 0]	n/a	FR1	0	R1260D
877.642	1.601	1033000	ORIENT	n/a	n/a	n/a	-999	6	[0, 0, 0]	n/a	FR1	0	R1260D
879.243	1.951	1034601	ORIENT_OFF	n/a	n/a	n/a	-999	6	[0, 0, 0]	n/a	FR1	0	R1260D
881.194	1.616	1036552	WORD	n/a	wordpools/wordpool_EN.txt	TOY	1	6	[0, 0, 0]	n/a	FR1	0	R1260D
882.81	0.9	1038168	WORD_OFF	n/a	n/a	TOY	1	6	[0, 0, 0]	n/a	FR1	0	R1260D
883.71	1.618	1039068	WORD	n/a	wordpools/wordpool_EN.txt	TOOTH	2	6	[0, 0, 0]	n/a	FR1	0	R1260D
885.328	0.85	1040686	WORD_OFF	n/a	n/a	TOOTH	2	6	[0, 0, 0]	n/a	FR1	0	R1260D
886.178	1.616	1041536	WORD	n/a	wordpools/wordpool_EN.txt	FLAG	3	6	[0, 0, 0]	n/a	FR1	0	R1260D
887.794	0.85	1043152	WORD_OFF	n/a	n/a	FLAG	3	6	[0, 0, 0]	n/a	FR1	0	R1260D
888.644	1.601	1044002	WORD	n/a	wordpools/wordpool_EN.txt	MAZE	4	6	[0, 0, 0]	n/a	FR1	0	R1260D
890.245	0.934	1045603	WORD_OFF	n/a	n/a	MAZE	4	6	[0, 0, 0]	n/a	FR1	0	R1260D
891.179	1.616	1046537	WORD	n/a	wordpools/wordpool_EN.txt	LAND	5	6	[0, 0, 0]	n/a	FR1	0	R1260D
892.795	0.933	1048153	WORD_OFF	n/a	n/a	LAND	5	6	[0, 0, 0]	n/a	FR1	0	R1260D
893.728	1.602	1049086	WORD	n/a	wordpools/wordpool_EN.txt	RAKE	6	6	[0, 0, 0]	n/a	FR1	0	R1260D
895.33	0.883	1050688	WORD_OFF	n/a	n/a	RAKE	6	6	[0, 0, 0]	n/a	FR1	0	R1260D
896.213	1.616	1051570	WORD	n/a	wordpools/wordpool_EN.txt	RAIN	7	6	[0, 0, 0]	n/a	FR1	0	R1260D
897.829	1.0	1053186	WORD_OFF	n/a	n/a	RAIN	7	6	[0, 0, 0]	n/a	FR1	0	R1260D
898.829	1.601	1054186	WORD	n/a	wordpools/wordpool_EN.txt	ARM	8	6	[0, 0, 0]	n/a	FR1	0	R1260D
900.43	1.001	1055787	WORD_OFF	n/a	n/a	ARM	8	6	[0, 0, 0]	n/a	FR1	0	R1260D
901.431	1.617	1056788	WORD	n/a	wordpools/wordpool_EN.txt	CAT	9	6	[0, 0, 0]	n/a	FR1	0	R1260D
903.048	0.816	1058405	WORD_OFF	n/a	n/a	CAT	9	6	[0, 0, 0]	n/a	FR1	0	R1260D
903.864	1.618	1059221	WORD	n/a	wordpools/wordpool_EN.txt	ICE	10	6	[0, 0, 0]	n/a	FR1	0	R1260D
905.482	0.916	1060839	WORD_OFF	n/a	n/a	ICE	10	6	[0, 0, 0]	n/a	FR1	0	R1260D
906.398	1.617	1061755	WORD	n/a	wordpools/wordpool_EN.txt	SNOW	11	6	[0, 0, 0]	n/a	FR1	0	R1260D
908.015	0.9	1063372	WORD_OFF	n/a	n/a	SNOW	11	6	[0, 0, 0]	n/a	FR1	0	R1260D
908.915	1.601	1064272	WORD	n/a	wordpools/wordpool_EN.txt	SAIL	12	6	[0, 0, 0]	n/a	FR1	0	R1260D
910.516	0.0	1065873	DISTRACT_START	n/a	n/a	n/a	-999	6	[0, 0, 0]	n/a	FR1	0	R1260D
910.516	0.0	1065873	WORD_OFF	n/a	n/a	SAIL	12	6	[0, 0, 0]	n/a	FR1	0	R1260D
910.516	0.015	1065873	START	n/a	n/a	n/a	-999	6	[-999, -999, -999]	n/a	FR1	0	R1260D
910.531	5.453	1065888	PROB	5.453	n/a	n/a	-999	6	[4, 2, 3]	9	FR1	0	R1260D
915.984	6.467	1071340	PROB	6.467	n/a	n/a	-999	6	[1, 2, 2]	5	FR1	0	R1260D
922.451	4.3	1077807	PROB	4.3	n/a	n/a	-999	6	[2, 3, 4]	9	FR1	0	R1260D
926.751	5.612	1082107	PROB	5.612	n/a	n/a	-999	6	[3, 4, 3]	10	FR1	0	R1260D
932.363	0.007	1087718	STOP	n/a	n/a	n/a	-999	6	[-999, -999, -999]	n/a	FR1	0	R1260D
932.37	0.549	1087725	DISTRACT_END	n/a	n/a	n/a	-999	6	[0, 0, 0]	n/a	FR1	0	R1260D
932.919	0.518	1088274	RETRIEVAL_ORIENT	n/a	n/a	n/a	-999	6	[0, 0, 0]	n/a	FR1	0	R1260D
933.437	1.795	1088792	REC_START	n/a	n/a	n/a	-999	6	[0, 0, 0]	n/a	FR1	0	R1260D
935.232	2.833	1090587	REC_WORD	2.833	n/a	TOY	-999	6	[0, 0, 0]	n/a	FR1	0	R1260D
938.065	2.689	1093420	REC_WORD_VV	2.689	n/a	<>	-999	6	[0, 0, 0]	n/a	FR1	0	R1260D
940.754	0.963	1096109	REC_WORD	0.963	n/a	LAND	-999	6	[0, 0, 0]	n/a	FR1	0	R1260D
941.717	3.865	1097072	REC_WORD	3.865	n/a	RAKE	-999	6	[0, 0, 0]	n/a	FR1	0	R1260D
945.582	2.906	1100937	REC_WORD	2.906	n/a	TRAIN	-999	6	[0, 0, 0]	n/a	FR1	0	R1260D
948.488	8.608	1103843	REC_WORD_VV	8.608	n/a	<>	-999	6	[0, 0, 0]	n/a	FR1	0	R1260D
957.096	1.692	1112450	REC_WORD_VV	1.692	n/a	<>	-999	6	[0, 0, 0]	n/a	FR1	0	R1260D
958.788	0.48	1114142	REC_WORD	0.48	n/a	POND	-999	6	[0, 0, 0]	n/a	FR1	0	R1260D
959.268	0.864	1114622	REC_WORD_VV	0.864	n/a	<>	-999	6	[0, 0, 0]	n/a	FR1	0	R1260D
960.132	3.317	1115486	REC_WORD	3.317	n/a	POND	-999	6	[0, 0, 0]	n/a	FR1	0	R1260D
963.449	12.311	1118803	REC_END	n/a	n/a	n/a	-999	6	[0, 0, 0]	n/a	FR1	0	R1260D
975.76	0.5	1131113	TRIAL	n/a	n/a	n/a	-999	7	[0, 0, 0]	n/a	FR1	0	R1260D
976.26	10.428	1131613	COUNTDOWN_START	n/a	n/a	n/a	-999	7	[0, 0, 0]	n/a	FR1	0	R1260D
986.688	0.007	1142040	COUNTDOWN_END	n/a	n/a	n/a	-999	7	[0, 0, 0]	n/a	FR1	0	R1260D
986.695	1.618	1142047	ORIENT	n/a	n/a	n/a	-999	7	[0, 0, 0]	n/a	FR1	0	R1260D
988.313	2.084	1143665	ORIENT_OFF	n/a	n/a	n/a	-999	7	[0, 0, 0]	n/a	FR1	0	R1260D
990.397	1.617	1145749	WORD	n/a	wordpools/wordpool_EN.txt	STAR	1	7	[0, 0, 0]	n/a	FR1	0	R1260D
992.014	0.816	1147366	WORD_OFF	n/a	n/a	STAR	1	7	[0, 0, 0]	n/a	FR1	0	R1260D
992.83	1.618	1148182	WORD	n/a	wordpools/wordpool_EN.txt	GLOVE	2	7	[0, 0, 0]	n/a	FR1	0	R1260D
994.448	1.017	1149800	WORD_OFF	n/a	n/a	GLOVE	2	7	[0, 0, 0]	n/a	FR1	0	R1260D
995.465	1.617	1150817	WORD	n/a	wordpools/wordpool_EN.txt	SALT	3	7	[0, 0, 0]	n/a	FR1	0	R1260D
997.082	0.95	1152434	WORD_OFF	n/a	n/a	SALT	3	7	[0, 0, 0]	n/a	FR1	0	R1260D
998.032	1.616	1153384	WORD	n/a	wordpools/wordpool_EN.txt	SMOKE	4	7	[0, 0, 0]	n/a	FR1	0	R1260D
999.648	0.851	1155000	WORD_OFF	n/a	n/a	SMOKE	4	7	[0, 0, 0]	n/a	FR1	0	R1260D
1000.499	1.617	1155851	WORD	n/a	wordpools/wordpool_EN.txt	HAT	5	7	[0, 0, 0]	n/a	FR1	0	R1260D
1002.116	0.917	1157468	WORD_OFF	n/a	n/a	HAT	5	7	[0, 0, 0]	n/a	FR1	0	R1260D
1003.033	1.616	1158384	WORD	n/a	wordpools/wordpool_EN.txt	ANT	6	7	[0, 0, 0]	n/a	FR1	0	R1260D
1004.649	0.834	1160000	WORD_OFF	n/a	n/a	ANT	6	7	[0, 0, 0]	n/a	FR1	0	R1260D
1005.483	1.617	1160834	WORD	n/a	wordpools/wordpool_EN.txt	CASH	7	7	[0, 0, 0]	n/a	FR1	0	R1260D
1007.1	0.799	1162451	WORD_OFF	n/a	n/a	CASH	7	7	[0, 0, 0]	n/a	FR1	0	R1260D
1007.899	1.618	1163250	WORD	n/a	wordpools/wordpool_EN.txt	DART	8	7	[0, 0, 0]	n/a	FR1	0	R1260D
1009.517	0.917	1164868	WORD_OFF	n/a	n/a	DART	8	7	[0, 0, 0]	n/a	FR1	0	R1260D
1010.434	1.617	1165785	WORD	n/a	wordpools/wordpool_EN.txt	CORN	9	7	[0, 0, 0]	n/a	FR1	0	R1260D
1012.051	0.832	1167402	WORD_OFF	n/a	n/a	CORN	9	7	[0, 0, 0]	n/a	FR1	0	R1260D
1012.883	1.619	1168234	WORD	n/a	wordpools/wordpool_EN.txt	WORM	10	7	[0, 0, 0]	n/a	FR1	0	R1260D
1014.502	0.933	1169853	WORD_OFF	n/a	n/a	WORM	10	7	[0, 0, 0]	n/a	FR1	0	R1260D
1015.435	1.617	1170786	WORD	n/a	wordpools/wordpool_EN.txt	SEAL	11	7	[0, 0, 0]	n/a	FR1	0	R1260D
1017.052	0.766	1172403	WORD_OFF	n/a	n/a	SEAL	11	7	[0, 0, 0]	n/a	FR1	0	R1260D
1017.818	1.601	1173169	WORD	n/a	wordpools/wordpool_EN.txt	WING	12	7	[0, 0, 0]	n/a	FR1	0	R1260D
1019.419	0.0	1174770	WORD_OFF	n/a	n/a	WING	12	7	[0, 0, 0]	n/a	FR1	0	R1260D
1019.419	0.001	1174770	DISTRACT_START	n/a	n/a	n/a	-999	7	[0, 0, 0]	n/a	FR1	0	R1260D
1019.42	0.016	1174771	START	n/a	n/a	n/a	-999	7	[-999, -999, -999]	n/a	FR1	0	R1260D
1019.436	8.768	1174787	PROB	8.768	n/a	n/a	-999	7	[3, 5, 7]	15	FR1	0	R1260D
1028.204	4.851	1183554	PROB	4.851	n/a	n/a	-999	7	[9, 9, 1]	19	FR1	0	R1260D
1033.055	3.566	1188405	PROB	3.566	n/a	n/a	-999	7	[2, 4, 2]	8	FR1	0	R1260D
1036.621	7.197	1191971	PROB	7.197	n/a	n/a	-999	7	[6, 3, 7]	16	FR1	0	R1260D
1043.818	0.021	1199167	STOP	n/a	n/a	n/a	-999	7	[-999, -999, -999]	n/a	FR1	0	R1260D
1043.839	0.668	1199188	DISTRACT_END	n/a	n/a	n/a	-999	7	[0, 0, 0]	n/a	FR1	0	R1260D
1044.507	0.517	1199856	RETRIEVAL_ORIENT	n/a	n/a	n/a	-999	7	[0, 0, 0]	n/a	FR1	0	R1260D
1045.024	1.954	1200373	REC_START	n/a	n/a	n/a	-999	7	[0, 0, 0]	n/a	FR1	0	R1260D
1046.978	1.079	1202327	REC_WORD	1.079	n/a	STAR	-999	7	[0, 0, 0]	n/a	FR1	0	R1260D
1048.057	3.647	1203406	REC_WORD	3.647	n/a	FLAG	-999	7	[0, 0, 0]	n/a	FR1	0	R1260D
1051.704	3.155	1207053	REC_WORD	3.155	n/a	GLOVE	-999	7	[0, 0, 0]	n/a	FR1	0	R1260D
1054.859	5.378	1210208	REC_WORD	5.378	n/a	SALT	-999	7	[0, 0, 0]	n/a	FR1	0	R1260D
1060.237	7.109	1215585	REC_WORD_VV	7.109	n/a	<>	-999	7	[0, 0, 0]	n/a	FR1	0	R1260D
1067.346	2.516	1222694	REC_WORD	2.516	n/a	LAND	-999	7	[0, 0, 0]	n/a	FR1	0	R1260D
1069.862	1.973	1225210	REC_WORD_VV	1.973	n/a	<>	-999	7	[0, 0, 0]	n/a	FR1	0	R1260D
1071.835	3.202	1227183	REC_WORD_VV	3.202	n/a	<>	-999	7	[0, 0, 0]	n/a	FR1	0	R1260D
1075.037	19.795	1230384	REC_END	n/a	n/a	n/a	-999	7	[0, 0, 0]	n/a	FR1	0	R1260D
1094.832	0.5	1250178	TRIAL	n/a	n/a	n/a	-999	8	[0, 0, 0]	n/a	FR1	0	R1260D
1095.332	10.428	1250678	COUNTDOWN_START	n/a	n/a	n/a	-999	8	[0, 0, 0]	n/a	FR1	0	R1260D
1105.76	0.007	1261106	COUNTDOWN_END	n/a	n/a	n/a	-999	8	[0, 0, 0]	n/a	FR1	0	R1260D
1105.767	1.601	1261113	ORIENT	n/a	n/a	n/a	-999	8	[0, 0, 0]	n/a	FR1	0	R1260D
1107.368	1.834	1262714	ORIENT_OFF	n/a	n/a	n/a	-999	8	[0, 0, 0]	n/a	FR1	0	R1260D
1109.202	1.616	1264547	WORD	n/a	wordpools/wordpool_EN.txt	SOCK	1	8	[0, 0, 0]	n/a	FR1	0	R1260D
1110.818	1.017	1266163	WORD_OFF	n/a	n/a	SOCK	1	8	[0, 0, 0]	n/a	FR1	0	R1260D
1111.835	1.618	1267180	WORD	n/a	wordpools/wordpool_EN.txt	TRUCK	2	8	[0, 0, 0]	n/a	FR1	0	R1260D
1113.453	0.984	1268798	WORD_OFF	n/a	n/a	TRUCK	2	8	[0, 0, 0]	n/a	FR1	0	R1260D
1114.437	1.616	1269782	WORD	n/a	wordpools/wordpool_EN.txt	PRINCE	3	8	[0, 0, 0]	n/a	FR1	0	R1260D
1116.053	1.001	1271398	WORD_OFF	n/a	n/a	PRINCE	3	8	[0, 0, 0]	n/a	FR1	0	R1260D
1117.054	1.616	1272399	WORD	n/a	wordpools/wordpool_EN.txt	TEA	4	8	[0, 0, 0]	n/a	FR1	0	R1260D
1118.67	0.966	1274015	WORD_OFF	n/a	n/a	TEA	4	8	[0, 0, 0]	n/a	FR1	0	R1260D
1119.636	1.618	1274981	WORD	n/a	wordpools/wordpool_EN.txt	CAGE	5	8	[0, 0, 0]	n/a	FR1	0	R1260D
1121.254	0.934	1276599	WORD_OFF	n/a	n/a	CAGE	5	8	[0, 0, 0]	n/a	FR1	0	R1260D
1122.188	1.616	1277533	WORD	n/a	wordpools/wordpool_EN.txt	HOLE	6	8	[0, 0, 0]	n/a	FR1	0	R1260D
1123.804	1.0	1279149	WORD_OFF	n/a	n/a	HOLE	6	8	[0, 0, 0]	n/a	FR1	0	R1260D
1124.804	1.618	1280149	WORD	n/a	wordpools/wordpool_EN.txt	APE	7	8	[0, 0, 0]	n/a	FR1	0	R1260D
1126.422	0.967	1281767	WORD_OFF	n/a	n/a	APE	7	8	[0, 0, 0]	n/a	FR1	0	R1260D
1127.389	1.617	1282733	WORD	n/a	wordpools/wordpool_EN.txt	FOG	8	8	[0, 0, 0]	n/a	FR1	0	R1260D
1129.006	0.949	1284350	WORD_OFF	n/a	n/a	FOG	8	8	[0, 0, 0]	n/a	FR1	0	R1260D
1129.955	1.617	1285299	WORD	n/a	wordpools/wordpool_EN.txt	FORK	9	8	[0, 0, 0]	n/a	FR1	0	R1260D
1131.572	0.801	1286916	WORD_OFF	n/a	n/a	FORK	9	8	[0, 0, 0]	n/a	FR1	0	R1260D
1132.373	1.617	1287717	WORD	n/a	wordpools/wordpool_EN.txt	SUN	10	8	[0, 0, 0]	n/a	FR1	0	R1260D
1133.99	0.983	1289334	WORD_OFF	n/a	n/a	SUN	10	8	[0, 0, 0]	n/a	FR1	0	R1260D
1134.973	1.617	1290317	WORD	n/a	wordpools/wordpool_EN.txt	DOG	11	8	[0, 0, 0]	n/a	FR1	0	R1260D
1136.59	0.95	1291934	WORD_OFF	n/a	n/a	DOG	11	8	[0, 0, 0]	n/a	FR1	0	R1260D
1137.54	1.618	1292884	WORD	n/a	wordpools/wordpool_EN.txt	BEAR	12	8	[0, 0, 0]	n/a	FR1	0	R1260D
1139.158	0.0	1294502	DISTRACT_START	n/a	n/a	n/a	-999	8	[0, 0, 0]	n/a	FR1	0	R1260D
1139.158	0.0	1294502	WORD_OFF	n/a	n/a	BEAR	12	8	[0, 0, 0]	n/a	FR1	0	R1260D
1139.158	0.016	1294502	START	n/a	n/a	n/a	-999	8	[-999, -999, -999]	n/a	FR1	0	R1260D
1139.174	9.252	1294518	PROB	9.252	n/a	n/a	-999	8	[5, 6, 3]	14	FR1	0	R1260D
1148.426	4.117	1303769	PROB	4.117	n/a	n/a	-999	8	[2, 8, 5]	15	FR1	0	R1260D
1152.543	2.983	1307886	PROB	2.983	n/a	n/a	-999	8	[1, 8, 2]	11	FR1	0	R1260D
1155.526	3.351	1310869	PROB	3.351	n/a	n/a	-999	8	[6, 4, 7]	17	FR1	0	R1260D
1158.877	3.829	1314220	PROB	3.829	n/a	n/a	-999	8	[2, 1, 4]	7	FR1	0	R1260D
1162.706	0.022	1318048	STOP	n/a	n/a	n/a	-999	8	[-999, -999, -999]	n/a	FR1	0	R1260D
1162.728	0.584	1318070	DISTRACT_END	n/a	n/a	n/a	-999	8	[0, 0, 0]	n/a	FR1	0	R1260D
1163.312	0.516	1318654	RETRIEVAL_ORIENT	n/a	n/a	n/a	-999	8	[0, 0, 0]	n/a	FR1	0	R1260D
1163.828	1.539	1319170	REC_START	n/a	n/a	n/a	-999	8	[0, 0, 0]	n/a	FR1	0	R1260D
1165.367	5.564	1320709	REC_WORD	5.564	n/a	FOG	-999	8	[0, 0, 0]	n/a	FR1	0	R1260D
1170.931	7.43	1326273	REC_WORD	7.43	n/a	TRUCK	-999	8	[0, 0, 0]	n/a	FR1	0	R1260D
1178.361	2.293	1333703	REC_WORD_VV	2.293	n/a	<>	-999	8	[0, 0, 0]	n/a	FR1	0	R1260D
1180.654	13.188	1335995	REC_WORD	13.188	n/a	SOCK	-999	8	[0, 0, 0]	n/a	FR1	0	R1260D
1193.842	123.714	1349183	REC_END	n/a	n/a	n/a	-999	8	[0, 0, 0]	n/a	FR1	0	R1260D
1317.556	0.5	1472890	TRIAL	n/a	n/a	n/a	-999	9	[0, 0, 0]	n/a	FR1	0	R1260D
1318.056	10.428	1473390	COUNTDOWN_START	n/a	n/a	n/a	-999	9	[0, 0, 0]	n/a	FR1	0	R1260D
1328.484	0.008	1483817	COUNTDOWN_END	n/a	n/a	n/a	-999	9	[0, 0, 0]	n/a	FR1	0	R1260D
1328.492	1.617	1483825	ORIENT	n/a	n/a	n/a	-999	9	[0, 0, 0]	n/a	FR1	0	R1260D
1330.109	1.951	1485442	ORIENT_OFF	n/a	n/a	n/a	-999	9	[0, 0, 0]	n/a	FR1	0	R1260D
1332.06	1.616	1487393	WORD	n/a	wordpools/wordpool_EN.txt	STOOL	1	9	[0, 0, 0]	n/a	FR1	0	R1260D
1333.676	0.817	1489009	WORD_OFF	n/a	n/a	STOOL	1	9	[0, 0, 0]	n/a	FR1	0	R1260D
1334.493	1.617	1489826	WORD	n/a	wordpools/wordpool_EN.txt	HAND	2	9	[0, 0, 0]	n/a	FR1	0	R1260D
1336.11	0.951	1491443	WORD_OFF	n/a	n/a	HAND	2	9	[0, 0, 0]	n/a	FR1	0	R1260D
1337.061	1.616	1492394	WORD	n/a	wordpools/wordpool_EN.txt	TIE	3	9	[0, 0, 0]	n/a	FR1	0	R1260D
1338.677	0.866	1494010	WORD_OFF	n/a	n/a	TIE	3	9	[0, 0, 0]	n/a	FR1	0	R1260D
1339.543	1.601	1494876	WORD	n/a	wordpools/wordpool_EN.txt	DIME	4	9	[0, 0, 0]	n/a	FR1	0	R1260D
1341.144	1.001	1496476	WORD_OFF	n/a	n/a	DIME	4	9	[0, 0, 0]	n/a	FR1	0	R1260D
1342.145	1.616	1497477	WORD	n/a	wordpools/wordpool_EN.txt	CROWN	5	9	[0, 0, 0]	n/a	FR1	0	R1260D
1343.761	0.933	1499093	WORD_OFF	n/a	n/a	CROWN	5	9	[0, 0, 0]	n/a	FR1	0	R1260D
1344.694	1.618	1500026	WORD	n/a	wordpools/wordpool_EN.txt	CALF	6	9	[0, 0, 0]	n/a	FR1	0	R1260D
1346.312	0.867	1501644	WORD_OFF	n/a	n/a	CALF	6	9	[0, 0, 0]	n/a	FR1	0	R1260D
1347.179	1.616	1502511	WORD	n/a	wordpools/wordpool_EN.txt	STEAK	7	9	[0, 0, 0]	n/a	FR1	0	R1260D
1348.795	0.867	1504127	WORD_OFF	n/a	n/a	STEAK	7	9	[0, 0, 0]	n/a	FR1	0	R1260D
1349.662	1.618	1504994	WORD	n/a	wordpools/wordpool_EN.txt	CART	8	9	[0, 0, 0]	n/a	FR1	0	R1260D
1351.28	0.967	1506612	WORD_OFF	n/a	n/a	CART	8	9	[0, 0, 0]	n/a	FR1	0	R1260D
1352.247	1.616	1507579	WORD	n/a	wordpools/wordpool_EN.txt	PEA	9	9	[0, 0, 0]	n/a	FR1	0	R1260D
1353.863	0.866	1509195	WORD_OFF	n/a	n/a	PEA	9	9	[0, 0, 0]	n/a	FR1	0	R1260D
1354.729	1.618	1510061	WORD	n/a	wordpools/wordpool_EN.txt	GRASS	10	9	[0, 0, 0]	n/a	FR1	0	R1260D
1356.347	0.817	1511679	WORD_OFF	n/a	n/a	GRASS	10	9	[0, 0, 0]	n/a	FR1	0	R1260D
1357.164	1.616	1512496	WORD	n/a	wordpools/wordpool_EN.txt	CLAY	11	9	[0, 0, 0]	n/a	FR1	0	R1260D
1358.78	0.834	1514111	WORD_OFF	n/a	n/a	CLAY	11	9	[0, 0, 0]	n/a	FR1	0	R1260D
1359.614	1.618	1514945	WORD	n/a	wordpools/wordpool_EN.txt	BOOT	12	9	[0, 0, 0]	n/a	FR1	0	R1260D
1361.232	0.0	1516563	WORD_OFF	n/a	n/a	BOOT	12	9	[0, 0, 0]	n/a	FR1	0	R1260D
1361.232	0.0	1516563	DISTRACT_START	n/a	n/a	n/a	-999	9	[0, 0, 0]	n/a	FR1	0	R1260D
1361.232	0.016	1516563	START	n/a	n/a	n/a	-999	9	[-999, -999, -999]	n/a	FR1	0	R1260D
1361.248	7.735	1516579	PROB	7.735	n/a	n/a	-999	9	[9, 8, 8]	25	FR1	0	R1260D
1368.983	7.035	1524314	PROB	7.035	n/a	n/a	-999	9	[7, 9, 7]	21	FR1	0	R1260D
1376.018	12.599	1531348	PROB	12.599	n/a	n/a	-999	9	[2, 7, 9]	18	FR1	0	R1260D
1388.617	0.019	1543947	STOP	n/a	n/a	n/a	-999	9	[-999, -999, -999]	n/a	FR1	0	R1260D
1388.636	0.617	1543966	DISTRACT_END	n/a	n/a	n/a	-999	9	[0, 0, 0]	n/a	FR1	0	R1260D
1389.253	0.517	1544583	RETRIEVAL_ORIENT	n/a	n/a	n/a	-999	9	[0, 0, 0]	n/a	FR1	0	R1260D
1389.77	2.686	1545100	REC_START	n/a	n/a	n/a	-999	9	[0, 0, 0]	n/a	FR1	0	R1260D
1392.456	2.633	1547786	REC_WORD	2.633	n/a	STOOL	-999	9	[0, 0, 0]	n/a	FR1	0	R1260D
1395.089	5.05	1550418	REC_WORD	5.05	n/a	HAND	-999	9	[0, 0, 0]	n/a	FR1	0	R1260D
1400.139	3.096	1555468	REC_WORD	3.096	n/a	PEA	-999	9	[0, 0, 0]	n/a	FR1	0	R1260D
1403.235	3.822	1558564	REC_WORD	3.822	n/a	SOUP	-999	9	[0, 0, 0]	n/a	FR1	0	R1260D
1407.057	4.814	1562386	REC_WORD	4.814	n/a	LAND	-999	9	[0, 0, 0]	n/a	FR1	0	R1260D
1411.871	3.91	1567199	REC_WORD_VV	3.91	n/a	<>	-999	9	[0, 0, 0]	n/a	FR1	0	R1260D
1415.781	3.099	1571109	REC_WORD_VV	3.099	n/a	<>	-999	9	[0, 0, 0]	n/a	FR1	0	R1260D
1418.88	0.902	1574208	REC_WORD	0.902	n/a	BOOT	-999	9	[0, 0, 0]	n/a	FR1	0	R1260D
1419.782	146.903	1575110	REC_END	n/a	n/a	n/a	-999	9	[0, 0, 0]	n/a	FR1	0	R1260D
1566.685	0.5	1722005	TRIAL	n/a	n/a	n/a	-999	10	[0, 0, 0]	n/a	FR1	0	R1260D
1567.185	10.428	1722505	COUNTDOWN_START	n/a	n/a	n/a	-999	10	[0, 0, 0]	n/a	FR1	0	R1260D
1577.613	0.007	1732932	COUNTDOWN_END	n/a	n/a	n/a	-999	10	[0, 0, 0]	n/a	FR1	0	R1260D
1577.62	1.602	1732939	ORIENT	n/a	n/a	n/a	-999	10	[0, 0, 0]	n/a	FR1	0	R1260D
1579.222	2.332	1734541	ORIENT_OFF	n/a	n/a	n/a	-999	10	[0, 0, 0]	n/a	FR1	0	R1260D
1581.554	1.618	1736873	WORD	n/a	wordpools/wordpool_EN.txt	RICE	1	10	[0, 0, 0]	n/a	FR1	0	R1260D
1583.172	0.9	1738491	WORD_OFF	n/a	n/a	RICE	1	10	[0, 0, 0]	n/a	FR1	0	R1260D
1584.072	1.616	1739391	WORD	n/a	wordpools/wordpool_EN.txt	STEAM	2	10	[0, 0, 0]	n/a	FR1	0	R1260D
1585.688	0.801	1741007	WORD_OFF	n/a	n/a	STEAM	2	10	[0, 0, 0]	n/a	FR1	0	R1260D
1586.489	1.617	1741808	WORD	n/a	wordpools/wordpool_EN.txt	DOLL	3	10	[0, 0, 0]	n/a	FR1	0	R1260D
1588.106	0.934	1743425	WORD_OFF	n/a	n/a	DOLL	3	10	[0, 0, 0]	n/a	FR1	0	R1260D
1589.04	1.616	1744359	WORD	n/a	wordpools/wordpool_EN.txt	MILK	4	10	[0, 0, 0]	n/a	FR1	0	R1260D
1590.656	1.017	1745974	WORD_OFF	n/a	n/a	MILK	4	10	[0, 0, 0]	n/a	FR1	0	R1260D
1591.673	1.618	1746991	WORD	n/a	wordpools/wordpool_EN.txt	DRUM	5	10	[0, 0, 0]	n/a	FR1	0	R1260D
1593.291	0.9	1748609	WORD_OFF	n/a	n/a	DRUM	5	10	[0, 0, 0]	n/a	FR1	0	R1260D
1594.191	1.616	1749509	WORD	n/a	wordpools/wordpool_EN.txt	JUDGE	6	10	[0, 0, 0]	n/a	FR1	0	R1260D
1595.807	0.983	1751125	WORD_OFF	n/a	n/a	JUDGE	6	10	[0, 0, 0]	n/a	FR1	0	R1260D
1596.79	1.601	1752108	WORD	n/a	wordpools/wordpool_EN.txt	WEED	7	10	[0, 0, 0]	n/a	FR1	0	R1260D
1598.391	0.934	1753709	WORD_OFF	n/a	n/a	WEED	7	10	[0, 0, 0]	n/a	FR1	0	R1260D
1599.325	1.616	1754643	WORD	n/a	wordpools/wordpool_EN.txt	TOAD	8	10	[0, 0, 0]	n/a	FR1	0	R1260D
1600.941	0.817	1756259	WORD_OFF	n/a	n/a	TOAD	8	10	[0, 0, 0]	n/a	FR1	0	R1260D
1601.758	1.618	1757076	WORD	n/a	wordpools/wordpool_EN.txt	RAT	9	10	[0, 0, 0]	n/a	FR1	0	R1260D
1603.376	0.867	1758694	WORD_OFF	n/a	n/a	RAT	9	10	[0, 0, 0]	n/a	FR1	0	R1260D
1604.243	1.616	1759561	WORD	n/a	wordpools/wordpool_EN.txt	VASE	10	10	[0, 0, 0]	n/a	FR1	0	R1260D
1605.859	0.867	1761177	WORD_OFF	n/a	n/a	VASE	10	10	[0, 0, 0]	n/a	FR1	0	R1260D
1606.726	1.618	1762044	WORD	n/a	wordpools/wordpool_EN.txt	SKI	11	10	[0, 0, 0]	n/a	FR1	0	R1260D
1608.344	0.966	1763661	WORD_OFF	n/a	n/a	SKI	11	10	[0, 0, 0]	n/a	FR1	0	R1260D
1609.31	1.616	1764627	WORD	n/a	wordpools/wordpool_EN.txt	BOY	12	10	[0, 0, 0]	n/a	FR1	0	R1260D
1610.926	0.0	1766243	WORD_OFF	n/a	n/a	BOY	12	10	[0, 0, 0]	n/a	FR1	0	R1260D
1610.926	0.001	1766243	DISTRACT_START	n/a	n/a	n/a	-999	10	[0, 0, 0]	n/a	FR1	0	R1260D
1610.927	0.016	1766244	START	n/a	n/a	n/a	-999	10	[-999, -999, -999]	n/a	FR1	0	R1260D
1610.943	5.734	1766260	PROB	5.734	n/a	n/a	-999	10	[7, 9, 3]	19	FR1	0	R1260D
1616.677	5.968	1771994	PROB	5.968	n/a	n/a	-999	10	[4, 9, 2]	15	FR1	0	R1260D
1622.645	7.202	1777962	PROB	7.202	n/a	n/a	-999	10	[3, 5, 4]	12	FR1	0	R1260D
1629.847	4.452	1785163	PROB	4.452	n/a	n/a	-999	10	[2, 4, 4]	10	FR1	0	R1260D
1634.299	0.016	1789615	STOP	n/a	n/a	n/a	-999	10	[-999, -999, -999]	n/a	FR1	0	R1260D
1634.315	0.666	1789631	DISTRACT_END	n/a	n/a	n/a	-999	10	[0, 0, 0]	n/a	FR1	0	R1260D
1634.981	0.518	1790297	RETRIEVAL_ORIENT	n/a	n/a	n/a	-999	10	[0, 0, 0]	n/a	FR1	0	R1260D
1635.499	3.385	1790815	REC_START	n/a	n/a	n/a	-999	10	[0, 0, 0]	n/a	FR1	0	R1260D
1638.884	1.129	1794200	REC_WORD	1.129	n/a	RICE	-999	10	[0, 0, 0]	n/a	FR1	0	R1260D
1640.013	2.001	1795329	REC_WORD	2.001	n/a	STEAM	-999	10	[0, 0, 0]	n/a	FR1	0	R1260D
1642.014	3.718	1797330	REC_WORD	3.718	n/a	DOLL	-999	10	[0, 0, 0]	n/a	FR1	0	R1260D
1645.732	4.81	1801047	REC_WORD	4.81	n/a	WEED	-999	10	[0, 0, 0]	n/a	FR1	0	R1260D
1650.542	2.861	1805857	REC_WORD_VV	2.861	n/a	<>	-999	10	[0, 0, 0]	n/a	FR1	0	R1260D
1653.403	6.029	1808718	REC_WORD	6.029	n/a	TOY	-999	10	[0, 0, 0]	n/a	FR1	0	R1260D
1659.432	3.622	1814747	REC_WORD	3.622	n/a	RAT	-999	10	[0, 0, 0]	n/a	FR1	0	R1260D
1663.054	2.458	1818368	REC_WORD	2.458	n/a	RODENT	-999	10	[0, 0, 0]	n/a	FR1	0	R1260D
1665.512	9.126	1820826	REC_END	n/a	n/a	n/a	-999	10	[0, 0, 0]	n/a	FR1	0	R1260D
1674.638	0.5	1829952	TRIAL	n/a	n/a	n/a	-999	11	[0, 0, 0]	n/a	FR1	0	R1260D
1675.138	10.428	1830452	COUNTDOWN_START	n/a	n/a	n/a	-999	11	[0, 0, 0]	n/a	FR1	0	R1260D
1685.566	0.007	1840879	COUNTDOWN_END	n/a	n/a	n/a	-999	11	[0, 0, 0]	n/a	FR1	0	R1260D
1685.573	1.618	1840886	ORIENT	n/a	n/a	n/a	-999	11	[0, 0, 0]	n/a	FR1	0	R1260D
1687.191	2.084	1842504	ORIENT_OFF	n/a	n/a	n/a	-999	11	[0, 0, 0]	n/a	FR1	0	R1260D
1689.275	1.616	1844588	WORD	n/a	wordpools/wordpool_EN.txt	TENT	1	11	[0, 0, 0]	n/a	FR1	0	R1260D
1690.891	0.95	1846204	WORD_OFF	n/a	n/a	TENT	1	11	[0, 0, 0]	n/a	FR1	0	R1260D
1691.841	1.618	1847154	WORD	n/a	wordpools/wordpool_EN.txt	MUG	2	11	[0, 0, 0]	n/a	FR1	0	R1260D
1693.459	0.884	1848772	WORD_OFF	n/a	n/a	MUG	2	11	[0, 0, 0]	n/a	FR1	0	R1260D
1694.343	1.616	1849656	WORD	n/a	wordpools/wordpool_EN.txt	SUIT	3	11	[0, 0, 0]	n/a	FR1	0	R1260D
1695.959	0.866	1851272	WORD_OFF	n/a	n/a	SUIT	3	11	[0, 0, 0]	n/a	FR1	0	R1260D
1696.825	1.601	1852137	WORD	n/a	wordpools/wordpool_EN.txt	FENCE	4	11	[0, 0, 0]	n/a	FR1	0	R1260D
1698.426	0.917	1853738	WORD_OFF	n/a	n/a	FENCE	4	11	[0, 0, 0]	n/a	FR1	0	R1260D
1699.343	1.617	1854655	WORD	n/a	wordpools/wordpool_EN.txt	PASTE	5	11	[0, 0, 0]	n/a	FR1	0	R1260D
1700.96	0.833	1856272	WORD_OFF	n/a	n/a	PASTE	5	11	[0, 0, 0]	n/a	FR1	0	R1260D
1701.793	1.618	1857105	WORD	n/a	wordpools/wordpool_EN.txt	RIB	6	11	[0, 0, 0]	n/a	FR1	0	R1260D
1703.411	0.883	1858723	WORD_OFF	n/a	n/a	RIB	6	11	[0, 0, 0]	n/a	FR1	0	R1260D
1704.294	1.616	1859606	WORD	n/a	wordpools/wordpool_EN.txt	CHEEK	7	11	[0, 0, 0]	n/a	FR1	0	R1260D
1705.91	0.801	1861222	WORD_OFF	n/a	n/a	CHEEK	7	11	[0, 0, 0]	n/a	FR1	0	R1260D
1706.711	1.617	1862023	WORD	n/a	wordpools/wordpool_EN.txt	BRICK	8	11	[0, 0, 0]	n/a	FR1	0	R1260D
1708.328	0.851	1863640	WORD_OFF	n/a	n/a	BRICK	8	11	[0, 0, 0]	n/a	FR1	0	R1260D
1709.179	1.616	1864491	WORD	n/a	wordpools/wordpool_EN.txt	PLATE	9	11	[0, 0, 0]	n/a	FR1	0	R1260D
1710.795	0.816	1866107	WORD_OFF	n/a	n/a	PLATE	9	11	[0, 0, 0]	n/a	FR1	0	R1260D
1711.611	1.601	1866923	WORD	n/a	wordpools/wordpool_EN.txt	SMILE	10	11	[0, 0, 0]	n/a	FR1	0	R1260D
1713.212	0.817	1868524	WORD_OFF	n/a	n/a	SMILE	10	11	[0, 0, 0]	n/a	FR1	0	R1260D
1714.029	1.616	1869340	WORD	n/a	wordpools/wordpool_EN.txt	PIE	11	11	[0, 0, 0]	n/a	FR1	0	R1260D
1715.645	0.835	1870956	WORD_OFF	n/a	n/a	PIE	11	11	[0, 0, 0]	n/a	FR1	0	R1260D
1716.48	1.617	1871791	WORD	n/a	wordpools/wordpool_EN.txt	LAMP	12	11	[0, 0, 0]	n/a	FR1	0	R1260D
1718.097	0.0	1873408	WORD_OFF	n/a	n/a	LAMP	12	11	[0, 0, 0]	n/a	FR1	0	R1260D
1718.097	0.0	1873408	DISTRACT_START	n/a	n/a	n/a	-999	11	[0, 0, 0]	n/a	FR1	0	R1260D
1718.097	0.017	1873408	START	n/a	n/a	n/a	-999	11	[-999, -999, -999]	n/a	FR1	0	R1260D
1718.114	4.267	1873425	PROB	4.267	n/a	n/a	-999	11	[3, 2, 9]	14	FR1	0	R1260D
1722.381	3.967	1877692	PROB	3.967	n/a	n/a	-999	11	[1, 5, 4]	10	FR1	0	R1260D
1726.348	4.367	1881659	PROB	4.367	n/a	n/a	-999	11	[9, 7, 7]	23	FR1	0	R1260D
1730.715	4.585	1886026	PROB	4.585	n/a	n/a	-999	11	[7, 1, 6]	14	FR1	0	R1260D
1735.3	5.286	1890610	PROB	5.286	n/a	n/a	-999	11	[9, 5, 3]	17	FR1	0	R1260D
1740.586	0.014	1895896	STOP	n/a	n/a	n/a	-999	11	[-999, -999, -999]	n/a	FR1	0	R1260D
1740.6	0.618	1895910	DISTRACT_END	n/a	n/a	n/a	-999	11	[0, 0, 0]	n/a	FR1	0	R1260D
1741.218	0.516	1896528	RETRIEVAL_ORIENT	n/a	n/a	n/a	-999	11	[0, 0, 0]	n/a	FR1	0	R1260D
1741.734	2.211	1897044	REC_START	n/a	n/a	n/a	-999	11	[0, 0, 0]	n/a	FR1	0	R1260D
1743.945	5.253	1899255	REC_WORD_VV	5.253	n/a	<>	-999	11	[0, 0, 0]	n/a	FR1	0	R1260D
1749.198	5.862	1904508	REC_WORD_VV	5.862	n/a	<>	-999	11	[0, 0, 0]	n/a	FR1	0	R1260D
1755.06	6.45	1910369	REC_WORD_VV	6.45	n/a	<>	-999	11	[0, 0, 0]	n/a	FR1	0	R1260D
1761.51	5.025	1916819	REC_WORD_VV	5.025	n/a	<>	-999	11	[0, 0, 0]	n/a	FR1	0	R1260D
1766.535	5.21	1921844	REC_WORD_VV	5.21	n/a	<>	-999	11	[0, 0, 0]	n/a	FR1	0	R1260D
1771.745	168.025	1927053	REC_END	n/a	n/a	n/a	-999	11	[0, 0, 0]	n/a	FR1	0	R1260D
1939.77	0.5	2095069	TRIAL	n/a	n/a	n/a	-999	12	[0, 0, 0]	n/a	FR1	0	R1260D
1940.27	10.428	2095569	COUNTDOWN_START	n/a	n/a	n/a	-999	12	[0, 0, 0]	n/a	FR1	0	R1260D
1950.698	0.007	2105996	COUNTDOWN_END	n/a	n/a	n/a	-999	12	[0, 0, 0]	n/a	FR1	0	R1260D
1950.705	1.618	2106003	ORIENT	n/a	n/a	n/a	-999	12	[0, 0, 0]	n/a	FR1	0	R1260D
1952.323	2.2	2107621	ORIENT_OFF	n/a	n/a	n/a	-999	12	[0, 0, 0]	n/a	FR1	0	R1260D
1954.523	1.617	2109821	WORD	n/a	wordpools/wordpool_EN.txt	PALM	1	12	[0, 0, 0]	n/a	FR1	0	R1260D
1956.14	0.783	2111438	WORD_OFF	n/a	n/a	PALM	1	12	[0, 0, 0]	n/a	FR1	0	R1260D
1956.923	1.617	2112221	WORD	n/a	wordpools/wordpool_EN.txt	SOUP	2	12	[0, 0, 0]	n/a	FR1	0	R1260D
1958.54	0.818	2113838	WORD_OFF	n/a	n/a	SOUP	2	12	[0, 0, 0]	n/a	FR1	0	R1260D
1959.358	1.616	2114656	WORD	n/a	wordpools/wordpool_EN.txt	BROOM	3	12	[0, 0, 0]	n/a	FR1	0	R1260D
1960.974	0.783	2116272	WORD_OFF	n/a	n/a	BROOM	3	12	[0, 0, 0]	n/a	FR1	0	R1260D
1961.757	1.601	2117055	WORD	n/a	wordpools/wordpool_EN.txt	DUCK	4	12	[0, 0, 0]	n/a	FR1	0	R1260D
1963.358	0.901	2118655	WORD_OFF	n/a	n/a	DUCK	4	12	[0, 0, 0]	n/a	FR1	0	R1260D
1964.259	1.616	2119556	WORD	n/a	wordpools/wordpool_EN.txt	FROG	5	12	[0, 0, 0]	n/a	FR1	0	R1260D
1965.875	0.783	2121172	WORD_OFF	n/a	n/a	FROG	5	12	[0, 0, 0]	n/a	FR1	0	R1260D
1966.658	1.601	2121955	WORD	n/a	wordpools/wordpool_EN.txt	SHIRT	6	12	[0, 0, 0]	n/a	FR1	0	R1260D
1968.259	0.9	2123556	WORD_OFF	n/a	n/a	SHIRT	6	12	[0, 0, 0]	n/a	FR1	0	R1260D
1969.159	1.617	2124456	WORD	n/a	wordpools/wordpool_EN.txt	CROW	7	12	[0, 0, 0]	n/a	FR1	0	R1260D
1970.776	0.916	2126073	WORD_OFF	n/a	n/a	CROW	7	12	[0, 0, 0]	n/a	FR1	0	R1260D
1971.692	1.602	2126989	WORD	n/a	wordpools/wordpool_EN.txt	BEE	8	12	[0, 0, 0]	n/a	FR1	0	R1260D
1973.294	0.933	2128591	WORD_OFF	n/a	n/a	BEE	8	12	[0, 0, 0]	n/a	FR1	0	R1260D
1974.227	1.616	2129524	WORD	n/a	wordpools/wordpool_EN.txt	CUP	9	12	[0, 0, 0]	n/a	FR1	0	R1260D
1975.843	1.0	2131140	WORD_OFF	n/a	n/a	CUP	9	12	[0, 0, 0]	n/a	FR1	0	R1260D
1976.843	1.618	2132140	WORD	n/a	wordpools/wordpool_EN.txt	PLANT	10	12	[0, 0, 0]	n/a	FR1	0	R1260D
1978.461	0.917	2133758	WORD_OFF	n/a	n/a	PLANT	10	12	[0, 0, 0]	n/a	FR1	0	R1260D
1979.378	1.617	2134675	WORD	n/a	wordpools/wordpool_EN.txt	CANE	11	12	[0, 0, 0]	n/a	FR1	0	R1260D
1980.995	0.949	2136291	WORD_OFF	n/a	n/a	CANE	11	12	[0, 0, 0]	n/a	FR1	0	R1260D
1981.944	1.617	2137240	WORD	n/a	wordpools/wordpool_EN.txt	ROOF	12	12	[0, 0, 0]	n/a	FR1	0	R1260D
1983.561	0.0	2138857	WORD_OFF	n/a	n/a	ROOF	12	12	[0, 0, 0]	n/a	FR1	0	R1260D
1983.561	0.001	2138857	DISTRACT_START	n/a	n/a	n/a	-999	12	[0, 0, 0]	n/a	FR1	0	R1260D
1983.562	0.016	2138858	START	n/a	n/a	n/a	-999	12	[-999, -999, -999]	n/a	FR1	0	R1260D
1983.578	4.668	2138874	PROB	4.668	n/a	n/a	-999	12	[9, 1, 7]	17	FR1	0	R1260D
1988.246	7.651	2143542	PROB	7.651	n/a	n/a	-999	12	[9, 4, 8]	21	FR1	0	R1260D
1995.897	5.067	2151193	PROB	5.067	n/a	n/a	-999	12	[6, 4, 7]	17	FR1	0	R1260D
2000.964	3.647	2156259	PROB	3.647	n/a	n/a	-999	12	[5, 5, 5]	15	FR1	0	R1260D
2004.611	0.021	2159906	STOP	n/a	n/a	n/a	-999	12	[-999, -999, -999]	n/a	FR1	0	R1260D
2004.632	0.701	2159927	DISTRACT_END	n/a	n/a	n/a	-999	12	[0, 0, 0]	n/a	FR1	0	R1260D
2005.333	0.516	2160628	RETRIEVAL_ORIENT	n/a	n/a	n/a	-999	12	[0, 0, 0]	n/a	FR1	0	R1260D
2005.849	1.409	2161144	REC_START	n/a	n/a	n/a	-999	12	[0, 0, 0]	n/a	FR1	0	R1260D
2007.258	1.814	2162553	REC_WORD	1.814	n/a	PALM	-999	12	[0, 0, 0]	n/a	FR1	0	R1260D
2009.072	1.483	2164367	REC_WORD	1.483	n/a	DUCK	-999	12	[0, 0, 0]	n/a	FR1	0	R1260D
2010.555	2.556	2165850	REC_WORD	2.556	n/a	CROW	-999	12	[0, 0, 0]	n/a	FR1	0	R1260D
2013.111	3.799	2168406	REC_WORD	3.799	n/a	BEE	-999	12	[0, 0, 0]	n/a	FR1	0	R1260D
2016.91	5.263	2172204	REC_WORD	5.263	n/a	RAKE	-999	12	[0, 0, 0]	n/a	FR1	0	R1260D
2022.173	4.623	2177467	REC_WORD	4.623	n/a	SOCK	-999	12	[0, 0, 0]	n/a	FR1	0	R1260D
2026.796	0.355	2182090	REC_WORD_VV	0.355	n/a	<>	-999	12	[0, 0, 0]	n/a	FR1	0	R1260D
2027.151	7.361	2182445	REC_WORD	7.361	n/a	SHIRT	-999	12	[0, 0, 0]	n/a	FR1	0	R1260D
2034.512	1.348	2189805	REC_WORD	1.348	n/a	CAR	-999	12	[0, 0, 0]	n/a	FR1	0	R1260D
2035.86	11.147	2191153	REC_END	n/a	n/a	n/a	-999	12	[0, 0, 0]	n/a	FR1	0	R1260D
2047.007	0.5	2202300	TRIAL	n/a	n/a	n/a	-999	13	[0, 0, 0]	n/a	FR1	0	R1260D
2047.507	10.428	2202800	COUNTDOWN_START	n/a	n/a	n/a	-999	13	[0, 0, 0]	n/a	FR1	0	R1260D
2057.935	0.006	2213227	COUNTDOWN_END	n/a	n/a	n/a	-999	13	[0, 0, 0]	n/a	FR1	0	R1260D
2057.941	1.617	2213233	ORIENT	n/a	n/a	n/a	-999	13	[0, 0, 0]	n/a	FR1	0	R1260D
2059.558	2.201	2214850	ORIENT_OFF	n/a	n/a	n/a	-999	13	[0, 0, 0]	n/a	FR1	0	R1260D
2061.759	1.618	2217051	WORD	n/a	wordpools/wordpool_EN.txt	CAPE	1	13	[0, 0, 0]	n/a	FR1	0	R1260D
2063.377	0.816	2218669	WORD_OFF	n/a	n/a	CAPE	1	13	[0, 0, 0]	n/a	FR1	0	R1260D
2064.193	1.616	2219485	WORD	n/a	wordpools/wordpool_EN.txt	KITE	2	13	[0, 0, 0]	n/a	FR1	0	R1260D
2065.809	0.901	2221101	WORD_OFF	n/a	n/a	KITE	2	13	[0, 0, 0]	n/a	FR1	0	R1260D
2066.71	1.618	2222002	WORD	n/a	wordpools/wordpool_EN.txt	WAVE	3	13	[0, 0, 0]	n/a	FR1	0	R1260D
2068.328	0.883	2223620	WORD_OFF	n/a	n/a	WAVE	3	13	[0, 0, 0]	n/a	FR1	0	R1260D
2069.211	1.616	2224503	WORD	n/a	wordpools/wordpool_EN.txt	BAT	4	13	[0, 0, 0]	n/a	FR1	0	R1260D
2070.827	0.767	2226118	WORD_OFF	n/a	n/a	BAT	4	13	[0, 0, 0]	n/a	FR1	0	R1260D
2071.594	1.618	2226885	WORD	n/a	wordpools/wordpool_EN.txt	ROOT	5	13	[0, 0, 0]	n/a	FR1	0	R1260D
2073.212	0.95	2228503	WORD_OFF	n/a	n/a	ROOT	5	13	[0, 0, 0]	n/a	FR1	0	R1260D
2074.162	1.616	2229453	WORD	n/a	wordpools/wordpool_EN.txt	CONE	6	13	[0, 0, 0]	n/a	FR1	0	R1260D
2075.778	0.967	2231069	WORD_OFF	n/a	n/a	CONE	6	13	[0, 0, 0]	n/a	FR1	0	R1260D
2076.745	1.601	2232036	WORD	n/a	wordpools/wordpool_EN.txt	SHELL	7	13	[0, 0, 0]	n/a	FR1	0	R1260D
2078.346	0.917	2233637	WORD_OFF	n/a	n/a	SHELL	7	13	[0, 0, 0]	n/a	FR1	0	R1260D
2079.263	1.616	2234554	WORD	n/a	wordpools/wordpool_EN.txt	VEST	8	13	[0, 0, 0]	n/a	FR1	0	R1260D
2080.879	0.784	2236170	WORD_OFF	n/a	n/a	VEST	8	13	[0, 0, 0]	n/a	FR1	0	R1260D
2081.663	1.617	2236954	WORD	n/a	wordpools/wordpool_EN.txt	BOOK	9	13	[0, 0, 0]	n/a	FR1	0	R1260D
2083.28	0.817	2238571	WORD_OFF	n/a	n/a	BOOK	9	13	[0, 0, 0]	n/a	FR1	0	R1260D
2084.097	1.616	2239388	WORD	n/a	wordpools/wordpool_EN.txt	BADGE	10	13	[0, 0, 0]	n/a	FR1	0	R1260D
2085.713	1.0	2241004	WORD_OFF	n/a	n/a	BADGE	10	13	[0, 0, 0]	n/a	FR1	0	R1260D
2086.713	1.618	2242004	WORD	n/a	wordpools/wordpool_EN.txt	SWORD	11	13	[0, 0, 0]	n/a	FR1	0	R1260D
2088.331	0.884	2243621	WORD_OFF	n/a	n/a	SWORD	11	13	[0, 0, 0]	n/a	FR1	0	R1260D
2089.215	1.616	2244505	WORD	n/a	wordpools/wordpool_EN.txt	PIG	12	13	[0, 0, 0]	n/a	FR1	0	R1260D
2090.831	0.0	2246121	WORD_OFF	n/a	n/a	PIG	12	13	[0, 0, 0]	n/a	FR1	0	R1260D
2090.831	0.001	2246121	DISTRACT_START	n/a	n/a	n/a	-999	13	[0, 0, 0]	n/a	FR1	0	R1260D
2090.832	0.015	2246122	START	n/a	n/a	n/a	-999	13	[-999, -999, -999]	n/a	FR1	0	R1260D
2090.847	6.469	2246137	PROB	6.469	n/a	n/a	-999	13	[9, 5, 2]	16	FR1	0	R1260D
2097.316	3.25	2252606	PROB	3.25	n/a	n/a	-999	13	[8, 8, 4]	20	FR1	0	R1260D
2100.566	3.818	2255856	PROB	3.818	n/a	n/a	-999	13	[2, 8, 8]	18	FR1	0	R1260D
2104.384	4.034	2259674	PROB	4.034	n/a	n/a	-999	13	[8, 7, 3]	18	FR1	0	R1260D
2108.418	5.353	2263707	PROB	5.353	n/a	n/a	-999	13	[4, 4, 7]	15	FR1	0	R1260D
2113.771	0.014	2269060	STOP	n/a	n/a	n/a	-999	13	[-999, -999, -999]	n/a	FR1	0	R1260D
2113.785	0.618	2269074	DISTRACT_END	n/a	n/a	n/a	-999	13	[0, 0, 0]	n/a	FR1	0	R1260D
2114.403	0.516	2269692	RETRIEVAL_ORIENT	n/a	n/a	n/a	-999	13	[0, 0, 0]	n/a	FR1	0	R1260D
2114.919	2.612	2270208	REC_START	n/a	n/a	n/a	-999	13	[0, 0, 0]	n/a	FR1	0	R1260D
2117.531	2.48	2272820	REC_WORD	2.48	n/a	PALM	-999	13	[0, 0, 0]	n/a	FR1	0	R1260D
2120.011	3.956	2275300	REC_WORD	3.956	n/a	ROOT	-999	13	[0, 0, 0]	n/a	FR1	0	R1260D
2123.967	1.477	2279255	REC_WORD	1.477	n/a	CORN	-999	13	[0, 0, 0]	n/a	FR1	0	R1260D
2125.444	3.707	2280732	REC_WORD_VV	3.707	n/a	<>	-999	13	[0, 0, 0]	n/a	FR1	0	R1260D
2129.151	2.395	2284439	REC_WORD_VV	2.395	n/a	<>	-999	13	[0, 0, 0]	n/a	FR1	0	R1260D
2131.546	13.385	2286834	REC_WORD	13.385	n/a	RAKE	-999	13	[0, 0, 0]	n/a	FR1	0	R1260D
2144.931	6.678	2300218	REC_END	n/a	n/a	n/a	-999	13	[0, 0, 0]	n/a	FR1	0	R1260D
2151.609	0.5	2306896	TRIAL	n/a	n/a	n/a	-999	14	[0, 0, 0]	n/a	FR1	0	R1260D
2152.109	10.428	2307396	COUNTDOWN_START	n/a	n/a	n/a	-999	14	[0, 0, 0]	n/a	FR1	0	R1260D
2162.537	0.007	2317823	COUNTDOWN_END	n/a	n/a	n/a	-999	14	[0, 0, 0]	n/a	FR1	0	R1260D
2162.544	1.601	2317830	ORIENT	n/a	n/a	n/a	-999	14	[0, 0, 0]	n/a	FR1	0	R1260D
2164.145	2.084	2319431	ORIENT_OFF	n/a	n/a	n/a	-999	14	[0, 0, 0]	n/a	FR1	0	R1260D
2166.229	1.616	2321515	WORD	n/a	wordpools/wordpool_EN.txt	STOVE	1	14	[0, 0, 0]	n/a	FR1	0	R1260D
2167.845	0.867	2323131	WORD_OFF	n/a	n/a	STOVE	1	14	[0, 0, 0]	n/a	FR1	0	R1260D
2168.712	1.618	2323998	WORD	n/a	wordpools/wordpool_EN.txt	HORN	2	14	[0, 0, 0]	n/a	FR1	0	R1260D
2170.33	0.817	2325616	WORD_OFF	n/a	n/a	HORN	2	14	[0, 0, 0]	n/a	FR1	0	R1260D
2171.147	1.615	2326433	WORD	n/a	wordpools/wordpool_EN.txt	BOARD	3	14	[0, 0, 0]	n/a	FR1	0	R1260D
2172.762	0.834	2328048	WORD_OFF	n/a	n/a	BOARD	3	14	[0, 0, 0]	n/a	FR1	0	R1260D
2173.596	1.618	2328882	WORD	n/a	wordpools/wordpool_EN.txt	NAIL	4	14	[0, 0, 0]	n/a	FR1	0	R1260D
2175.214	0.917	2330500	WORD_OFF	n/a	n/a	NAIL	4	14	[0, 0, 0]	n/a	FR1	0	R1260D
2176.131	1.616	2331417	WORD	n/a	wordpools/wordpool_EN.txt	BENCH	5	14	[0, 0, 0]	n/a	FR1	0	R1260D
2177.747	1.0	2333032	WORD_OFF	n/a	n/a	BENCH	5	14	[0, 0, 0]	n/a	FR1	0	R1260D
2178.747	1.618	2334032	WORD	n/a	wordpools/wordpool_EN.txt	SCHOOL	6	14	[0, 0, 0]	n/a	FR1	0	R1260D
2180.365	0.983	2335650	WORD_OFF	n/a	n/a	SCHOOL	6	14	[0, 0, 0]	n/a	FR1	0	R1260D
2181.348	1.616	2336633	WORD	n/a	wordpools/wordpool_EN.txt	VINE	7	14	[0, 0, 0]	n/a	FR1	0	R1260D
2182.964	0.951	2338249	WORD_OFF	n/a	n/a	VINE	7	14	[0, 0, 0]	n/a	FR1	0	R1260D
2183.915	1.616	2339200	WORD	n/a	wordpools/wordpool_EN.txt	LOCK	8	14	[0, 0, 0]	n/a	FR1	0	R1260D
2185.531	0.852	2340816	WORD_OFF	n/a	n/a	LOCK	8	14	[0, 0, 0]	n/a	FR1	0	R1260D
2186.383	1.617	2341668	WORD	n/a	wordpools/wordpool_EN.txt	CLOTH	9	14	[0, 0, 0]	n/a	FR1	0	R1260D
2188.0	0.932	2343285	WORD_OFF	n/a	n/a	CLOTH	9	14	[0, 0, 0]	n/a	FR1	0	R1260D
2188.932	1.617	2344217	WORD	n/a	wordpools/wordpool_EN.txt	PEACH	10	14	[0, 0, 0]	n/a	FR1	0	R1260D
2190.549	0.851	2345834	WORD_OFF	n/a	n/a	PEACH	10	14	[0, 0, 0]	n/a	FR1	0	R1260D
2191.4	1.617	2346685	WORD	n/a	wordpools/wordpool_EN.txt	WHALE	11	14	[0, 0, 0]	n/a	FR1	0	R1260D
2193.017	0.866	2348302	WORD_OFF	n/a	n/a	WHALE	11	14	[0, 0, 0]	n/a	FR1	0	R1260D
2193.883	1.618	2349168	WORD	n/a	wordpools/wordpool_EN.txt	WALL	12	14	[0, 0, 0]	n/a	FR1	0	R1260D
2195.501	0.0	2350785	WORD_OFF	n/a	n/a	WALL	12	14	[0, 0, 0]	n/a	FR1	0	R1260D
2195.501	0.001	2350785	DISTRACT_START	n/a	n/a	n/a	-999	14	[0, 0, 0]	n/a	FR1	0	R1260D
2195.502	0.016	2350786	START	n/a	n/a	n/a	-999	14	[-999, -999, -999]	n/a	FR1	0	R1260D
2195.518	5.917	2350802	PROB	5.917	n/a	n/a	-999	14	[2, 2, 4]	8	FR1	0	R1260D
2201.435	3.934	2356719	PROB	3.934	n/a	n/a	-999	14	[1, 1, 5]	7	FR1	0	R1260D
2205.369	6.002	2360653	PROB	6.002	n/a	n/a	-999	14	[8, 9, 8]	25	FR1	0	R1260D
2211.371	3.233	2366655	PROB	3.233	n/a	n/a	-999	14	[1, 9, 9]	19	FR1	0	R1260D
2214.604	4.295	2369887	PROB	4.295	n/a	n/a	-999	14	[1, 6, 9]	16	FR1	0	R1260D
2218.899	0.022	2374182	STOP	n/a	n/a	n/a	-999	14	[-999, -999, -999]	n/a	FR1	0	R1260D
2218.921	0.551	2374204	DISTRACT_END	n/a	n/a	n/a	-999	14	[0, 0, 0]	n/a	FR1	0	R1260D
2219.472	0.517	2374755	RETRIEVAL_ORIENT	n/a	n/a	n/a	-999	14	[0, 0, 0]	n/a	FR1	0	R1260D
2219.989	1.505	2375272	REC_START	n/a	n/a	n/a	-999	14	[0, 0, 0]	n/a	FR1	0	R1260D
2221.494	6.094	2376777	REC_WORD	6.094	n/a	NAIL	-999	14	[0, 0, 0]	n/a	FR1	0	R1260D
2227.588	9.395	2382871	REC_WORD_VV	9.395	n/a	<>	-999	14	[0, 0, 0]	n/a	FR1	0	R1260D
2236.983	3.31	2392265	REC_WORD	3.31	n/a	BAT	-999	14	[0, 0, 0]	n/a	FR1	0	R1260D
2240.293	2.426	2395575	REC_WORD_VV	2.426	n/a	<>	-999	14	[0, 0, 0]	n/a	FR1	0	R1260D
2242.719	3.162	2398001	REC_WORD	3.162	n/a	BOARD	-999	14	[0, 0, 0]	n/a	FR1	0	R1260D
2245.881	4.12	2401163	REC_WORD	4.12	n/a	STOVE	-999	14	[0, 0, 0]	n/a	FR1	0	R1260D
2250.001	557.678	2405282	REC_END	n/a	n/a	n/a	-999	14	[0, 0, 0]	n/a	FR1	0	R1260D
2807.679	0.5	2962929	TRIAL	n/a	n/a	n/a	-999	15	[0, 0, 0]	n/a	FR1	0	R1260D
2808.179	10.428	2963429	COUNTDOWN_START	n/a	n/a	n/a	-999	15	[0, 0, 0]	n/a	FR1	0	R1260D
2818.607	0.007	2973856	COUNTDOWN_END	n/a	n/a	n/a	-999	15	[0, 0, 0]	n/a	FR1	0	R1260D
2818.614	1.601	2973863	ORIENT	n/a	n/a	n/a	-999	15	[0, 0, 0]	n/a	FR1	0	R1260D
2820.215	2.167	2975464	ORIENT_OFF	n/a	n/a	n/a	-999	15	[0, 0, 0]	n/a	FR1	0	R1260D
2822.382	1.617	2977631	WORD	n/a	wordpools/wordpool_EN.txt	BOWL	1	15	[0, 0, 0]	n/a	FR1	0	R1260D
2823.999	0.9	2979248	WORD_OFF	n/a	n/a	BOWL	1	15	[0, 0, 0]	n/a	FR1	0	R1260D
2824.899	1.617	2980148	WORD	n/a	wordpools/wordpool_EN.txt	BATH	2	15	[0, 0, 0]	n/a	FR1	0	R1260D
2826.516	0.95	2981765	WORD_OFF	n/a	n/a	BATH	2	15	[0, 0, 0]	n/a	FR1	0	R1260D
2827.466	1.618	2982715	WORD	n/a	wordpools/wordpool_EN.txt	SHEET	3	15	[0, 0, 0]	n/a	FR1	0	R1260D
2829.084	0.765	2984333	WORD_OFF	n/a	n/a	SHEET	3	15	[0, 0, 0]	n/a	FR1	0	R1260D
2829.849	1.601	2985098	WORD	n/a	wordpools/wordpool_EN.txt	TOOL	4	15	[0, 0, 0]	n/a	FR1	0	R1260D
2831.45	0.834	2986699	WORD_OFF	n/a	n/a	TOOL	4	15	[0, 0, 0]	n/a	FR1	0	R1260D
2832.284	1.616	2987533	WORD	n/a	wordpools/wordpool_EN.txt	PIT	5	15	[0, 0, 0]	n/a	FR1	0	R1260D
2833.9	0.983	2989149	WORD_OFF	n/a	n/a	PIT	5	15	[0, 0, 0]	n/a	FR1	0	R1260D
2834.883	1.602	2990132	WORD	n/a	wordpools/wordpool_EN.txt	STRAW	6	15	[0, 0, 0]	n/a	FR1	0	R1260D
2836.485	0.783	2991733	WORD_OFF	n/a	n/a	STRAW	6	15	[0, 0, 0]	n/a	FR1	0	R1260D
2837.268	1.616	2992516	WORD	n/a	wordpools/wordpool_EN.txt	BRIDGE	7	15	[0, 0, 0]	n/a	FR1	0	R1260D
2838.884	1.001	2994132	WORD_OFF	n/a	n/a	BRIDGE	7	15	[0, 0, 0]	n/a	FR1	0	R1260D
2839.885	1.618	2995133	WORD	n/a	wordpools/wordpool_EN.txt	TOE	8	15	[0, 0, 0]	n/a	FR1	0	R1260D
2841.503	0.983	2996751	WORD_OFF	n/a	n/a	TOE	8	15	[0, 0, 0]	n/a	FR1	0	R1260D
2842.486	1.617	2997734	WORD	n/a	wordpools/wordpool_EN.txt	GLASS	9	15	[0, 0, 0]	n/a	FR1	0	R1260D
2844.103	0.766	2999351	WORD_OFF	n/a	n/a	GLASS	9	15	[0, 0, 0]	n/a	FR1	0	R1260D
2844.869	1.618	3000117	WORD	n/a	wordpools/wordpool_EN.txt	PIPE	10	15	[0, 0, 0]	n/a	FR1	0	R1260D
2846.487	0.983	3001735	WORD_OFF	n/a	n/a	PIPE	10	15	[0, 0, 0]	n/a	FR1	0	R1260D
2847.47	1.617	3002718	WORD	n/a	wordpools/wordpool_EN.txt	CUBE	11	15	[0, 0, 0]	n/a	FR1	0	R1260D
2849.087	0.883	3004335	WORD_OFF	n/a	n/a	CUBE	11	15	[0, 0, 0]	n/a	FR1	0	R1260D
2849.97	1.617	3005218	WORD	n/a	wordpools/wordpool_EN.txt	SWAMP	12	15	[0, 0, 0]	n/a	FR1	0	R1260D
2851.587	0.0	3006835	WORD_OFF	n/a	n/a	SWAMP	12	15	[0, 0, 0]	n/a	FR1	0	R1260D
2851.587	0.0	3006835	DISTRACT_START	n/a	n/a	n/a	-999	15	[0, 0, 0]	n/a	FR1	0	R1260D
2851.587	0.016	3006835	START	n/a	n/a	n/a	-999	15	[-999, -999, -999]	n/a	FR1	0	R1260D
2851.603	4.084	3006851	PROB	4.084	n/a	n/a	-999	15	[1, 2, 2]	5	FR1	0	R1260D
2855.687	4.536	3010934	PROB	4.536	n/a	n/a	-999	15	[6, 1, 2]	9	FR1	0	R1260D
2860.223	3.716	3015470	PROB	3.716	n/a	n/a	-999	15	[9, 1, 3]	13	FR1	0	R1260D
2863.939	3.135	3019186	PROB	3.135	n/a	n/a	-999	15	[8, 3, 2]	13	FR1	0	R1260D
2867.074	5.464	3022321	PROB	5.464	n/a	n/a	-999	15	[7, 4, 3]	14	FR1	0	R1260D
2872.538	0.019	3027784	STOP	n/a	n/a	n/a	-999	15	[-999, -999, -999]	n/a	FR1	0	R1260D
2872.557	0.685	3027803	DISTRACT_END	n/a	n/a	n/a	-999	15	[0, 0, 0]	n/a	FR1	0	R1260D
2873.242	0.516	3028488	RETRIEVAL_ORIENT	n/a	n/a	n/a	-999	15	[0, 0, 0]	n/a	FR1	0	R1260D
2873.758	1.576	3029004	REC_START	n/a	n/a	n/a	-999	15	[0, 0, 0]	n/a	FR1	0	R1260D
2875.334	1.152	3030580	REC_WORD	1.152	n/a	BOWL	-999	15	[0, 0, 0]	n/a	FR1	0	R1260D
2876.486	1.521	3031732	REC_WORD	1.521	n/a	BATH	-999	15	[0, 0, 0]	n/a	FR1	0	R1260D
2878.007	13.286	3033253	REC_WORD	13.286	n/a	SHEET	-999	15	[0, 0, 0]	n/a	FR1	0	R1260D
2891.293	7.749	3046538	REC_WORD	7.749	n/a	CUBE	-999	15	[0, 0, 0]	n/a	FR1	0	R1260D
2899.042	4.728	3054287	REC_WORD	4.728	n/a	BAT	-999	15	[0, 0, 0]	n/a	FR1	0	R1260D
2903.77	7.178	3059015	REC_END	n/a	n/a	n/a	-999	15	[0, 0, 0]	n/a	FR1	0	R1260D
2910.948	0.5	3066192	TRIAL	n/a	n/a	n/a	-999	16	[0, 0, 0]	n/a	FR1	0	R1260D
2911.448	10.428	3066692	COUNTDOWN_START	n/a	n/a	n/a	-999	16	[0, 0, 0]	n/a	FR1	0	R1260D
2921.876	0.007	3077120	COUNTDOWN_END	n/a	n/a	n/a	-999	16	[0, 0, 0]	n/a	FR1	0	R1260D
2921.883	1.618	3077127	ORIENT	n/a	n/a	n/a	-999	16	[0, 0, 0]	n/a	FR1	0	R1260D
2923.501	2.149	3078745	ORIENT_OFF	n/a	n/a	n/a	-999	16	[0, 0, 0]	n/a	FR1	0	R1260D
2925.65	1.618	3080893	WORD	n/a	wordpools/wordpool_EN.txt	PANTS	1	16	[0, 0, 0]	n/a	FR1	0	R1260D
2927.268	0.934	3082511	WORD_OFF	n/a	n/a	PANTS	1	16	[0, 0, 0]	n/a	FR1	0	R1260D
2928.202	1.616	3083445	WORD	n/a	wordpools/wordpool_EN.txt	BAND	2	16	[0, 0, 0]	n/a	FR1	0	R1260D
2929.818	0.816	3085061	WORD_OFF	n/a	n/a	BAND	2	16	[0, 0, 0]	n/a	FR1	0	R1260D
2930.634	1.618	3085877	WORD	n/a	wordpools/wordpool_EN.txt	CHIN	3	16	[0, 0, 0]	n/a	FR1	0	R1260D
2932.252	0.967	3087495	WORD_OFF	n/a	n/a	CHIN	3	16	[0, 0, 0]	n/a	FR1	0	R1260D
2933.219	1.616	3088462	WORD	n/a	wordpools/wordpool_EN.txt	DRESS	4	16	[0, 0, 0]	n/a	FR1	0	R1260D
2934.835	0.834	3090078	WORD_OFF	n/a	n/a	DRESS	4	16	[0, 0, 0]	n/a	FR1	0	R1260D
2935.669	1.618	3090912	WORD	n/a	wordpools/wordpool_EN.txt	ELF	5	16	[0, 0, 0]	n/a	FR1	0	R1260D
2937.287	0.816	3092530	WORD_OFF	n/a	n/a	ELF	5	16	[0, 0, 0]	n/a	FR1	0	R1260D
2938.103	1.617	3093346	WORD	n/a	wordpools/wordpool_EN.txt	SHIELD	6	16	[0, 0, 0]	n/a	FR1	0	R1260D
2939.72	0.85	3094963	WORD_OFF	n/a	n/a	SHIELD	6	16	[0, 0, 0]	n/a	FR1	0	R1260D
2940.57	1.618	3095813	WORD	n/a	wordpools/wordpool_EN.txt	DESK	7	16	[0, 0, 0]	n/a	FR1	0	R1260D
2942.188	0.916	3097430	WORD_OFF	n/a	n/a	DESK	7	16	[0, 0, 0]	n/a	FR1	0	R1260D
2943.104	1.616	3098346	WORD	n/a	wordpools/wordpool_EN.txt	STICK	8	16	[0, 0, 0]	n/a	FR1	0	R1260D
2944.72	0.834	3099962	WORD_OFF	n/a	n/a	STICK	8	16	[0, 0, 0]	n/a	FR1	0	R1260D
2945.554	1.601	3100796	WORD	n/a	wordpools/wordpool_EN.txt	OAK	9	16	[0, 0, 0]	n/a	FR1	0	R1260D
2947.155	0.917	3102397	WORD_OFF	n/a	n/a	OAK	9	16	[0, 0, 0]	n/a	FR1	0	R1260D
2948.072	1.616	3103314	WORD	n/a	wordpools/wordpool_EN.txt	STONE	10	16	[0, 0, 0]	n/a	FR1	0	R1260D
2949.688	1.0	3104930	WORD_OFF	n/a	n/a	STONE	10	16	[0, 0, 0]	n/a	FR1	0	R1260D
2950.688	1.618	3105930	WORD	n/a	wordpools/wordpool_EN.txt	YARD	11	16	[0, 0, 0]	n/a	FR1	0	R1260D
2952.306	0.967	3107548	WORD_OFF	n/a	n/a	YARD	11	16	[0, 0, 0]	n/a	FR1	0	R1260D
2953.273	1.616	3108515	WORD	n/a	wordpools/wordpool_EN.txt	LEG	12	16	[0, 0, 0]	n/a	FR1	0	R1260D
2954.889	0.0	3110131	WORD_OFF	n/a	n/a	LEG	12	16	[0, 0, 0]	n/a	FR1	0	R1260D
2954.889	0.0	3110131	DISTRACT_START	n/a	n/a	n/a	-999	16	[0, 0, 0]	n/a	FR1	0	R1260D
2954.889	0.017	3110131	START	n/a	n/a	n/a	-999	16	[-999, -999, -999]	n/a	FR1	0	R1260D
2954.906	5.884	3110148	PROB	5.884	n/a	n/a	-999	16	[8, 8, 6]	22	FR1	0	R1260D
2960.79	5.585	3116031	PROB	5.585	n/a	n/a	-999	16	[3, 9, 6]	18	FR1	0	R1260D
2966.375	9.587	3121616	PROB	9.587	n/a	n/a	-999	16	[4, 8, 4]	16	FR1	0	R1260D
2975.962	0.014	3131203	STOP	n/a	n/a	n/a	-999	16	[-999, -999, -999]	n/a	FR1	0	R1260D
2975.976	0.567	3131217	DISTRACT_END	n/a	n/a	n/a	-999	16	[0, 0, 0]	n/a	FR1	0	R1260D
2976.543	0.518	3131784	RETRIEVAL_ORIENT	n/a	n/a	n/a	-999	16	[0, 0, 0]	n/a	FR1	0	R1260D
2977.061	3.545	3132302	REC_START	n/a	n/a	n/a	-999	16	[0, 0, 0]	n/a	FR1	0	R1260D
2980.606	2.717	3135846	REC_WORD_VV	2.717	n/a	<>	-999	16	[0, 0, 0]	n/a	FR1	0	R1260D
2983.323	3.121	3138563	REC_WORD_VV	3.121	n/a	<>	-999	16	[0, 0, 0]	n/a	FR1	0	R1260D
2986.444	6.902	3141684	REC_WORD_VV	6.902	n/a	<>	-999	16	[0, 0, 0]	n/a	FR1	0	R1260D
2993.346	1.188	3148586	REC_WORD_VV	1.188	n/a	<>	-999	16	[0, 0, 0]	n/a	FR1	0	R1260D
2994.534	4.758	3149774	REC_WORD	4.758	n/a	STONE	-999	16	[0, 0, 0]	n/a	FR1	0	R1260D
2999.292	6.47	3154531	REC_WORD_VV	6.47	n/a	<>	-999	16	[0, 0, 0]	n/a	FR1	0	R1260D
3005.762	1.313	3161001	REC_WORD	1.313	n/a	DESK	-999	16	[0, 0, 0]	n/a	FR1	0	R1260D
3007.075	200.694	3162314	REC_END	n/a	n/a	n/a	-999	16	[0, 0, 0]	n/a	FR1	0	R1260D
3207.769	0.5	3362997	TRIAL	n/a	n/a	n/a	-999	17	[0, 0, 0]	n/a	FR1	0	R1260D
3208.269	10.428	3363497	COUNTDOWN_START	n/a	n/a	n/a	-999	17	[0, 0, 0]	n/a	FR1	0	R1260D
3218.697	0.007	3373924	COUNTDOWN_END	n/a	n/a	n/a	-999	17	[0, 0, 0]	n/a	FR1	0	R1260D
3218.704	1.618	3373931	ORIENT	n/a	n/a	n/a	-999	17	[0, 0, 0]	n/a	FR1	0	R1260D
3220.322	2.167	3375549	ORIENT_OFF	n/a	n/a	n/a	-999	17	[0, 0, 0]	n/a	FR1	0	R1260D
3222.489	1.617	3377716	WORD	n/a	wordpools/wordpool_EN.txt	OAR	1	17	[0, 0, 0]	n/a	FR1	0	R1260D
3224.106	0.816	3379333	WORD_OFF	n/a	n/a	OAR	1	17	[0, 0, 0]	n/a	FR1	0	R1260D
3224.922	1.617	3380149	WORD	n/a	wordpools/wordpool_EN.txt	DOOR	2	17	[0, 0, 0]	n/a	FR1	0	R1260D
3226.539	0.834	3381765	WORD_OFF	n/a	n/a	DOOR	2	17	[0, 0, 0]	n/a	FR1	0	R1260D
3227.373	1.617	3382599	WORD	n/a	wordpools/wordpool_EN.txt	CAKE	3	17	[0, 0, 0]	n/a	FR1	0	R1260D
3228.99	0.866	3384216	WORD_OFF	n/a	n/a	CAKE	3	17	[0, 0, 0]	n/a	FR1	0	R1260D
3229.856	1.618	3385082	WORD	n/a	wordpools/wordpool_EN.txt	CLIFF	4	17	[0, 0, 0]	n/a	FR1	0	R1260D
3231.474	0.967	3386700	WORD_OFF	n/a	n/a	CLIFF	4	17	[0, 0, 0]	n/a	FR1	0	R1260D
3232.441	1.617	3387667	WORD	n/a	wordpools/wordpool_EN.txt	SHOE	5	17	[0, 0, 0]	n/a	FR1	0	R1260D
3234.058	0.915	3389284	WORD_OFF	n/a	n/a	SHOE	5	17	[0, 0, 0]	n/a	FR1	0	R1260D
3234.973	1.617	3390199	WORD	n/a	wordpools/wordpool_EN.txt	EAR	6	17	[0, 0, 0]	n/a	FR1	0	R1260D
3236.59	0.918	3391816	WORD_OFF	n/a	n/a	EAR	6	17	[0, 0, 0]	n/a	FR1	0	R1260D
3237.508	1.617	3392734	WORD	n/a	wordpools/wordpool_EN.txt	WOLF	7	17	[0, 0, 0]	n/a	FR1	0	R1260D
3239.125	0.783	3394351	WORD_OFF	n/a	n/a	WOLF	7	17	[0, 0, 0]	n/a	FR1	0	R1260D
3239.908	1.617	3395134	WORD	n/a	wordpools/wordpool_EN.txt	EGG	8	17	[0, 0, 0]	n/a	FR1	0	R1260D
3241.525	0.917	3396751	WORD_OFF	n/a	n/a	EGG	8	17	[0, 0, 0]	n/a	FR1	0	R1260D
3242.442	1.618	3397668	WORD	n/a	wordpools/wordpool_EN.txt	POLE	9	17	[0, 0, 0]	n/a	FR1	0	R1260D
3244.06	0.832	3399286	WORD_OFF	n/a	n/a	POLE	9	17	[0, 0, 0]	n/a	FR1	0	R1260D
3244.892	1.618	3400117	WORD	n/a	wordpools/wordpool_EN.txt	FUR	10	17	[0, 0, 0]	n/a	FR1	0	R1260D
3246.51	0.983	3401735	WORD_OFF	n/a	n/a	FUR	10	17	[0, 0, 0]	n/a	FR1	0	R1260D
3247.493	1.617	3402718	WORD	n/a	wordpools/wordpool_EN.txt	STREET	11	17	[0, 0, 0]	n/a	FR1	0	R1260D
3249.11	0.766	3404335	WORD_OFF	n/a	n/a	STREET	11	17	[0, 0, 0]	n/a	FR1	0	R1260D
3249.876	1.601	3405101	WORD	n/a	wordpools/wordpool_EN.txt	CHAIR	12	17	[0, 0, 0]	n/a	FR1	0	R1260D
3251.477	0.0	3406702	WORD_OFF	n/a	n/a	CHAIR	12	17	[0, 0, 0]	n/a	FR1	0	R1260D
3251.477	0.001	3406702	DISTRACT_START	n/a	n/a	n/a	-999	17	[0, 0, 0]	n/a	FR1	0	R1260D
3251.478	0.016	3406703	START	n/a	n/a	n/a	-999	17	[-999, -999, -999]	n/a	FR1	0	R1260D
3251.494	5.033	3406719	PROB	5.033	n/a	n/a	-999	17	[8, 7, 3]	18	FR1	0	R1260D
3256.527	5.168	3411752	PROB	5.168	n/a	n/a	-999	17	[6, 1, 4]	11	FR1	0	R1260D
3261.695	2.917	3416920	PROB	2.917	n/a	n/a	-999	17	[2, 8, 2]	12	FR1	0	R1260D
3264.612	3.469	3419836	PROB	3.469	n/a	n/a	-999	17	[2, 4, 6]	12	FR1	0	R1260D
3268.081	3.4	3423305	PROB	3.4	n/a	n/a	-999	17	[7, 8, 1]	16	FR1	0	R1260D
3271.481	2.786	3426705	PROB	2.786	n/a	n/a	-999	17	[8, 2, 1]	11	FR1	0	R1260D
3274.267	0.015	3429491	STOP	n/a	n/a	n/a	-999	17	[-999, -999, -999]	n/a	FR1	0	R1260D
3274.282	0.549	3429506	DISTRACT_END	n/a	n/a	n/a	-999	17	[0, 0, 0]	n/a	FR1	0	R1260D
3274.831	0.518	3430055	RETRIEVAL_ORIENT	n/a	n/a	n/a	-999	17	[0, 0, 0]	n/a	FR1	0	R1260D
3275.349	1.554	3430573	REC_START	n/a	n/a	n/a	-999	17	[0, 0, 0]	n/a	FR1	0	R1260D
3276.903	1.122	3432127	REC_WORD	1.122	n/a	OAR	-999	17	[0, 0, 0]	n/a	FR1	0	R1260D
3278.025	1.971	3433249	REC_WORD	1.971	n/a	DOOR	-999	17	[0, 0, 0]	n/a	FR1	0	R1260D
3279.996	2.295	3435219	REC_WORD	2.295	n/a	CAKE	-999	17	[0, 0, 0]	n/a	FR1	0	R1260D
3282.291	1.892	3437514	REC_WORD	1.892	n/a	CHAIR	-999	17	[0, 0, 0]	n/a	FR1	0	R1260D
3284.183	13.449	3439406	REC_WORD	13.449	n/a	STREET	-999	17	[0, 0, 0]	n/a	FR1	0	R1260D
3297.632	4.25	3452854	REC_WORD	4.25	n/a	BOAT	-999	17	[0, 0, 0]	n/a	FR1	0	R1260D
3301.882	3.478	3457104	REC_WORD_VV	3.478	n/a	<>	-999	17	[0, 0, 0]	n/a	FR1	0	R1260D
3305.36	6.145	3460582	REC_END	n/a	n/a	n/a	-999	17	[0, 0, 0]	n/a	FR1	0	R1260D
3311.505	0.5	3466727	TRIAL	n/a	n/a	n/a	-999	18	[0, 0, 0]	n/a	FR1	0	R1260D
3312.005	10.428	3467227	COUNTDOWN_START	n/a	n/a	n/a	-999	18	[0, 0, 0]	n/a	FR1	0	R1260D
3322.433	0.007	3477654	COUNTDOWN_END	n/a	n/a	n/a	-999	18	[0, 0, 0]	n/a	FR1	0	R1260D
3322.44	1.618	3477661	ORIENT	n/a	n/a	n/a	-999	18	[0, 0, 0]	n/a	FR1	0	R1260D
3324.058	1.799	3479279	ORIENT_OFF	n/a	n/a	n/a	-999	18	[0, 0, 0]	n/a	FR1	0	R1260D
3325.857	1.618	3481078	WORD	n/a	wordpools/wordpool_EN.txt	HEART	1	18	[0, 0, 0]	n/a	FR1	0	R1260D
3327.475	0.867	3482696	WORD_OFF	n/a	n/a	HEART	1	18	[0, 0, 0]	n/a	FR1	0	R1260D
3328.342	1.616	3483563	WORD	n/a	wordpools/wordpool_EN.txt	WEB	2	18	[0, 0, 0]	n/a	FR1	0	R1260D
3329.958	0.85	3485179	WORD_OFF	n/a	n/a	WEB	2	18	[0, 0, 0]	n/a	FR1	0	R1260D
3330.808	1.618	3486029	WORD	n/a	wordpools/wordpool_EN.txt	BLUSH	3	18	[0, 0, 0]	n/a	FR1	0	R1260D
3332.426	0.917	3487647	WORD_OFF	n/a	n/a	BLUSH	3	18	[0, 0, 0]	n/a	FR1	0	R1260D
3333.343	1.615	3488563	WORD	n/a	wordpools/wordpool_EN.txt	FOX	4	18	[0, 0, 0]	n/a	FR1	0	R1260D
3334.958	0.951	3490178	WORD_OFF	n/a	n/a	FOX	4	18	[0, 0, 0]	n/a	FR1	0	R1260D
3335.909	1.617	3491129	WORD	n/a	wordpools/wordpool_EN.txt	BANK	5	18	[0, 0, 0]	n/a	FR1	0	R1260D
3337.526	0.867	3492746	WORD_OFF	n/a	n/a	BANK	5	18	[0, 0, 0]	n/a	FR1	0	R1260D
3338.393	1.617	3493613	WORD	n/a	wordpools/wordpool_EN.txt	HILL	6	18	[0, 0, 0]	n/a	FR1	0	R1260D
3340.01	0.816	3495230	WORD_OFF	n/a	n/a	HILL	6	18	[0, 0, 0]	n/a	FR1	0	R1260D
3340.826	1.601	3496046	WORD	n/a	wordpools/wordpool_EN.txt	BALL	7	18	[0, 0, 0]	n/a	FR1	0	R1260D
3342.427	0.817	3497647	WORD_OFF	n/a	n/a	BALL	7	18	[0, 0, 0]	n/a	FR1	0	R1260D
3343.244	1.616	3498464	WORD	n/a	wordpools/wordpool_EN.txt	SEA	8	18	[0, 0, 0]	n/a	FR1	0	R1260D
3344.86	0.817	3500080	WORD_OFF	n/a	n/a	SEA	8	18	[0, 0, 0]	n/a	FR1	0	R1260D
3345.677	1.618	3500897	WORD	n/a	wordpools/wordpool_EN.txt	PARK	9	18	[0, 0, 0]	n/a	FR1	0	R1260D
3347.295	0.934	3502515	WORD_OFF	n/a	n/a	PARK	9	18	[0, 0, 0]	n/a	FR1	0	R1260D
3348.229	1.616	3503449	WORD	n/a	wordpools/wordpool_EN.txt	PEARL	10	18	[0, 0, 0]	n/a	FR1	0	R1260D
3349.845	0.766	3505065	WORD_OFF	n/a	n/a	PEARL	10	18	[0, 0, 0]	n/a	FR1	0	R1260D
3350.611	1.618	3505831	WORD	n/a	wordpools/wordpool_EN.txt	CRANE	11	18	[0, 0, 0]	n/a	FR1	0	R1260D
3352.229	0.784	3507448	WORD_OFF	n/a	n/a	CRANE	11	18	[0, 0, 0]	n/a	FR1	0	R1260D
3353.013	1.616	3508232	WORD	n/a	wordpools/wordpool_EN.txt	SNAIL	12	18	[0, 0, 0]	n/a	FR1	0	R1260D
3354.629	0.0	3509848	WORD_OFF	n/a	n/a	SNAIL	12	18	[0, 0, 0]	n/a	FR1	0	R1260D
3354.629	0.0	3509848	DISTRACT_START	n/a	n/a	n/a	-999	18	[0, 0, 0]	n/a	FR1	0	R1260D
3354.629	0.016	3509848	START	n/a	n/a	n/a	-999	18	[-999, -999, -999]	n/a	FR1	0	R1260D
3354.645	3.769	3509864	PROB	3.769	n/a	n/a	-999	18	[6, 6, 1]	13	FR1	0	R1260D
3358.414	2.667	3513633	PROB	2.667	n/a	n/a	-999	18	[1, 6, 4]	11	FR1	0	R1260D
3361.081	4.217	3516300	PROB	4.217	n/a	n/a	-999	18	[4, 4, 6]	16	FR1	0	R1260D
3365.298	3.868	3520517	PROB	3.868	n/a	n/a	-999	18	[3, 9, 1]	13	FR1	0	R1260D
3369.166	5.217	3524384	PROB	5.217	n/a	n/a	-999	18	[3, 1, 3]	7	FR1	0	R1260D
3374.383	7.077	3529601	PROB	7.077	n/a	n/a	-999	18	[4, 2, 9]	15	FR1	0	R1260D
3381.46	0.008	3536678	STOP	n/a	n/a	n/a	-999	18	[-999, -999, -999]	n/a	FR1	0	R1260D
3381.468	0.633	3536686	DISTRACT_END	n/a	n/a	n/a	-999	18	[0, 0, 0]	n/a	FR1	0	R1260D
3382.101	0.517	3537319	RETRIEVAL_ORIENT	n/a	n/a	n/a	-999	18	[0, 0, 0]	n/a	FR1	0	R1260D
3382.618	4.78	3537836	REC_START	n/a	n/a	n/a	-999	18	[0, 0, 0]	n/a	FR1	0	R1260D
3387.398	5.998	3542615	REC_WORD	5.998	n/a	SNAIL	-999	18	[0, 0, 0]	n/a	FR1	0	R1260D
3393.396	5.038	3548613	REC_WORD_VV	5.038	n/a	<>	-999	18	[0, 0, 0]	n/a	FR1	0	R1260D
3398.434	2.736	3553651	REC_WORD_VV	2.736	n/a	<>	-999	18	[0, 0, 0]	n/a	FR1	0	R1260D
3401.17	11.46	3556387	REC_WORD	11.46	n/a	HOT	-999	18	[0, 0, 0]	n/a	FR1	0	R1260D
3412.63	13.629	3567846	REC_END	n/a	n/a	n/a	-999	18	[0, 0, 0]	n/a	FR1	0	R1260D
3426.259	0.5	3581474	TRIAL	n/a	n/a	n/a	-999	19	[0, 0, 0]	n/a	FR1	0	R1260D
3426.759	10.428	3581974	COUNTDOWN_START	n/a	n/a	n/a	-999	19	[0, 0, 0]	n/a	FR1	0	R1260D
3437.187	0.008	3592402	COUNTDOWN_END	n/a	n/a	n/a	-999	19	[0, 0, 0]	n/a	FR1	0	R1260D
3437.195	1.616	3592410	ORIENT	n/a	n/a	n/a	-999	19	[0, 0, 0]	n/a	FR1	0	R1260D
3438.811	2.084	3594026	ORIENT_OFF	n/a	n/a	n/a	-999	19	[0, 0, 0]	n/a	FR1	0	R1260D
3440.895	1.617	3596109	WORD	n/a	wordpools/wordpool_EN.txt	SPOON	1	19	[0, 0, 0]	n/a	FR1	0	R1260D
3442.512	1.016	3597726	WORD_OFF	n/a	n/a	SPOON	1	19	[0, 0, 0]	n/a	FR1	0	R1260D
3443.528	1.601	3598742	WORD	n/a	wordpools/wordpool_EN.txt	DEER	2	19	[0, 0, 0]	n/a	FR1	0	R1260D
3445.129	0.917	3600343	WORD_OFF	n/a	n/a	DEER	2	19	[0, 0, 0]	n/a	FR1	0	R1260D
3446.046	1.616	3601260	WORD	n/a	wordpools/wordpool_EN.txt	MAP	3	19	[0, 0, 0]	n/a	FR1	0	R1260D
3447.662	0.768	3602876	WORD_OFF	n/a	n/a	MAP	3	19	[0, 0, 0]	n/a	FR1	0	R1260D
3448.43	1.617	3603644	WORD	n/a	wordpools/wordpool_EN.txt	WORLD	4	19	[0, 0, 0]	n/a	FR1	0	R1260D
3450.047	1.0	3605261	WORD_OFF	n/a	n/a	WORLD	4	19	[0, 0, 0]	n/a	FR1	0	R1260D
3451.047	1.616	3606261	WORD	n/a	wordpools/wordpool_EN.txt	BLOOM	5	19	[0, 0, 0]	n/a	FR1	0	R1260D
3452.663	0.867	3607877	WORD_OFF	n/a	n/a	BLOOM	5	19	[0, 0, 0]	n/a	FR1	0	R1260D
3453.53	1.602	3608744	WORD	n/a	wordpools/wordpool_EN.txt	PEN	6	19	[0, 0, 0]	n/a	FR1	0	R1260D
3455.132	0.849	3610346	WORD_OFF	n/a	n/a	PEN	6	19	[0, 0, 0]	n/a	FR1	0	R1260D
3455.981	1.617	3611195	WORD	n/a	wordpools/wordpool_EN.txt	KEY	7	19	[0, 0, 0]	n/a	FR1	0	R1260D
3457.598	1.0	3612812	WORD_OFF	n/a	n/a	KEY	7	19	[0, 0, 0]	n/a	FR1	0	R1260D
3458.598	1.618	3613811	WORD	n/a	wordpools/wordpool_EN.txt	SNAKE	8	19	[0, 0, 0]	n/a	FR1	0	R1260D
3460.216	0.783	3615429	WORD_OFF	n/a	n/a	SNAKE	8	19	[0, 0, 0]	n/a	FR1	0	R1260D
3460.999	1.616	3616212	WORD	n/a	wordpools/wordpool_EN.txt	COW	9	19	[0, 0, 0]	n/a	FR1	0	R1260D
3462.615	0.785	3617828	WORD_OFF	n/a	n/a	COW	9	19	[0, 0, 0]	n/a	FR1	0	R1260D
3463.4	1.617	3618613	WORD	n/a	wordpools/wordpool_EN.txt	HAWK	10	19	[0, 0, 0]	n/a	FR1	0	R1260D
3465.017	0.899	3620230	WORD_OFF	n/a	n/a	HAWK	10	19	[0, 0, 0]	n/a	FR1	0	R1260D
3465.916	1.617	3621129	WORD	n/a	wordpools/wordpool_EN.txt	HORSE	11	19	[0, 0, 0]	n/a	FR1	0	R1260D
3467.533	0.951	3622746	WORD_OFF	n/a	n/a	HORSE	11	19	[0, 0, 0]	n/a	FR1	0	R1260D
3468.484	1.617	3623697	WORD	n/a	wordpools/wordpool_EN.txt	VAN	12	19	[0, 0, 0]	n/a	FR1	0	R1260D
3470.101	0.0	3625314	WORD_OFF	n/a	n/a	VAN	12	19	[0, 0, 0]	n/a	FR1	0	R1260D
3470.101	0.0	3625314	DISTRACT_START	n/a	n/a	n/a	-999	19	[0, 0, 0]	n/a	FR1	0	R1260D
3470.101	0.017	3625314	START	n/a	n/a	n/a	-999	19	[-999, -999, -999]	n/a	FR1	0	R1260D
3470.118	5.917	3625331	PROB	5.917	n/a	n/a	-999	19	[3, 6, 3]	12	FR1	0	R1260D
3476.035	4.134	3631247	PROB	4.134	n/a	n/a	-999	19	[4, 8, 3]	15	FR1	0	R1260D
3480.169	5.018	3635381	PROB	5.018	n/a	n/a	-999	19	[6, 7, 4]	17	FR1	0	R1260D
3485.187	4.767	3640399	PROB	4.767	n/a	n/a	-999	19	[4, 6, 1]	11	FR1	0	R1260D
3489.954	3.687	3645166	PROB	3.687	n/a	n/a	-999	19	[7, 4, 3]	14	FR1	0	R1260D
3493.641	0.013	3648852	STOP	n/a	n/a	n/a	-999	19	[-999, -999, -999]	n/a	FR1	0	R1260D
3493.654	0.601	3648865	DISTRACT_END	n/a	n/a	n/a	-999	19	[0, 0, 0]	n/a	FR1	0	R1260D
3494.255	0.517	3649466	RETRIEVAL_ORIENT	n/a	n/a	n/a	-999	19	[0, 0, 0]	n/a	FR1	0	R1260D
3494.772	3.826	3649983	REC_START	n/a	n/a	n/a	-999	19	[0, 0, 0]	n/a	FR1	0	R1260D
3498.598	4.238	3653809	REC_WORD	4.238	n/a	MAP	-999	19	[0, 0, 0]	n/a	FR1	0	R1260D
3502.836	1.728	3658047	REC_WORD_VV	1.728	n/a	<>	-999	19	[0, 0, 0]	n/a	FR1	0	R1260D
3504.564	2.959	3659775	REC_WORD	2.959	n/a	QUEST	-999	19	[0, 0, 0]	n/a	FR1	0	R1260D
3507.523	1.62	3662734	REC_WORD_VV	1.62	n/a	<>	-999	19	[0, 0, 0]	n/a	FR1	0	R1260D
3509.143	1.489	3664354	REC_WORD	1.489	n/a	COW	-999	19	[0, 0, 0]	n/a	FR1	0	R1260D
3510.632	1.842	3665843	REC_WORD	1.842	n/a	HORSE	-999	19	[0, 0, 0]	n/a	FR1	0	R1260D
3512.474	5.363	3667684	REC_WORD_VV	5.363	n/a	<>	-999	19	[0, 0, 0]	n/a	FR1	0	R1260D
3517.837	2.651	3673047	REC_WORD	2.651	n/a	RAT	-999	19	[0, 0, 0]	n/a	FR1	0	R1260D
3520.488	4.296	3675698	REC_WORD_VV	4.296	n/a	<>	-999	19	[0, 0, 0]	n/a	FR1	0	R1260D
3524.784	6.16	3679994	REC_END	n/a	n/a	n/a	-999	19	[0, 0, 0]	n/a	FR1	0	R1260D
3530.944	0.5	3686153	TRIAL	n/a	n/a	n/a	-999	20	[0, 0, 0]	n/a	FR1	0	R1260D
3531.444	10.428	3686653	COUNTDOWN_START	n/a	n/a	n/a	-999	20	[0, 0, 0]	n/a	FR1	0	R1260D
3541.872	0.008	3697081	COUNTDOWN_END	n/a	n/a	n/a	-999	20	[0, 0, 0]	n/a	FR1	0	R1260D
3541.88	1.618	3697089	ORIENT	n/a	n/a	n/a	-999	20	[0, 0, 0]	n/a	FR1	0	R1260D
3543.498	2.099	3698707	ORIENT_OFF	n/a	n/a	n/a	-999	20	[0, 0, 0]	n/a	FR1	0	R1260D
3545.597	1.618	3700806	WORD	n/a	wordpools/wordpool_EN.txt	EEL	1	20	[0, 0, 0]	n/a	FR1	0	R1260D
3547.215	0.8	3702423	WORD_OFF	n/a	n/a	EEL	1	20	[0, 0, 0]	n/a	FR1	0	R1260D
3548.015	1.616	3703223	WORD	n/a	wordpools/wordpool_EN.txt	GOAT	2	20	[0, 0, 0]	n/a	FR1	0	R1260D
3549.631	0.9	3704839	WORD_OFF	n/a	n/a	GOAT	2	20	[0, 0, 0]	n/a	FR1	0	R1260D
3550.531	1.618	3705739	WORD	n/a	wordpools/wordpool_EN.txt	ZOO	3	20	[0, 0, 0]	n/a	FR1	0	R1260D
3552.149	0.783	3707357	WORD_OFF	n/a	n/a	ZOO	3	20	[0, 0, 0]	n/a	FR1	0	R1260D
3552.932	1.617	3708140	WORD	n/a	wordpools/wordpool_EN.txt	SHIP	4	20	[0, 0, 0]	n/a	FR1	0	R1260D
3554.549	0.818	3709757	WORD_OFF	n/a	n/a	SHIP	4	20	[0, 0, 0]	n/a	FR1	0	R1260D
3555.367	1.616	3710575	WORD	n/a	wordpools/wordpool_EN.txt	MAIL	5	20	[0, 0, 0]	n/a	FR1	0	R1260D
3556.983	0.866	3712191	WORD_OFF	n/a	n/a	MAIL	5	20	[0, 0, 0]	n/a	FR1	0	R1260D
3557.849	1.618	3713057	WORD	n/a	wordpools/wordpool_EN.txt	TREE	6	20	[0, 0, 0]	n/a	FR1	0	R1260D
3559.467	0.934	3714675	WORD_OFF	n/a	n/a	TREE	6	20	[0, 0, 0]	n/a	FR1	0	R1260D
3560.401	1.617	3715609	WORD	n/a	wordpools/wordpool_EN.txt	STAIR	7	20	[0, 0, 0]	n/a	FR1	0	R1260D
3562.018	0.849	3717226	WORD_OFF	n/a	n/a	STAIR	7	20	[0, 0, 0]	n/a	FR1	0	R1260D
3562.867	1.601	3718075	WORD	n/a	wordpools/wordpool_EN.txt	PET	8	20	[0, 0, 0]	n/a	FR1	0	R1260D
3564.468	0.85	3719675	WORD_OFF	n/a	n/a	PET	8	20	[0, 0, 0]	n/a	FR1	0	R1260D
3565.318	1.616	3720525	WORD	n/a	wordpools/wordpool_EN.txt	FORT	9	20	[0, 0, 0]	n/a	FR1	0	R1260D
3566.934	0.767	3722141	WORD_OFF	n/a	n/a	FORT	9	20	[0, 0, 0]	n/a	FR1	0	R1260D
3567.701	1.618	3722908	WORD	n/a	wordpools/wordpool_EN.txt	BOAT	10	20	[0, 0, 0]	n/a	FR1	0	R1260D
3569.319	0.9	3724526	WORD_OFF	n/a	n/a	BOAT	10	20	[0, 0, 0]	n/a	FR1	0	R1260D
3570.219	1.616	3725426	WORD	n/a	wordpools/wordpool_EN.txt	JET	11	20	[0, 0, 0]	n/a	FR1	0	R1260D
3571.835	0.967	3727042	WORD_OFF	n/a	n/a	JET	11	20	[0, 0, 0]	n/a	FR1	0	R1260D
3572.802	1.601	3728009	WORD	n/a	wordpools/wordpool_EN.txt	PEAR	12	20	[0, 0, 0]	n/a	FR1	0	R1260D
3574.403	0.0	3729610	WORD_OFF	n/a	n/a	PEAR	12	20	[0, 0, 0]	n/a	FR1	0	R1260D
3574.403	0.001	3729610	DISTRACT_START	n/a	n/a	n/a	-999	20	[0, 0, 0]	n/a	FR1	0	R1260D
3574.404	0.016	3729611	START	n/a	n/a	n/a	-999	20	[-999, -999, -999]	n/a	FR1	0	R1260D
3574.42	3.701	3729627	PROB	3.701	n/a	n/a	-999	20	[4, 1, 1]	6	FR1	0	R1260D
3578.121	8.118	3733328	PROB	8.118	n/a	n/a	-999	20	[6, 8, 9]	23	FR1	0	R1260D
3586.239	4.017	3741445	PROB	4.017	n/a	n/a	-999	20	[1, 5, 8]	14	FR1	0	R1260D
3590.256	3.333	3745462	PROB	3.333	n/a	n/a	-999	20	[6, 9, 1]	16	FR1	0	R1260D
3593.589	5.462	3748795	PROB	5.462	n/a	n/a	-999	20	[5, 7, 9]	21	FR1	0	R1260D
3599.051	0.007	3754257	STOP	n/a	n/a	n/a	-999	20	[-999, -999, -999]	n/a	FR1	0	R1260D
3599.058	0.649	3754264	DISTRACT_END	n/a	n/a	n/a	-999	20	[0, 0, 0]	n/a	FR1	0	R1260D
3599.707	0.518	3754913	RETRIEVAL_ORIENT	n/a	n/a	n/a	-999	20	[0, 0, 0]	n/a	FR1	0	R1260D
3600.225	3.615	3755430	REC_START	n/a	n/a	n/a	-999	20	[0, 0, 0]	n/a	FR1	0	R1260D
3603.84	0.169	3759045	REC_WORD_VV	0.169	n/a	<>	-999	20	[0, 0, 0]	n/a	FR1	0	R1260D
3604.009	2.666	3759214	REC_WORD	2.666	n/a	ZOO	-999	20	[0, 0, 0]	n/a	FR1	0	R1260D
3606.675	0.18	3761880	REC_WORD_VV	0.18	n/a	<>	-999	20	[0, 0, 0]	n/a	FR1	0	R1260D
3606.855	7.659	3762060	REC_WORD	7.659	n/a	EEL	-999	20	[0, 0, 0]	n/a	FR1	0	R1260D
3614.514	3.91	3769719	REC_WORD	3.91	n/a	MAP	-999	20	[0, 0, 0]	n/a	FR1	0	R1260D
3618.424	10.68	3773628	REC_WORD_VV	10.68	n/a	<>	-999	20	[0, 0, 0]	n/a	FR1	0	R1260D
3629.104	1.134	3784308	REC_WORD_VV	1.134	n/a	<>	-999	20	[0, 0, 0]	n/a	FR1	0	R1260D
3630.238	30.198	3785442	REC_END	n/a	n/a	n/a	-999	20	[0, 0, 0]	n/a	FR1	0	R1260D
3660.436	0.5	3815638	TRIAL	n/a	n/a	n/a	-999	21	[0, 0, 0]	n/a	FR1	0	R1260D
3660.936	10.428	3816138	COUNTDOWN_START	n/a	n/a	n/a	-999	21	[0, 0, 0]	n/a	FR1	0	R1260D
3671.364	0.007	3826565	COUNTDOWN_END	n/a	n/a	n/a	-999	21	[0, 0, 0]	n/a	FR1	0	R1260D
3671.371	1.617	3826572	ORIENT	n/a	n/a	n/a	-999	21	[0, 0, 0]	n/a	FR1	0	R1260D
3672.988	2.167	3828189	ORIENT_OFF	n/a	n/a	n/a	-999	21	[0, 0, 0]	n/a	FR1	0	R1260D
3675.155	1.616	3830356	WORD	n/a	wordpools/wordpool_EN.txt	JUICE	1	21	[0, 0, 0]	n/a	FR1	0	R1260D
3676.771	0.784	3831972	WORD_OFF	n/a	n/a	JUICE	1	21	[0, 0, 0]	n/a	FR1	0	R1260D
3677.555	1.618	3832756	WORD	n/a	wordpools/wordpool_EN.txt	SLEEVE	2	21	[0, 0, 0]	n/a	FR1	0	R1260D
3679.173	0.85	3834374	WORD_OFF	n/a	n/a	SLEEVE	2	21	[0, 0, 0]	n/a	FR1	0	R1260D
3680.023	1.616	3835224	WORD	n/a	wordpools/wordpool_EN.txt	AXE	3	21	[0, 0, 0]	n/a	FR1	0	R1260D
3681.639	0.883	3836840	WORD_OFF	n/a	n/a	AXE	3	21	[0, 0, 0]	n/a	FR1	0	R1260D
3682.522	1.618	3837723	WORD	n/a	wordpools/wordpool_EN.txt	MULE	4	21	[0, 0, 0]	n/a	FR1	0	R1260D
3684.14	0.799	3839341	WORD_OFF	n/a	n/a	MULE	4	21	[0, 0, 0]	n/a	FR1	0	R1260D
3684.939	1.617	3840140	WORD	n/a	wordpools/wordpool_EN.txt	FAN	5	21	[0, 0, 0]	n/a	FR1	0	R1260D
3686.556	0.868	3841757	WORD_OFF	n/a	n/a	FAN	5	21	[0, 0, 0]	n/a	FR1	0	R1260D
3687.424	1.617	3842625	WORD	n/a	wordpools/wordpool_EN.txt	HOOK	6	21	[0, 0, 0]	n/a	FR1	0	R1260D
3689.041	0.816	3844241	WORD_OFF	n/a	n/a	HOOK	6	21	[0, 0, 0]	n/a	FR1	0	R1260D
3689.857	1.618	3845057	WORD	n/a	wordpools/wordpool_EN.txt	ROPE	7	21	[0, 0, 0]	n/a	FR1	0	R1260D
3691.475	0.85	3846675	WORD_OFF	n/a	n/a	ROPE	7	21	[0, 0, 0]	n/a	FR1	0	R1260D
3692.325	1.616	3847525	WORD	n/a	wordpools/wordpool_EN.txt	BEAN	8	21	[0, 0, 0]	n/a	FR1	0	R1260D
3693.941	0.933	3849141	WORD_OFF	n/a	n/a	BEAN	8	21	[0, 0, 0]	n/a	FR1	0	R1260D
3694.874	1.618	3850074	WORD	n/a	wordpools/wordpool_EN.txt	BEAK	9	21	[0, 0, 0]	n/a	FR1	0	R1260D
3696.492	0.884	3851692	WORD_OFF	n/a	n/a	BEAK	9	21	[0, 0, 0]	n/a	FR1	0	R1260D
3697.376	1.617	3852576	WORD	n/a	wordpools/wordpool_EN.txt	SPARK	10	21	[0, 0, 0]	n/a	FR1	0	R1260D
3698.993	0.882	3854193	WORD_OFF	n/a	n/a	SPARK	10	21	[0, 0, 0]	n/a	FR1	0	R1260D
3699.875	1.618	3855075	WORD	n/a	wordpools/wordpool_EN.txt	NOSE	11	21	[0, 0, 0]	n/a	FR1	0	R1260D
3701.493	0.834	3856693	WORD_OFF	n/a	n/a	NOSE	11	21	[0, 0, 0]	n/a	FR1	0	R1260D
3702.327	1.616	3857527	WORD	n/a	wordpools/wordpool_EN.txt	MAT	12	21	[0, 0, 0]	n/a	FR1	0	R1260D
3703.943	0.0	3859143	WORD_OFF	n/a	n/a	MAT	12	21	[0, 0, 0]	n/a	FR1	0	R1260D
3703.943	0.001	3859143	DISTRACT_START	n/a	n/a	n/a	-999	21	[0, 0, 0]	n/a	FR1	0	R1260D
3703.944	0.015	3859144	START	n/a	n/a	n/a	-999	21	[-999, -999, -999]	n/a	FR1	0	R1260D
3703.959	5.802	3859159	PROB	5.802	n/a	n/a	-999	21	[9, 3, 7]	19	FR1	0	R1260D
3709.761	7.469	3864960	PROB	7.469	n/a	n/a	-999	21	[5, 3, 9]	17	FR1	0	R1260D
3717.23	3.432	3872429	PROB	3.432	n/a	n/a	-999	21	[2, 9, 6]	17	FR1	0	R1260D
3720.662	2.901	3875861	PROB	2.901	n/a	n/a	-999	21	[6, 1, 6]	13	FR1	0	R1260D
3723.563	3.559	3878762	PROB	3.559	n/a	n/a	-999	21	[1, 3, 3]	5	FR1	0	R1260D
3727.122	0.009	3882320	STOP	n/a	n/a	n/a	-999	21	[-999, -999, -999]	n/a	FR1	0	R1260D
3727.131	0.616	3882329	DISTRACT_END	n/a	n/a	n/a	-999	21	[0, 0, 0]	n/a	FR1	0	R1260D
3727.747	0.519	3882945	RETRIEVAL_ORIENT	n/a	n/a	n/a	-999	21	[0, 0, 0]	n/a	FR1	0	R1260D
3728.266	0.0	3883464	REC_WORD_VV	0.0	n/a	<>	-999	21	[0, 0, 0]	n/a	FR1	0	R1260D
3728.266	2.184	3883464	REC_START	n/a	n/a	n/a	-999	21	[0, 0, 0]	n/a	FR1	0	R1260D
3730.45	0.568	3885648	REC_WORD_VV	0.568	n/a	<>	-999	21	[0, 0, 0]	n/a	FR1	0	R1260D
3731.018	0.185	3886216	REC_WORD_VV	0.185	n/a	<>	-999	21	[0, 0, 0]	n/a	FR1	0	R1260D
3731.203	1.778	3886401	REC_WORD	1.778	n/a	MULE	-999	21	[0, 0, 0]	n/a	FR1	0	R1260D
3732.981	1.049	3888179	REC_WORD_VV	1.049	n/a	<>	-999	21	[0, 0, 0]	n/a	FR1	0	R1260D
3734.03	0.2	3889228	REC_WORD_VV	0.2	n/a	<>	-999	21	[0, 0, 0]	n/a	FR1	0	R1260D
3734.23	2.194	3889428	REC_WORD	2.194	n/a	ROPE	-999	21	[0, 0, 0]	n/a	FR1	0	R1260D
3736.424	1.971	3891622	REC_WORD_VV	1.971	n/a	<>	-999	21	[0, 0, 0]	n/a	FR1	0	R1260D
3738.395	2.681	3893593	REC_WORD	2.681	n/a	BEAN	-999	21	[0, 0, 0]	n/a	FR1	0	R1260D
3741.076	3.819	3896274	REC_WORD_VV	3.819	n/a	<>	-999	21	[0, 0, 0]	n/a	FR1	0	R1260D
3744.895	4.66	3900092	REC_WORD_VV	4.66	n/a	<>	-999	21	[0, 0, 0]	n/a	FR1	0	R1260D
3749.555	0.08	3904752	REC_WORD_VV	0.08	n/a	<>	-999	21	[0, 0, 0]	n/a	FR1	0	R1260D
3749.635	8.642	3904832	REC_WORD	8.642	n/a	FAN	-999	21	[0, 0, 0]	n/a	FR1	0	R1260D
3758.277	0.0	3913474	REC_END	n/a	n/a	n/a	-999	21	[0, 0, 0]	n/a	FR1	0	R1260D
