onset	duration	sample	trial_type	response_time	stim_file	item_name	serialpos	list	test	answer	experiment	session	subject
0.0	0.0	5080	INSTRUCT_START	n/a	n/a	n/a	-999	-999	[0, 0, 0]	n/a	FR1	2	R1193T
0.0	11.286	5080	INSTRUCT_END	n/a	n/a	n/a	-999	-999	[0, 0, 0]	n/a	FR1	2	R1193T
11.286	0.0	16365	SESS_START	n/a	n/a	n/a	-999	-999	[0, 0, 0]	n/a	FR1	2	R1193T
11.286	12.5	16365	MIC_TEST	n/a	n/a	n/a	-999	-999	[0, 0, 0]	n/a	FR1	2	R1193T
23.786	4.953	28864	PRACTICE_TRIAL	n/a	n/a	n/a	-999	-1	[0, 0, 0]	n/a	FR1	2	R1193T
28.739	10.428	33817	COUNTDOWN_START	n/a	n/a	n/a	-999	-1	[0, 0, 0]	n/a	FR1	2	R1193T
39.167	0.007	44244	COUNTDOWN_END	n/a	n/a	n/a	-999	-1	[0, 0, 0]	n/a	FR1	2	R1193T
39.174	1.617	44251	PRACTICE_ORIENT	n/a	n/a	n/a	-999	-1	[0, 0, 0]	n/a	FR1	2	R1193T
40.791	2.083	45868	PRACTICE_ORIENT_OFF	n/a	n/a	n/a	-999	-1	[0, 0, 0]	n/a	FR1	2	R1193T
42.874	1.618	47951	PRACTICE_WORD	n/a	n/a	CHEST	1	-1	[0, 0, 0]	n/a	FR1	2	R1193T
44.492	0.866	49569	PRACTICE_WORD_OFF	n/a	n/a	CHEST	-999	-1	[0, 0, 0]	n/a	FR1	2	R1193T
45.358	1.618	50435	PRACTICE_WORD	n/a	n/a	BEAM	2	-1	[0, 0, 0]	n/a	FR1	2	R1193T
46.976	0.95	52053	PRACTICE_WORD_OFF	n/a	n/a	BEAM	-999	-1	[0, 0, 0]	n/a	FR1	2	R1193T
47.926	1.617	53003	PRACTICE_WORD	n/a	n/a	TONGUE	3	-1	[0, 0, 0]	n/a	FR1	2	R1193T
49.543	0.933	54620	PRACTICE_WORD_OFF	n/a	n/a	TONGUE	-999	-1	[0, 0, 0]	n/a	FR1	2	R1193T
50.476	1.617	55552	PRACTICE_WORD	n/a	n/a	RHINO	4	-1	[0, 0, 0]	n/a	FR1	2	R1193T
52.093	0.934	57169	PRACTICE_WORD_OFF	n/a	n/a	RHINO	-999	-1	[0, 0, 0]	n/a	FR1	2	R1193T
53.027	1.618	58103	PRACTICE_WORD	n/a	n/a	RING	5	-1	[0, 0, 0]	n/a	FR1	2	R1193T
54.645	0.765	59721	PRACTICE_WORD_OFF	n/a	n/a	RING	-999	-1	[0, 0, 0]	n/a	FR1	2	R1193T
55.41	1.617	60486	PRACTICE_WORD	n/a	n/a	FLOOD	6	-1	[0, 0, 0]	n/a	FR1	2	R1193T
57.027	0.8	62103	PRACTICE_WORD_OFF	n/a	n/a	FLOOD	-999	-1	[0, 0, 0]	n/a	FR1	2	R1193T
57.827	1.617	62903	PRACTICE_WORD	n/a	n/a	ATTIC	7	-1	[0, 0, 0]	n/a	FR1	2	R1193T
59.444	0.784	64520	PRACTICE_WORD_OFF	n/a	n/a	ATTIC	-999	-1	[0, 0, 0]	n/a	FR1	2	R1193T
60.228	1.617	65304	PRACTICE_WORD	n/a	n/a	COTTON	8	-1	[0, 0, 0]	n/a	FR1	2	R1193T
61.845	0.917	66921	PRACTICE_WORD_OFF	n/a	n/a	COTTON	-999	-1	[0, 0, 0]	n/a	FR1	2	R1193T
62.762	1.617	67838	PRACTICE_WORD	n/a	n/a	IRON	9	-1	[0, 0, 0]	n/a	FR1	2	R1193T
64.379	0.8	69455	PRACTICE_WORD_OFF	n/a	n/a	IRON	-999	-1	[0, 0, 0]	n/a	FR1	2	R1193T
65.179	1.617	70255	PRACTICE_WORD	n/a	n/a	WAGON	10	-1	[0, 0, 0]	n/a	FR1	2	R1193T
66.796	0.918	71872	PRACTICE_WORD_OFF	n/a	n/a	WAGON	-999	-1	[0, 0, 0]	n/a	FR1	2	R1193T
67.714	1.616	72789	PRACTICE_WORD	n/a	n/a	CAMEL	11	-1	[0, 0, 0]	n/a	FR1	2	R1193T
69.33	0.983	74405	PRACTICE_WORD_OFF	n/a	n/a	CAMEL	-999	-1	[0, 0, 0]	n/a	FR1	2	R1193T
70.313	1.617	75388	PRACTICE_WORD	n/a	n/a	WATCH	12	-1	[0, 0, 0]	n/a	FR1	2	R1193T
71.93	0.0	77005	PRACTICE_WORD_OFF	n/a	n/a	WATCH	-999	-1	[0, 0, 0]	n/a	FR1	2	R1193T
71.93	0.001	77005	DISTRACT_START	n/a	n/a	n/a	-999	-1	[0, 0, 0]	n/a	FR1	2	R1193T
71.931	0.016	77006	START	n/a	n/a	n/a	-999	-1	[-999, -999, -999]	n/a	FR1	2	R1193T
71.947	8.501	77022	PROB	8.501	n/a	n/a	-999	-1	[1, 4, 8]	148	FR1	2	R1193T
80.448	7.418	85523	PROB	7.418	n/a	n/a	-999	-1	[3, 2, 4]	324	FR1	2	R1193T
87.866	21.201	92940	PROB	21.201	n/a	n/a	-999	-1	[5, 9, 1]	591	FR1	2	R1193T
109.067	0.02	114140	STOP	n/a	n/a	n/a	-999	-1	[-999, -999, -999]	n/a	FR1	2	R1193T
109.087	0.65	114160	DISTRACT_END	n/a	n/a	n/a	-999	-1	[0, 0, 0]	n/a	FR1	2	R1193T
109.737	0.517	114810	RETRIEVAL_ORIENT	n/a	n/a	n/a	-999	-1	[0, 0, 0]	n/a	FR1	2	R1193T
110.254	30.009	115327	PRACTICE_REC_START	n/a	n/a	n/a	-999	-1	[0, 0, 0]	n/a	FR1	2	R1193T
140.263	19.583	145334	PRACTICE_REC_END	n/a	n/a	n/a	-999	-1	[0, 0, 0]	n/a	FR1	2	R1193T
159.846	0.5	164916	TRIAL	n/a	n/a	n/a	-999	1	[0, 0, 0]	n/a	FR1	2	R1193T
160.346	10.428	165416	COUNTDOWN_START	n/a	n/a	n/a	-999	1	[0, 0, 0]	n/a	FR1	2	R1193T
170.774	0.007	175843	COUNTDOWN_END	n/a	n/a	n/a	-999	1	[0, 0, 0]	n/a	FR1	2	R1193T
170.781	1.617	175850	ORIENT	n/a	n/a	n/a	-999	1	[0, 0, 0]	n/a	FR1	2	R1193T
172.398	1.851	177467	ORIENT_OFF	n/a	n/a	n/a	-999	1	[0, 0, 0]	n/a	FR1	2	R1193T
174.249	1.617	179318	WORD	n/a	wordpools/wordpool_EN.txt	BEE	1	1	[0, 0, 0]	n/a	FR1	2	R1193T
175.866	0.851	180935	WORD_OFF	n/a	n/a	BEE	1	1	[0, 0, 0]	n/a	FR1	2	R1193T
176.717	1.616	181786	WORD	n/a	wordpools/wordpool_EN.txt	LEG	2	1	[0, 0, 0]	n/a	FR1	2	R1193T
178.333	0.917	183402	WORD_OFF	n/a	n/a	LEG	2	1	[0, 0, 0]	n/a	FR1	2	R1193T
179.25	1.617	184319	WORD	n/a	wordpools/wordpool_EN.txt	GLOVE	3	1	[0, 0, 0]	n/a	FR1	2	R1193T
180.867	0.899	185936	WORD_OFF	n/a	n/a	GLOVE	3	1	[0, 0, 0]	n/a	FR1	2	R1193T
181.766	1.618	186835	WORD	n/a	wordpools/wordpool_EN.txt	SKUNK	4	1	[0, 0, 0]	n/a	FR1	2	R1193T
183.384	0.916	188453	WORD_OFF	n/a	n/a	SKUNK	4	1	[0, 0, 0]	n/a	FR1	2	R1193T
184.3	1.617	189369	WORD	n/a	wordpools/wordpool_EN.txt	SHIRT	5	1	[0, 0, 0]	n/a	FR1	2	R1193T
185.917	0.917	190985	WORD_OFF	n/a	n/a	SHIRT	5	1	[0, 0, 0]	n/a	FR1	2	R1193T
186.834	1.617	191902	WORD	n/a	wordpools/wordpool_EN.txt	JAR	6	1	[0, 0, 0]	n/a	FR1	2	R1193T
188.451	0.984	193519	WORD_OFF	n/a	n/a	JAR	6	1	[0, 0, 0]	n/a	FR1	2	R1193T
189.435	1.617	194503	WORD	n/a	wordpools/wordpool_EN.txt	EEL	7	1	[0, 0, 0]	n/a	FR1	2	R1193T
191.052	0.833	196120	WORD_OFF	n/a	n/a	EEL	7	1	[0, 0, 0]	n/a	FR1	2	R1193T
191.885	1.617	196953	WORD	n/a	wordpools/wordpool_EN.txt	DITCH	8	1	[0, 0, 0]	n/a	FR1	2	R1193T
193.502	0.8	198570	WORD_OFF	n/a	n/a	DITCH	8	1	[0, 0, 0]	n/a	FR1	2	R1193T
194.302	1.617	199370	WORD	n/a	wordpools/wordpool_EN.txt	THREAD	9	1	[0, 0, 0]	n/a	FR1	2	R1193T
195.919	0.801	200987	WORD_OFF	n/a	n/a	THREAD	9	1	[0, 0, 0]	n/a	FR1	2	R1193T
196.72	1.616	201788	WORD	n/a	wordpools/wordpool_EN.txt	FOAM	10	1	[0, 0, 0]	n/a	FR1	2	R1193T
198.336	0.934	203404	WORD_OFF	n/a	n/a	FOAM	10	1	[0, 0, 0]	n/a	FR1	2	R1193T
199.27	1.617	204338	WORD	n/a	wordpools/wordpool_EN.txt	LAMP	11	1	[0, 0, 0]	n/a	FR1	2	R1193T
200.887	0.933	205955	WORD_OFF	n/a	n/a	LAMP	11	1	[0, 0, 0]	n/a	FR1	2	R1193T
201.82	1.617	206887	WORD	n/a	wordpools/wordpool_EN.txt	WEB	12	1	[0, 0, 0]	n/a	FR1	2	R1193T
203.437	0.0	208504	WORD_OFF	n/a	n/a	WEB	12	1	[0, 0, 0]	n/a	FR1	2	R1193T
203.437	0.001	208504	DISTRACT_START	n/a	n/a	n/a	-999	1	[0, 0, 0]	n/a	FR1	2	R1193T
203.438	0.016	208505	START	n/a	n/a	n/a	-999	1	[-999, -999, -999]	n/a	FR1	2	R1193T
203.454	12.236	208521	PROB	12.236	n/a	n/a	-999	1	[8, 4, 4]	448	FR1	2	R1193T
215.69	6.217	220757	PROB	6.217	n/a	n/a	-999	1	[1, 5, 4]	154	FR1	2	R1193T
221.907	6.911	226973	PROB	6.911	n/a	n/a	-999	1	[3, 7, 9]	379	FR1	2	R1193T
228.818	0.007	233884	STOP	n/a	n/a	n/a	-999	1	[-999, -999, -999]	n/a	FR1	2	R1193T
228.825	0.517	233891	DISTRACT_END	n/a	n/a	n/a	-999	1	[0, 0, 0]	n/a	FR1	2	R1193T
229.342	0.518	234408	RETRIEVAL_ORIENT	n/a	n/a	n/a	-999	1	[0, 0, 0]	n/a	FR1	2	R1193T
229.86	12.675	234926	REC_START	n/a	n/a	n/a	-999	1	[0, 0, 0]	n/a	FR1	2	R1193T
242.535	8.701	247600	REC_WORD	8.701	n/a	BEE	-999	1	[0, 0, 0]	n/a	FR1	2	R1193T
251.236	8.634	256301	REC_WORD	8.634	n/a	SHIRT	-999	1	[0, 0, 0]	n/a	FR1	2	R1193T
259.87	5.545	264934	REC_END	n/a	n/a	n/a	-999	1	[0, 0, 0]	n/a	FR1	2	R1193T
265.415	0.5	270479	TRIAL	n/a	n/a	n/a	-999	2	[0, 0, 0]	n/a	FR1	2	R1193T
265.915	10.428	270979	COUNTDOWN_START	n/a	n/a	n/a	-999	2	[0, 0, 0]	n/a	FR1	2	R1193T
276.343	0.008	281406	COUNTDOWN_END	n/a	n/a	n/a	-999	2	[0, 0, 0]	n/a	FR1	2	R1193T
276.351	1.616	281414	ORIENT	n/a	n/a	n/a	-999	2	[0, 0, 0]	n/a	FR1	2	R1193T
277.967	2.251	283030	ORIENT_OFF	n/a	n/a	n/a	-999	2	[0, 0, 0]	n/a	FR1	2	R1193T
280.218	1.617	285281	WORD	n/a	wordpools/wordpool_EN.txt	GATE	1	2	[0, 0, 0]	n/a	FR1	2	R1193T
281.835	0.868	286898	WORD_OFF	n/a	n/a	GATE	1	2	[0, 0, 0]	n/a	FR1	2	R1193T
282.703	1.616	287766	WORD	n/a	wordpools/wordpool_EN.txt	TREE	2	2	[0, 0, 0]	n/a	FR1	2	R1193T
284.319	1.0	289382	WORD_OFF	n/a	n/a	TREE	2	2	[0, 0, 0]	n/a	FR1	2	R1193T
285.319	1.617	290381	WORD	n/a	wordpools/wordpool_EN.txt	BUSH	3	2	[0, 0, 0]	n/a	FR1	2	R1193T
286.936	0.883	291998	WORD_OFF	n/a	n/a	BUSH	3	2	[0, 0, 0]	n/a	FR1	2	R1193T
287.819	1.617	292881	WORD	n/a	wordpools/wordpool_EN.txt	LAKE	4	2	[0, 0, 0]	n/a	FR1	2	R1193T
289.436	0.9	294498	WORD_OFF	n/a	n/a	LAKE	4	2	[0, 0, 0]	n/a	FR1	2	R1193T
290.336	1.617	295398	WORD	n/a	wordpools/wordpool_EN.txt	FORT	5	2	[0, 0, 0]	n/a	FR1	2	R1193T
291.953	0.951	297015	WORD_OFF	n/a	n/a	FORT	5	2	[0, 0, 0]	n/a	FR1	2	R1193T
292.904	1.617	297966	WORD	n/a	wordpools/wordpool_EN.txt	SWAMP	6	2	[0, 0, 0]	n/a	FR1	2	R1193T
294.521	0.866	299583	WORD_OFF	n/a	n/a	SWAMP	6	2	[0, 0, 0]	n/a	FR1	2	R1193T
295.387	1.617	300449	WORD	n/a	wordpools/wordpool_EN.txt	BRANCH	7	2	[0, 0, 0]	n/a	FR1	2	R1193T
297.004	0.917	302066	WORD_OFF	n/a	n/a	BRANCH	7	2	[0, 0, 0]	n/a	FR1	2	R1193T
297.921	1.617	302983	WORD	n/a	wordpools/wordpool_EN.txt	DEER	8	2	[0, 0, 0]	n/a	FR1	2	R1193T
299.538	0.983	304600	WORD_OFF	n/a	n/a	DEER	8	2	[0, 0, 0]	n/a	FR1	2	R1193T
300.521	1.618	305583	WORD	n/a	wordpools/wordpool_EN.txt	BIRD	9	2	[0, 0, 0]	n/a	FR1	2	R1193T
302.139	0.816	307200	WORD_OFF	n/a	n/a	BIRD	9	2	[0, 0, 0]	n/a	FR1	2	R1193T
302.955	1.617	308016	WORD	n/a	wordpools/wordpool_EN.txt	DART	10	2	[0, 0, 0]	n/a	FR1	2	R1193T
304.572	0.834	309633	WORD_OFF	n/a	n/a	DART	10	2	[0, 0, 0]	n/a	FR1	2	R1193T
305.406	1.617	310467	WORD	n/a	wordpools/wordpool_EN.txt	VINE	11	2	[0, 0, 0]	n/a	FR1	2	R1193T
307.023	0.9	312084	WORD_OFF	n/a	n/a	VINE	11	2	[0, 0, 0]	n/a	FR1	2	R1193T
307.923	1.617	312984	WORD	n/a	wordpools/wordpool_EN.txt	TAIL	12	2	[0, 0, 0]	n/a	FR1	2	R1193T
309.54	0.0	314601	WORD_OFF	n/a	n/a	TAIL	12	2	[0, 0, 0]	n/a	FR1	2	R1193T
309.54	0.0	314601	DISTRACT_START	n/a	n/a	n/a	-999	2	[0, 0, 0]	n/a	FR1	2	R1193T
309.54	0.017	314601	START	n/a	n/a	n/a	-999	2	[-999, -999, -999]	n/a	FR1	2	R1193T
309.557	9.102	314618	PROB	9.102	n/a	n/a	-999	2	[5, 2, 5]	525	FR1	2	R1193T
318.659	7.184	323719	PROB	7.184	n/a	n/a	-999	2	[2, 5, 1]	251	FR1	2	R1193T
325.843	13.865	330903	PROB	13.865	n/a	n/a	-999	2	[6, 8, 4]	684	FR1	2	R1193T
339.708	0.021	344767	STOP	n/a	n/a	n/a	-999	2	[-999, -999, -999]	n/a	FR1	2	R1193T
339.729	0.599	344788	DISTRACT_END	n/a	n/a	n/a	-999	2	[0, 0, 0]	n/a	FR1	2	R1193T
340.328	0.518	345387	RETRIEVAL_ORIENT	n/a	n/a	n/a	-999	2	[0, 0, 0]	n/a	FR1	2	R1193T
340.846	1.606	345905	REC_START	n/a	n/a	n/a	-999	2	[0, 0, 0]	n/a	FR1	2	R1193T
342.452	2.392	347511	REC_WORD	2.392	n/a	GATE	-999	2	[0, 0, 0]	n/a	FR1	2	R1193T
344.844	4.012	349903	REC_WORD	4.012	n/a	TREE	-999	2	[0, 0, 0]	n/a	FR1	2	R1193T
348.856	5.375	353915	REC_WORD	5.375	n/a	SWAMP	-999	2	[0, 0, 0]	n/a	FR1	2	R1193T
354.231	3.067	359289	REC_WORD	3.067	n/a	LAKE	-999	2	[0, 0, 0]	n/a	FR1	2	R1193T
357.298	13.559	362356	REC_WORD	13.559	n/a	DEER	-999	2	[0, 0, 0]	n/a	FR1	2	R1193T
370.857	5.328	375914	REC_END	n/a	n/a	n/a	-999	2	[0, 0, 0]	n/a	FR1	2	R1193T
376.185	0.5	381242	TRIAL	n/a	n/a	n/a	-999	3	[0, 0, 0]	n/a	FR1	2	R1193T
376.685	10.428	381742	COUNTDOWN_START	n/a	n/a	n/a	-999	3	[0, 0, 0]	n/a	FR1	2	R1193T
387.113	0.008	392169	COUNTDOWN_END	n/a	n/a	n/a	-999	3	[0, 0, 0]	n/a	FR1	2	R1193T
387.121	1.617	392177	ORIENT	n/a	n/a	n/a	-999	3	[0, 0, 0]	n/a	FR1	2	R1193T
388.738	2.1	393794	ORIENT_OFF	n/a	n/a	n/a	-999	3	[0, 0, 0]	n/a	FR1	2	R1193T
390.838	1.617	395894	WORD	n/a	wordpools/wordpool_EN.txt	CANE	1	3	[0, 0, 0]	n/a	FR1	2	R1193T
392.455	0.8	397511	WORD_OFF	n/a	n/a	CANE	1	3	[0, 0, 0]	n/a	FR1	2	R1193T
393.255	1.617	398311	WORD	n/a	wordpools/wordpool_EN.txt	BAND	2	3	[0, 0, 0]	n/a	FR1	2	R1193T
394.872	0.883	399928	WORD_OFF	n/a	n/a	BAND	2	3	[0, 0, 0]	n/a	FR1	2	R1193T
395.755	1.617	400811	WORD	n/a	wordpools/wordpool_EN.txt	WING	3	3	[0, 0, 0]	n/a	FR1	2	R1193T
397.372	1.001	402428	WORD_OFF	n/a	n/a	WING	3	3	[0, 0, 0]	n/a	FR1	2	R1193T
398.373	1.617	403429	WORD	n/a	wordpools/wordpool_EN.txt	PRINCE	4	3	[0, 0, 0]	n/a	FR1	2	R1193T
399.99	0.983	405046	WORD_OFF	n/a	n/a	PRINCE	4	3	[0, 0, 0]	n/a	FR1	2	R1193T
400.973	1.617	406029	WORD	n/a	wordpools/wordpool_EN.txt	MOOSE	5	3	[0, 0, 0]	n/a	FR1	2	R1193T
402.59	0.767	407645	WORD_OFF	n/a	n/a	MOOSE	5	3	[0, 0, 0]	n/a	FR1	2	R1193T
403.357	1.617	408412	WORD	n/a	wordpools/wordpool_EN.txt	EAR	6	3	[0, 0, 0]	n/a	FR1	2	R1193T
404.974	0.867	410029	WORD_OFF	n/a	n/a	EAR	6	3	[0, 0, 0]	n/a	FR1	2	R1193T
405.841	1.617	410896	WORD	n/a	wordpools/wordpool_EN.txt	MOON	7	3	[0, 0, 0]	n/a	FR1	2	R1193T
407.458	0.833	412513	WORD_OFF	n/a	n/a	MOON	7	3	[0, 0, 0]	n/a	FR1	2	R1193T
408.291	1.617	413346	WORD	n/a	wordpools/wordpool_EN.txt	CROW	8	3	[0, 0, 0]	n/a	FR1	2	R1193T
409.908	0.967	414963	WORD_OFF	n/a	n/a	CROW	8	3	[0, 0, 0]	n/a	FR1	2	R1193T
410.875	1.617	415930	WORD	n/a	wordpools/wordpool_EN.txt	BOMB	9	3	[0, 0, 0]	n/a	FR1	2	R1193T
412.492	0.767	417547	WORD_OFF	n/a	n/a	BOMB	9	3	[0, 0, 0]	n/a	FR1	2	R1193T
413.259	1.617	418314	WORD	n/a	wordpools/wordpool_EN.txt	CLOTH	10	3	[0, 0, 0]	n/a	FR1	2	R1193T
414.876	0.916	419931	WORD_OFF	n/a	n/a	CLOTH	10	3	[0, 0, 0]	n/a	FR1	2	R1193T
415.792	1.617	420847	WORD	n/a	wordpools/wordpool_EN.txt	CROWN	11	3	[0, 0, 0]	n/a	FR1	2	R1193T
417.409	1.017	422464	WORD_OFF	n/a	n/a	CROWN	11	3	[0, 0, 0]	n/a	FR1	2	R1193T
418.426	1.617	423481	WORD	n/a	wordpools/wordpool_EN.txt	CHIEF	12	3	[0, 0, 0]	n/a	FR1	2	R1193T
420.043	0.0	425097	WORD_OFF	n/a	n/a	CHIEF	12	3	[0, 0, 0]	n/a	FR1	2	R1193T
420.043	0.001	425097	DISTRACT_START	n/a	n/a	n/a	-999	3	[0, 0, 0]	n/a	FR1	2	R1193T
420.044	0.016	425098	START	n/a	n/a	n/a	-999	3	[-999, -999, -999]	n/a	FR1	2	R1193T
420.06	20.703	425114	PROB	20.703	n/a	n/a	-999	3	[3, 1, 2]	3144	FR1	2	R1193T
440.763	0.017	445816	STOP	n/a	n/a	n/a	-999	3	[-999, -999, -999]	n/a	FR1	2	R1193T
440.78	0.65	445833	DISTRACT_END	n/a	n/a	n/a	-999	3	[0, 0, 0]	n/a	FR1	2	R1193T
441.43	0.518	446483	RETRIEVAL_ORIENT	n/a	n/a	n/a	-999	3	[0, 0, 0]	n/a	FR1	2	R1193T
441.948	4.159	447001	REC_START	n/a	n/a	n/a	-999	3	[0, 0, 0]	n/a	FR1	2	R1193T
446.107	2.297	451160	REC_WORD	2.297	n/a	MOOSE	-999	3	[0, 0, 0]	n/a	FR1	2	R1193T
448.404	9.814	453457	REC_WORD	9.814	n/a	MOON	-999	3	[0, 0, 0]	n/a	FR1	2	R1193T
458.218	13.74	463270	REC_WORD	13.74	n/a	CROWN	-999	3	[0, 0, 0]	n/a	FR1	2	R1193T
471.958	4.946	477009	REC_END	n/a	n/a	n/a	-999	3	[0, 0, 0]	n/a	FR1	2	R1193T
476.904	0.5	481955	TRIAL	n/a	n/a	n/a	-999	4	[0, 0, 0]	n/a	FR1	2	R1193T
477.404	10.428	482455	COUNTDOWN_START	n/a	n/a	n/a	-999	4	[0, 0, 0]	n/a	FR1	2	R1193T
487.832	0.007	492882	COUNTDOWN_END	n/a	n/a	n/a	-999	4	[0, 0, 0]	n/a	FR1	2	R1193T
487.839	1.617	492889	ORIENT	n/a	n/a	n/a	-999	4	[0, 0, 0]	n/a	FR1	2	R1193T
489.456	1.967	494506	ORIENT_OFF	n/a	n/a	n/a	-999	4	[0, 0, 0]	n/a	FR1	2	R1193T
491.423	1.617	496473	WORD	n/a	wordpools/wordpool_EN.txt	TIE	1	4	[0, 0, 0]	n/a	FR1	2	R1193T
493.04	0.8	498090	WORD_OFF	n/a	n/a	TIE	1	4	[0, 0, 0]	n/a	FR1	2	R1193T
493.84	1.617	498890	WORD	n/a	wordpools/wordpool_EN.txt	LEAF	2	4	[0, 0, 0]	n/a	FR1	2	R1193T
495.457	0.95	500507	WORD_OFF	n/a	n/a	LEAF	2	4	[0, 0, 0]	n/a	FR1	2	R1193T
496.407	1.617	501457	WORD	n/a	wordpools/wordpool_EN.txt	BADGE	3	4	[0, 0, 0]	n/a	FR1	2	R1193T
498.024	0.817	503074	WORD_OFF	n/a	n/a	BADGE	3	4	[0, 0, 0]	n/a	FR1	2	R1193T
498.841	1.617	503891	WORD	n/a	wordpools/wordpool_EN.txt	STEM	4	4	[0, 0, 0]	n/a	FR1	2	R1193T
500.458	0.85	505508	WORD_OFF	n/a	n/a	STEM	4	4	[0, 0, 0]	n/a	FR1	2	R1193T
501.308	1.617	506358	WORD	n/a	wordpools/wordpool_EN.txt	RAKE	5	4	[0, 0, 0]	n/a	FR1	2	R1193T
502.925	0.884	507974	WORD_OFF	n/a	n/a	RAKE	5	4	[0, 0, 0]	n/a	FR1	2	R1193T
503.809	1.616	508858	WORD	n/a	wordpools/wordpool_EN.txt	LOCK	6	4	[0, 0, 0]	n/a	FR1	2	R1193T
505.425	0.884	510474	WORD_OFF	n/a	n/a	LOCK	6	4	[0, 0, 0]	n/a	FR1	2	R1193T
506.309	1.617	511358	WORD	n/a	wordpools/wordpool_EN.txt	KEY	7	4	[0, 0, 0]	n/a	FR1	2	R1193T
507.926	0.833	512975	WORD_OFF	n/a	n/a	KEY	7	4	[0, 0, 0]	n/a	FR1	2	R1193T
508.759	1.617	513808	WORD	n/a	wordpools/wordpool_EN.txt	CAR	8	4	[0, 0, 0]	n/a	FR1	2	R1193T
510.376	1.0	515425	WORD_OFF	n/a	n/a	CAR	8	4	[0, 0, 0]	n/a	FR1	2	R1193T
511.376	1.617	516425	WORD	n/a	wordpools/wordpool_EN.txt	ELF	9	4	[0, 0, 0]	n/a	FR1	2	R1193T
512.993	0.951	518042	WORD_OFF	n/a	n/a	ELF	9	4	[0, 0, 0]	n/a	FR1	2	R1193T
513.944	1.617	518993	WORD	n/a	wordpools/wordpool_EN.txt	PARK	10	4	[0, 0, 0]	n/a	FR1	2	R1193T
515.561	0.766	520610	WORD_OFF	n/a	n/a	PARK	10	4	[0, 0, 0]	n/a	FR1	2	R1193T
516.327	1.617	521376	WORD	n/a	wordpools/wordpool_EN.txt	JAIL	11	4	[0, 0, 0]	n/a	FR1	2	R1193T
517.944	0.851	522993	WORD_OFF	n/a	n/a	JAIL	11	4	[0, 0, 0]	n/a	FR1	2	R1193T
518.795	1.616	523844	WORD	n/a	wordpools/wordpool_EN.txt	ROOT	12	4	[0, 0, 0]	n/a	FR1	2	R1193T
520.411	0.0	525459	WORD_OFF	n/a	n/a	ROOT	12	4	[0, 0, 0]	n/a	FR1	2	R1193T
520.411	0.001	525459	DISTRACT_START	n/a	n/a	n/a	-999	4	[0, 0, 0]	n/a	FR1	2	R1193T
520.412	0.016	525460	START	n/a	n/a	n/a	-999	4	[-999, -999, -999]	n/a	FR1	2	R1193T
520.428	19.57	525476	PROB	19.57	n/a	n/a	-999	4	[3, 5, 9]	359	FR1	2	R1193T
539.998	14.711	545045	PROB	14.711	n/a	n/a	-999	4	[5, 7, 2]	777	FR1	2	R1193T
554.709	0.01	559755	STOP	n/a	n/a	n/a	-999	4	[-999, -999, -999]	n/a	FR1	2	R1193T
554.719	0.599	559765	DISTRACT_END	n/a	n/a	n/a	-999	4	[0, 0, 0]	n/a	FR1	2	R1193T
555.318	0.517	560364	RETRIEVAL_ORIENT	n/a	n/a	n/a	-999	4	[0, 0, 0]	n/a	FR1	2	R1193T
555.835	3.314	560881	REC_START	n/a	n/a	n/a	-999	4	[0, 0, 0]	n/a	FR1	2	R1193T
559.149	2.025	564195	REC_WORD	2.025	n/a	KEY	-999	4	[0, 0, 0]	n/a	FR1	2	R1193T
561.174	2.158	566220	REC_WORD	2.158	n/a	LOCK	-999	4	[0, 0, 0]	n/a	FR1	2	R1193T
563.332	2.778	568378	REC_WORD	2.778	n/a	CAR	-999	4	[0, 0, 0]	n/a	FR1	2	R1193T
566.11	2.818	571156	REC_WORD	2.818	n/a	PARK	-999	4	[0, 0, 0]	n/a	FR1	2	R1193T
568.928	16.92	573974	REC_WORD	16.92	n/a	JAIL	-999	4	[0, 0, 0]	n/a	FR1	2	R1193T
585.848	11.677	590893	REC_END	n/a	n/a	n/a	-999	4	[0, 0, 0]	n/a	FR1	2	R1193T
597.525	0.5	602569	TRIAL	n/a	n/a	n/a	-999	5	[0, 0, 0]	n/a	FR1	2	R1193T
598.025	10.428	603069	COUNTDOWN_START	n/a	n/a	n/a	-999	5	[0, 0, 0]	n/a	FR1	2	R1193T
608.453	0.008	613496	COUNTDOWN_END	n/a	n/a	n/a	-999	5	[0, 0, 0]	n/a	FR1	2	R1193T
608.461	1.617	613504	ORIENT	n/a	n/a	n/a	-999	5	[0, 0, 0]	n/a	FR1	2	R1193T
610.078	2.117	615121	ORIENT_OFF	n/a	n/a	n/a	-999	5	[0, 0, 0]	n/a	FR1	2	R1193T
612.195	1.617	617238	WORD	n/a	wordpools/wordpool_EN.txt	NAIL	1	5	[0, 0, 0]	n/a	FR1	2	R1193T
613.812	0.8	618855	WORD_OFF	n/a	n/a	NAIL	1	5	[0, 0, 0]	n/a	FR1	2	R1193T
614.612	1.617	619655	WORD	n/a	wordpools/wordpool_EN.txt	WORLD	2	5	[0, 0, 0]	n/a	FR1	2	R1193T
616.229	0.767	621272	WORD_OFF	n/a	n/a	WORLD	2	5	[0, 0, 0]	n/a	FR1	2	R1193T
616.996	1.617	622039	WORD	n/a	wordpools/wordpool_EN.txt	SHIP	3	5	[0, 0, 0]	n/a	FR1	2	R1193T
618.613	0.983	623656	WORD_OFF	n/a	n/a	SHIP	3	5	[0, 0, 0]	n/a	FR1	2	R1193T
619.596	1.617	624639	WORD	n/a	wordpools/wordpool_EN.txt	BRIDGE	4	5	[0, 0, 0]	n/a	FR1	2	R1193T
621.213	0.984	626255	WORD_OFF	n/a	n/a	BRIDGE	4	5	[0, 0, 0]	n/a	FR1	2	R1193T
622.197	1.617	627239	WORD	n/a	wordpools/wordpool_EN.txt	CAPE	5	5	[0, 0, 0]	n/a	FR1	2	R1193T
623.814	1.0	628856	WORD_OFF	n/a	n/a	CAPE	5	5	[0, 0, 0]	n/a	FR1	2	R1193T
624.814	1.617	629856	WORD	n/a	wordpools/wordpool_EN.txt	BRUSH	6	5	[0, 0, 0]	n/a	FR1	2	R1193T
626.431	0.917	631473	WORD_OFF	n/a	n/a	BRUSH	6	5	[0, 0, 0]	n/a	FR1	2	R1193T
627.348	1.617	632390	WORD	n/a	wordpools/wordpool_EN.txt	POLE	7	5	[0, 0, 0]	n/a	FR1	2	R1193T
628.965	0.883	634007	WORD_OFF	n/a	n/a	POLE	7	5	[0, 0, 0]	n/a	FR1	2	R1193T
629.848	1.617	634890	WORD	n/a	wordpools/wordpool_EN.txt	DOCK	8	5	[0, 0, 0]	n/a	FR1	2	R1193T
631.465	0.883	636507	WORD_OFF	n/a	n/a	DOCK	8	5	[0, 0, 0]	n/a	FR1	2	R1193T
632.348	1.617	637390	WORD	n/a	wordpools/wordpool_EN.txt	HOOK	9	5	[0, 0, 0]	n/a	FR1	2	R1193T
633.965	0.884	639007	WORD_OFF	n/a	n/a	HOOK	9	5	[0, 0, 0]	n/a	FR1	2	R1193T
634.849	1.617	639891	WORD	n/a	wordpools/wordpool_EN.txt	STEAM	10	5	[0, 0, 0]	n/a	FR1	2	R1193T
636.466	0.867	641507	WORD_OFF	n/a	n/a	STEAM	10	5	[0, 0, 0]	n/a	FR1	2	R1193T
637.333	1.617	642374	WORD	n/a	wordpools/wordpool_EN.txt	SWORD	11	5	[0, 0, 0]	n/a	FR1	2	R1193T
638.95	0.933	643991	WORD_OFF	n/a	n/a	SWORD	11	5	[0, 0, 0]	n/a	FR1	2	R1193T
639.883	1.617	644924	WORD	n/a	wordpools/wordpool_EN.txt	FOG	12	5	[0, 0, 0]	n/a	FR1	2	R1193T
641.5	0.0	646541	WORD_OFF	n/a	n/a	FOG	12	5	[0, 0, 0]	n/a	FR1	2	R1193T
641.5	0.001	646541	DISTRACT_START	n/a	n/a	n/a	-999	5	[0, 0, 0]	n/a	FR1	2	R1193T
641.501	0.016	646542	START	n/a	n/a	n/a	-999	5	[-999, -999, -999]	n/a	FR1	2	R1193T
641.517	15.003	646558	PROB	15.003	n/a	n/a	-999	5	[1, 3, 6]	136	FR1	2	R1193T
656.52	4.767	661560	PROB	4.767	n/a	n/a	-999	5	[9, 8, 1]	780	FR1	2	R1193T
661.287	3.389	666327	PROB	3.389	n/a	n/a	-999	5	[7, 6, 3]	90	FR1	2	R1193T
664.676	0.013	669716	STOP	n/a	n/a	n/a	-999	5	[-999, -999, -999]	n/a	FR1	2	R1193T
664.689	0.632	669729	DISTRACT_END	n/a	n/a	n/a	-999	5	[0, 0, 0]	n/a	FR1	2	R1193T
665.321	0.518	670361	RETRIEVAL_ORIENT	n/a	n/a	n/a	-999	5	[0, 0, 0]	n/a	FR1	2	R1193T
665.839	3.768	670879	REC_START	n/a	n/a	n/a	-999	5	[0, 0, 0]	n/a	FR1	2	R1193T
669.607	4.358	674647	REC_WORD	4.358	n/a	DUCK	-999	5	[0, 0, 0]	n/a	FR1	2	R1193T
673.965	21.884	679004	REC_WORD	21.884	n/a	HOOK	-999	5	[0, 0, 0]	n/a	FR1	2	R1193T
695.849	21.882	700887	REC_END	n/a	n/a	n/a	-999	5	[0, 0, 0]	n/a	FR1	2	R1193T
717.731	0.5	722768	TRIAL	n/a	n/a	n/a	-999	6	[0, 0, 0]	n/a	FR1	2	R1193T
718.231	10.428	723268	COUNTDOWN_START	n/a	n/a	n/a	-999	6	[0, 0, 0]	n/a	FR1	2	R1193T
728.659	0.008	733695	COUNTDOWN_END	n/a	n/a	n/a	-999	6	[0, 0, 0]	n/a	FR1	2	R1193T
728.667	1.616	733703	ORIENT	n/a	n/a	n/a	-999	6	[0, 0, 0]	n/a	FR1	2	R1193T
730.283	2.033	735319	ORIENT_OFF	n/a	n/a	n/a	-999	6	[0, 0, 0]	n/a	FR1	2	R1193T
732.316	1.618	737352	WORD	n/a	wordpools/wordpool_EN.txt	DRESS	1	6	[0, 0, 0]	n/a	FR1	2	R1193T
733.934	0.767	738970	WORD_OFF	n/a	n/a	DRESS	1	6	[0, 0, 0]	n/a	FR1	2	R1193T
734.701	1.616	739737	WORD	n/a	wordpools/wordpool_EN.txt	BAG	2	6	[0, 0, 0]	n/a	FR1	2	R1193T
736.317	1.0	741353	WORD_OFF	n/a	n/a	BAG	2	6	[0, 0, 0]	n/a	FR1	2	R1193T
737.317	1.617	742352	WORD	n/a	wordpools/wordpool_EN.txt	ROOM	3	6	[0, 0, 0]	n/a	FR1	2	R1193T
738.934	0.951	743969	WORD_OFF	n/a	n/a	ROOM	3	6	[0, 0, 0]	n/a	FR1	2	R1193T
739.885	1.617	744920	WORD	n/a	wordpools/wordpool_EN.txt	STICK	4	6	[0, 0, 0]	n/a	FR1	2	R1193T
741.502	0.9	746537	WORD_OFF	n/a	n/a	STICK	4	6	[0, 0, 0]	n/a	FR1	2	R1193T
742.402	1.617	747437	WORD	n/a	wordpools/wordpool_EN.txt	ARM	5	6	[0, 0, 0]	n/a	FR1	2	R1193T
744.019	0.8	749054	WORD_OFF	n/a	n/a	ARM	5	6	[0, 0, 0]	n/a	FR1	2	R1193T
744.819	1.617	749854	WORD	n/a	wordpools/wordpool_EN.txt	MAT	6	6	[0, 0, 0]	n/a	FR1	2	R1193T
746.436	0.767	751471	WORD_OFF	n/a	n/a	MAT	6	6	[0, 0, 0]	n/a	FR1	2	R1193T
747.203	1.617	752238	WORD	n/a	wordpools/wordpool_EN.txt	SUIT	7	6	[0, 0, 0]	n/a	FR1	2	R1193T
748.82	0.817	753855	WORD_OFF	n/a	n/a	SUIT	7	6	[0, 0, 0]	n/a	FR1	2	R1193T
749.637	1.616	754672	WORD	n/a	wordpools/wordpool_EN.txt	SOCK	8	6	[0, 0, 0]	n/a	FR1	2	R1193T
751.253	0.967	756288	WORD_OFF	n/a	n/a	SOCK	8	6	[0, 0, 0]	n/a	FR1	2	R1193T
752.22	1.617	757255	WORD	n/a	wordpools/wordpool_EN.txt	YARD	9	6	[0, 0, 0]	n/a	FR1	2	R1193T
753.837	0.95	758871	WORD_OFF	n/a	n/a	YARD	9	6	[0, 0, 0]	n/a	FR1	2	R1193T
754.787	1.617	759821	WORD	n/a	wordpools/wordpool_EN.txt	BATH	10	6	[0, 0, 0]	n/a	FR1	2	R1193T
756.404	0.834	761438	WORD_OFF	n/a	n/a	BATH	10	6	[0, 0, 0]	n/a	FR1	2	R1193T
757.238	1.617	762272	WORD	n/a	wordpools/wordpool_EN.txt	APE	11	6	[0, 0, 0]	n/a	FR1	2	R1193T
758.855	0.818	763889	WORD_OFF	n/a	n/a	APE	11	6	[0, 0, 0]	n/a	FR1	2	R1193T
759.673	1.616	764707	WORD	n/a	wordpools/wordpool_EN.txt	HOUSE	12	6	[0, 0, 0]	n/a	FR1	2	R1193T
761.289	0.0	766323	WORD_OFF	n/a	n/a	HOUSE	12	6	[0, 0, 0]	n/a	FR1	2	R1193T
761.289	0.0	766323	DISTRACT_START	n/a	n/a	n/a	-999	6	[0, 0, 0]	n/a	FR1	2	R1193T
761.289	0.016	766323	START	n/a	n/a	n/a	-999	6	[-999, -999, -999]	n/a	FR1	2	R1193T
761.305	7.468	766339	PROB	7.468	n/a	n/a	-999	6	[9, 8, 6]	890	FR1	2	R1193T
768.773	3.301	773807	PROB	3.301	n/a	n/a	-999	6	[1, 2, 3]	890	FR1	2	R1193T
772.074	3.3	777107	PROB	3.3	n/a	n/a	-999	6	[4, 6, 8]	890	FR1	2	R1193T
775.374	3.818	780407	PROB	3.818	n/a	n/a	-999	6	[2, 9, 3]	890	FR1	2	R1193T
779.192	3.34	784225	PROB	3.34	n/a	n/a	-999	6	[9, 3, 9]	890	FR1	2	R1193T
782.532	0.01	787565	STOP	n/a	n/a	n/a	-999	6	[-999, -999, -999]	n/a	FR1	2	R1193T
782.542	0.634	787575	DISTRACT_END	n/a	n/a	n/a	-999	6	[0, 0, 0]	n/a	FR1	2	R1193T
783.176	0.518	788209	RETRIEVAL_ORIENT	n/a	n/a	n/a	-999	6	[0, 0, 0]	n/a	FR1	2	R1193T
783.694	7.937	788727	REC_START	n/a	n/a	n/a	-999	6	[0, 0, 0]	n/a	FR1	2	R1193T
791.631	3.26	796663	REC_WORD	3.26	n/a	DRESS	-999	6	[0, 0, 0]	n/a	FR1	2	R1193T
794.891	0.87	799923	REC_WORD	0.87	n/a	ROOM	-999	6	[0, 0, 0]	n/a	FR1	2	R1193T
795.761	1.783	800793	REC_WORD	1.783	n/a	HOME	-999	6	[0, 0, 0]	n/a	FR1	2	R1193T
797.544	15.406	802576	REC_WORD	15.406	n/a	ARM	-999	6	[0, 0, 0]	n/a	FR1	2	R1193T
812.95	0.754	817981	REC_WORD	0.754	n/a	BAG	-999	6	[0, 0, 0]	n/a	FR1	2	R1193T
813.704	7.013	818735	REC_END	n/a	n/a	n/a	-999	6	[0, 0, 0]	n/a	FR1	2	R1193T
820.717	0.5	825747	TRIAL	n/a	n/a	n/a	-999	7	[0, 0, 0]	n/a	FR1	2	R1193T
821.217	10.428	826247	COUNTDOWN_START	n/a	n/a	n/a	-999	7	[0, 0, 0]	n/a	FR1	2	R1193T
831.645	0.007	836675	COUNTDOWN_END	n/a	n/a	n/a	-999	7	[0, 0, 0]	n/a	FR1	2	R1193T
831.652	1.616	836682	ORIENT	n/a	n/a	n/a	-999	7	[0, 0, 0]	n/a	FR1	2	R1193T
833.268	2.101	838298	ORIENT_OFF	n/a	n/a	n/a	-999	7	[0, 0, 0]	n/a	FR1	2	R1193T
835.369	1.617	840399	WORD	n/a	wordpools/wordpool_EN.txt	BEAN	1	7	[0, 0, 0]	n/a	FR1	2	R1193T
836.986	0.917	842016	WORD_OFF	n/a	n/a	BEAN	1	7	[0, 0, 0]	n/a	FR1	2	R1193T
837.903	1.616	842932	WORD	n/a	wordpools/wordpool_EN.txt	OWL	2	7	[0, 0, 0]	n/a	FR1	2	R1193T
839.519	0.817	844548	WORD_OFF	n/a	n/a	OWL	2	7	[0, 0, 0]	n/a	FR1	2	R1193T
840.336	1.617	845365	WORD	n/a	wordpools/wordpool_EN.txt	MOUSE	3	7	[0, 0, 0]	n/a	FR1	2	R1193T
841.953	0.768	846982	WORD_OFF	n/a	n/a	MOUSE	3	7	[0, 0, 0]	n/a	FR1	2	R1193T
842.721	1.616	847750	WORD	n/a	wordpools/wordpool_EN.txt	ANT	4	7	[0, 0, 0]	n/a	FR1	2	R1193T
844.337	0.817	849366	WORD_OFF	n/a	n/a	ANT	4	7	[0, 0, 0]	n/a	FR1	2	R1193T
845.154	1.617	850183	WORD	n/a	wordpools/wordpool_EN.txt	SNAIL	5	7	[0, 0, 0]	n/a	FR1	2	R1193T
846.771	0.901	851800	WORD_OFF	n/a	n/a	SNAIL	5	7	[0, 0, 0]	n/a	FR1	2	R1193T
847.672	1.616	852701	WORD	n/a	wordpools/wordpool_EN.txt	ARK	6	7	[0, 0, 0]	n/a	FR1	2	R1193T
849.288	1.017	854317	WORD_OFF	n/a	n/a	ARK	6	7	[0, 0, 0]	n/a	FR1	2	R1193T
850.305	1.617	855334	WORD	n/a	wordpools/wordpool_EN.txt	FLEA	7	7	[0, 0, 0]	n/a	FR1	2	R1193T
851.922	1.0	856951	WORD_OFF	n/a	n/a	FLEA	7	7	[0, 0, 0]	n/a	FR1	2	R1193T
852.922	1.617	857951	WORD	n/a	wordpools/wordpool_EN.txt	FOX	8	7	[0, 0, 0]	n/a	FR1	2	R1193T
854.539	0.95	859567	WORD_OFF	n/a	n/a	FOX	8	7	[0, 0, 0]	n/a	FR1	2	R1193T
855.489	1.617	860517	WORD	n/a	wordpools/wordpool_EN.txt	DOG	9	7	[0, 0, 0]	n/a	FR1	2	R1193T
857.106	0.767	862134	WORD_OFF	n/a	n/a	DOG	9	7	[0, 0, 0]	n/a	FR1	2	R1193T
857.873	1.617	862901	WORD	n/a	wordpools/wordpool_EN.txt	WOLF	10	7	[0, 0, 0]	n/a	FR1	2	R1193T
859.49	0.867	864518	WORD_OFF	n/a	n/a	WOLF	10	7	[0, 0, 0]	n/a	FR1	2	R1193T
860.357	1.617	865385	WORD	n/a	wordpools/wordpool_EN.txt	LAMB	11	7	[0, 0, 0]	n/a	FR1	2	R1193T
861.974	0.833	867002	WORD_OFF	n/a	n/a	LAMB	11	7	[0, 0, 0]	n/a	FR1	2	R1193T
862.807	1.617	867835	WORD	n/a	wordpools/wordpool_EN.txt	NEST	12	7	[0, 0, 0]	n/a	FR1	2	R1193T
864.424	0.0	869452	WORD_OFF	n/a	n/a	NEST	12	7	[0, 0, 0]	n/a	FR1	2	R1193T
864.424	0.001	869452	DISTRACT_START	n/a	n/a	n/a	-999	7	[0, 0, 0]	n/a	FR1	2	R1193T
864.425	0.016	869453	START	n/a	n/a	n/a	-999	7	[-999, -999, -999]	n/a	FR1	2	R1193T
864.441	8.068	869469	PROB	8.068	n/a	n/a	-999	7	[5, 1, 7]	517	FR1	2	R1193T
872.509	7.051	877536	PROB	7.051	n/a	n/a	-999	7	[8, 7, 4]	874	FR1	2	R1193T
879.56	8.186	884587	PROB	8.186	n/a	n/a	-999	7	[1, 9, 9]	199	FR1	2	R1193T
887.746	0.016	892772	STOP	n/a	n/a	n/a	-999	7	[-999, -999, -999]	n/a	FR1	2	R1193T
887.762	0.666	892788	DISTRACT_END	n/a	n/a	n/a	-999	7	[0, 0, 0]	n/a	FR1	2	R1193T
888.428	0.518	893454	RETRIEVAL_ORIENT	n/a	n/a	n/a	-999	7	[0, 0, 0]	n/a	FR1	2	R1193T
888.946	7.154	893972	REC_START	n/a	n/a	n/a	-999	7	[0, 0, 0]	n/a	FR1	2	R1193T
896.1	2.784	901126	REC_WORD	2.784	n/a	BEAN	-999	7	[0, 0, 0]	n/a	FR1	2	R1193T
898.884	2.252	903910	REC_WORD	2.252	n/a	OWL	-999	7	[0, 0, 0]	n/a	FR1	2	R1193T
901.136	0.808	906162	REC_WORD	0.808	n/a	FLEA	-999	7	[0, 0, 0]	n/a	FR1	2	R1193T
901.944	17.011	906970	REC_WORD	17.011	n/a	WOLF	-999	7	[0, 0, 0]	n/a	FR1	2	R1193T
918.955	5.28	923980	REC_END	n/a	n/a	n/a	-999	7	[0, 0, 0]	n/a	FR1	2	R1193T
924.235	0.5	929259	TRIAL	n/a	n/a	n/a	-999	8	[0, 0, 0]	n/a	FR1	2	R1193T
924.735	10.428	929759	COUNTDOWN_START	n/a	n/a	n/a	-999	8	[0, 0, 0]	n/a	FR1	2	R1193T
935.163	0.007	940187	COUNTDOWN_END	n/a	n/a	n/a	-999	8	[0, 0, 0]	n/a	FR1	2	R1193T
935.17	1.617	940194	ORIENT	n/a	n/a	n/a	-999	8	[0, 0, 0]	n/a	FR1	2	R1193T
936.787	1.95	941811	ORIENT_OFF	n/a	n/a	n/a	-999	8	[0, 0, 0]	n/a	FR1	2	R1193T
938.737	1.617	943760	WORD	n/a	wordpools/wordpool_EN.txt	HEN	1	8	[0, 0, 0]	n/a	FR1	2	R1193T
940.354	0.851	945377	WORD_OFF	n/a	n/a	HEN	1	8	[0, 0, 0]	n/a	FR1	2	R1193T
941.205	1.617	946228	WORD	n/a	wordpools/wordpool_EN.txt	CALF	2	8	[0, 0, 0]	n/a	FR1	2	R1193T
942.822	0.916	947845	WORD_OFF	n/a	n/a	CALF	2	8	[0, 0, 0]	n/a	FR1	2	R1193T
943.738	1.617	948761	WORD	n/a	wordpools/wordpool_EN.txt	STREET	3	8	[0, 0, 0]	n/a	FR1	2	R1193T
945.355	0.984	950378	WORD_OFF	n/a	n/a	STREET	3	8	[0, 0, 0]	n/a	FR1	2	R1193T
946.339	1.617	951362	WORD	n/a	wordpools/wordpool_EN.txt	TENT	4	8	[0, 0, 0]	n/a	FR1	2	R1193T
947.956	0.85	952979	WORD_OFF	n/a	n/a	TENT	4	8	[0, 0, 0]	n/a	FR1	2	R1193T
948.806	1.617	953829	WORD	n/a	wordpools/wordpool_EN.txt	KITE	5	8	[0, 0, 0]	n/a	FR1	2	R1193T
950.423	0.766	955446	WORD_OFF	n/a	n/a	KITE	5	8	[0, 0, 0]	n/a	FR1	2	R1193T
951.189	1.618	956212	WORD	n/a	wordpools/wordpool_EN.txt	CLOWN	6	8	[0, 0, 0]	n/a	FR1	2	R1193T
952.807	0.884	957830	WORD_OFF	n/a	n/a	CLOWN	6	8	[0, 0, 0]	n/a	FR1	2	R1193T
953.691	1.616	958714	WORD	n/a	wordpools/wordpool_EN.txt	SHEEP	7	8	[0, 0, 0]	n/a	FR1	2	R1193T
955.307	1.017	960329	WORD_OFF	n/a	n/a	SHEEP	7	8	[0, 0, 0]	n/a	FR1	2	R1193T
956.324	1.617	961346	WORD	n/a	wordpools/wordpool_EN.txt	BED	8	8	[0, 0, 0]	n/a	FR1	2	R1193T
957.941	0.85	962963	WORD_OFF	n/a	n/a	BED	8	8	[0, 0, 0]	n/a	FR1	2	R1193T
958.791	1.617	963813	WORD	n/a	wordpools/wordpool_EN.txt	ZOO	9	8	[0, 0, 0]	n/a	FR1	2	R1193T
960.408	0.85	965430	WORD_OFF	n/a	n/a	ZOO	9	8	[0, 0, 0]	n/a	FR1	2	R1193T
961.258	1.617	966280	WORD	n/a	wordpools/wordpool_EN.txt	FUR	10	8	[0, 0, 0]	n/a	FR1	2	R1193T
962.875	0.768	967897	WORD_OFF	n/a	n/a	FUR	10	8	[0, 0, 0]	n/a	FR1	2	R1193T
963.643	1.616	968665	WORD	n/a	wordpools/wordpool_EN.txt	BOY	11	8	[0, 0, 0]	n/a	FR1	2	R1193T
965.259	0.85	970281	WORD_OFF	n/a	n/a	BOY	11	8	[0, 0, 0]	n/a	FR1	2	R1193T
966.109	1.618	971131	WORD	n/a	wordpools/wordpool_EN.txt	BEAR	12	8	[0, 0, 0]	n/a	FR1	2	R1193T
967.727	0.0	972749	DISTRACT_START	n/a	n/a	n/a	-999	8	[0, 0, 0]	n/a	FR1	2	R1193T
967.727	0.001	972749	WORD_OFF	n/a	n/a	BEAR	12	8	[0, 0, 0]	n/a	FR1	2	R1193T
967.728	0.015	972750	START	n/a	n/a	n/a	-999	8	[-999, -999, -999]	n/a	FR1	2	R1193T
967.743	24.804	972765	PROB	24.804	n/a	n/a	-999	8	[4, 7, 9]	479	FR1	2	R1193T
992.547	0.017	997567	STOP	n/a	n/a	n/a	-999	8	[-999, -999, -999]	n/a	FR1	2	R1193T
992.564	0.6	997584	DISTRACT_END	n/a	n/a	n/a	-999	8	[0, 0, 0]	n/a	FR1	2	R1193T
993.164	0.518	998184	RETRIEVAL_ORIENT	n/a	n/a	n/a	-999	8	[0, 0, 0]	n/a	FR1	2	R1193T
993.682	5.641	998702	REC_START	n/a	n/a	n/a	-999	8	[0, 0, 0]	n/a	FR1	2	R1193T
999.323	0.535	1004343	REC_WORD	0.535	n/a	ZOO	-999	8	[0, 0, 0]	n/a	FR1	2	R1193T
999.858	2.596	1004878	REC_WORD	2.596	n/a	CLOWN	-999	8	[0, 0, 0]	n/a	FR1	2	R1193T
1002.454	21.237	1007474	REC_WORD	21.237	n/a	BED	-999	8	[0, 0, 0]	n/a	FR1	2	R1193T
1023.691	5.596	1028709	REC_END	n/a	n/a	n/a	-999	8	[0, 0, 0]	n/a	FR1	2	R1193T
1029.287	0.5	1034305	TRIAL	n/a	n/a	n/a	-999	9	[0, 0, 0]	n/a	FR1	2	R1193T
1029.787	10.428	1034805	COUNTDOWN_START	n/a	n/a	n/a	-999	9	[0, 0, 0]	n/a	FR1	2	R1193T
1040.215	0.008	1045232	COUNTDOWN_END	n/a	n/a	n/a	-999	9	[0, 0, 0]	n/a	FR1	2	R1193T
1040.223	1.617	1045240	ORIENT	n/a	n/a	n/a	-999	9	[0, 0, 0]	n/a	FR1	2	R1193T
1041.84	2.317	1046857	ORIENT_OFF	n/a	n/a	n/a	-999	9	[0, 0, 0]	n/a	FR1	2	R1193T
1044.157	1.617	1049174	WORD	n/a	wordpools/wordpool_EN.txt	FACE	1	9	[0, 0, 0]	n/a	FR1	2	R1193T
1045.774	0.8	1050791	WORD_OFF	n/a	n/a	FACE	1	9	[0, 0, 0]	n/a	FR1	2	R1193T
1046.574	1.617	1051591	WORD	n/a	wordpools/wordpool_EN.txt	BENCH	2	9	[0, 0, 0]	n/a	FR1	2	R1193T
1048.191	0.767	1053208	WORD_OFF	n/a	n/a	BENCH	2	9	[0, 0, 0]	n/a	FR1	2	R1193T
1048.958	1.616	1053975	WORD	n/a	wordpools/wordpool_EN.txt	HAND	3	9	[0, 0, 0]	n/a	FR1	2	R1193T
1050.574	0.767	1055591	WORD_OFF	n/a	n/a	HAND	3	9	[0, 0, 0]	n/a	FR1	2	R1193T
1051.341	1.617	1056358	WORD	n/a	wordpools/wordpool_EN.txt	WEED	4	9	[0, 0, 0]	n/a	FR1	2	R1193T
1052.958	0.834	1057975	WORD_OFF	n/a	n/a	WEED	4	9	[0, 0, 0]	n/a	FR1	2	R1193T
1053.792	1.617	1058809	WORD	n/a	wordpools/wordpool_EN.txt	VASE	5	9	[0, 0, 0]	n/a	FR1	2	R1193T
1055.409	1.017	1060425	WORD_OFF	n/a	n/a	VASE	5	9	[0, 0, 0]	n/a	FR1	2	R1193T
1056.426	1.616	1061442	WORD	n/a	wordpools/wordpool_EN.txt	RUG	6	9	[0, 0, 0]	n/a	FR1	2	R1193T
1058.042	0.951	1063058	WORD_OFF	n/a	n/a	RUG	6	9	[0, 0, 0]	n/a	FR1	2	R1193T
1058.993	1.617	1064009	WORD	n/a	wordpools/wordpool_EN.txt	LAWN	7	9	[0, 0, 0]	n/a	FR1	2	R1193T
1060.61	0.933	1065626	WORD_OFF	n/a	n/a	LAWN	7	9	[0, 0, 0]	n/a	FR1	2	R1193T
1061.543	1.617	1066559	WORD	n/a	wordpools/wordpool_EN.txt	PURSE	8	9	[0, 0, 0]	n/a	FR1	2	R1193T
1063.16	0.8	1068176	WORD_OFF	n/a	n/a	PURSE	8	9	[0, 0, 0]	n/a	FR1	2	R1193T
1063.96	1.617	1068976	WORD	n/a	wordpools/wordpool_EN.txt	DIME	9	9	[0, 0, 0]	n/a	FR1	2	R1193T
1065.577	0.817	1070593	WORD_OFF	n/a	n/a	DIME	9	9	[0, 0, 0]	n/a	FR1	2	R1193T
1066.394	1.617	1071410	WORD	n/a	wordpools/wordpool_EN.txt	BALL	10	9	[0, 0, 0]	n/a	FR1	2	R1193T
1068.011	1.0	1073027	WORD_OFF	n/a	n/a	BALL	10	9	[0, 0, 0]	n/a	FR1	2	R1193T
1069.011	1.618	1074027	WORD	n/a	wordpools/wordpool_EN.txt	COUCH	11	9	[0, 0, 0]	n/a	FR1	2	R1193T
1070.629	0.933	1075645	WORD_OFF	n/a	n/a	COUCH	11	9	[0, 0, 0]	n/a	FR1	2	R1193T
1071.562	1.617	1076578	WORD	n/a	wordpools/wordpool_EN.txt	DOOR	12	9	[0, 0, 0]	n/a	FR1	2	R1193T
1073.179	0.0	1078194	WORD_OFF	n/a	n/a	DOOR	12	9	[0, 0, 0]	n/a	FR1	2	R1193T
1073.179	0.0	1078194	DISTRACT_START	n/a	n/a	n/a	-999	9	[0, 0, 0]	n/a	FR1	2	R1193T
1073.179	0.016	1078194	START	n/a	n/a	n/a	-999	9	[-999, -999, -999]	n/a	FR1	2	R1193T
1073.195	23.744	1078210	PROB	23.744	n/a	n/a	-999	9	[9, 2, 5]	925	FR1	2	R1193T
1096.939	0.011	1101953	STOP	n/a	n/a	n/a	-999	9	[-999, -999, -999]	n/a	FR1	2	R1193T
1096.95	0.667	1101964	DISTRACT_END	n/a	n/a	n/a	-999	9	[0, 0, 0]	n/a	FR1	2	R1193T
1097.617	0.517	1102631	RETRIEVAL_ORIENT	n/a	n/a	n/a	-999	9	[0, 0, 0]	n/a	FR1	2	R1193T
1098.134	4.163	1103148	REC_START	n/a	n/a	n/a	-999	9	[0, 0, 0]	n/a	FR1	2	R1193T
1102.297	0.513	1107311	REC_WORD	0.513	n/a	WEED	-999	9	[0, 0, 0]	n/a	FR1	2	R1193T
1102.81	25.333	1107824	REC_WORD	25.333	n/a	YARD	-999	9	[0, 0, 0]	n/a	FR1	2	R1193T
1128.143	5.147	1133155	REC_END	n/a	n/a	n/a	-999	9	[0, 0, 0]	n/a	FR1	2	R1193T
1133.29	0.5	1138302	TRIAL	n/a	n/a	n/a	-999	10	[0, 0, 0]	n/a	FR1	2	R1193T
1133.79	10.428	1138802	COUNTDOWN_START	n/a	n/a	n/a	-999	10	[0, 0, 0]	n/a	FR1	2	R1193T
1144.218	0.007	1149229	COUNTDOWN_END	n/a	n/a	n/a	-999	10	[0, 0, 0]	n/a	FR1	2	R1193T
1144.225	1.617	1149236	ORIENT	n/a	n/a	n/a	-999	10	[0, 0, 0]	n/a	FR1	2	R1193T
1145.842	1.884	1150853	ORIENT_OFF	n/a	n/a	n/a	-999	10	[0, 0, 0]	n/a	FR1	2	R1193T
1147.726	1.616	1152737	WORD	n/a	wordpools/wordpool_EN.txt	PEACH	1	10	[0, 0, 0]	n/a	FR1	2	R1193T
1149.342	0.851	1154353	WORD_OFF	n/a	n/a	PEACH	1	10	[0, 0, 0]	n/a	FR1	2	R1193T
1150.193	1.617	1155204	WORD	n/a	wordpools/wordpool_EN.txt	PIN	2	10	[0, 0, 0]	n/a	FR1	2	R1193T
1151.81	0.901	1156821	WORD_OFF	n/a	n/a	PIN	2	10	[0, 0, 0]	n/a	FR1	2	R1193T
1152.711	1.616	1157722	WORD	n/a	wordpools/wordpool_EN.txt	FLOOR	3	10	[0, 0, 0]	n/a	FR1	2	R1193T
1154.327	1.016	1159338	WORD_OFF	n/a	n/a	FLOOR	3	10	[0, 0, 0]	n/a	FR1	2	R1193T
1155.343	1.618	1160354	WORD	n/a	wordpools/wordpool_EN.txt	BROOM	4	10	[0, 0, 0]	n/a	FR1	2	R1193T
1156.961	0.767	1161971	WORD_OFF	n/a	n/a	BROOM	4	10	[0, 0, 0]	n/a	FR1	2	R1193T
1157.728	1.616	1162738	WORD	n/a	wordpools/wordpool_EN.txt	GRASS	5	10	[0, 0, 0]	n/a	FR1	2	R1193T
1159.344	0.767	1164354	WORD_OFF	n/a	n/a	GRASS	5	10	[0, 0, 0]	n/a	FR1	2	R1193T
1160.111	1.618	1165121	WORD	n/a	wordpools/wordpool_EN.txt	SHOE	6	10	[0, 0, 0]	n/a	FR1	2	R1193T
1161.729	0.849	1166739	WORD_OFF	n/a	n/a	SHOE	6	10	[0, 0, 0]	n/a	FR1	2	R1193T
1162.578	1.617	1167588	WORD	n/a	wordpools/wordpool_EN.txt	FUDGE	7	10	[0, 0, 0]	n/a	FR1	2	R1193T
1164.195	0.9	1169205	WORD_OFF	n/a	n/a	FUDGE	7	10	[0, 0, 0]	n/a	FR1	2	R1193T
1165.095	1.618	1170105	WORD	n/a	wordpools/wordpool_EN.txt	TOE	8	10	[0, 0, 0]	n/a	FR1	2	R1193T
1166.713	1.0	1171723	WORD_OFF	n/a	n/a	TOE	8	10	[0, 0, 0]	n/a	FR1	2	R1193T
1167.713	1.616	1172723	WORD	n/a	wordpools/wordpool_EN.txt	CAGE	9	10	[0, 0, 0]	n/a	FR1	2	R1193T
1169.329	0.951	1174339	WORD_OFF	n/a	n/a	CAGE	9	10	[0, 0, 0]	n/a	FR1	2	R1193T
1170.28	1.617	1175290	WORD	n/a	wordpools/wordpool_EN.txt	CHEEK	10	10	[0, 0, 0]	n/a	FR1	2	R1193T
1171.897	0.95	1176907	WORD_OFF	n/a	n/a	CHEEK	10	10	[0, 0, 0]	n/a	FR1	2	R1193T
1172.847	1.617	1177856	WORD	n/a	wordpools/wordpool_EN.txt	DOLL	11	10	[0, 0, 0]	n/a	FR1	2	R1193T
1174.464	0.816	1179473	WORD_OFF	n/a	n/a	DOLL	11	10	[0, 0, 0]	n/a	FR1	2	R1193T
1175.28	1.617	1180289	WORD	n/a	wordpools/wordpool_EN.txt	SKY	12	10	[0, 0, 0]	n/a	FR1	2	R1193T
1176.897	0.0	1181906	WORD_OFF	n/a	n/a	SKY	12	10	[0, 0, 0]	n/a	FR1	2	R1193T
1176.897	0.001	1181906	DISTRACT_START	n/a	n/a	n/a	-999	10	[0, 0, 0]	n/a	FR1	2	R1193T
1176.898	0.016	1181907	START	n/a	n/a	n/a	-999	10	[-999, -999, -999]	n/a	FR1	2	R1193T
1176.914	17.771	1181923	PROB	17.771	n/a	n/a	-999	10	[3, 2, 2]	322	FR1	2	R1193T
1194.685	8.246	1199693	PROB	8.246	n/a	n/a	-999	10	[3, 4, 4]	344	FR1	2	R1193T
1202.931	0.021	1207939	STOP	n/a	n/a	n/a	-999	10	[-999, -999, -999]	n/a	FR1	2	R1193T
1202.952	0.583	1207960	DISTRACT_END	n/a	n/a	n/a	-999	10	[0, 0, 0]	n/a	FR1	2	R1193T
1203.535	0.518	1208543	RETRIEVAL_ORIENT	n/a	n/a	n/a	-999	10	[0, 0, 0]	n/a	FR1	2	R1193T
1204.053	4.268	1209061	REC_START	n/a	n/a	n/a	-999	10	[0, 0, 0]	n/a	FR1	2	R1193T
1208.321	1.7	1213328	REC_WORD	1.7	n/a	PEACH	-999	10	[0, 0, 0]	n/a	FR1	2	R1193T
1210.021	24.043	1215028	REC_WORD	24.043	n/a	PIN	-999	10	[0, 0, 0]	n/a	FR1	2	R1193T
1234.064	17.914	1239070	REC_END	n/a	n/a	n/a	-999	10	[0, 0, 0]	n/a	FR1	2	R1193T
1251.978	0.5	1256983	TRIAL	n/a	n/a	n/a	-999	11	[0, 0, 0]	n/a	FR1	2	R1193T
1252.478	10.428	1257483	COUNTDOWN_START	n/a	n/a	n/a	-999	11	[0, 0, 0]	n/a	FR1	2	R1193T
1262.906	0.007	1267910	COUNTDOWN_END	n/a	n/a	n/a	-999	11	[0, 0, 0]	n/a	FR1	2	R1193T
1262.913	1.617	1267917	ORIENT	n/a	n/a	n/a	-999	11	[0, 0, 0]	n/a	FR1	2	R1193T
1264.53	2.05	1269534	ORIENT_OFF	n/a	n/a	n/a	-999	11	[0, 0, 0]	n/a	FR1	2	R1193T
1266.58	1.617	1271584	WORD	n/a	wordpools/wordpool_EN.txt	STOOL	1	11	[0, 0, 0]	n/a	FR1	2	R1193T
1268.197	1.001	1273201	WORD_OFF	n/a	n/a	STOOL	1	11	[0, 0, 0]	n/a	FR1	2	R1193T
1269.198	1.617	1274202	WORD	n/a	wordpools/wordpool_EN.txt	OAK	2	11	[0, 0, 0]	n/a	FR1	2	R1193T
1270.815	0.916	1275819	WORD_OFF	n/a	n/a	OAK	2	11	[0, 0, 0]	n/a	FR1	2	R1193T
1271.731	1.617	1276735	WORD	n/a	wordpools/wordpool_EN.txt	PALM	3	11	[0, 0, 0]	n/a	FR1	2	R1193T
1273.348	0.767	1278351	WORD_OFF	n/a	n/a	PALM	3	11	[0, 0, 0]	n/a	FR1	2	R1193T
1274.115	1.601	1279118	WORD	n/a	wordpools/wordpool_EN.txt	ROSE	4	11	[0, 0, 0]	n/a	FR1	2	R1193T
1275.716	0.917	1280719	WORD_OFF	n/a	n/a	ROSE	4	11	[0, 0, 0]	n/a	FR1	2	R1193T
1276.633	1.616	1281636	WORD	n/a	wordpools/wordpool_EN.txt	SHIELD	5	11	[0, 0, 0]	n/a	FR1	2	R1193T
1278.249	0.884	1283252	WORD_OFF	n/a	n/a	SHIELD	5	11	[0, 0, 0]	n/a	FR1	2	R1193T
1279.133	1.617	1284136	WORD	n/a	wordpools/wordpool_EN.txt	CHIN	6	11	[0, 0, 0]	n/a	FR1	2	R1193T
1280.75	0.85	1285753	WORD_OFF	n/a	n/a	CHIN	6	11	[0, 0, 0]	n/a	FR1	2	R1193T
1281.6	1.617	1286603	WORD	n/a	wordpools/wordpool_EN.txt	HOLE	7	11	[0, 0, 0]	n/a	FR1	2	R1193T
1283.217	1.0	1288220	WORD_OFF	n/a	n/a	HOLE	7	11	[0, 0, 0]	n/a	FR1	2	R1193T
1284.217	1.617	1289220	WORD	n/a	wordpools/wordpool_EN.txt	PIT	8	11	[0, 0, 0]	n/a	FR1	2	R1193T
1285.834	0.767	1290837	WORD_OFF	n/a	n/a	PIT	8	11	[0, 0, 0]	n/a	FR1	2	R1193T
1286.601	1.617	1291604	WORD	n/a	wordpools/wordpool_EN.txt	SLIME	9	11	[0, 0, 0]	n/a	FR1	2	R1193T
1288.218	0.983	1293221	WORD_OFF	n/a	n/a	SLIME	9	11	[0, 0, 0]	n/a	FR1	2	R1193T
1289.201	1.617	1294204	WORD	n/a	wordpools/wordpool_EN.txt	SPRING	10	11	[0, 0, 0]	n/a	FR1	2	R1193T
1290.818	0.917	1295820	WORD_OFF	n/a	n/a	SPRING	10	11	[0, 0, 0]	n/a	FR1	2	R1193T
1291.735	1.617	1296737	WORD	n/a	wordpools/wordpool_EN.txt	SLEEVE	11	11	[0, 0, 0]	n/a	FR1	2	R1193T
1293.352	0.983	1298354	WORD_OFF	n/a	n/a	SLEEVE	11	11	[0, 0, 0]	n/a	FR1	2	R1193T
1294.335	1.617	1299337	WORD	n/a	wordpools/wordpool_EN.txt	SPEAR	12	11	[0, 0, 0]	n/a	FR1	2	R1193T
1295.952	0.0	1300954	WORD_OFF	n/a	n/a	SPEAR	12	11	[0, 0, 0]	n/a	FR1	2	R1193T
1295.952	0.001	1300954	DISTRACT_START	n/a	n/a	n/a	-999	11	[0, 0, 0]	n/a	FR1	2	R1193T
1295.953	0.016	1300955	START	n/a	n/a	n/a	-999	11	[-999, -999, -999]	n/a	FR1	2	R1193T
1295.969	11.135	1300971	PROB	11.135	n/a	n/a	-999	11	[1, 4, 2]	142	FR1	2	R1193T
1307.104	11.475	1312105	PROB	11.475	n/a	n/a	-999	11	[2, 5, 9]	295	FR1	2	R1193T
1318.579	0.011	1323580	STOP	n/a	n/a	n/a	-999	11	[-999, -999, -999]	n/a	FR1	2	R1193T
1318.59	0.667	1323591	DISTRACT_END	n/a	n/a	n/a	-999	11	[0, 0, 0]	n/a	FR1	2	R1193T
1319.257	0.517	1324258	RETRIEVAL_ORIENT	n/a	n/a	n/a	-999	11	[0, 0, 0]	n/a	FR1	2	R1193T
1319.774	8.488	1324775	REC_START	n/a	n/a	n/a	-999	11	[0, 0, 0]	n/a	FR1	2	R1193T
1328.262	21.522	1333262	REC_WORD	21.522	n/a	STOOL	-999	11	[0, 0, 0]	n/a	FR1	2	R1193T
1349.784	5.946	1354783	REC_END	n/a	n/a	n/a	-999	11	[0, 0, 0]	n/a	FR1	2	R1193T
1355.73	0.5	1360729	TRIAL	n/a	n/a	n/a	-999	12	[0, 0, 0]	n/a	FR1	2	R1193T
1356.23	10.428	1361229	COUNTDOWN_START	n/a	n/a	n/a	-999	12	[0, 0, 0]	n/a	FR1	2	R1193T
1366.658	0.008	1371656	COUNTDOWN_END	n/a	n/a	n/a	-999	12	[0, 0, 0]	n/a	FR1	2	R1193T
1366.666	1.616	1371664	ORIENT	n/a	n/a	n/a	-999	12	[0, 0, 0]	n/a	FR1	2	R1193T
1368.282	1.967	1373280	ORIENT_OFF	n/a	n/a	n/a	-999	12	[0, 0, 0]	n/a	FR1	2	R1193T
1370.249	1.617	1375247	WORD	n/a	wordpools/wordpool_EN.txt	FENCE	1	12	[0, 0, 0]	n/a	FR1	2	R1193T
1371.866	0.984	1376864	WORD_OFF	n/a	n/a	FENCE	1	12	[0, 0, 0]	n/a	FR1	2	R1193T
1372.85	1.617	1377848	WORD	n/a	wordpools/wordpool_EN.txt	GUARD	2	12	[0, 0, 0]	n/a	FR1	2	R1193T
1374.467	1.0	1379464	WORD_OFF	n/a	n/a	GUARD	2	12	[0, 0, 0]	n/a	FR1	2	R1193T
1375.467	1.617	1380464	WORD	n/a	wordpools/wordpool_EN.txt	DRUM	3	12	[0, 0, 0]	n/a	FR1	2	R1193T
1377.084	0.817	1382081	WORD_OFF	n/a	n/a	DRUM	3	12	[0, 0, 0]	n/a	FR1	2	R1193T
1377.901	1.617	1382898	WORD	n/a	wordpools/wordpool_EN.txt	WALL	4	12	[0, 0, 0]	n/a	FR1	2	R1193T
1379.518	0.95	1384515	WORD_OFF	n/a	n/a	WALL	4	12	[0, 0, 0]	n/a	FR1	2	R1193T
1380.468	1.617	1385465	WORD	n/a	wordpools/wordpool_EN.txt	ROOF	5	12	[0, 0, 0]	n/a	FR1	2	R1193T
1382.085	0.85	1387082	WORD_OFF	n/a	n/a	ROOF	5	12	[0, 0, 0]	n/a	FR1	2	R1193T
1382.935	1.617	1387932	WORD	n/a	wordpools/wordpool_EN.txt	WOOD	6	12	[0, 0, 0]	n/a	FR1	2	R1193T
1384.552	0.95	1389549	WORD_OFF	n/a	n/a	WOOD	6	12	[0, 0, 0]	n/a	FR1	2	R1193T
1385.502	1.617	1390499	WORD	n/a	wordpools/wordpool_EN.txt	PIPE	7	12	[0, 0, 0]	n/a	FR1	2	R1193T
1387.119	1.0	1392116	WORD_OFF	n/a	n/a	PIPE	7	12	[0, 0, 0]	n/a	FR1	2	R1193T
1388.119	1.617	1393116	WORD	n/a	wordpools/wordpool_EN.txt	PEN	8	12	[0, 0, 0]	n/a	FR1	2	R1193T
1389.736	0.783	1394733	WORD_OFF	n/a	n/a	PEN	8	12	[0, 0, 0]	n/a	FR1	2	R1193T
1390.519	1.618	1395515	WORD	n/a	wordpools/wordpool_EN.txt	PASTE	9	12	[0, 0, 0]	n/a	FR1	2	R1193T
1392.137	0.816	1397133	WORD_OFF	n/a	n/a	PASTE	9	12	[0, 0, 0]	n/a	FR1	2	R1193T
1392.953	1.617	1397949	WORD	n/a	wordpools/wordpool_EN.txt	PEAR	10	12	[0, 0, 0]	n/a	FR1	2	R1193T
1394.57	0.934	1399566	WORD_OFF	n/a	n/a	PEAR	10	12	[0, 0, 0]	n/a	FR1	2	R1193T
1395.504	1.617	1400500	WORD	n/a	wordpools/wordpool_EN.txt	SLUSH	11	12	[0, 0, 0]	n/a	FR1	2	R1193T
1397.121	0.867	1402117	WORD_OFF	n/a	n/a	SLUSH	11	12	[0, 0, 0]	n/a	FR1	2	R1193T
1397.988	1.617	1402984	WORD	n/a	wordpools/wordpool_EN.txt	STRING	12	12	[0, 0, 0]	n/a	FR1	2	R1193T
1399.605	0.0	1404601	WORD_OFF	n/a	n/a	STRING	12	12	[0, 0, 0]	n/a	FR1	2	R1193T
1399.605	0.0	1404601	DISTRACT_START	n/a	n/a	n/a	-999	12	[0, 0, 0]	n/a	FR1	2	R1193T
1399.605	0.017	1404601	START	n/a	n/a	n/a	-999	12	[-999, -999, -999]	n/a	FR1	2	R1193T
1399.622	27.981	1404618	PROB	27.981	n/a	n/a	-999	12	[3, 4, 5]	45	FR1	2	R1193T
1427.603	0.007	1432597	STOP	n/a	n/a	n/a	-999	12	[-999, -999, -999]	n/a	FR1	2	R1193T
1427.61	0.567	1432604	DISTRACT_END	n/a	n/a	n/a	-999	12	[0, 0, 0]	n/a	FR1	2	R1193T
1428.177	0.518	1433171	RETRIEVAL_ORIENT	n/a	n/a	n/a	-999	12	[0, 0, 0]	n/a	FR1	2	R1193T
1428.695	9.92	1433689	REC_START	n/a	n/a	n/a	-999	12	[0, 0, 0]	n/a	FR1	2	R1193T
1438.615	2.573	1443609	REC_WORD_VV	2.573	n/a	<>	-999	12	[0, 0, 0]	n/a	FR1	2	R1193T
1441.188	17.519	1446181	REC_WORD_VV	17.519	n/a	<>	-999	12	[0, 0, 0]	n/a	FR1	2	R1193T
1458.707	11.394	1463699	REC_END	n/a	n/a	n/a	-999	12	[0, 0, 0]	n/a	FR1	2	R1193T
1470.101	0.0	1475093	TRIAL	n/a	n/a	n/a	-999	13	[0, 0, 0]	n/a	FR1	2	R1193T
