onset	duration	sample	trial_type	response_time	stim_file	item_name	serialpos	list	test	answer	experiment	session	subject
0.0	270.991	-1	SESS_START	n/a	n/a	n/a	-999	-999	[0, 0, 0]	n/a	FR1	0	R1056M
270.991	15.443	39030	SESS_START	n/a	n/a	n/a	-999	-999	[0, 0, 0]	n/a	FR1	0	R1056M
286.434	10.428	46750	COUNTDOWN_START	n/a	n/a	n/a	-999	-999	[0, 0, 0]	n/a	FR1	0	R1056M
296.862	3.692	51964	COUNTDOWN_END	n/a	n/a	n/a	-999	-999	[0, 0, 0]	n/a	FR1	0	R1056M
300.554	2.45	53809	PRACTICE_WORD	n/a	n/a	WAGON	1	-1	[0, 0, 0]	n/a	FR1	0	R1056M
303.004	2.434	55034	PRACTICE_WORD	n/a	n/a	TONGUE	2	-1	[0, 0, 0]	n/a	FR1	0	R1056M
305.438	2.383	56251	PRACTICE_WORD	n/a	n/a	ATTIC	3	-1	[0, 0, 0]	n/a	FR1	0	R1056M
307.821	2.568	57443	PRACTICE_WORD	n/a	n/a	RING	4	-1	[0, 0, 0]	n/a	FR1	0	R1056M
310.389	2.6	58726	PRACTICE_WORD	n/a	n/a	BEAM	5	-1	[0, 0, 0]	n/a	FR1	0	R1056M
312.989	2.401	60026	PRACTICE_WORD	n/a	n/a	IRON	6	-1	[0, 0, 0]	n/a	FR1	0	R1056M
315.39	2.567	61227	PRACTICE_WORD	n/a	n/a	FLOOD	7	-1	[0, 0, 0]	n/a	FR1	0	R1056M
317.957	2.617	62510	PRACTICE_WORD	n/a	n/a	COTTON	8	-1	[0, 0, 0]	n/a	FR1	0	R1056M
320.574	2.451	63818	PRACTICE_WORD	n/a	n/a	WATCH	9	-1	[0, 0, 0]	n/a	FR1	0	R1056M
323.025	2.4	65044	PRACTICE_WORD	n/a	n/a	RHINO	10	-1	[0, 0, 0]	n/a	FR1	0	R1056M
325.425	2.617	66244	PRACTICE_WORD	n/a	n/a	CHEST	11	-1	[0, 0, 0]	n/a	FR1	0	R1056M
328.042	1.617	67552	PRACTICE_WORD	n/a	n/a	CAMEL	12	-1	[0, 0, 0]	n/a	FR1	0	R1056M
329.659	0.001	68360	PRACTICE_DISTRACT_START	n/a	n/a	n/a	-999	-1	[0, 0, 0]	n/a	FR1	0	R1056M
329.66	0.015	68361	START	n/a	n/a	n/a	-999	-1	[-999, -999, -999]	n/a	FR1	0	R1056M
329.675	5.201	68368	PROB	5.201	n/a	n/a	-999	-1	[9, 2, 9]	20	FR1	0	R1056M
334.876	4.768	70969	PROB	4.768	n/a	n/a	-999	-1	[8, 5, 4]	17	FR1	0	R1056M
339.644	2.384	73352	PROB	2.384	n/a	n/a	-999	-1	[2, 5, 4]	11	FR1	0	R1056M
342.028	1.967	74544	PROB	1.967	n/a	n/a	-999	-1	[5, 5, 3]	13	FR1	0	R1056M
343.995	3.034	75528	PROB	3.034	n/a	n/a	-999	-1	[3, 4, 7]	14	FR1	0	R1056M
347.029	2.723	77045	PROB	2.723	n/a	n/a	-999	-1	[3, 9, 7]	19	FR1	0	R1056M
349.752	0.01	78406	STOP	n/a	n/a	n/a	-999	-1	[-999, -999, -999]	n/a	FR1	0	R1056M
349.762	0.654	78411	PRACTICE_DISTRACT_END	n/a	n/a	n/a	-999	-1	[0, 0, 0]	n/a	FR1	0	R1056M
350.416	30.513	78738	PRACTICE_REC_START	n/a	n/a	n/a	-999	-1	[0, 0, 0]	n/a	FR1	0	R1056M
380.929	18.76	93993	PRACTICE_REC_END	n/a	n/a	n/a	-999	-1	[0, 0, 0]	n/a	FR1	0	R1056M
399.689	0.0	103372	TRIAL	n/a	n/a	n/a	-999	1	[0, 0, 0]	n/a	FR1	0	R1056M
399.689	10.428	103372	COUNTDOWN_START	n/a	n/a	n/a	-999	1	[0, 0, 0]	n/a	FR1	0	R1056M
410.117	0.008	108585	COUNTDOWN_END	n/a	n/a	n/a	-999	1	[0, 0, 0]	n/a	FR1	0	R1056M
410.125	2.483	108589	ORIENT	n/a	n/a	n/a	-999	1	[0, 0, 0]	n/a	FR1	0	R1056M
412.608	2.518	109831	WORD	n/a	wordpools/wordpool_EN.txt	ROPE	1	1	[0, 0, 0]	n/a	FR1	0	R1056M
415.126	2.467	111090	WORD	n/a	wordpools/wordpool_EN.txt	HAWK	2	1	[0, 0, 0]	n/a	FR1	0	R1056M
417.593	2.434	112323	WORD	n/a	wordpools/wordpool_EN.txt	OWL	3	1	[0, 0, 0]	n/a	FR1	0	R1056M
420.027	2.467	113540	WORD	n/a	wordpools/wordpool_EN.txt	PIG	4	1	[0, 0, 0]	n/a	FR1	0	R1056M
422.494	2.399	114773	WORD	n/a	wordpools/wordpool_EN.txt	LAWN	5	1	[0, 0, 0]	n/a	FR1	0	R1056M
424.893	2.585	115973	WORD	n/a	wordpools/wordpool_EN.txt	HOUSE	6	1	[0, 0, 0]	n/a	FR1	0	R1056M
427.478	2.534	117265	WORD	n/a	wordpools/wordpool_EN.txt	FOOT	7	1	[0, 0, 0]	n/a	FR1	0	R1056M
430.012	2.451	118532	WORD	n/a	wordpools/wordpool_EN.txt	BIRD	8	1	[0, 0, 0]	n/a	FR1	0	R1056M
432.463	2.416	119757	WORD	n/a	wordpools/wordpool_EN.txt	COW	9	1	[0, 0, 0]	n/a	FR1	0	R1056M
434.879	2.401	120965	WORD	n/a	wordpools/wordpool_EN.txt	CAVE	10	1	[0, 0, 0]	n/a	FR1	0	R1056M
437.28	2.533	122165	WORD	n/a	wordpools/wordpool_EN.txt	SPRING	11	1	[0, 0, 0]	n/a	FR1	0	R1056M
439.813	1.618	123432	WORD	n/a	wordpools/wordpool_EN.txt	BLUSH	12	1	[0, 0, 0]	n/a	FR1	0	R1056M
441.431	0.001	124241	DISTRACT_START	n/a	n/a	n/a	-999	1	[0, 0, 0]	n/a	FR1	0	R1056M
441.432	0.016	124241	START	n/a	n/a	n/a	-999	1	[-999, -999, -999]	n/a	FR1	0	R1056M
441.448	2.533	124249	PROB	2.533	n/a	n/a	-999	1	[4, 4, 1]	9	FR1	0	R1056M
443.981	2.817	125516	PROB	2.817	n/a	n/a	-999	1	[2, 8, 5]	15	FR1	0	R1056M
446.798	2.784	126924	PROB	2.784	n/a	n/a	-999	1	[3, 4, 3]	10	FR1	0	R1056M
449.582	3.233	128316	PROB	3.233	n/a	n/a	-999	1	[3, 5, 9]	17	FR1	0	R1056M
452.815	2.235	129932	PROB	2.235	n/a	n/a	-999	1	[3, 8, 2]	13	FR1	0	R1056M
455.05	2.284	131050	PROB	2.284	n/a	n/a	-999	1	[3, 6, 2]	11	FR1	0	R1056M
457.334	4.394	132191	PROB	4.394	n/a	n/a	-999	1	[8, 5, 7]	20	FR1	0	R1056M
461.728	0.006	134388	STOP	n/a	n/a	n/a	-999	1	[-999, -999, -999]	n/a	FR1	0	R1056M
461.734	1.219	134391	DISTRACT_END	n/a	n/a	n/a	-999	1	[0, 0, 0]	n/a	FR1	0	R1056M
462.953	1.987	135001	REC_START	n/a	n/a	n/a	-999	1	[0, 0, 0]	n/a	FR1	0	R1056M
464.94	0.665	135994	REC_WORD	0.665	n/a	ROPE	1	1	[0, 0, 0]	n/a	FR1	0	R1056M
465.605	1.13	136326	REC_WORD	1.13	n/a	HAWK	2	1	[0, 0, 0]	n/a	FR1	0	R1056M
466.735	0.915	136891	REC_WORD	0.915	n/a	PIG	4	1	[0, 0, 0]	n/a	FR1	0	R1056M
467.65	1.55	137349	REC_WORD	1.55	n/a	OWL	3	1	[0, 0, 0]	n/a	FR1	0	R1056M
469.2	23.763	138124	REC_WORD	23.763	n/a	BIRD	8	1	[0, 0, 0]	n/a	FR1	0	R1056M
492.963	4.462	150004	REC_END	n/a	n/a	n/a	-999	1	[0, 0, 0]	n/a	FR1	0	R1056M
497.425	0.0	152235	TRIAL	n/a	n/a	n/a	-999	2	[0, 0, 0]	n/a	FR1	0	R1056M
497.425	10.428	152235	COUNTDOWN_START	n/a	n/a	n/a	-999	2	[0, 0, 0]	n/a	FR1	0	R1056M
507.853	0.007	157448	COUNTDOWN_END	n/a	n/a	n/a	-999	2	[0, 0, 0]	n/a	FR1	0	R1056M
507.86	2.418	157452	ORIENT	n/a	n/a	n/a	-999	2	[0, 0, 0]	n/a	FR1	0	R1056M
510.278	2.599	158661	WORD	n/a	wordpools/wordpool_EN.txt	SNOW	1	2	[0, 0, 0]	n/a	FR1	0	R1056M
512.877	2.402	159960	WORD	n/a	wordpools/wordpool_EN.txt	CLAY	2	2	[0, 0, 0]	n/a	FR1	0	R1056M
515.279	2.482	161161	WORD	n/a	wordpools/wordpool_EN.txt	STRAW	3	2	[0, 0, 0]	n/a	FR1	0	R1056M
517.761	2.535	162402	WORD	n/a	wordpools/wordpool_EN.txt	SQUARE	4	2	[0, 0, 0]	n/a	FR1	0	R1056M
520.296	2.4	163669	WORD	n/a	wordpools/wordpool_EN.txt	MUD	5	2	[0, 0, 0]	n/a	FR1	0	R1056M
522.696	2.518	164869	WORD	n/a	wordpools/wordpool_EN.txt	STORM	6	2	[0, 0, 0]	n/a	FR1	0	R1056M
525.214	2.582	166128	WORD	n/a	wordpools/wordpool_EN.txt	THREAD	7	2	[0, 0, 0]	n/a	FR1	0	R1056M
527.796	2.469	167419	WORD	n/a	wordpools/wordpool_EN.txt	CLOUD	8	2	[0, 0, 0]	n/a	FR1	0	R1056M
530.265	2.582	168653	WORD	n/a	wordpools/wordpool_EN.txt	LAND	9	2	[0, 0, 0]	n/a	FR1	0	R1056M
532.847	2.502	169944	WORD	n/a	wordpools/wordpool_EN.txt	LAMP	10	2	[0, 0, 0]	n/a	FR1	0	R1056M
535.349	2.55	171195	WORD	n/a	wordpools/wordpool_EN.txt	SHARK	11	2	[0, 0, 0]	n/a	FR1	0	R1056M
537.899	1.618	172470	WORD	n/a	wordpools/wordpool_EN.txt	RUG	12	2	[0, 0, 0]	n/a	FR1	0	R1056M
539.517	0.001	173279	DISTRACT_START	n/a	n/a	n/a	-999	2	[0, 0, 0]	n/a	FR1	0	R1056M
539.518	0.015	173279	START	n/a	n/a	n/a	-999	2	[-999, -999, -999]	n/a	FR1	0	R1056M
539.533	5.785	173287	PROB	5.785	n/a	n/a	-999	2	[5, 9, 9]	23	FR1	0	R1056M
545.318	2.317	176179	PROB	2.317	n/a	n/a	-999	2	[8, 8, 1]	17	FR1	0	R1056M
547.635	2.149	177337	PROB	2.149	n/a	n/a	-999	2	[1, 4, 3]	8	FR1	0	R1056M
549.784	1.768	178412	PROB	1.768	n/a	n/a	-999	2	[2, 3, 1]	6	FR1	0	R1056M
551.552	2.701	179296	PROB	2.701	n/a	n/a	-999	2	[7, 3, 8]	18	FR1	0	R1056M
554.253	5.547	180646	PROB	5.547	n/a	n/a	-999	2	[7, 4, 7]	18	FR1	0	R1056M
559.8	0.003	183419	STOP	n/a	n/a	n/a	-999	2	[-999, -999, -999]	n/a	FR1	0	R1056M
559.803	1.051	183421	DISTRACT_END	n/a	n/a	n/a	-999	2	[0, 0, 0]	n/a	FR1	0	R1056M
560.854	1.593	183946	REC_START	n/a	n/a	n/a	-999	2	[0, 0, 0]	n/a	FR1	0	R1056M
562.447	0.73	184743	REC_WORD	0.73	n/a	STORM	6	2	[0, 0, 0]	n/a	FR1	0	R1056M
563.177	0.691	185107	REC_WORD	0.691	n/a	CLOUD	8	2	[0, 0, 0]	n/a	FR1	0	R1056M
563.868	0.954	185453	REC_WORD	0.954	n/a	RUG	12	2	[0, 0, 0]	n/a	FR1	0	R1056M
564.822	21.232	185930	REC_WORD	21.232	n/a	THREAD	7	2	[0, 0, 0]	n/a	FR1	0	R1056M
586.054	4.81	196545	REC_WORD	4.81	n/a	CURVY	-999	2	[0, 0, 0]	n/a	FR1	0	R1056M
590.864	10.648	198950	REC_END	n/a	n/a	n/a	-999	2	[0, 0, 0]	n/a	FR1	0	R1056M
601.512	0.0	204273	TRIAL	n/a	n/a	n/a	-999	3	[0, 0, 0]	n/a	FR1	0	R1056M
601.512	10.428	204273	COUNTDOWN_START	n/a	n/a	n/a	-999	3	[0, 0, 0]	n/a	FR1	0	R1056M
611.94	0.007	209486	COUNTDOWN_END	n/a	n/a	n/a	-999	3	[0, 0, 0]	n/a	FR1	0	R1056M
611.947	2.451	209490	ORIENT	n/a	n/a	n/a	-999	3	[0, 0, 0]	n/a	FR1	0	R1056M
614.398	2.6	210715	WORD	n/a	wordpools/wordpool_EN.txt	TOOL	1	3	[0, 0, 0]	n/a	FR1	0	R1056M
616.998	2.45	212015	WORD	n/a	wordpools/wordpool_EN.txt	CLOWN	2	3	[0, 0, 0]	n/a	FR1	0	R1056M
619.448	2.417	213240	WORD	n/a	wordpools/wordpool_EN.txt	EGG	3	3	[0, 0, 0]	n/a	FR1	0	R1056M
621.865	2.551	214448	WORD	n/a	wordpools/wordpool_EN.txt	POND	4	3	[0, 0, 0]	n/a	FR1	0	R1056M
624.416	2.433	215724	WORD	n/a	wordpools/wordpool_EN.txt	ZOO	5	3	[0, 0, 0]	n/a	FR1	0	R1056M
626.849	2.385	216940	WORD	n/a	wordpools/wordpool_EN.txt	WHEEL	6	3	[0, 0, 0]	n/a	FR1	0	R1056M
629.234	2.533	218133	WORD	n/a	wordpools/wordpool_EN.txt	TOAD	7	3	[0, 0, 0]	n/a	FR1	0	R1056M
631.767	2.618	219399	WORD	n/a	wordpools/wordpool_EN.txt	CAT	8	3	[0, 0, 0]	n/a	FR1	0	R1056M
634.385	2.466	220708	WORD	n/a	wordpools/wordpool_EN.txt	MOUSE	9	3	[0, 0, 0]	n/a	FR1	0	R1056M
636.851	2.585	221941	WORD	n/a	wordpools/wordpool_EN.txt	SPONGE	10	3	[0, 0, 0]	n/a	FR1	0	R1056M
639.436	2.534	223233	WORD	n/a	wordpools/wordpool_EN.txt	MOOSE	11	3	[0, 0, 0]	n/a	FR1	0	R1056M
641.97	1.617	224500	WORD	n/a	wordpools/wordpool_EN.txt	CLOCK	12	3	[0, 0, 0]	n/a	FR1	0	R1056M
643.587	0.001	225308	DISTRACT_START	n/a	n/a	n/a	-999	3	[0, 0, 0]	n/a	FR1	0	R1056M
643.588	0.015	225309	START	n/a	n/a	n/a	-999	3	[-999, -999, -999]	n/a	FR1	0	R1056M
643.603	3.718	225316	PROB	3.718	n/a	n/a	-999	3	[7, 7, 6]	20	FR1	0	R1056M
647.321	3.634	227175	PROB	3.634	n/a	n/a	-999	3	[7, 6, 7]	20	FR1	0	R1056M
650.955	2.267	228992	PROB	2.267	n/a	n/a	-999	3	[7, 3, 5]	15	FR1	0	R1056M
653.222	2.566	230125	PROB	2.566	n/a	n/a	-999	3	[9, 1, 3]	13	FR1	0	R1056M
655.788	4.051	231408	PROB	4.051	n/a	n/a	-999	3	[4, 8, 6]	18	FR1	0	R1056M
659.839	2.701	233434	PROB	2.701	n/a	n/a	-999	3	[7, 4, 7]	18	FR1	0	R1056M
662.54	3.405	234784	PROB	3.405	n/a	n/a	-999	3	[4, 5, 3]	12	FR1	0	R1056M
665.945	0.013	236486	STOP	n/a	n/a	n/a	-999	3	[-999, -999, -999]	n/a	FR1	0	R1056M
665.958	1.151	236493	DISTRACT_END	n/a	n/a	n/a	-999	3	[0, 0, 0]	n/a	FR1	0	R1056M
667.109	1.669	237068	REC_START	n/a	n/a	n/a	-999	3	[0, 0, 0]	n/a	FR1	0	R1056M
668.778	0.821	237903	REC_WORD	0.821	n/a	TOOL	1	3	[0, 0, 0]	n/a	FR1	0	R1056M
669.599	2.433	238313	REC_WORD	2.433	n/a	SPONGE	10	3	[0, 0, 0]	n/a	FR1	0	R1056M
672.032	0.777	239529	REC_WORD	0.777	n/a	CAT	8	3	[0, 0, 0]	n/a	FR1	0	R1056M
672.809	16.888	239918	REC_WORD	16.888	n/a	MOUSE	9	3	[0, 0, 0]	n/a	FR1	0	R1056M
689.697	7.422	248361	REC_WORD	7.422	n/a	MOOSE	11	3	[0, 0, 0]	n/a	FR1	0	R1056M
697.119	4.829	252072	REC_END	n/a	n/a	n/a	-999	3	[0, 0, 0]	n/a	FR1	0	R1056M
701.948	0.0	254486	TRIAL	n/a	n/a	n/a	-999	4	[0, 0, 0]	n/a	FR1	0	R1056M
701.948	10.428	254486	COUNTDOWN_START	n/a	n/a	n/a	-999	4	[0, 0, 0]	n/a	FR1	0	R1056M
712.376	0.007	259699	COUNTDOWN_END	n/a	n/a	n/a	-999	4	[0, 0, 0]	n/a	FR1	0	R1056M
712.383	2.55	259703	ORIENT	n/a	n/a	n/a	-999	4	[0, 0, 0]	n/a	FR1	0	R1056M
714.933	2.485	260978	WORD	n/a	wordpools/wordpool_EN.txt	JET	1	4	[0, 0, 0]	n/a	FR1	0	R1056M
717.418	2.516	262220	WORD	n/a	wordpools/wordpool_EN.txt	BRIDGE	2	4	[0, 0, 0]	n/a	FR1	0	R1056M
719.934	2.535	263478	WORD	n/a	wordpools/wordpool_EN.txt	WAVE	3	4	[0, 0, 0]	n/a	FR1	0	R1056M
722.469	2.55	264745	WORD	n/a	wordpools/wordpool_EN.txt	SPEAR	4	4	[0, 0, 0]	n/a	FR1	0	R1056M
725.019	2.384	266020	WORD	n/a	wordpools/wordpool_EN.txt	SAIL	5	4	[0, 0, 0]	n/a	FR1	0	R1056M
727.403	2.584	267212	WORD	n/a	wordpools/wordpool_EN.txt	PRINCE	6	4	[0, 0, 0]	n/a	FR1	0	R1056M
729.987	2.517	268504	WORD	n/a	wordpools/wordpool_EN.txt	ROAD	7	4	[0, 0, 0]	n/a	FR1	0	R1056M
732.504	2.567	269762	WORD	n/a	wordpools/wordpool_EN.txt	PLANE	8	4	[0, 0, 0]	n/a	FR1	0	R1056M
735.071	2.601	271046	WORD	n/a	wordpools/wordpool_EN.txt	BOAT	9	4	[0, 0, 0]	n/a	FR1	0	R1056M
737.672	2.4	272346	WORD	n/a	wordpools/wordpool_EN.txt	FOG	10	4	[0, 0, 0]	n/a	FR1	0	R1056M
740.072	2.451	273546	WORD	n/a	wordpools/wordpool_EN.txt	DOCK	11	4	[0, 0, 0]	n/a	FR1	0	R1056M
742.523	1.616	274771	WORD	n/a	wordpools/wordpool_EN.txt	BEAK	12	4	[0, 0, 0]	n/a	FR1	0	R1056M
744.139	0.001	275579	DISTRACT_START	n/a	n/a	n/a	-999	4	[0, 0, 0]	n/a	FR1	0	R1056M
744.14	0.016	275580	START	n/a	n/a	n/a	-999	4	[-999, -999, -999]	n/a	FR1	0	R1056M
744.156	5.584	275588	PROB	5.584	n/a	n/a	-999	4	[4, 1, 4]	9	FR1	0	R1056M
749.74	5.117	278379	PROB	5.117	n/a	n/a	-999	4	[6, 2, 9]	17	FR1	0	R1056M
754.857	2.335	280938	PROB	2.335	n/a	n/a	-999	4	[9, 6, 4]	19	FR1	0	R1056M
757.192	3.566	282105	PROB	3.566	n/a	n/a	-999	4	[8, 7, 4]	19	FR1	0	R1056M
760.758	2.685	283888	PROB	2.685	n/a	n/a	-999	4	[2, 8, 5]	15	FR1	0	R1056M
763.443	2.182	285230	PROB	2.182	n/a	n/a	-999	4	[1, 7, 8]	16	FR1	0	R1056M
765.625	0.019	286321	STOP	n/a	n/a	n/a	-999	4	[-999, -999, -999]	n/a	FR1	0	R1056M
765.644	1.133	286331	DISTRACT_END	n/a	n/a	n/a	-999	4	[0, 0, 0]	n/a	FR1	0	R1056M
766.777	1.3	286897	REC_START	n/a	n/a	n/a	-999	4	[0, 0, 0]	n/a	FR1	0	R1056M
768.077	0.846	287547	REC_WORD	0.846	n/a	JET	1	4	[0, 0, 0]	n/a	FR1	0	R1056M
768.923	2.1	287970	REC_WORD	2.1	n/a	PLANE	8	4	[0, 0, 0]	n/a	FR1	0	R1056M
771.023	1.15	289020	REC_WORD	1.15	n/a	BOAT	9	4	[0, 0, 0]	n/a	FR1	0	R1056M
772.173	1.244	289595	REC_WORD	1.244	n/a	FOG	10	4	[0, 0, 0]	n/a	FR1	0	R1056M
773.417	11.917	290217	REC_WORD	11.917	n/a	DOCK	11	4	[0, 0, 0]	n/a	FR1	0	R1056M
785.334	11.453	296175	REC_WORD	11.453	n/a	BEAK	12	4	[0, 0, 0]	n/a	FR1	0	R1056M
796.787	4.714	301900	REC_END	n/a	n/a	n/a	-999	4	[0, 0, 0]	n/a	FR1	0	R1056M
801.501	0.0	304257	TRIAL	n/a	n/a	n/a	-999	5	[0, 0, 0]	n/a	FR1	0	R1056M
801.501	10.428	304257	COUNTDOWN_START	n/a	n/a	n/a	-999	5	[0, 0, 0]	n/a	FR1	0	R1056M
811.929	0.006	309471	COUNTDOWN_END	n/a	n/a	n/a	-999	5	[0, 0, 0]	n/a	FR1	0	R1056M
811.935	2.501	309474	ORIENT	n/a	n/a	n/a	-999	5	[0, 0, 0]	n/a	FR1	0	R1056M
814.436	2.383	310724	WORD	n/a	wordpools/wordpool_EN.txt	STEM	1	5	[0, 0, 0]	n/a	FR1	0	R1056M
816.819	2.435	311915	WORD	n/a	wordpools/wordpool_EN.txt	WORM	2	5	[0, 0, 0]	n/a	FR1	0	R1056M
819.254	2.384	313133	WORD	n/a	wordpools/wordpool_EN.txt	SALT	3	5	[0, 0, 0]	n/a	FR1	0	R1056M
821.638	2.567	314325	WORD	n/a	wordpools/wordpool_EN.txt	CORD	4	5	[0, 0, 0]	n/a	FR1	0	R1056M
824.205	2.483	315608	WORD	n/a	wordpools/wordpool_EN.txt	RAKE	5	5	[0, 0, 0]	n/a	FR1	0	R1056M
826.688	2.451	316849	WORD	n/a	wordpools/wordpool_EN.txt	SNAIL	6	5	[0, 0, 0]	n/a	FR1	0	R1056M
829.139	2.501	318075	WORD	n/a	wordpools/wordpool_EN.txt	RIB	7	5	[0, 0, 0]	n/a	FR1	0	R1056M
831.64	2.567	319325	WORD	n/a	wordpools/wordpool_EN.txt	ANT	8	5	[0, 0, 0]	n/a	FR1	0	R1056M
834.207	2.417	320609	WORD	n/a	wordpools/wordpool_EN.txt	MILK	9	5	[0, 0, 0]	n/a	FR1	0	R1056M
836.624	2.417	321817	WORD	n/a	wordpools/wordpool_EN.txt	HEART	10	5	[0, 0, 0]	n/a	FR1	0	R1056M
839.041	2.4	323025	WORD	n/a	wordpools/wordpool_EN.txt	MOTH	11	5	[0, 0, 0]	n/a	FR1	0	R1056M
841.441	1.618	324225	WORD	n/a	wordpools/wordpool_EN.txt	FRUIT	12	5	[0, 0, 0]	n/a	FR1	0	R1056M
843.059	0.0	325034	DISTRACT_START	n/a	n/a	n/a	-999	5	[0, 0, 0]	n/a	FR1	0	R1056M
843.059	0.016	325034	START	n/a	n/a	n/a	-999	5	[-999, -999, -999]	n/a	FR1	0	R1056M
843.075	5.301	325042	PROB	5.301	n/a	n/a	-999	5	[5, 7, 1]	13	FR1	0	R1056M
848.376	2.251	327692	PROB	2.251	n/a	n/a	-999	5	[8, 1, 1]	10	FR1	0	R1056M
850.627	6.334	328818	PROB	6.334	n/a	n/a	-999	5	[9, 3, 2]	14	FR1	0	R1056M
856.961	3.301	331984	PROB	3.301	n/a	n/a	-999	5	[2, 7, 6]	15	FR1	0	R1056M
860.262	2.134	333635	PROB	2.134	n/a	n/a	-999	5	[3, 3, 7]	13	FR1	0	R1056M
862.396	3.165	334702	PROB	3.165	n/a	n/a	-999	5	[7, 8, 6]	21	FR1	0	R1056M
865.561	0.019	336284	STOP	n/a	n/a	n/a	-999	5	[-999, -999, -999]	n/a	FR1	0	R1056M
865.58	1.133	336293	DISTRACT_END	n/a	n/a	n/a	-999	5	[0, 0, 0]	n/a	FR1	0	R1056M
866.713	1.452	336860	REC_START	n/a	n/a	n/a	-999	5	[0, 0, 0]	n/a	FR1	0	R1056M
868.165	1.246	337586	REC_WORD	1.246	n/a	STEM	1	5	[0, 0, 0]	n/a	FR1	0	R1056M
869.411	0.676	338209	REC_WORD	0.676	n/a	HEART	10	5	[0, 0, 0]	n/a	FR1	0	R1056M
870.087	1.188	338547	REC_WORD	1.188	n/a	CORD	4	5	[0, 0, 0]	n/a	FR1	0	R1056M
871.275	1.016	339141	REC_WORD	1.016	n/a	MOTH	11	5	[0, 0, 0]	n/a	FR1	0	R1056M
872.291	1.198	339649	REC_WORD	1.198	n/a	ANT	8	5	[0, 0, 0]	n/a	FR1	0	R1056M
873.489	1.377	340248	REC_WORD	1.377	n/a	WORM	2	5	[0, 0, 0]	n/a	FR1	0	R1056M
874.866	2.229	340936	REC_WORD	2.229	n/a	SNAIL	6	5	[0, 0, 0]	n/a	FR1	0	R1056M
877.095	19.627	342050	REC_WORD	19.627	n/a	SALT	3	5	[0, 0, 0]	n/a	FR1	0	R1056M
896.722	6.465	351863	REC_END	n/a	n/a	n/a	-999	5	[0, 0, 0]	n/a	FR1	0	R1056M
903.187	0.0	355095	TRIAL	n/a	n/a	n/a	-999	6	[0, 0, 0]	n/a	FR1	0	R1056M
903.187	10.428	355095	COUNTDOWN_START	n/a	n/a	n/a	-999	6	[0, 0, 0]	n/a	FR1	0	R1056M
913.615	0.007	360308	COUNTDOWN_END	n/a	n/a	n/a	-999	6	[0, 0, 0]	n/a	FR1	0	R1056M
913.622	2.634	360312	ORIENT	n/a	n/a	n/a	-999	6	[0, 0, 0]	n/a	FR1	0	R1056M
916.256	2.533	361629	WORD	n/a	wordpools/wordpool_EN.txt	THUMB	1	6	[0, 0, 0]	n/a	FR1	0	R1056M
918.789	2.401	362895	WORD	n/a	wordpools/wordpool_EN.txt	SLEEVE	2	6	[0, 0, 0]	n/a	FR1	0	R1056M
921.19	2.467	364096	WORD	n/a	wordpools/wordpool_EN.txt	FENCE	3	6	[0, 0, 0]	n/a	FR1	0	R1056M
923.657	2.468	365329	WORD	n/a	wordpools/wordpool_EN.txt	YARD	4	6	[0, 0, 0]	n/a	FR1	0	R1056M
926.125	2.534	366563	WORD	n/a	wordpools/wordpool_EN.txt	PEN	5	6	[0, 0, 0]	n/a	FR1	0	R1056M
928.659	2.55	367830	WORD	n/a	wordpools/wordpool_EN.txt	COUCH	6	6	[0, 0, 0]	n/a	FR1	0	R1056M
931.209	2.549	369105	WORD	n/a	wordpools/wordpool_EN.txt	TAIL	7	6	[0, 0, 0]	n/a	FR1	0	R1056M
933.758	2.485	370379	WORD	n/a	wordpools/wordpool_EN.txt	GATE	8	6	[0, 0, 0]	n/a	FR1	0	R1056M
936.243	2.516	371621	WORD	n/a	wordpools/wordpool_EN.txt	POOL	9	6	[0, 0, 0]	n/a	FR1	0	R1056M
938.759	2.585	372879	WORD	n/a	wordpools/wordpool_EN.txt	BAG	10	6	[0, 0, 0]	n/a	FR1	0	R1056M
941.344	2.483	374172	WORD	n/a	wordpools/wordpool_EN.txt	CUBE	11	6	[0, 0, 0]	n/a	FR1	0	R1056M
943.827	1.601	375413	WORD	n/a	wordpools/wordpool_EN.txt	ROOM	12	6	[0, 0, 0]	n/a	FR1	0	R1056M
945.428	0.001	376213	DISTRACT_START	n/a	n/a	n/a	-999	6	[0, 0, 0]	n/a	FR1	0	R1056M
945.429	0.016	376214	START	n/a	n/a	n/a	-999	6	[-999, -999, -999]	n/a	FR1	0	R1056M
945.445	3.767	376222	PROB	3.767	n/a	n/a	-999	6	[6, 1, 3]	10	FR1	0	R1056M
949.212	2.401	378105	PROB	2.401	n/a	n/a	-999	6	[5, 7, 2]	14	FR1	0	R1056M
951.613	3.767	379306	PROB	3.767	n/a	n/a	-999	6	[7, 6, 3]	16	FR1	0	R1056M
955.38	1.867	381189	PROB	1.867	n/a	n/a	-999	6	[5, 1, 1]	7	FR1	0	R1056M
957.247	3.334	382122	PROB	3.334	n/a	n/a	-999	6	[2, 7, 5]	14	FR1	0	R1056M
960.581	3.851	383789	PROB	3.851	n/a	n/a	-999	6	[8, 5, 6]	19	FR1	0	R1056M
964.432	2.193	385714	PROB	2.193	n/a	n/a	-999	6	[4, 6, 9]	19	FR1	0	R1056M
966.625	0.007	386811	STOP	n/a	n/a	n/a	-999	6	[-999, -999, -999]	n/a	FR1	0	R1056M
966.632	1.035	386814	DISTRACT_END	n/a	n/a	n/a	-999	6	[0, 0, 0]	n/a	FR1	0	R1056M
967.667	1.264	387332	REC_START	n/a	n/a	n/a	-999	6	[0, 0, 0]	n/a	FR1	0	R1056M
968.931	0.555	387964	REC_WORD	0.555	n/a	THUMB	1	6	[0, 0, 0]	n/a	FR1	0	R1056M
969.486	0.909	388241	REC_WORD	0.909	n/a	SLEEVE	2	6	[0, 0, 0]	n/a	FR1	0	R1056M
970.395	0.699	388696	REC_WORD	0.699	n/a	FENCE	3	6	[0, 0, 0]	n/a	FR1	0	R1056M
971.094	1.016	389045	REC_WORD	1.016	n/a	YARD	4	6	[0, 0, 0]	n/a	FR1	0	R1056M
972.11	0.996	389553	REC_WORD	0.996	n/a	CUBE	11	6	[0, 0, 0]	n/a	FR1	0	R1056M
973.106	2.933	390051	REC_WORD	2.933	n/a	POOL	9	6	[0, 0, 0]	n/a	FR1	0	R1056M
976.039	0.695	391517	REC_WORD	0.695	n/a	TAIL	7	6	[0, 0, 0]	n/a	FR1	0	R1056M
976.734	20.942	391865	REC_WORD	20.942	n/a	GATE	8	6	[0, 0, 0]	n/a	FR1	0	R1056M
997.676	8.681	402335	REC_END	n/a	n/a	n/a	-999	6	[0, 0, 0]	n/a	FR1	0	R1056M
1006.357	0.0	406675	TRIAL	n/a	n/a	n/a	-999	7	[0, 0, 0]	n/a	FR1	0	R1056M
1006.357	10.428	406675	COUNTDOWN_START	n/a	n/a	n/a	-999	7	[0, 0, 0]	n/a	FR1	0	R1056M
1016.785	0.006	411888	COUNTDOWN_END	n/a	n/a	n/a	-999	7	[0, 0, 0]	n/a	FR1	0	R1056M
1016.791	2.552	411891	ORIENT	n/a	n/a	n/a	-999	7	[0, 0, 0]	n/a	FR1	0	R1056M
1019.343	2.449	413167	WORD	n/a	wordpools/wordpool_EN.txt	PEARL	1	7	[0, 0, 0]	n/a	FR1	0	R1056M
1021.792	2.418	414391	WORD	n/a	wordpools/wordpool_EN.txt	CAR	2	7	[0, 0, 0]	n/a	FR1	0	R1056M
1024.21	2.451	415600	WORD	n/a	wordpools/wordpool_EN.txt	HORSE	3	7	[0, 0, 0]	n/a	FR1	0	R1056M
1026.661	2.55	416826	WORD	n/a	wordpools/wordpool_EN.txt	PEA	4	7	[0, 0, 0]	n/a	FR1	0	R1056M
1029.211	2.566	418101	WORD	n/a	wordpools/wordpool_EN.txt	BEAR	5	7	[0, 0, 0]	n/a	FR1	0	R1056M
1031.777	2.418	419383	WORD	n/a	wordpools/wordpool_EN.txt	SHIP	6	7	[0, 0, 0]	n/a	FR1	0	R1056M
1034.195	2.468	420592	WORD	n/a	wordpools/wordpool_EN.txt	ROCK	7	7	[0, 0, 0]	n/a	FR1	0	R1056M
1036.663	2.583	421826	WORD	n/a	wordpools/wordpool_EN.txt	SMOKE	8	7	[0, 0, 0]	n/a	FR1	0	R1056M
1039.246	2.6	423118	WORD	n/a	wordpools/wordpool_EN.txt	NEST	9	7	[0, 0, 0]	n/a	FR1	0	R1056M
1041.846	2.501	424417	WORD	n/a	wordpools/wordpool_EN.txt	MOON	10	7	[0, 0, 0]	n/a	FR1	0	R1056M
1044.347	2.517	425668	WORD	n/a	wordpools/wordpool_EN.txt	STAR	11	7	[0, 0, 0]	n/a	FR1	0	R1056M
1046.864	1.618	426926	WORD	n/a	wordpools/wordpool_EN.txt	TOOTH	12	7	[0, 0, 0]	n/a	FR1	0	R1056M
1048.482	0.001	427735	DISTRACT_START	n/a	n/a	n/a	-999	7	[0, 0, 0]	n/a	FR1	0	R1056M
1048.483	0.015	427736	START	n/a	n/a	n/a	-999	7	[-999, -999, -999]	n/a	FR1	0	R1056M
1048.498	4.634	427743	PROB	4.634	n/a	n/a	-999	7	[4, 9, 4]	17	FR1	0	R1056M
1053.132	1.867	430060	PROB	1.867	n/a	n/a	-999	7	[1, 6, 1]	8	FR1	0	R1056M
1054.999	3.084	430993	PROB	3.084	n/a	n/a	-999	7	[8, 5, 7]	20	FR1	0	R1056M
1058.083	2.75	432535	PROB	2.75	n/a	n/a	-999	7	[3, 8, 3]	14	FR1	0	R1056M
1060.833	2.801	433910	PROB	2.801	n/a	n/a	-999	7	[6, 9, 1]	16	FR1	0	R1056M
1063.634	1.601	435310	PROB	1.601	n/a	n/a	-999	7	[3, 1, 2]	6	FR1	0	R1056M
1065.235	2.649	436111	PROB	2.649	n/a	n/a	-999	7	[6, 1, 2]	9	FR1	0	R1056M
1067.884	2.476	437435	PROB	2.476	n/a	n/a	-999	7	[5, 4, 6]	15	FR1	0	R1056M
1070.36	0.009	438673	STOP	n/a	n/a	n/a	-999	7	[-999, -999, -999]	n/a	FR1	0	R1056M
1070.369	1.218	438677	DISTRACT_END	n/a	n/a	n/a	-999	7	[0, 0, 0]	n/a	FR1	0	R1056M
1071.587	1.432	439286	REC_START	n/a	n/a	n/a	-999	7	[0, 0, 0]	n/a	FR1	0	R1056M
1073.019	1.091	440002	REC_WORD	1.091	n/a	PEARL	1	7	[0, 0, 0]	n/a	FR1	0	R1056M
1074.11	0.853	440548	REC_WORD	0.853	n/a	CAR	2	7	[0, 0, 0]	n/a	FR1	0	R1056M
1074.963	1.161	440974	REC_WORD	1.161	n/a	HORSE	3	7	[0, 0, 0]	n/a	FR1	0	R1056M
1076.124	1.243	441555	REC_WORD	1.243	n/a	PEA	4	7	[0, 0, 0]	n/a	FR1	0	R1056M
1077.367	3.093	442176	REC_WORD	3.093	n/a	BEAR	5	7	[0, 0, 0]	n/a	FR1	0	R1056M
1080.46	0.758	443722	REC_WORD	0.758	n/a	MOON	10	7	[0, 0, 0]	n/a	FR1	0	R1056M
1081.218	15.694	444101	REC_WORD	15.694	n/a	STAR	11	7	[0, 0, 0]	n/a	FR1	0	R1056M
1096.912	4.686	451948	REC_WORD	4.686	n/a	TOOTH	12	7	[0, 0, 0]	n/a	FR1	0	R1056M
1101.598	13.079	454290	REC_END	n/a	n/a	n/a	-999	7	[0, 0, 0]	n/a	FR1	0	R1056M
1114.677	0.0	460829	TRIAL	n/a	n/a	n/a	-999	8	[0, 0, 0]	n/a	FR1	0	R1056M
1114.677	10.428	460829	COUNTDOWN_START	n/a	n/a	n/a	-999	8	[0, 0, 0]	n/a	FR1	0	R1056M
1125.105	0.008	466043	COUNTDOWN_END	n/a	n/a	n/a	-999	8	[0, 0, 0]	n/a	FR1	0	R1056M
1125.113	2.417	466047	ORIENT	n/a	n/a	n/a	-999	8	[0, 0, 0]	n/a	FR1	0	R1056M
1127.53	2.584	467255	WORD	n/a	wordpools/wordpool_EN.txt	POLE	1	8	[0, 0, 0]	n/a	FR1	0	R1056M
1130.114	2.5	468547	WORD	n/a	wordpools/wordpool_EN.txt	CART	2	8	[0, 0, 0]	n/a	FR1	0	R1056M
1132.614	2.484	469797	WORD	n/a	wordpools/wordpool_EN.txt	SUIT	3	8	[0, 0, 0]	n/a	FR1	0	R1056M
1135.098	2.434	471039	WORD	n/a	wordpools/wordpool_EN.txt	ELF	4	8	[0, 0, 0]	n/a	FR1	0	R1056M
1137.532	2.417	472255	WORD	n/a	wordpools/wordpool_EN.txt	PARK	5	8	[0, 0, 0]	n/a	FR1	0	R1056M
1139.949	2.417	473464	WORD	n/a	wordpools/wordpool_EN.txt	SEAT	6	8	[0, 0, 0]	n/a	FR1	0	R1056M
1142.366	2.533	474672	WORD	n/a	wordpools/wordpool_EN.txt	FLAG	7	8	[0, 0, 0]	n/a	FR1	0	R1056M
1144.899	2.585	475939	WORD	n/a	wordpools/wordpool_EN.txt	TENT	8	8	[0, 0, 0]	n/a	FR1	0	R1056M
1147.484	2.383	477231	WORD	n/a	wordpools/wordpool_EN.txt	TRUCK	9	8	[0, 0, 0]	n/a	FR1	0	R1056M
1149.867	2.485	478422	WORD	n/a	wordpools/wordpool_EN.txt	ROOF	10	8	[0, 0, 0]	n/a	FR1	0	R1056M
1152.352	2.549	479665	WORD	n/a	wordpools/wordpool_EN.txt	VEST	11	8	[0, 0, 0]	n/a	FR1	0	R1056M
1154.901	1.602	480939	WORD	n/a	wordpools/wordpool_EN.txt	BAND	12	8	[0, 0, 0]	n/a	FR1	0	R1056M
1156.503	0.0	481740	DISTRACT_START	n/a	n/a	n/a	-999	8	[0, 0, 0]	n/a	FR1	0	R1056M
1156.503	0.016	481740	START	n/a	n/a	n/a	-999	8	[-999, -999, -999]	n/a	FR1	0	R1056M
1156.519	4.101	481748	PROB	4.101	n/a	n/a	-999	8	[3, 1, 3]	7	FR1	0	R1056M
1160.62	3.183	483798	PROB	3.183	n/a	n/a	-999	8	[9, 5, 8]	22	FR1	0	R1056M
1163.803	2.917	485390	PROB	2.917	n/a	n/a	-999	8	[9, 1, 2]	12	FR1	0	R1056M
1166.72	4.018	486848	PROB	4.018	n/a	n/a	-999	8	[7, 7, 6]	20	FR1	0	R1056M
1170.738	1.834	488857	PROB	1.834	n/a	n/a	-999	8	[4, 6, 1]	11	FR1	0	R1056M
1172.572	2.601	489774	PROB	2.601	n/a	n/a	-999	8	[8, 8, 6]	22	FR1	0	R1056M
1175.173	2.923	491074	PROB	2.923	n/a	n/a	-999	8	[2, 9, 3]	14	FR1	0	R1056M
1178.096	0.011	492535	STOP	n/a	n/a	n/a	-999	8	[-999, -999, -999]	n/a	FR1	0	R1056M
1178.107	1.034	492541	DISTRACT_END	n/a	n/a	n/a	-999	8	[0, 0, 0]	n/a	FR1	0	R1056M
1179.141	1.215	493058	REC_START	n/a	n/a	n/a	-999	8	[0, 0, 0]	n/a	FR1	0	R1056M
1180.356	0.786	493665	REC_WORD	0.786	n/a	POLE	1	8	[0, 0, 0]	n/a	FR1	0	R1056M
1181.142	0.883	494058	REC_WORD	0.883	n/a	CART	2	8	[0, 0, 0]	n/a	FR1	0	R1056M
1182.025	1.011	494500	REC_WORD	1.011	n/a	SUIT	3	8	[0, 0, 0]	n/a	FR1	0	R1056M
1183.036	0.938	495005	REC_WORD	0.938	n/a	ELF	4	8	[0, 0, 0]	n/a	FR1	0	R1056M
1183.974	1.071	495474	REC_WORD	1.071	n/a	VEST	11	8	[0, 0, 0]	n/a	FR1	0	R1056M
1185.045	24.106	496010	REC_WORD	24.106	n/a	TRUCK	9	8	[0, 0, 0]	n/a	FR1	0	R1056M
1209.151	3.429	508061	REC_END	n/a	n/a	n/a	-999	8	[0, 0, 0]	n/a	FR1	0	R1056M
1212.58	0.0	509776	TRIAL	n/a	n/a	n/a	-999	9	[0, 0, 0]	n/a	FR1	0	R1056M
1212.58	10.428	509776	COUNTDOWN_START	n/a	n/a	n/a	-999	9	[0, 0, 0]	n/a	FR1	0	R1056M
1223.008	0.007	514989	COUNTDOWN_END	n/a	n/a	n/a	-999	9	[0, 0, 0]	n/a	FR1	0	R1056M
1223.015	2.401	514993	ORIENT	n/a	n/a	n/a	-999	9	[0, 0, 0]	n/a	FR1	0	R1056M
1225.416	2.583	516193	WORD	n/a	wordpools/wordpool_EN.txt	LIP	1	9	[0, 0, 0]	n/a	FR1	0	R1056M
1227.999	2.384	517484	WORD	n/a	wordpools/wordpool_EN.txt	TRASH	2	9	[0, 0, 0]	n/a	FR1	0	R1056M
1230.383	2.416	518676	WORD	n/a	wordpools/wordpool_EN.txt	BOWL	3	9	[0, 0, 0]	n/a	FR1	0	R1056M
1232.799	2.519	519884	WORD	n/a	wordpools/wordpool_EN.txt	BEAN	4	9	[0, 0, 0]	n/a	FR1	0	R1056M
1235.318	2.482	521143	WORD	n/a	wordpools/wordpool_EN.txt	STEAK	5	9	[0, 0, 0]	n/a	FR1	0	R1056M
1237.8	2.385	522384	WORD	n/a	wordpools/wordpool_EN.txt	SPOON	6	9	[0, 0, 0]	n/a	FR1	0	R1056M
1240.185	2.434	523577	WORD	n/a	wordpools/wordpool_EN.txt	FACE	7	9	[0, 0, 0]	n/a	FR1	0	R1056M
1242.619	2.384	524794	WORD	n/a	wordpools/wordpool_EN.txt	EEL	8	9	[0, 0, 0]	n/a	FR1	0	R1056M
1245.003	2.384	525985	WORD	n/a	wordpools/wordpool_EN.txt	SHIELD	9	9	[0, 0, 0]	n/a	FR1	0	R1056M
1247.387	2.466	527177	WORD	n/a	wordpools/wordpool_EN.txt	SEAL	10	9	[0, 0, 0]	n/a	FR1	0	R1056M
1249.853	2.435	528410	WORD	n/a	wordpools/wordpool_EN.txt	SOUP	11	9	[0, 0, 0]	n/a	FR1	0	R1056M
1252.288	1.616	529628	WORD	n/a	wordpools/wordpool_EN.txt	PURSE	12	9	[0, 0, 0]	n/a	FR1	0	R1056M
1253.904	0.001	530435	DISTRACT_START	n/a	n/a	n/a	-999	9	[0, 0, 0]	n/a	FR1	0	R1056M
1253.905	0.015	530436	START	n/a	n/a	n/a	-999	9	[-999, -999, -999]	n/a	FR1	0	R1056M
1253.92	5.336	530443	PROB	5.336	n/a	n/a	-999	9	[7, 1, 5]	13	FR1	0	R1056M
1259.256	2.3	533111	PROB	2.3	n/a	n/a	-999	9	[3, 4, 2]	9	FR1	0	R1056M
1261.556	3.166	534261	PROB	3.166	n/a	n/a	-999	9	[9, 1, 9]	19	FR1	0	R1056M
1264.722	2.919	535844	PROB	2.919	n/a	n/a	-999	9	[6, 3, 2]	11	FR1	0	R1056M
1267.641	1.55	537303	PROB	1.55	n/a	n/a	-999	9	[4, 4, 4]	12	FR1	0	R1056M
1269.191	1.649	538078	PROB	1.649	n/a	n/a	-999	9	[3, 9, 1]	13	FR1	0	R1056M
1270.84	1.752	538903	PROB	1.752	n/a	n/a	-999	9	[3, 4, 4]	11	FR1	0	R1056M
1272.592	1.729	539779	PROB	1.729	n/a	n/a	-999	9	[3, 9, 1]	13	FR1	0	R1056M
1274.321	0.004	540643	STOP	n/a	n/a	n/a	-999	9	[-999, -999, -999]	n/a	FR1	0	R1056M
1274.325	1.151	540645	DISTRACT_END	n/a	n/a	n/a	-999	9	[0, 0, 0]	n/a	FR1	0	R1056M
1275.476	1.146	541220	REC_START	n/a	n/a	n/a	-999	9	[0, 0, 0]	n/a	FR1	0	R1056M
1276.622	0.852	541793	REC_WORD	0.852	n/a	TRASH	2	9	[0, 0, 0]	n/a	FR1	0	R1056M
1277.474	0.697	542219	REC_WORD	0.697	n/a	BOWL	3	9	[0, 0, 0]	n/a	FR1	0	R1056M
1278.171	0.503	542568	REC_WORD	0.503	n/a	BEAN	4	9	[0, 0, 0]	n/a	FR1	0	R1056M
1278.674	1.238	542819	REC_WORD	1.238	n/a	STEAK	5	9	[0, 0, 0]	n/a	FR1	0	R1056M
1279.912	4.217	543438	REC_WORD	4.217	n/a	LIP	1	9	[0, 0, 0]	n/a	FR1	0	R1056M
1284.129	21.357	545546	REC_WORD	21.357	n/a	EEL	8	9	[0, 0, 0]	n/a	FR1	0	R1056M
1305.486	2.546	556224	REC_END	n/a	n/a	n/a	-999	9	[0, 0, 0]	n/a	FR1	0	R1056M
1308.032	0.0	557497	TRIAL	n/a	n/a	n/a	-999	10	[0, 0, 0]	n/a	FR1	0	R1056M
1308.032	10.428	557497	COUNTDOWN_START	n/a	n/a	n/a	-999	10	[0, 0, 0]	n/a	FR1	0	R1056M
1318.46	0.007	562710	COUNTDOWN_END	n/a	n/a	n/a	-999	10	[0, 0, 0]	n/a	FR1	0	R1056M
1318.467	2.383	562714	ORIENT	n/a	n/a	n/a	-999	10	[0, 0, 0]	n/a	FR1	0	R1056M
1320.85	2.585	563905	WORD	n/a	wordpools/wordpool_EN.txt	BED	1	10	[0, 0, 0]	n/a	FR1	0	R1056M
1323.435	2.6	565197	WORD	n/a	wordpools/wordpool_EN.txt	TEA	2	10	[0, 0, 0]	n/a	FR1	0	R1056M
1326.035	2.567	566497	WORD	n/a	wordpools/wordpool_EN.txt	PANTS	3	10	[0, 0, 0]	n/a	FR1	0	R1056M
1328.602	2.584	567781	WORD	n/a	wordpools/wordpool_EN.txt	TOY	4	10	[0, 0, 0]	n/a	FR1	0	R1056M
1331.186	2.417	569073	WORD	n/a	wordpools/wordpool_EN.txt	CLOTH	5	10	[0, 0, 0]	n/a	FR1	0	R1056M
1333.603	2.517	570281	WORD	n/a	wordpools/wordpool_EN.txt	GRASS	6	10	[0, 0, 0]	n/a	FR1	0	R1056M
1336.12	2.567	571539	WORD	n/a	wordpools/wordpool_EN.txt	OAK	7	10	[0, 0, 0]	n/a	FR1	0	R1056M
1338.687	2.384	572823	WORD	n/a	wordpools/wordpool_EN.txt	FUR	8	10	[0, 0, 0]	n/a	FR1	0	R1056M
1341.071	2.401	574015	WORD	n/a	wordpools/wordpool_EN.txt	SOCK	9	10	[0, 0, 0]	n/a	FR1	0	R1056M
1343.472	2.5	575215	WORD	n/a	wordpools/wordpool_EN.txt	MAT	10	10	[0, 0, 0]	n/a	FR1	0	R1056M
1345.972	2.401	576465	WORD	n/a	wordpools/wordpool_EN.txt	TIE	11	10	[0, 0, 0]	n/a	FR1	0	R1056M
1348.373	1.617	577665	WORD	n/a	wordpools/wordpool_EN.txt	LAMB	12	10	[0, 0, 0]	n/a	FR1	0	R1056M
1349.99	0.001	578474	DISTRACT_START	n/a	n/a	n/a	-999	10	[0, 0, 0]	n/a	FR1	0	R1056M
1349.991	0.015	578474	START	n/a	n/a	n/a	-999	10	[-999, -999, -999]	n/a	FR1	0	R1056M
1350.006	3.85	578482	PROB	3.85	n/a	n/a	-999	10	[4, 3, 4]	11	FR1	0	R1056M
1353.856	1.851	580406	PROB	1.851	n/a	n/a	-999	10	[3, 3, 7]	13	FR1	0	R1056M
1355.707	1.951	581332	PROB	1.951	n/a	n/a	-999	10	[7, 1, 3]	11	FR1	0	R1056M
1357.658	4.517	582307	PROB	4.517	n/a	n/a	-999	10	[4, 7, 8]	19	FR1	0	R1056M
1362.175	1.717	584565	PROB	1.717	n/a	n/a	-999	10	[5, 5, 9]	19	FR1	0	R1056M
1363.892	1.867	585424	PROB	1.867	n/a	n/a	-999	10	[4, 4, 1]	9	FR1	0	R1056M
1365.759	2.401	586357	PROB	2.401	n/a	n/a	-999	10	[2, 5, 4]	11	FR1	0	R1056M
1368.16	1.549	587558	PROB	1.549	n/a	n/a	-999	10	[2, 6, 3]	11	FR1	0	R1056M
1369.709	1.42	588332	PROB	1.42	n/a	n/a	-999	10	[4, 3, 4]	11	FR1	0	R1056M
1371.129	0.015	589042	STOP	n/a	n/a	n/a	-999	10	[-999, -999, -999]	n/a	FR1	0	R1056M
1371.144	1.151	589049	DISTRACT_END	n/a	n/a	n/a	-999	10	[0, 0, 0]	n/a	FR1	0	R1056M
1372.295	0.988	589625	REC_START	n/a	n/a	n/a	-999	10	[0, 0, 0]	n/a	FR1	0	R1056M
1373.283	0.886	590119	REC_WORD	0.886	n/a	BED	1	10	[0, 0, 0]	n/a	FR1	0	R1056M
1374.169	0.927	590562	REC_WORD	0.927	n/a	TEA	2	10	[0, 0, 0]	n/a	FR1	0	R1056M
1375.096	1.187	591025	REC_WORD	1.187	n/a	PANTS	3	10	[0, 0, 0]	n/a	FR1	0	R1056M
1376.283	1.235	591619	REC_WORD	1.235	n/a	FUR	8	10	[0, 0, 0]	n/a	FR1	0	R1056M
1377.518	24.787	592236	REC_WORD	24.787	n/a	LAMB	12	10	[0, 0, 0]	n/a	FR1	0	R1056M
1402.305	421.592	604628	REC_END	n/a	n/a	n/a	-999	10	[0, 0, 0]	n/a	FR1	0	R1056M
1823.897	0.0	815403	TRIAL	n/a	n/a	n/a	-999	11	[0, 0, 0]	n/a	FR1	0	R1056M
1823.897	10.428	815403	COUNTDOWN_START	n/a	n/a	n/a	-999	11	[0, 0, 0]	n/a	FR1	0	R1056M
1834.325	0.008	820616	COUNTDOWN_END	n/a	n/a	n/a	-999	11	[0, 0, 0]	n/a	FR1	0	R1056M
1834.333	2.533	820620	ORIENT	n/a	n/a	n/a	-999	11	[0, 0, 0]	n/a	FR1	0	R1056M
1836.866	2.568	821887	WORD	n/a	wordpools/wordpool_EN.txt	STAIR	1	11	[0, 0, 0]	n/a	FR1	0	R1056M
1839.434	2.466	823170	WORD	n/a	wordpools/wordpool_EN.txt	NET	2	11	[0, 0, 0]	n/a	FR1	0	R1056M
1841.9	2.418	824403	WORD	n/a	wordpools/wordpool_EN.txt	BALL	3	11	[0, 0, 0]	n/a	FR1	0	R1056M
1844.318	2.55	825612	WORD	n/a	wordpools/wordpool_EN.txt	SHEET	4	11	[0, 0, 0]	n/a	FR1	0	R1056M
1846.868	2.385	826887	WORD	n/a	wordpools/wordpool_EN.txt	SCHOOL	5	11	[0, 0, 0]	n/a	FR1	0	R1056M
1849.253	2.583	828079	WORD	n/a	wordpools/wordpool_EN.txt	MAP	6	11	[0, 0, 0]	n/a	FR1	0	R1056M
1851.836	2.468	829371	WORD	n/a	wordpools/wordpool_EN.txt	WAND	7	11	[0, 0, 0]	n/a	FR1	0	R1056M
1854.304	2.616	830605	WORD	n/a	wordpools/wordpool_EN.txt	BOARD	8	11	[0, 0, 0]	n/a	FR1	0	R1056M
1856.92	2.585	831912	WORD	n/a	wordpools/wordpool_EN.txt	BOOK	9	11	[0, 0, 0]	n/a	FR1	0	R1056M
1859.505	2.484	833205	WORD	n/a	wordpools/wordpool_EN.txt	TRAIN	10	11	[0, 0, 0]	n/a	FR1	0	R1056M
1861.989	2.4	834447	WORD	n/a	wordpools/wordpool_EN.txt	DUCK	11	11	[0, 0, 0]	n/a	FR1	0	R1056M
1864.389	1.617	835647	WORD	n/a	wordpools/wordpool_EN.txt	JUDGE	12	11	[0, 0, 0]	n/a	FR1	0	R1056M
1866.006	0.001	836455	DISTRACT_START	n/a	n/a	n/a	-999	11	[0, 0, 0]	n/a	FR1	0	R1056M
1866.007	0.016	836456	START	n/a	n/a	n/a	-999	11	[-999, -999, -999]	n/a	FR1	0	R1056M
1866.023	4.816	836464	PROB	4.816	n/a	n/a	-999	11	[5, 9, 4]	19	FR1	0	R1056M
1870.839	3.219	838871	PROB	3.219	n/a	n/a	-999	11	[3, 1, 5]	9	FR1	0	R1056M
1874.058	2.233	840481	PROB	2.233	n/a	n/a	-999	11	[3, 1, 6]	10	FR1	0	R1056M
1876.291	6.018	841597	PROB	6.018	n/a	n/a	-999	11	[7, 8, 6]	21	FR1	0	R1056M
1882.309	3.651	844606	PROB	3.651	n/a	n/a	-999	11	[4, 3, 7]	14	FR1	0	R1056M
1885.96	2.505	846431	PROB	2.505	n/a	n/a	-999	11	[9, 1, 6]	16	FR1	0	R1056M
1888.465	0.012	847683	STOP	n/a	n/a	n/a	-999	11	[-999, -999, -999]	n/a	FR1	0	R1056M
1888.477	1.067	847689	DISTRACT_END	n/a	n/a	n/a	-999	11	[0, 0, 0]	n/a	FR1	0	R1056M
1889.544	1.232	848223	REC_START	n/a	n/a	n/a	-999	11	[0, 0, 0]	n/a	FR1	0	R1056M
1890.776	1.09	848839	REC_WORD	1.09	n/a	STAIR	1	11	[0, 0, 0]	n/a	FR1	0	R1056M
1891.866	0.714	849384	REC_WORD	0.714	n/a	NET	2	11	[0, 0, 0]	n/a	FR1	0	R1056M
1892.58	0.809	849741	REC_WORD	0.809	n/a	BALL	3	11	[0, 0, 0]	n/a	FR1	0	R1056M
1893.389	1.016	850145	REC_WORD	1.016	n/a	SHEET	4	11	[0, 0, 0]	n/a	FR1	0	R1056M
1894.405	1.469	850653	REC_WORD	1.469	n/a	SCHOOL	5	11	[0, 0, 0]	n/a	FR1	0	R1056M
1895.874	1.6	851387	REC_WORD	1.6	n/a	JUDGE	12	11	[0, 0, 0]	n/a	FR1	0	R1056M
1897.474	4.314	852187	REC_WORD	4.314	n/a	DUCK	11	11	[0, 0, 0]	n/a	FR1	0	R1056M
1901.788	4.781	854344	REC_WORD	4.781	n/a	WAND	7	11	[0, 0, 0]	n/a	FR1	0	R1056M
1906.569	12.989	856734	REC_WORD	12.989	n/a	NET	2	11	[0, 0, 0]	n/a	FR1	0	R1056M
1919.558	6.209	863228	REC_END	n/a	n/a	n/a	-999	11	[0, 0, 0]	n/a	FR1	0	R1056M
1925.767	0.0	866332	COUNTDOWN_START	n/a	n/a	n/a	-999	12	[0, 0, 0]	n/a	FR1	0	R1056M
1925.767	10.428	866332	TRIAL	n/a	n/a	n/a	-999	12	[0, 0, 0]	n/a	FR1	0	R1056M
1936.195	0.008	871546	COUNTDOWN_END	n/a	n/a	n/a	-999	12	[0, 0, 0]	n/a	FR1	0	R1056M
1936.203	2.566	871550	ORIENT	n/a	n/a	n/a	-999	12	[0, 0, 0]	n/a	FR1	0	R1056M
1938.769	2.418	872833	WORD	n/a	wordpools/wordpool_EN.txt	TOAST	1	12	[0, 0, 0]	n/a	FR1	0	R1056M
1941.187	2.401	874042	WORD	n/a	wordpools/wordpool_EN.txt	STICK	2	12	[0, 0, 0]	n/a	FR1	0	R1056M
1943.588	2.483	875242	WORD	n/a	wordpools/wordpool_EN.txt	DART	3	12	[0, 0, 0]	n/a	FR1	0	R1056M
1946.071	2.584	876483	WORD	n/a	wordpools/wordpool_EN.txt	CHEEK	4	12	[0, 0, 0]	n/a	FR1	0	R1056M
1948.655	2.401	877775	WORD	n/a	wordpools/wordpool_EN.txt	FAN	5	12	[0, 0, 0]	n/a	FR1	0	R1056M
1951.056	2.6	878976	WORD	n/a	wordpools/wordpool_EN.txt	CUP	6	12	[0, 0, 0]	n/a	FR1	0	R1056M
1953.656	2.617	880276	WORD	n/a	wordpools/wordpool_EN.txt	DRESS	7	12	[0, 0, 0]	n/a	FR1	0	R1056M
1956.273	2.467	881584	WORD	n/a	wordpools/wordpool_EN.txt	PIE	8	12	[0, 0, 0]	n/a	FR1	0	R1056M
1958.74	2.484	882817	WORD	n/a	wordpools/wordpool_EN.txt	PLATE	9	12	[0, 0, 0]	n/a	FR1	0	R1056M
1961.224	2.566	884059	WORD	n/a	wordpools/wordpool_EN.txt	WALL	10	12	[0, 0, 0]	n/a	FR1	0	R1056M
1963.79	2.552	885342	WORD	n/a	wordpools/wordpool_EN.txt	FLOOR	11	12	[0, 0, 0]	n/a	FR1	0	R1056M
1966.342	1.617	886618	WORD	n/a	wordpools/wordpool_EN.txt	ROSE	12	12	[0, 0, 0]	n/a	FR1	0	R1056M
1967.959	0.001	887426	DISTRACT_START	n/a	n/a	n/a	-999	12	[0, 0, 0]	n/a	FR1	0	R1056M
1967.96	0.016	887427	START	n/a	n/a	n/a	-999	12	[-999, -999, -999]	n/a	FR1	0	R1056M
1967.976	3.567	887435	PROB	3.567	n/a	n/a	-999	12	[3, 7, 4]	14	FR1	0	R1056M
1971.543	2.149	889218	PROB	2.149	n/a	n/a	-999	12	[4, 6, 3]	13	FR1	0	R1056M
1973.692	2.234	890292	PROB	2.234	n/a	n/a	-999	12	[6, 6, 6]	18	FR1	0	R1056M
1975.926	4.069	891409	PROB	4.069	n/a	n/a	-999	12	[6, 9, 7]	22	FR1	0	R1056M
1979.995	2.533	893444	PROB	2.533	n/a	n/a	-999	12	[4, 5, 5]	14	FR1	0	R1056M
1982.528	2.267	894710	PROB	2.267	n/a	n/a	-999	12	[4, 2, 8]	14	FR1	0	R1056M
1984.795	2.501	895843	PROB	2.501	n/a	n/a	-999	12	[5, 7, 7]	19	FR1	0	R1056M
1987.296	1.769	897094	PROB	1.769	n/a	n/a	-999	12	[1, 4, 4]	9	FR1	0	R1056M
1989.065	0.015	897978	STOP	n/a	n/a	n/a	-999	12	[-999, -999, -999]	n/a	FR1	0	R1056M
1989.08	1.051	897986	DISTRACT_END	n/a	n/a	n/a	-999	12	[0, 0, 0]	n/a	FR1	0	R1056M
1990.131	1.171	898511	REC_START	n/a	n/a	n/a	-999	12	[0, 0, 0]	n/a	FR1	0	R1056M
1991.302	0.61	899097	REC_WORD	0.61	n/a	WALL	10	12	[0, 0, 0]	n/a	FR1	0	R1056M
1991.912	0.841	899402	REC_WORD	0.841	n/a	FLOOR	11	12	[0, 0, 0]	n/a	FR1	0	R1056M
1992.753	0.715	899822	REC_WORD	0.715	n/a	ROSE	12	12	[0, 0, 0]	n/a	FR1	0	R1056M
1993.468	0.778	900179	REC_WORD	0.778	n/a	PLATE	9	12	[0, 0, 0]	n/a	FR1	0	R1056M
1994.246	3.111	900568	REC_WORD	3.111	n/a	CHEEK	4	12	[0, 0, 0]	n/a	FR1	0	R1056M
1997.357	11.196	902124	REC_WORD	11.196	n/a	DART	3	12	[0, 0, 0]	n/a	FR1	0	R1056M
2008.553	11.588	907721	REC_WORD	11.588	n/a	CUP	6	12	[0, 0, 0]	n/a	FR1	0	R1056M
2020.141	6.678	913515	REC_END	n/a	n/a	n/a	-999	12	[0, 0, 0]	n/a	FR1	0	R1056M
2026.819	0.0	916853	TRIAL	n/a	n/a	n/a	-999	13	[0, 0, 0]	n/a	FR1	0	R1056M
2026.819	10.428	916853	COUNTDOWN_START	n/a	n/a	n/a	-999	13	[0, 0, 0]	n/a	FR1	0	R1056M
2037.247	0.009	922067	COUNTDOWN_END	n/a	n/a	n/a	-999	13	[0, 0, 0]	n/a	FR1	0	R1056M
2037.256	2.599	922071	ORIENT	n/a	n/a	n/a	-999	13	[0, 0, 0]	n/a	FR1	0	R1056M
2039.855	2.552	923371	WORD	n/a	wordpools/wordpool_EN.txt	STOVE	1	13	[0, 0, 0]	n/a	FR1	0	R1056M
2042.407	2.449	924646	WORD	n/a	wordpools/wordpool_EN.txt	CALF	2	13	[0, 0, 0]	n/a	FR1	0	R1056M
2044.856	2.518	925871	WORD	n/a	wordpools/wordpool_EN.txt	MUG	3	13	[0, 0, 0]	n/a	FR1	0	R1056M
2047.374	2.533	927130	WORD	n/a	wordpools/wordpool_EN.txt	APE	4	13	[0, 0, 0]	n/a	FR1	0	R1056M
2049.907	2.452	928396	WORD	n/a	wordpools/wordpool_EN.txt	FOX	5	13	[0, 0, 0]	n/a	FR1	0	R1056M
2052.359	2.583	929622	WORD	n/a	wordpools/wordpool_EN.txt	WOLF	6	13	[0, 0, 0]	n/a	FR1	0	R1056M
2054.942	2.534	930913	WORD	n/a	wordpools/wordpool_EN.txt	HOOK	7	13	[0, 0, 0]	n/a	FR1	0	R1056M
2057.476	2.416	932180	WORD	n/a	wordpools/wordpool_EN.txt	BARN	8	13	[0, 0, 0]	n/a	FR1	0	R1056M
2059.892	2.369	933388	WORD	n/a	wordpools/wordpool_EN.txt	NOSE	9	13	[0, 0, 0]	n/a	FR1	0	R1056M
2062.261	2.465	934572	WORD	n/a	wordpools/wordpool_EN.txt	HEN	10	13	[0, 0, 0]	n/a	FR1	0	R1056M
2064.726	2.535	935805	WORD	n/a	wordpools/wordpool_EN.txt	FARM	11	13	[0, 0, 0]	n/a	FR1	0	R1056M
2067.261	1.617	937072	WORD	n/a	wordpools/wordpool_EN.txt	FORK	12	13	[0, 0, 0]	n/a	FR1	0	R1056M
2068.878	0.0	937881	DISTRACT_START	n/a	n/a	n/a	-999	13	[0, 0, 0]	n/a	FR1	0	R1056M
2068.878	0.016	937881	START	n/a	n/a	n/a	-999	13	[-999, -999, -999]	n/a	FR1	0	R1056M
2068.894	3.984	937889	PROB	3.984	n/a	n/a	-999	13	[7, 1, 7]	15	FR1	0	R1056M
2072.878	3.001	939880	PROB	3.001	n/a	n/a	-999	13	[9, 3, 8]	21	FR1	0	R1056M
2075.879	5.185	941381	PROB	5.185	n/a	n/a	-999	13	[7, 2, 5]	14	FR1	0	R1056M
2081.064	1.584	943973	PROB	1.584	n/a	n/a	-999	13	[3, 3, 3]	9	FR1	0	R1056M
2082.648	2.166	944765	PROB	2.166	n/a	n/a	-999	13	[6, 2, 6]	14	FR1	0	R1056M
2084.814	1.485	945848	PROB	1.485	n/a	n/a	-999	13	[6, 4, 3]	13	FR1	0	R1056M
2086.299	2.566	946590	PROB	2.566	n/a	n/a	-999	13	[8, 3, 6]	17	FR1	0	R1056M
2088.865	2.894	947873	PROB	2.894	n/a	n/a	-999	13	[4, 1, 2]	7	FR1	0	R1056M
2091.759	0.023	949320	STOP	n/a	n/a	n/a	-999	13	[-999, -999, -999]	n/a	FR1	0	R1056M
2091.782	1.117	949331	DISTRACT_END	n/a	n/a	n/a	-999	13	[0, 0, 0]	n/a	FR1	0	R1056M
2092.899	0.948	949890	REC_START	n/a	n/a	n/a	-999	13	[0, 0, 0]	n/a	FR1	0	R1056M
2093.847	1.0	950364	REC_WORD	1.0	n/a	MUG	3	13	[0, 0, 0]	n/a	FR1	0	R1056M
2094.847	0.65	950864	REC_WORD	0.65	n/a	APE	4	13	[0, 0, 0]	n/a	FR1	0	R1056M
2095.497	1.01	951189	REC_WORD	1.01	n/a	STOVE	1	13	[0, 0, 0]	n/a	FR1	0	R1056M
2096.507	1.109	951694	REC_WORD	1.109	n/a	CALF	2	13	[0, 0, 0]	n/a	FR1	0	R1056M
2097.616	1.693	952248	REC_WORD	1.693	n/a	WOLF	6	13	[0, 0, 0]	n/a	FR1	0	R1056M
2099.309	7.083	953095	REC_WORD	7.083	n/a	HEN	10	13	[0, 0, 0]	n/a	FR1	0	R1056M
2106.392	14.497	956636	REC_WORD	14.497	n/a	FARM	11	13	[0, 0, 0]	n/a	FR1	0	R1056M
2120.889	2.019	963883	REC_WORD	2.019	n/a	BARN	8	13	[0, 0, 0]	n/a	FR1	0	R1056M
2122.908	36.138	964893	REC_END	n/a	n/a	n/a	-999	13	[0, 0, 0]	n/a	FR1	0	R1056M
2159.046	0.0	982960	TRIAL	n/a	n/a	n/a	-999	14	[0, 0, 0]	n/a	FR1	0	R1056M
2159.046	10.428	982960	COUNTDOWN_START	n/a	n/a	n/a	-999	14	[0, 0, 0]	n/a	FR1	0	R1056M
2169.474	0.007	988173	COUNTDOWN_END	n/a	n/a	n/a	-999	14	[0, 0, 0]	n/a	FR1	0	R1056M
2169.481	2.534	988177	ORIENT	n/a	n/a	n/a	-999	14	[0, 0, 0]	n/a	FR1	0	R1056M
2172.015	2.517	989444	WORD	n/a	wordpools/wordpool_EN.txt	SHEEP	1	14	[0, 0, 0]	n/a	FR1	0	R1056M
2174.532	2.567	990702	WORD	n/a	wordpools/wordpool_EN.txt	DRUM	2	14	[0, 0, 0]	n/a	FR1	0	R1056M
2177.099	2.401	991986	WORD	n/a	wordpools/wordpool_EN.txt	VINE	3	14	[0, 0, 0]	n/a	FR1	0	R1056M
2179.5	2.467	993186	WORD	n/a	wordpools/wordpool_EN.txt	CROW	4	14	[0, 0, 0]	n/a	FR1	0	R1056M
2181.967	2.434	994419	WORD	n/a	wordpools/wordpool_EN.txt	RAIN	5	14	[0, 0, 0]	n/a	FR1	0	R1056M
2184.401	2.433	995636	WORD	n/a	wordpools/wordpool_EN.txt	BRUSH	6	14	[0, 0, 0]	n/a	FR1	0	R1056M
2186.834	2.568	996853	WORD	n/a	wordpools/wordpool_EN.txt	DEER	7	14	[0, 0, 0]	n/a	FR1	0	R1056M
2189.402	2.466	998136	WORD	n/a	wordpools/wordpool_EN.txt	FROG	8	14	[0, 0, 0]	n/a	FR1	0	R1056M
2191.868	2.451	999369	WORD	n/a	wordpools/wordpool_EN.txt	PASTE	9	14	[0, 0, 0]	n/a	FR1	0	R1056M
2194.319	2.6	1000595	WORD	n/a	wordpools/wordpool_EN.txt	TEETH	10	14	[0, 0, 0]	n/a	FR1	0	R1056M
2196.919	2.501	1001895	WORD	n/a	wordpools/wordpool_EN.txt	ROOT	11	14	[0, 0, 0]	n/a	FR1	0	R1056M
2199.42	1.617	1003145	WORD	n/a	wordpools/wordpool_EN.txt	CHIEF	12	14	[0, 0, 0]	n/a	FR1	0	R1056M
2201.037	0.001	1003953	DISTRACT_START	n/a	n/a	n/a	-999	14	[0, 0, 0]	n/a	FR1	0	R1056M
2201.038	0.016	1003954	START	n/a	n/a	n/a	-999	14	[-999, -999, -999]	n/a	FR1	0	R1056M
2201.054	5.568	1003962	PROB	5.568	n/a	n/a	-999	14	[5, 3, 9]	17	FR1	0	R1056M
2206.622	1.683	1006746	PROB	1.683	n/a	n/a	-999	14	[9, 3, 9]	21	FR1	0	R1056M
2208.305	1.817	1007587	PROB	1.817	n/a	n/a	-999	14	[2, 8, 6]	16	FR1	0	R1056M
2210.122	5.135	1008495	PROB	5.135	n/a	n/a	-999	14	[3, 5, 6]	14	FR1	0	R1056M
2215.257	1.9	1011063	PROB	1.9	n/a	n/a	-999	14	[3, 9, 2]	14	FR1	0	R1056M
2217.157	2.117	1012012	PROB	2.117	n/a	n/a	-999	14	[5, 2, 2]	9	FR1	0	R1056M
2219.274	2.831	1013071	PROB	2.831	n/a	n/a	-999	14	[9, 6, 8]	23	FR1	0	R1056M
2222.105	0.02	1014486	STOP	n/a	n/a	n/a	-999	14	[-999, -999, -999]	n/a	FR1	0	R1056M
2222.125	1.117	1014496	DISTRACT_END	n/a	n/a	n/a	-999	14	[0, 0, 0]	n/a	FR1	0	R1056M
2223.242	1.9	1015055	REC_START	n/a	n/a	n/a	-999	14	[0, 0, 0]	n/a	FR1	0	R1056M
2225.142	0.682	1016005	REC_WORD	0.682	n/a	RAIN	5	14	[0, 0, 0]	n/a	FR1	0	R1056M
2225.824	1.571	1016346	REC_WORD	1.571	n/a	BRUSH	6	14	[0, 0, 0]	n/a	FR1	0	R1056M
2227.395	1.834	1017131	REC_WORD	1.834	n/a	CHIEF	12	14	[0, 0, 0]	n/a	FR1	0	R1056M
2229.229	9.043	1018048	REC_WORD	9.043	n/a	CROW	4	14	[0, 0, 0]	n/a	FR1	0	R1056M
2238.272	14.986	1022569	REC_WORD	14.986	n/a	CLOUDY	-999	14	[0, 0, 0]	n/a	FR1	0	R1056M
2253.258	19.06	1030061	REC_END	n/a	n/a	n/a	-999	14	[0, 0, 0]	n/a	FR1	0	R1056M
2272.318	0.0	1039590	TRIAL	n/a	n/a	n/a	-999	15	[0, 0, 0]	n/a	FR1	0	R1056M
2272.318	10.428	1039590	COUNTDOWN_START	n/a	n/a	n/a	-999	15	[0, 0, 0]	n/a	FR1	0	R1056M
2282.746	0.006	1044804	COUNTDOWN_END	n/a	n/a	n/a	-999	15	[0, 0, 0]	n/a	FR1	0	R1056M
2282.752	2.452	1044807	ORIENT	n/a	n/a	n/a	-999	15	[0, 0, 0]	n/a	FR1	0	R1056M
2285.204	2.582	1046032	WORD	n/a	wordpools/wordpool_EN.txt	DESK	1	15	[0, 0, 0]	n/a	FR1	0	R1056M
2287.786	2.369	1047323	WORD	n/a	wordpools/wordpool_EN.txt	BREAD	2	15	[0, 0, 0]	n/a	FR1	0	R1056M
2290.155	2.566	1048508	WORD	n/a	wordpools/wordpool_EN.txt	WORLD	3	15	[0, 0, 0]	n/a	FR1	0	R1056M
2292.721	2.485	1049791	WORD	n/a	wordpools/wordpool_EN.txt	BENCH	4	15	[0, 0, 0]	n/a	FR1	0	R1056M
2295.206	2.549	1051033	WORD	n/a	wordpools/wordpool_EN.txt	STOOL	5	15	[0, 0, 0]	n/a	FR1	0	R1056M
2297.755	2.551	1052307	WORD	n/a	wordpools/wordpool_EN.txt	MOUTH	6	15	[0, 0, 0]	n/a	FR1	0	R1056M
2300.306	2.567	1053583	WORD	n/a	wordpools/wordpool_EN.txt	SKUNK	7	15	[0, 0, 0]	n/a	FR1	0	R1056M
2302.873	2.418	1054866	WORD	n/a	wordpools/wordpool_EN.txt	RAT	8	15	[0, 0, 0]	n/a	FR1	0	R1056M
2305.291	2.416	1056075	WORD	n/a	wordpools/wordpool_EN.txt	BUSH	9	15	[0, 0, 0]	n/a	FR1	0	R1056M
2307.707	2.618	1057283	WORD	n/a	wordpools/wordpool_EN.txt	SINK	10	15	[0, 0, 0]	n/a	FR1	0	R1056M
2310.325	2.466	1058592	WORD	n/a	wordpools/wordpool_EN.txt	BROOM	11	15	[0, 0, 0]	n/a	FR1	0	R1056M
2312.791	1.601	1059825	WORD	n/a	wordpools/wordpool_EN.txt	VASE	12	15	[0, 0, 0]	n/a	FR1	0	R1056M
2314.392	0.001	1060625	DISTRACT_START	n/a	n/a	n/a	-999	15	[0, 0, 0]	n/a	FR1	0	R1056M
2314.393	0.016	1060625	START	n/a	n/a	n/a	-999	15	[-999, -999, -999]	n/a	FR1	0	R1056M
2314.409	5.085	1060633	PROB	5.085	n/a	n/a	-999	15	[3, 8, 4]	15	FR1	0	R1056M
2319.494	4.399	1063176	PROB	4.399	n/a	n/a	-999	15	[2, 1, 4]	7	FR1	0	R1056M
2323.893	4.352	1065375	PROB	4.352	n/a	n/a	-999	15	[9, 7, 9]	25	FR1	0	R1056M
2328.245	2.751	1067551	PROB	2.751	n/a	n/a	-999	15	[2, 1, 9]	12	FR1	0	R1056M
2330.996	1.467	1068926	PROB	1.467	n/a	n/a	-999	15	[1, 1, 2]	4	FR1	0	R1056M
2332.463	2.553	1069660	PROB	2.553	n/a	n/a	-999	15	[9, 9, 6]	24	FR1	0	R1056M
2335.016	0.014	1070936	STOP	n/a	n/a	n/a	-999	15	[-999, -999, -999]	n/a	FR1	0	R1056M
2335.03	1.201	1070943	DISTRACT_END	n/a	n/a	n/a	-999	15	[0, 0, 0]	n/a	FR1	0	R1056M
2336.231	1.13	1071543	REC_START	n/a	n/a	n/a	-999	15	[0, 0, 0]	n/a	FR1	0	R1056M
2337.361	0.767	1072108	REC_WORD	0.767	n/a	DESK	1	15	[0, 0, 0]	n/a	FR1	0	R1056M
2338.128	1.015	1072492	REC_WORD	1.015	n/a	BED	-999	15	[0, 0, 0]	n/a	FR1	0	R1056M
2339.143	0.893	1072999	REC_WORD	0.893	n/a	WORLD	3	15	[0, 0, 0]	n/a	FR1	0	R1056M
2340.036	1.674	1073446	REC_WORD	1.674	n/a	BENCH	4	15	[0, 0, 0]	n/a	FR1	0	R1056M
2341.71	1.707	1074283	REC_WORD	1.707	n/a	STOOL	5	15	[0, 0, 0]	n/a	FR1	0	R1056M
2343.417	8.343	1075136	REC_WORD	8.343	n/a	SKUNK	7	15	[0, 0, 0]	n/a	FR1	0	R1056M
2351.76	14.481	1079307	REC_WORD	14.481	n/a	VASE	12	15	[0, 0, 0]	n/a	FR1	0	R1056M
2366.241	3.862	1086547	REC_END	n/a	n/a	n/a	-999	15	[0, 0, 0]	n/a	FR1	0	R1056M
2370.103	0.001	1088478	COUNTDOWN_START	n/a	n/a	n/a	-999	16	[0, 0, 0]	n/a	FR1	0	R1056M
2370.104	10.427	1088478	TRIAL	n/a	n/a	n/a	-999	16	[0, 0, 0]	n/a	FR1	0	R1056M
2380.531	0.008	1093691	COUNTDOWN_END	n/a	n/a	n/a	-999	16	[0, 0, 0]	n/a	FR1	0	R1056M
2380.539	2.4	1093695	ORIENT	n/a	n/a	n/a	-999	16	[0, 0, 0]	n/a	FR1	0	R1056M
2382.939	2.567	1094895	WORD	n/a	wordpools/wordpool_EN.txt	INK	1	16	[0, 0, 0]	n/a	FR1	0	R1056M
2385.506	2.551	1096178	WORD	n/a	wordpools/wordpool_EN.txt	BOY	2	16	[0, 0, 0]	n/a	FR1	0	R1056M
2388.057	2.45	1097454	WORD	n/a	wordpools/wordpool_EN.txt	FILM	3	16	[0, 0, 0]	n/a	FR1	0	R1056M
2390.507	2.534	1098679	WORD	n/a	wordpools/wordpool_EN.txt	WHALE	4	16	[0, 0, 0]	n/a	FR1	0	R1056M
2393.041	2.384	1099945	WORD	n/a	wordpools/wordpool_EN.txt	CASH	5	16	[0, 0, 0]	n/a	FR1	0	R1056M
2395.425	2.517	1101137	WORD	n/a	wordpools/wordpool_EN.txt	AXE	6	16	[0, 0, 0]	n/a	FR1	0	R1056M
2397.942	2.417	1102396	WORD	n/a	wordpools/wordpool_EN.txt	CRANE	7	16	[0, 0, 0]	n/a	FR1	0	R1056M
2400.359	2.5	1103604	WORD	n/a	wordpools/wordpool_EN.txt	BLOOM	8	16	[0, 0, 0]	n/a	FR1	0	R1056M
2402.859	2.384	1104854	WORD	n/a	wordpools/wordpool_EN.txt	BRICK	9	16	[0, 0, 0]	n/a	FR1	0	R1056M
2405.243	2.483	1106046	WORD	n/a	wordpools/wordpool_EN.txt	MAZE	10	16	[0, 0, 0]	n/a	FR1	0	R1056M
2407.726	2.602	1107287	WORD	n/a	wordpools/wordpool_EN.txt	PEACH	11	16	[0, 0, 0]	n/a	FR1	0	R1056M
2410.328	1.617	1108588	WORD	n/a	wordpools/wordpool_EN.txt	STONE	12	16	[0, 0, 0]	n/a	FR1	0	R1056M
2411.945	0.0	1109396	DISTRACT_START	n/a	n/a	n/a	-999	16	[0, 0, 0]	n/a	FR1	0	R1056M
2411.945	0.016	1109396	START	n/a	n/a	n/a	-999	16	[-999, -999, -999]	n/a	FR1	0	R1056M
2411.961	10.069	1109404	PROB	10.069	n/a	n/a	-999	16	[5, 6, 9]	20	FR1	0	R1056M
2422.03	3.017	1114438	PROB	3.017	n/a	n/a	-999	16	[1, 9, 7]	17	FR1	0	R1056M
2425.047	3.667	1115947	PROB	3.667	n/a	n/a	-999	16	[3, 4, 5]	12	FR1	0	R1056M
2428.714	1.918	1117780	PROB	1.918	n/a	n/a	-999	16	[6, 4, 5]	15	FR1	0	R1056M
2430.632	2.385	1118739	PROB	2.385	n/a	n/a	-999	16	[7, 5, 6]	18	FR1	0	R1056M
2433.017	0.015	1119931	STOP	n/a	n/a	n/a	-999	16	[-999, -999, -999]	n/a	FR1	0	R1056M
2433.032	1.068	1119939	DISTRACT_END	n/a	n/a	n/a	-999	16	[0, 0, 0]	n/a	FR1	0	R1056M
2434.1	1.689	1120473	REC_START	n/a	n/a	n/a	-999	16	[0, 0, 0]	n/a	FR1	0	R1056M
2435.789	0.883	1121317	REC_WORD	0.883	n/a	INK	1	16	[0, 0, 0]	n/a	FR1	0	R1056M
2436.672	0.598	1121759	REC_WORD	0.598	n/a	BOY	2	16	[0, 0, 0]	n/a	FR1	0	R1056M
2437.27	1.086	1122058	REC_WORD	1.086	n/a	FILM	3	16	[0, 0, 0]	n/a	FR1	0	R1056M
2438.356	1.816	1122601	REC_WORD	1.816	n/a	WHALE	4	16	[0, 0, 0]	n/a	FR1	0	R1056M
2440.172	3.363	1123509	REC_WORD	3.363	n/a	STONE	12	16	[0, 0, 0]	n/a	FR1	0	R1056M
2443.535	20.575	1125190	REC_WORD	20.575	n/a	MAZE	10	16	[0, 0, 0]	n/a	FR1	0	R1056M
2464.11	4.329	1135476	REC_END	n/a	n/a	n/a	-999	16	[0, 0, 0]	n/a	FR1	0	R1056M
2468.439	0.0	1137641	TRIAL	n/a	n/a	n/a	-999	17	[0, 0, 0]	n/a	FR1	0	R1056M
2468.439	10.428	1137641	COUNTDOWN_START	n/a	n/a	n/a	-999	17	[0, 0, 0]	n/a	FR1	0	R1056M
2478.867	0.006	1142854	COUNTDOWN_END	n/a	n/a	n/a	-999	17	[0, 0, 0]	n/a	FR1	0	R1056M
2478.873	2.569	1142857	ORIENT	n/a	n/a	n/a	-999	17	[0, 0, 0]	n/a	FR1	0	R1056M
2481.442	2.482	1144141	WORD	n/a	wordpools/wordpool_EN.txt	SIGN	1	17	[0, 0, 0]	n/a	FR1	0	R1056M
2483.924	2.568	1145382	WORD	n/a	wordpools/wordpool_EN.txt	DOG	2	17	[0, 0, 0]	n/a	FR1	0	R1056M
2486.492	2.433	1146666	WORD	n/a	wordpools/wordpool_EN.txt	WEED	3	17	[0, 0, 0]	n/a	FR1	0	R1056M
2488.925	2.552	1147883	WORD	n/a	wordpools/wordpool_EN.txt	CHIN	4	17	[0, 0, 0]	n/a	FR1	0	R1056M
2491.477	2.517	1149158	WORD	n/a	wordpools/wordpool_EN.txt	VAN	5	17	[0, 0, 0]	n/a	FR1	0	R1056M
2493.994	2.517	1150417	WORD	n/a	wordpools/wordpool_EN.txt	PET	6	17	[0, 0, 0]	n/a	FR1	0	R1056M
2496.511	2.451	1151675	WORD	n/a	wordpools/wordpool_EN.txt	BATH	7	17	[0, 0, 0]	n/a	FR1	0	R1056M
2498.962	2.517	1152900	WORD	n/a	wordpools/wordpool_EN.txt	SMILE	8	17	[0, 0, 0]	n/a	FR1	0	R1056M
2501.479	2.449	1154159	WORD	n/a	wordpools/wordpool_EN.txt	CONE	9	17	[0, 0, 0]	n/a	FR1	0	R1056M
2503.928	2.568	1155383	WORD	n/a	wordpools/wordpool_EN.txt	CHALK	10	17	[0, 0, 0]	n/a	FR1	0	R1056M
2506.496	2.451	1156667	WORD	n/a	wordpools/wordpool_EN.txt	FLEA	11	17	[0, 0, 0]	n/a	FR1	0	R1056M
2508.947	1.617	1157892	WORD	n/a	wordpools/wordpool_EN.txt	EAR	12	17	[0, 0, 0]	n/a	FR1	0	R1056M
2510.564	0.001	1158701	DISTRACT_START	n/a	n/a	n/a	-999	17	[0, 0, 0]	n/a	FR1	0	R1056M
2510.565	0.015	1158701	START	n/a	n/a	n/a	-999	17	[-999, -999, -999]	n/a	FR1	0	R1056M
2510.58	5.035	1158709	PROB	5.035	n/a	n/a	-999	17	[3, 1, 9]	13	FR1	0	R1056M
2515.615	2.35	1161226	PROB	2.35	n/a	n/a	-999	17	[4, 4, 7]	15	FR1	0	R1056M
2517.965	2.251	1162401	PROB	2.251	n/a	n/a	-999	17	[2, 5, 8]	14	FR1	0	R1056M
2520.216	2.817	1163526	PROB	2.817	n/a	n/a	-999	17	[7, 8, 3]	18	FR1	0	R1056M
2523.033	3.017	1164935	PROB	3.017	n/a	n/a	-999	17	[8, 8, 2]	18	FR1	0	R1056M
2526.05	2.517	1166443	PROB	2.517	n/a	n/a	-999	17	[6, 1, 5]	12	FR1	0	R1056M
2528.567	2.906	1167701	PROB	2.906	n/a	n/a	-999	17	[9, 4, 6]	19	FR1	0	R1056M
2531.473	0.012	1169154	STOP	n/a	n/a	n/a	-999	17	[-999, -999, -999]	n/a	FR1	0	R1056M
2531.485	1.199	1169160	DISTRACT_END	n/a	n/a	n/a	-999	17	[0, 0, 0]	n/a	FR1	0	R1056M
2532.684	1.016	1169760	REC_START	n/a	n/a	n/a	-999	17	[0, 0, 0]	n/a	FR1	0	R1056M
2533.7	0.865	1170268	REC_WORD	0.865	n/a	SIGN	1	17	[0, 0, 0]	n/a	FR1	0	R1056M
2534.565	0.847	1170700	REC_WORD	0.847	n/a	DOG	2	17	[0, 0, 0]	n/a	FR1	0	R1056M
2535.412	0.97	1171124	REC_WORD	0.97	n/a	WEED	3	17	[0, 0, 0]	n/a	FR1	0	R1056M
2536.382	2.304	1171609	REC_WORD	2.304	n/a	CHIN	4	17	[0, 0, 0]	n/a	FR1	0	R1056M
2538.686	2.005	1172760	REC_WORD	2.005	n/a	SMILE	8	17	[0, 0, 0]	n/a	FR1	0	R1056M
2540.691	13.54	1173763	REC_WORD	13.54	n/a	EAR	12	17	[0, 0, 0]	n/a	FR1	0	R1056M
2554.231	1.983	1180532	REC_WORD	1.983	n/a	PET	6	17	[0, 0, 0]	n/a	FR1	0	R1056M
2556.214	6.481	1181524	REC_WORD	6.481	n/a	BATH	7	17	[0, 0, 0]	n/a	FR1	0	R1056M
2562.695	5.012	1184764	REC_END	n/a	n/a	n/a	-999	17	[0, 0, 0]	n/a	FR1	0	R1056M
2567.707	0.001	1187269	COUNTDOWN_START	n/a	n/a	n/a	-999	18	[0, 0, 0]	n/a	FR1	0	R1056M
2567.708	10.427	1187270	TRIAL	n/a	n/a	n/a	-999	18	[0, 0, 0]	n/a	FR1	0	R1056M
2578.135	0.025	1192483	COUNTDOWN_END	n/a	n/a	n/a	-999	18	[0, 0, 0]	n/a	FR1	0	R1056M
2578.16	2.516	1192495	ORIENT	n/a	n/a	n/a	-999	18	[0, 0, 0]	n/a	FR1	0	R1056M
2580.676	2.518	1193753	WORD	n/a	wordpools/wordpool_EN.txt	HAND	1	18	[0, 0, 0]	n/a	FR1	0	R1056M
2583.194	2.418	1195012	WORD	n/a	wordpools/wordpool_EN.txt	BEE	2	18	[0, 0, 0]	n/a	FR1	0	R1056M
2585.612	2.417	1196221	WORD	n/a	wordpools/wordpool_EN.txt	DOOR	3	18	[0, 0, 0]	n/a	FR1	0	R1056M
2588.029	2.567	1197429	WORD	n/a	wordpools/wordpool_EN.txt	FLUTE	4	18	[0, 0, 0]	n/a	FR1	0	R1056M
2590.596	2.567	1198713	WORD	n/a	wordpools/wordpool_EN.txt	BRANCH	5	18	[0, 0, 0]	n/a	FR1	0	R1056M
2593.163	2.401	1199996	WORD	n/a	wordpools/wordpool_EN.txt	TREE	6	18	[0, 0, 0]	n/a	FR1	0	R1056M
2595.564	2.617	1201197	WORD	n/a	wordpools/wordpool_EN.txt	MOLE	7	18	[0, 0, 0]	n/a	FR1	0	R1056M
2598.181	2.549	1202505	WORD	n/a	wordpools/wordpool_EN.txt	CANE	8	18	[0, 0, 0]	n/a	FR1	0	R1056M
2600.73	2.485	1203779	WORD	n/a	wordpools/wordpool_EN.txt	DOLL	9	18	[0, 0, 0]	n/a	FR1	0	R1056M
2603.215	2.384	1205022	WORD	n/a	wordpools/wordpool_EN.txt	HOLE	10	18	[0, 0, 0]	n/a	FR1	0	R1056M
2605.599	2.467	1206214	WORD	n/a	wordpools/wordpool_EN.txt	WEB	11	18	[0, 0, 0]	n/a	FR1	0	R1056M
2608.066	1.616	1207447	WORD	n/a	wordpools/wordpool_EN.txt	SNAKE	12	18	[0, 0, 0]	n/a	FR1	0	R1056M
2609.682	0.001	1208255	DISTRACT_START	n/a	n/a	n/a	-999	18	[0, 0, 0]	n/a	FR1	0	R1056M
2609.683	0.016	1208255	START	n/a	n/a	n/a	-999	18	[-999, -999, -999]	n/a	FR1	0	R1056M
2609.699	7.685	1208263	PROB	7.685	n/a	n/a	-999	18	[4, 9, 3]	16	FR1	0	R1056M
2617.384	1.834	1212105	PROB	1.834	n/a	n/a	-999	18	[7, 1, 3]	11	FR1	0	R1056M
2619.218	1.633	1213022	PROB	1.633	n/a	n/a	-999	18	[1, 4, 8]	13	FR1	0	R1056M
2620.851	2.185	1213839	PROB	2.185	n/a	n/a	-999	18	[7, 3, 8]	18	FR1	0	R1056M
2623.036	3.167	1214931	PROB	3.167	n/a	n/a	-999	18	[4, 2, 7]	13	FR1	0	R1056M
2626.203	2.784	1216514	PROB	2.784	n/a	n/a	-999	18	[9, 8, 3]	20	FR1	0	R1056M
2628.987	2.349	1217906	PROB	2.349	n/a	n/a	-999	18	[9, 8, 1]	18	FR1	0	R1056M
2631.336	0.018	1219081	STOP	n/a	n/a	n/a	-999	18	[-999, -999, -999]	n/a	FR1	0	R1056M
2631.354	1.117	1219090	DISTRACT_END	n/a	n/a	n/a	-999	18	[0, 0, 0]	n/a	FR1	0	R1056M
2632.471	0.741	1219648	REC_START	n/a	n/a	n/a	-999	18	[0, 0, 0]	n/a	FR1	0	R1056M
2633.212	1.016	1220019	REC_WORD	1.016	n/a	HAND	1	18	[0, 0, 0]	n/a	FR1	0	R1056M
2634.228	1.201	1220527	REC_WORD	1.201	n/a	BEE	2	18	[0, 0, 0]	n/a	FR1	0	R1056M
2635.429	1.102	1221127	REC_WORD	1.102	n/a	DOOR	3	18	[0, 0, 0]	n/a	FR1	0	R1056M
2636.531	1.179	1221678	REC_WORD	1.179	n/a	FLUTE	4	18	[0, 0, 0]	n/a	FR1	0	R1056M
2637.71	1.638	1222267	REC_WORD	1.638	n/a	MOLE	7	18	[0, 0, 0]	n/a	FR1	0	R1056M
2639.348	1.061	1223086	REC_WORD	1.061	n/a	HOLE	10	18	[0, 0, 0]	n/a	FR1	0	R1056M
2640.409	1.111	1223617	REC_WORD	1.111	n/a	BRANCH	5	18	[0, 0, 0]	n/a	FR1	0	R1056M
2641.52	5.855	1224172	REC_WORD	5.855	n/a	TREE	6	18	[0, 0, 0]	n/a	FR1	0	R1056M
2647.375	4.984	1227099	REC_WORD	4.984	n/a	BEE	2	18	[0, 0, 0]	n/a	FR1	0	R1056M
2652.359	10.127	1229591	REC_WORD	10.127	n/a	WEB	11	18	[0, 0, 0]	n/a	FR1	0	R1056M
2662.486	30.83	1234654	REC_END	n/a	n/a	n/a	-999	18	[0, 0, 0]	n/a	FR1	0	R1056M
2693.316	0.0	1250068	COUNTDOWN_START	n/a	n/a	n/a	-999	19	[0, 0, 0]	n/a	FR1	0	R1056M
2693.316	10.428	1250068	TRIAL	n/a	n/a	n/a	-999	19	[0, 0, 0]	n/a	FR1	0	R1056M
2703.744	0.006	1255281	COUNTDOWN_END	n/a	n/a	n/a	-999	19	[0, 0, 0]	n/a	FR1	0	R1056M
2703.75	2.468	1255284	ORIENT	n/a	n/a	n/a	-999	19	[0, 0, 0]	n/a	FR1	0	R1056M
2706.218	2.434	1256518	WORD	n/a	wordpools/wordpool_EN.txt	HOSE	1	19	[0, 0, 0]	n/a	FR1	0	R1056M
2708.652	2.434	1257735	WORD	n/a	wordpools/wordpool_EN.txt	SOAP	2	19	[0, 0, 0]	n/a	FR1	0	R1056M
2711.086	2.599	1258952	WORD	n/a	wordpools/wordpool_EN.txt	MAIL	3	19	[0, 0, 0]	n/a	FR1	0	R1056M
2713.685	2.435	1260251	WORD	n/a	wordpools/wordpool_EN.txt	SLUSH	4	19	[0, 0, 0]	n/a	FR1	0	R1056M
2716.12	2.517	1261468	WORD	n/a	wordpools/wordpool_EN.txt	FOAM	5	19	[0, 0, 0]	n/a	FR1	0	R1056M
2718.637	2.601	1262727	WORD	n/a	wordpools/wordpool_EN.txt	STORE	6	19	[0, 0, 0]	n/a	FR1	0	R1056M
2721.238	2.4	1264027	WORD	n/a	wordpools/wordpool_EN.txt	GRAPE	7	19	[0, 0, 0]	n/a	FR1	0	R1056M
2723.638	2.584	1265227	WORD	n/a	wordpools/wordpool_EN.txt	JUICE	8	19	[0, 0, 0]	n/a	FR1	0	R1056M
2726.222	2.401	1266519	WORD	n/a	wordpools/wordpool_EN.txt	RICE	9	19	[0, 0, 0]	n/a	FR1	0	R1056M
2728.623	2.383	1267719	WORD	n/a	wordpools/wordpool_EN.txt	BANK	10	19	[0, 0, 0]	n/a	FR1	0	R1056M
2731.006	2.468	1268911	WORD	n/a	wordpools/wordpool_EN.txt	FOOD	11	19	[0, 0, 0]	n/a	FR1	0	R1056M
2733.474	1.617	1270144	WORD	n/a	wordpools/wordpool_EN.txt	MULE	12	19	[0, 0, 0]	n/a	FR1	0	R1056M
2735.091	0.001	1270953	DISTRACT_START	n/a	n/a	n/a	-999	19	[0, 0, 0]	n/a	FR1	0	R1056M
2735.092	0.015	1270953	START	n/a	n/a	n/a	-999	19	[-999, -999, -999]	n/a	FR1	0	R1056M
2735.107	4.484	1270961	PROB	4.484	n/a	n/a	-999	19	[2, 9, 4]	15	FR1	0	R1056M
2739.591	3.968	1273203	PROB	3.968	n/a	n/a	-999	19	[7, 9, 2]	18	FR1	0	R1056M
2743.559	3.834	1275186	PROB	3.834	n/a	n/a	-999	19	[9, 5, 9]	23	FR1	0	R1056M
2747.393	2.7	1277103	PROB	2.7	n/a	n/a	-999	19	[5, 3, 3]	11	FR1	0	R1056M
2750.093	1.567	1278453	PROB	1.567	n/a	n/a	-999	19	[3, 6, 2]	11	FR1	0	R1056M
2751.66	1.751	1279237	PROB	1.751	n/a	n/a	-999	19	[3, 6, 4]	13	FR1	0	R1056M
2753.411	6.045	1280112	PROB	6.045	n/a	n/a	-999	19	[4, 8, 6]	18	FR1	0	R1056M
2759.456	0.006	1283134	STOP	n/a	n/a	n/a	-999	19	[-999, -999, -999]	n/a	FR1	0	R1056M
2759.462	1.101	1283137	DISTRACT_END	n/a	n/a	n/a	-999	19	[0, 0, 0]	n/a	FR1	0	R1056M
2760.563	0.608	1283688	REC_START	n/a	n/a	n/a	-999	19	[0, 0, 0]	n/a	FR1	0	R1056M
2761.171	0.791	1283992	REC_WORD	0.791	n/a	HOSE	1	19	[0, 0, 0]	n/a	FR1	0	R1056M
2761.962	2.155	1284387	REC_WORD	2.155	n/a	SLOPE	-999	19	[0, 0, 0]	n/a	FR1	0	R1056M
2764.117	2.306	1285464	REC_WORD	2.306	n/a	MAIL	3	19	[0, 0, 0]	n/a	FR1	0	R1056M
2766.423	0.649	1286617	REC_WORD	0.649	n/a	GRAPE	7	19	[0, 0, 0]	n/a	FR1	0	R1056M
2767.072	23.501	1286942	REC_WORD	23.501	n/a	JUICE	8	19	[0, 0, 0]	n/a	FR1	0	R1056M
2790.573	10.497	1298691	REC_END	n/a	n/a	n/a	-999	19	[0, 0, 0]	n/a	FR1	0	R1056M
2801.07	0.0	1303939	TRIAL	n/a	n/a	n/a	-999	20	[0, 0, 0]	n/a	FR1	0	R1056M
2801.07	10.428	1303939	COUNTDOWN_START	n/a	n/a	n/a	-999	20	[0, 0, 0]	n/a	FR1	0	R1056M
2811.498	0.007	1309152	COUNTDOWN_END	n/a	n/a	n/a	-999	20	[0, 0, 0]	n/a	FR1	0	R1056M
2811.505	2.617	1309156	ORIENT	n/a	n/a	n/a	-999	20	[0, 0, 0]	n/a	FR1	0	R1056M
2814.122	2.418	1310464	WORD	n/a	wordpools/wordpool_EN.txt	PIPE	1	20	[0, 0, 0]	n/a	FR1	0	R1056M
2816.54	2.517	1311673	WORD	n/a	wordpools/wordpool_EN.txt	HAT	2	20	[0, 0, 0]	n/a	FR1	0	R1056M
2819.057	2.417	1312932	WORD	n/a	wordpools/wordpool_EN.txt	CAKE	3	20	[0, 0, 0]	n/a	FR1	0	R1056M
2821.474	2.467	1314140	WORD	n/a	wordpools/wordpool_EN.txt	GUARD	4	20	[0, 0, 0]	n/a	FR1	0	R1056M
2823.941	2.567	1315373	WORD	n/a	wordpools/wordpool_EN.txt	DIME	5	20	[0, 0, 0]	n/a	FR1	0	R1056M
2826.508	2.501	1316657	WORD	n/a	wordpools/wordpool_EN.txt	GLASS	6	20	[0, 0, 0]	n/a	FR1	0	R1056M
2829.009	2.383	1317907	WORD	n/a	wordpools/wordpool_EN.txt	GLOVE	7	20	[0, 0, 0]	n/a	FR1	0	R1056M
2831.392	2.601	1319098	WORD	n/a	wordpools/wordpool_EN.txt	SWORD	8	20	[0, 0, 0]	n/a	FR1	0	R1056M
2833.993	2.501	1320399	WORD	n/a	wordpools/wordpool_EN.txt	CHAIR	9	20	[0, 0, 0]	n/a	FR1	0	R1056M
2836.494	2.45	1321649	WORD	n/a	wordpools/wordpool_EN.txt	TRAY	10	20	[0, 0, 0]	n/a	FR1	0	R1056M
2838.944	2.584	1322874	WORD	n/a	wordpools/wordpool_EN.txt	CROWN	11	20	[0, 0, 0]	n/a	FR1	0	R1056M
2841.528	1.617	1324166	WORD	n/a	wordpools/wordpool_EN.txt	KITE	12	20	[0, 0, 0]	n/a	FR1	0	R1056M
2843.145	0.001	1324974	DISTRACT_START	n/a	n/a	n/a	-999	20	[0, 0, 0]	n/a	FR1	0	R1056M
2843.146	0.015	1324975	START	n/a	n/a	n/a	-999	20	[-999, -999, -999]	n/a	FR1	0	R1056M
2843.161	5.218	1324982	PROB	5.218	n/a	n/a	-999	20	[9, 7, 6]	22	FR1	0	R1056M
2848.379	2.901	1327591	PROB	2.901	n/a	n/a	-999	20	[2, 5, 9]	16	FR1	0	R1056M
2851.28	3.017	1329041	PROB	3.017	n/a	n/a	-999	20	[6, 8, 6]	20	FR1	0	R1056M
2854.297	3.101	1330550	PROB	3.101	n/a	n/a	-999	20	[9, 2, 9]	20	FR1	0	R1056M
2857.398	6.146	1332100	PROB	6.146	n/a	n/a	-999	20	[3, 8, 6]	17	FR1	0	R1056M
2863.544	0.004	1335173	STOP	n/a	n/a	n/a	-999	20	[-999, -999, -999]	n/a	FR1	0	R1056M
2863.548	1.085	1335175	DISTRACT_END	n/a	n/a	n/a	-999	20	[0, 0, 0]	n/a	FR1	0	R1056M
2864.633	1.415	1335717	REC_START	n/a	n/a	n/a	-999	20	[0, 0, 0]	n/a	FR1	0	R1056M
2866.048	0.671	1336425	REC_WORD	0.671	n/a	PIPE	1	20	[0, 0, 0]	n/a	FR1	0	R1056M
2866.719	1.923	1336760	REC_WORD	1.923	n/a	HAT	2	20	[0, 0, 0]	n/a	FR1	0	R1056M
2868.642	1.114	1337721	REC_WORD	1.114	n/a	CAKE	3	20	[0, 0, 0]	n/a	FR1	0	R1056M
2869.756	2.206	1338278	REC_WORD	2.206	n/a	CROWN	11	20	[0, 0, 0]	n/a	FR1	0	R1056M
2871.962	4.031	1339381	REC_WORD	4.031	n/a	GLOVE	7	20	[0, 0, 0]	n/a	FR1	0	R1056M
2875.993	14.663	1341397	REC_WORD	14.663	n/a	CHAIR	9	20	[0, 0, 0]	n/a	FR1	0	R1056M
2890.656	3.985	1348727	REC_WORD	3.985	n/a	HAT	2	20	[0, 0, 0]	n/a	FR1	0	R1056M
2894.641	23.435	1350720	REC_END	n/a	n/a	n/a	-999	20	[0, 0, 0]	n/a	FR1	0	R1056M
2918.076	0.0	1362436	TRIAL	n/a	n/a	n/a	-999	21	[0, 0, 0]	n/a	FR1	0	R1056M
2918.076	0.0	1362436	COUNTDOWN_START	n/a	n/a	n/a	-999	21	[0, 0, 0]	n/a	FR1	0	R1056M
