onset	duration	sample	trial_type	response_time	stim_file	item_name	serialpos	list	test	answer	experiment	session	subject
0.0	18.838	7256	SESS_START	n/a	n/a	n/a	-999	-999	[0, 0, 0]	n/a	FR1	1	R1120E
18.838	10.428	26092	COUNTDOWN_START	n/a	n/a	n/a	-999	-999	[0, 0, 0]	n/a	FR1	1	R1120E
29.266	3.99	36520	COUNTDOWN_END	n/a	n/a	n/a	-999	-999	[0, 0, 0]	n/a	FR1	1	R1120E
33.256	2.585	40509	PRACTICE_WORD	n/a	n/a	RING	1	-1	[0, 0, 0]	n/a	FR1	1	R1120E
35.841	2.499	43094	PRACTICE_WORD	n/a	n/a	ATTIC	2	-1	[0, 0, 0]	n/a	FR1	1	R1120E
38.34	2.617	45593	PRACTICE_WORD	n/a	n/a	CHEST	3	-1	[0, 0, 0]	n/a	FR1	1	R1120E
40.957	2.484	48210	PRACTICE_WORD	n/a	n/a	COTTON	4	-1	[0, 0, 0]	n/a	FR1	1	R1120E
43.441	2.517	50694	PRACTICE_WORD	n/a	n/a	RHINO	5	-1	[0, 0, 0]	n/a	FR1	1	R1120E
45.958	2.534	53211	PRACTICE_WORD	n/a	n/a	WAGON	6	-1	[0, 0, 0]	n/a	FR1	1	R1120E
48.492	2.534	55744	PRACTICE_WORD	n/a	n/a	CAMEL	7	-1	[0, 0, 0]	n/a	FR1	1	R1120E
51.026	2.567	58278	PRACTICE_WORD	n/a	n/a	FLOOD	8	-1	[0, 0, 0]	n/a	FR1	1	R1120E
53.593	2.45	60845	PRACTICE_WORD	n/a	n/a	TONGUE	9	-1	[0, 0, 0]	n/a	FR1	1	R1120E
56.043	2.517	63295	PRACTICE_WORD	n/a	n/a	WATCH	10	-1	[0, 0, 0]	n/a	FR1	1	R1120E
58.56	2.484	65812	PRACTICE_WORD	n/a	n/a	BEAM	11	-1	[0, 0, 0]	n/a	FR1	1	R1120E
61.044	1.617	68296	PRACTICE_WORD	n/a	n/a	IRON	12	-1	[0, 0, 0]	n/a	FR1	1	R1120E
62.661	0.0	69912	PRACTICE_DISTRACT_START	n/a	n/a	n/a	-999	-1	[0, 0, 0]	n/a	FR1	1	R1120E
62.661	0.017	69912	START	n/a	n/a	n/a	-999	-1	[-999, -999, -999]	n/a	FR1	1	R1120E
62.678	3.434	69929	PROB	3.434	n/a	n/a	-999	-1	[2, 7, 1]	10	FR1	1	R1120E
66.112	2.9	73363	PROB	2.9	n/a	n/a	-999	-1	[6, 6, 2]	14	FR1	1	R1120E
69.012	2.768	76263	PROB	2.768	n/a	n/a	-999	-1	[1, 6, 7]	14	FR1	1	R1120E
71.78	4.267	79031	PROB	4.267	n/a	n/a	-999	-1	[4, 8, 5]	17	FR1	1	R1120E
76.047	3.934	83298	PROB	3.934	n/a	n/a	-999	-1	[1, 1, 6]	8	FR1	1	R1120E
79.981	3.856	87231	PROB	3.856	n/a	n/a	-999	-1	[5, 1, 8]	14	FR1	1	R1120E
83.837	0.012	91087	STOP	n/a	n/a	n/a	-999	-1	[-999, -999, -999]	n/a	FR1	1	R1120E
83.849	0.634	91099	PRACTICE_DISTRACT_END	n/a	n/a	n/a	-999	-1	[0, 0, 0]	n/a	FR1	1	R1120E
84.483	30.515	91733	PRACTICE_REC_START	n/a	n/a	n/a	-999	-1	[0, 0, 0]	n/a	FR1	1	R1120E
114.998	13.091	122246	PRACTICE_REC_END	n/a	n/a	n/a	-999	-1	[0, 0, 0]	n/a	FR1	1	R1120E
128.089	0.0	135336	COUNTDOWN_START	n/a	n/a	n/a	-999	1	[0, 0, 0]	n/a	FR1	1	R1120E
128.089	10.428	135336	TRIAL	n/a	n/a	n/a	-999	1	[0, 0, 0]	n/a	FR1	1	R1120E
138.517	0.007	145763	COUNTDOWN_END	n/a	n/a	n/a	-999	1	[0, 0, 0]	n/a	FR1	1	R1120E
138.524	2.484	145770	ORIENT	n/a	n/a	n/a	-999	1	[0, 0, 0]	n/a	FR1	1	R1120E
141.008	2.55	148254	WORD	n/a	wordpools/wordpool_EN.txt	GEESE	1	1	[0, 0, 0]	n/a	FR1	1	R1120E
143.558	2.484	150804	WORD	n/a	wordpools/wordpool_EN.txt	ICE	2	1	[0, 0, 0]	n/a	FR1	1	R1120E
146.042	2.551	153288	WORD	n/a	wordpools/wordpool_EN.txt	FISH	3	1	[0, 0, 0]	n/a	FR1	1	R1120E
148.593	2.433	155839	WORD	n/a	wordpools/wordpool_EN.txt	SLIME	4	1	[0, 0, 0]	n/a	FR1	1	R1120E
151.026	2.501	158271	WORD	n/a	wordpools/wordpool_EN.txt	CAPE	5	1	[0, 0, 0]	n/a	FR1	1	R1120E
153.527	2.6	160772	WORD	n/a	wordpools/wordpool_EN.txt	FORT	6	1	[0, 0, 0]	n/a	FR1	1	R1120E
156.127	2.467	163372	WORD	n/a	wordpools/wordpool_EN.txt	TANK	7	1	[0, 0, 0]	n/a	FR1	1	R1120E
158.594	2.534	165839	WORD	n/a	wordpools/wordpool_EN.txt	STRING	8	1	[0, 0, 0]	n/a	FR1	1	R1120E
161.128	2.367	168373	WORD	n/a	wordpools/wordpool_EN.txt	GOAT	9	1	[0, 0, 0]	n/a	FR1	1	R1120E
163.495	2.501	170740	WORD	n/a	wordpools/wordpool_EN.txt	SKY	10	1	[0, 0, 0]	n/a	FR1	1	R1120E
165.996	2.533	173240	WORD	n/a	wordpools/wordpool_EN.txt	BAT	11	1	[0, 0, 0]	n/a	FR1	1	R1120E
168.529	1.617	175773	WORD	n/a	wordpools/wordpool_EN.txt	LAKE	12	1	[0, 0, 0]	n/a	FR1	1	R1120E
170.146	0.001	177390	DISTRACT_START	n/a	n/a	n/a	-999	1	[0, 0, 0]	n/a	FR1	1	R1120E
170.147	0.016	177391	START	n/a	n/a	n/a	-999	1	[-999, -999, -999]	n/a	FR1	1	R1120E
170.163	2.317	177407	PROB	2.317	n/a	n/a	-999	1	[1, 7, 4]	12	FR1	1	R1120E
172.48	2.784	179724	PROB	2.784	n/a	n/a	-999	1	[3, 9, 9]	21	FR1	1	R1120E
175.264	2.585	182508	PROB	2.585	n/a	n/a	-999	1	[4, 1, 8]	13	FR1	1	R1120E
177.849	2.349	185093	PROB	2.349	n/a	n/a	-999	1	[8, 8, 8]	24	FR1	1	R1120E
180.198	5.635	187441	PROB	5.635	n/a	n/a	-999	1	[1, 3, 2]	6	FR1	1	R1120E
185.833	2.984	193076	PROB	2.984	n/a	n/a	-999	1	[3, 1, 5]	9	FR1	1	R1120E
188.817	4.982	196060	PROB	4.982	n/a	n/a	-999	1	[8, 3, 4]	15	FR1	1	R1120E
193.799	0.019	201042	STOP	n/a	n/a	n/a	-999	1	[-999, -999, -999]	n/a	FR1	1	R1120E
193.818	1.222	201061	DISTRACT_END	n/a	n/a	n/a	-999	1	[0, 0, 0]	n/a	FR1	1	R1120E
195.04	1.981	202282	REC_START	n/a	n/a	n/a	-999	1	[0, 0, 0]	n/a	FR1	1	R1120E
197.021	1.359	204263	REC_WORD	1.359	n/a	CAPE	-999	1	[0, 0, 0]	n/a	FR1	1	R1120E
198.38	1.948	205622	REC_WORD	1.948	n/a	FISH	-999	1	[0, 0, 0]	n/a	FR1	1	R1120E
200.328	10.204	207570	REC_WORD	10.204	n/a	ICE	-999	1	[0, 0, 0]	n/a	FR1	1	R1120E
210.532	14.511	217773	REC_WORD	14.511	n/a	GEESE	-999	1	[0, 0, 0]	n/a	FR1	1	R1120E
225.043	2.147	232283	REC_END	n/a	n/a	n/a	-999	1	[0, 0, 0]	n/a	FR1	1	R1120E
227.19	0.0	234430	TRIAL	n/a	n/a	n/a	-999	2	[0, 0, 0]	n/a	FR1	1	R1120E
227.19	10.428	234430	COUNTDOWN_START	n/a	n/a	n/a	-999	2	[0, 0, 0]	n/a	FR1	1	R1120E
237.618	0.007	244858	COUNTDOWN_END	n/a	n/a	n/a	-999	2	[0, 0, 0]	n/a	FR1	1	R1120E
237.625	2.534	244865	ORIENT	n/a	n/a	n/a	-999	2	[0, 0, 0]	n/a	FR1	1	R1120E
240.159	2.5	247398	WORD	n/a	wordpools/wordpool_EN.txt	JEEP	1	2	[0, 0, 0]	n/a	FR1	1	R1120E
242.659	2.584	249898	WORD	n/a	wordpools/wordpool_EN.txt	DITCH	2	2	[0, 0, 0]	n/a	FR1	1	R1120E
245.243	2.601	252482	WORD	n/a	wordpools/wordpool_EN.txt	JAIL	3	2	[0, 0, 0]	n/a	FR1	1	R1120E
247.844	2.45	255083	WORD	n/a	wordpools/wordpool_EN.txt	NAIL	4	2	[0, 0, 0]	n/a	FR1	1	R1120E
250.294	2.534	257533	WORD	n/a	wordpools/wordpool_EN.txt	LOCK	5	2	[0, 0, 0]	n/a	FR1	1	R1120E
252.828	2.45	260067	WORD	n/a	wordpools/wordpool_EN.txt	PHONE	6	2	[0, 0, 0]	n/a	FR1	1	R1120E
255.278	2.451	262516	WORD	n/a	wordpools/wordpool_EN.txt	HOOF	7	2	[0, 0, 0]	n/a	FR1	1	R1120E
257.729	2.483	264967	WORD	n/a	wordpools/wordpool_EN.txt	WING	8	2	[0, 0, 0]	n/a	FR1	1	R1120E
260.212	2.45	267450	WORD	n/a	wordpools/wordpool_EN.txt	CAGE	9	2	[0, 0, 0]	n/a	FR1	1	R1120E
262.662	2.584	269900	WORD	n/a	wordpools/wordpool_EN.txt	FLAME	10	2	[0, 0, 0]	n/a	FR1	1	R1120E
265.246	2.384	272484	WORD	n/a	wordpools/wordpool_EN.txt	PIN	11	2	[0, 0, 0]	n/a	FR1	1	R1120E
267.63	1.617	274868	WORD	n/a	wordpools/wordpool_EN.txt	HORN	12	2	[0, 0, 0]	n/a	FR1	1	R1120E
269.247	0.0	276484	DISTRACT_START	n/a	n/a	n/a	-999	2	[0, 0, 0]	n/a	FR1	1	R1120E
269.247	0.017	276484	START	n/a	n/a	n/a	-999	2	[-999, -999, -999]	n/a	FR1	1	R1120E
269.264	2.568	276501	PROB	2.568	n/a	n/a	-999	2	[5, 4, 1]	10	FR1	1	R1120E
271.832	5.433	279069	PROB	5.433	n/a	n/a	-999	2	[8, 6, 9]	25	FR1	1	R1120E
277.265	2.884	284502	PROB	2.884	n/a	n/a	-999	2	[9, 8, 1]	18	FR1	1	R1120E
280.149	2.8	287386	PROB	2.8	n/a	n/a	-999	2	[3, 3, 7]	13	FR1	1	R1120E
282.949	2.551	290186	PROB	2.551	n/a	n/a	-999	2	[5, 8, 8]	21	FR1	1	R1120E
285.5	2.583	292736	PROB	2.583	n/a	n/a	-999	2	[7, 4, 2]	13	FR1	1	R1120E
288.083	2.961	295319	PROB	2.961	n/a	n/a	-999	2	[6, 1, 5]	12	FR1	1	R1120E
291.044	0.007	298280	STOP	n/a	n/a	n/a	-999	2	[-999, -999, -999]	n/a	FR1	1	R1120E
291.051	1.134	298287	DISTRACT_END	n/a	n/a	n/a	-999	2	[0, 0, 0]	n/a	FR1	1	R1120E
292.185	1.04	299421	REC_START	n/a	n/a	n/a	-999	2	[0, 0, 0]	n/a	FR1	1	R1120E
293.225	1.832	300461	REC_WORD	1.832	n/a	PIN	-999	2	[0, 0, 0]	n/a	FR1	1	R1120E
295.057	2.343	302293	REC_WORD	2.343	n/a	HORN	-999	2	[0, 0, 0]	n/a	FR1	1	R1120E
297.4	24.793	304636	REC_WORD	24.793	n/a	NAIL	-999	2	[0, 0, 0]	n/a	FR1	1	R1120E
322.193	5.364	329427	REC_END	n/a	n/a	n/a	-999	2	[0, 0, 0]	n/a	FR1	1	R1120E
327.557	0.0	334791	TRIAL	n/a	n/a	n/a	-999	3	[0, 0, 0]	n/a	FR1	1	R1120E
327.557	10.428	334791	COUNTDOWN_START	n/a	n/a	n/a	-999	3	[0, 0, 0]	n/a	FR1	1	R1120E
337.985	0.007	345218	COUNTDOWN_END	n/a	n/a	n/a	-999	3	[0, 0, 0]	n/a	FR1	1	R1120E
337.992	2.534	345225	ORIENT	n/a	n/a	n/a	-999	3	[0, 0, 0]	n/a	FR1	1	R1120E
340.526	2.517	347759	WORD	n/a	wordpools/wordpool_EN.txt	TOOL	1	3	[0, 0, 0]	n/a	FR1	1	R1120E
343.043	2.5	350275	WORD	n/a	wordpools/wordpool_EN.txt	CLOWN	2	3	[0, 0, 0]	n/a	FR1	1	R1120E
345.543	2.484	352775	WORD	n/a	wordpools/wordpool_EN.txt	EGG	3	3	[0, 0, 0]	n/a	FR1	1	R1120E
348.027	2.567	355259	WORD	n/a	wordpools/wordpool_EN.txt	POND	4	3	[0, 0, 0]	n/a	FR1	1	R1120E
350.594	2.617	357826	WORD	n/a	wordpools/wordpool_EN.txt	ZOO	5	3	[0, 0, 0]	n/a	FR1	1	R1120E
353.211	2.502	360443	WORD	n/a	wordpools/wordpool_EN.txt	WHEEL	6	3	[0, 0, 0]	n/a	FR1	1	R1120E
355.713	2.516	362945	WORD	n/a	wordpools/wordpool_EN.txt	TOAD	7	3	[0, 0, 0]	n/a	FR1	1	R1120E
358.229	2.535	365460	WORD	n/a	wordpools/wordpool_EN.txt	CAT	8	3	[0, 0, 0]	n/a	FR1	1	R1120E
360.764	2.599	367995	WORD	n/a	wordpools/wordpool_EN.txt	MOUSE	9	3	[0, 0, 0]	n/a	FR1	1	R1120E
363.363	2.534	370594	WORD	n/a	wordpools/wordpool_EN.txt	SPONGE	10	3	[0, 0, 0]	n/a	FR1	1	R1120E
365.897	2.551	373128	WORD	n/a	wordpools/wordpool_EN.txt	MOOSE	11	3	[0, 0, 0]	n/a	FR1	1	R1120E
368.448	1.616	375679	WORD	n/a	wordpools/wordpool_EN.txt	CLOCK	12	3	[0, 0, 0]	n/a	FR1	1	R1120E
370.064	0.001	377295	DISTRACT_START	n/a	n/a	n/a	-999	3	[0, 0, 0]	n/a	FR1	1	R1120E
370.065	0.016	377296	START	n/a	n/a	n/a	-999	3	[-999, -999, -999]	n/a	FR1	1	R1120E
370.081	2.234	377312	PROB	2.234	n/a	n/a	-999	3	[4, 5, 3]	12	FR1	1	R1120E
372.315	4.351	379545	PROB	4.351	n/a	n/a	-999	3	[8, 9, 6]	23	FR1	1	R1120E
376.666	3.25	383896	PROB	3.25	n/a	n/a	-999	3	[6, 7, 8]	21	FR1	1	R1120E
379.916	2.935	387146	PROB	2.935	n/a	n/a	-999	3	[2, 8, 9]	19	FR1	1	R1120E
382.851	3.133	390081	PROB	3.133	n/a	n/a	-999	3	[9, 8, 1]	18	FR1	1	R1120E
385.984	2.484	393214	PROB	2.484	n/a	n/a	-999	3	[7, 1, 9]	17	FR1	1	R1120E
388.468	3.206	395697	PROB	3.206	n/a	n/a	-999	3	[6, 7, 8]	21	FR1	1	R1120E
391.674	0.011	398903	STOP	n/a	n/a	n/a	-999	3	[-999, -999, -999]	n/a	FR1	1	R1120E
391.685	1.184	398914	DISTRACT_END	n/a	n/a	n/a	-999	3	[0, 0, 0]	n/a	FR1	1	R1120E
392.869	2.69	400098	REC_START	n/a	n/a	n/a	-999	3	[0, 0, 0]	n/a	FR1	1	R1120E
395.559	3.516	402788	REC_WORD	3.516	n/a	NAIL	-999	3	[0, 0, 0]	n/a	FR1	1	R1120E
399.075	2.372	406304	REC_WORD	2.372	n/a	HOOK	-999	3	[0, 0, 0]	n/a	FR1	1	R1120E
401.447	1.835	408676	REC_WORD	1.835	n/a	SPONGE	-999	3	[0, 0, 0]	n/a	FR1	1	R1120E
403.282	0.94	410510	REC_WORD	0.94	n/a	CAT	-999	3	[0, 0, 0]	n/a	FR1	1	R1120E
404.222	18.655	411450	REC_WORD	18.655	n/a	MOUSE	-999	3	[0, 0, 0]	n/a	FR1	1	R1120E
422.877	4.181	430104	REC_END	n/a	n/a	n/a	-999	3	[0, 0, 0]	n/a	FR1	1	R1120E
427.058	0.0	434285	COUNTDOWN_START	n/a	n/a	n/a	-999	4	[0, 0, 0]	n/a	FR1	1	R1120E
427.058	10.428	434285	TRIAL	n/a	n/a	n/a	-999	4	[0, 0, 0]	n/a	FR1	1	R1120E
437.486	0.007	444712	COUNTDOWN_END	n/a	n/a	n/a	-999	4	[0, 0, 0]	n/a	FR1	1	R1120E
437.493	2.517	444719	ORIENT	n/a	n/a	n/a	-999	4	[0, 0, 0]	n/a	FR1	1	R1120E
440.01	2.6	447236	WORD	n/a	wordpools/wordpool_EN.txt	INK	1	4	[0, 0, 0]	n/a	FR1	1	R1120E
442.61	2.584	449836	WORD	n/a	wordpools/wordpool_EN.txt	BOY	2	4	[0, 0, 0]	n/a	FR1	1	R1120E
445.194	2.585	452420	WORD	n/a	wordpools/wordpool_EN.txt	FILM	3	4	[0, 0, 0]	n/a	FR1	1	R1120E
447.779	2.499	455004	WORD	n/a	wordpools/wordpool_EN.txt	WHALE	4	4	[0, 0, 0]	n/a	FR1	1	R1120E
450.278	2.518	457503	WORD	n/a	wordpools/wordpool_EN.txt	CASH	5	4	[0, 0, 0]	n/a	FR1	1	R1120E
452.796	2.5	460021	WORD	n/a	wordpools/wordpool_EN.txt	AXE	6	4	[0, 0, 0]	n/a	FR1	1	R1120E
455.296	2.551	462521	WORD	n/a	wordpools/wordpool_EN.txt	CRANE	7	4	[0, 0, 0]	n/a	FR1	1	R1120E
457.847	2.4	465072	WORD	n/a	wordpools/wordpool_EN.txt	BLOOM	8	4	[0, 0, 0]	n/a	FR1	1	R1120E
460.247	2.601	467472	WORD	n/a	wordpools/wordpool_EN.txt	BRICK	9	4	[0, 0, 0]	n/a	FR1	1	R1120E
462.848	2.533	470072	WORD	n/a	wordpools/wordpool_EN.txt	MAZE	10	4	[0, 0, 0]	n/a	FR1	1	R1120E
465.381	2.484	472605	WORD	n/a	wordpools/wordpool_EN.txt	PEACH	11	4	[0, 0, 0]	n/a	FR1	1	R1120E
467.865	1.617	475089	WORD	n/a	wordpools/wordpool_EN.txt	STONE	12	4	[0, 0, 0]	n/a	FR1	1	R1120E
469.482	0.0	476706	DISTRACT_START	n/a	n/a	n/a	-999	4	[0, 0, 0]	n/a	FR1	1	R1120E
469.482	0.016	476706	START	n/a	n/a	n/a	-999	4	[-999, -999, -999]	n/a	FR1	1	R1120E
469.498	3.101	476722	PROB	3.101	n/a	n/a	-999	4	[5, 6, 2]	13	FR1	1	R1120E
472.599	2.45	479823	PROB	2.45	n/a	n/a	-999	4	[5, 3, 9]	17	FR1	1	R1120E
475.049	2.884	482273	PROB	2.884	n/a	n/a	-999	4	[5, 6, 4]	15	FR1	1	R1120E
477.933	2.651	485156	PROB	2.651	n/a	n/a	-999	4	[7, 5, 8]	20	FR1	1	R1120E
480.584	3.534	487807	PROB	3.534	n/a	n/a	-999	4	[3, 6, 9]	18	FR1	1	R1120E
484.118	2.183	491341	PROB	2.183	n/a	n/a	-999	4	[4, 2, 5]	11	FR1	1	R1120E
486.301	5.302	493524	PROB	5.302	n/a	n/a	-999	4	[8, 8, 7]	23	FR1	1	R1120E
491.603	0.016	498825	STOP	n/a	n/a	n/a	-999	4	[-999, -999, -999]	n/a	FR1	1	R1120E
491.619	1.152	498841	DISTRACT_END	n/a	n/a	n/a	-999	4	[0, 0, 0]	n/a	FR1	1	R1120E
492.771	1.109	499993	REC_START	n/a	n/a	n/a	-999	4	[0, 0, 0]	n/a	FR1	1	R1120E
493.88	2.143	501102	REC_WORD	2.143	n/a	STONE	-999	4	[0, 0, 0]	n/a	FR1	1	R1120E
496.023	2.429	503245	REC_WORD	2.429	n/a	PEACH	-999	4	[0, 0, 0]	n/a	FR1	1	R1120E
498.452	2.521	505674	REC_WORD	2.521	n/a	BRICK	-999	4	[0, 0, 0]	n/a	FR1	1	R1120E
500.973	2.404	508195	REC_WORD	2.404	n/a	BLOOM	-999	4	[0, 0, 0]	n/a	FR1	1	R1120E
503.377	2.488	510599	REC_WORD	2.488	n/a	POND	-999	4	[0, 0, 0]	n/a	FR1	1	R1120E
505.865	2.041	513086	REC_WORD	2.041	n/a	INK	-999	4	[0, 0, 0]	n/a	FR1	1	R1120E
507.906	14.873	515127	REC_WORD	14.873	n/a	TEST	-999	4	[0, 0, 0]	n/a	FR1	1	R1120E
522.779	2.862	529999	REC_END	n/a	n/a	n/a	-999	4	[0, 0, 0]	n/a	FR1	1	R1120E
525.641	0.001	532861	COUNTDOWN_START	n/a	n/a	n/a	-999	5	[0, 0, 0]	n/a	FR1	1	R1120E
525.642	10.427	532862	TRIAL	n/a	n/a	n/a	-999	5	[0, 0, 0]	n/a	FR1	1	R1120E
536.069	0.008	543288	COUNTDOWN_END	n/a	n/a	n/a	-999	5	[0, 0, 0]	n/a	FR1	1	R1120E
536.077	2.5	543296	ORIENT	n/a	n/a	n/a	-999	5	[0, 0, 0]	n/a	FR1	1	R1120E
538.577	2.484	545796	WORD	n/a	wordpools/wordpool_EN.txt	PEARL	1	5	[0, 0, 0]	n/a	FR1	1	R1120E
541.061	2.534	548280	WORD	n/a	wordpools/wordpool_EN.txt	CAR	2	5	[0, 0, 0]	n/a	FR1	1	R1120E
543.595	2.55	550814	WORD	n/a	wordpools/wordpool_EN.txt	HORSE	3	5	[0, 0, 0]	n/a	FR1	1	R1120E
546.145	2.55	553364	WORD	n/a	wordpools/wordpool_EN.txt	PEA	4	5	[0, 0, 0]	n/a	FR1	1	R1120E
548.695	2.401	555914	WORD	n/a	wordpools/wordpool_EN.txt	BEAR	5	5	[0, 0, 0]	n/a	FR1	1	R1120E
551.096	2.467	558314	WORD	n/a	wordpools/wordpool_EN.txt	SHIP	6	5	[0, 0, 0]	n/a	FR1	1	R1120E
553.563	2.567	560781	WORD	n/a	wordpools/wordpool_EN.txt	ROCK	7	5	[0, 0, 0]	n/a	FR1	1	R1120E
556.13	2.451	563348	WORD	n/a	wordpools/wordpool_EN.txt	SMOKE	8	5	[0, 0, 0]	n/a	FR1	1	R1120E
558.581	2.4	565799	WORD	n/a	wordpools/wordpool_EN.txt	NEST	9	5	[0, 0, 0]	n/a	FR1	1	R1120E
560.981	2.417	568199	WORD	n/a	wordpools/wordpool_EN.txt	MOON	10	5	[0, 0, 0]	n/a	FR1	1	R1120E
563.398	2.617	570616	WORD	n/a	wordpools/wordpool_EN.txt	STAR	11	5	[0, 0, 0]	n/a	FR1	1	R1120E
566.015	1.617	573232	WORD	n/a	wordpools/wordpool_EN.txt	TOOTH	12	5	[0, 0, 0]	n/a	FR1	1	R1120E
567.632	0.001	574849	DISTRACT_START	n/a	n/a	n/a	-999	5	[0, 0, 0]	n/a	FR1	1	R1120E
567.633	0.016	574850	START	n/a	n/a	n/a	-999	5	[-999, -999, -999]	n/a	FR1	1	R1120E
567.649	3.65	574866	PROB	3.65	n/a	n/a	-999	5	[2, 7, 5]	15	FR1	1	R1120E
571.299	3.368	578516	PROB	3.368	n/a	n/a	-999	5	[4, 8, 2]	14	FR1	1	R1120E
574.667	2.467	581884	PROB	2.467	n/a	n/a	-999	5	[4, 4, 2]	10	FR1	1	R1120E
577.134	4.017	584351	PROB	4.017	n/a	n/a	-999	5	[2, 9, 4]	15	FR1	1	R1120E
581.151	4.702	588367	PROB	4.702	n/a	n/a	-999	5	[6, 9, 4]	19	FR1	1	R1120E
585.853	2.838	593069	PROB	2.838	n/a	n/a	-999	5	[2, 4, 5]	11	FR1	1	R1120E
588.691	0.011	595907	STOP	n/a	n/a	n/a	-999	5	[-999, -999, -999]	n/a	FR1	1	R1120E
588.702	1.119	595918	DISTRACT_END	n/a	n/a	n/a	-999	5	[0, 0, 0]	n/a	FR1	1	R1120E
589.821	0.877	597037	REC_START	n/a	n/a	n/a	-999	5	[0, 0, 0]	n/a	FR1	1	R1120E
590.698	1.537	597914	REC_WORD	1.537	n/a	MOON	-999	5	[0, 0, 0]	n/a	FR1	1	R1120E
592.235	2.686	599451	REC_WORD	2.686	n/a	STAR	-999	5	[0, 0, 0]	n/a	FR1	1	R1120E
594.921	5.28	602136	REC_WORD	5.28	n/a	BOAT	-999	5	[0, 0, 0]	n/a	FR1	1	R1120E
600.201	4.385	607416	REC_WORD	4.385	n/a	CAR	-999	5	[0, 0, 0]	n/a	FR1	1	R1120E
604.586	3.106	611801	REC_WORD	3.106	n/a	PEARL	-999	5	[0, 0, 0]	n/a	FR1	1	R1120E
607.692	12.143	614907	REC_WORD	12.143	n/a	PLANE	-999	5	[0, 0, 0]	n/a	FR1	1	R1120E
619.835	2.557	627049	REC_END	n/a	n/a	n/a	-999	5	[0, 0, 0]	n/a	FR1	1	R1120E
622.392	0.0	629606	TRIAL	n/a	n/a	n/a	-999	6	[0, 0, 0]	n/a	FR1	1	R1120E
622.392	10.428	629606	COUNTDOWN_START	n/a	n/a	n/a	-999	6	[0, 0, 0]	n/a	FR1	1	R1120E
632.82	0.008	640033	COUNTDOWN_END	n/a	n/a	n/a	-999	6	[0, 0, 0]	n/a	FR1	1	R1120E
632.828	2.433	640041	ORIENT	n/a	n/a	n/a	-999	6	[0, 0, 0]	n/a	FR1	1	R1120E
635.261	2.433	642474	WORD	n/a	wordpools/wordpool_EN.txt	SHEEP	1	6	[0, 0, 0]	n/a	FR1	1	R1120E
637.694	2.567	644907	WORD	n/a	wordpools/wordpool_EN.txt	DRUM	2	6	[0, 0, 0]	n/a	FR1	1	R1120E
640.261	2.468	647473	WORD	n/a	wordpools/wordpool_EN.txt	VINE	3	6	[0, 0, 0]	n/a	FR1	1	R1120E
642.729	2.567	649941	WORD	n/a	wordpools/wordpool_EN.txt	CROW	4	6	[0, 0, 0]	n/a	FR1	1	R1120E
645.296	2.617	652508	WORD	n/a	wordpools/wordpool_EN.txt	RAIN	5	6	[0, 0, 0]	n/a	FR1	1	R1120E
647.913	2.533	655125	WORD	n/a	wordpools/wordpool_EN.txt	BRUSH	6	6	[0, 0, 0]	n/a	FR1	1	R1120E
650.446	2.484	657658	WORD	n/a	wordpools/wordpool_EN.txt	DEER	7	6	[0, 0, 0]	n/a	FR1	1	R1120E
652.93	2.617	660141	WORD	n/a	wordpools/wordpool_EN.txt	FROG	8	6	[0, 0, 0]	n/a	FR1	1	R1120E
655.547	2.384	662758	WORD	n/a	wordpools/wordpool_EN.txt	PASTE	9	6	[0, 0, 0]	n/a	FR1	1	R1120E
657.931	2.551	665142	WORD	n/a	wordpools/wordpool_EN.txt	TEETH	10	6	[0, 0, 0]	n/a	FR1	1	R1120E
660.482	2.5	667693	WORD	n/a	wordpools/wordpool_EN.txt	ROOT	11	6	[0, 0, 0]	n/a	FR1	1	R1120E
662.982	1.617	670193	WORD	n/a	wordpools/wordpool_EN.txt	CHIEF	12	6	[0, 0, 0]	n/a	FR1	1	R1120E
664.599	0.001	671810	DISTRACT_START	n/a	n/a	n/a	-999	6	[0, 0, 0]	n/a	FR1	1	R1120E
664.6	0.016	671811	START	n/a	n/a	n/a	-999	6	[-999, -999, -999]	n/a	FR1	1	R1120E
664.616	3.617	671827	PROB	3.617	n/a	n/a	-999	6	[7, 4, 7]	18	FR1	1	R1120E
668.233	4.384	675443	PROB	4.384	n/a	n/a	-999	6	[5, 9, 8]	22	FR1	1	R1120E
672.617	2.551	679827	PROB	2.551	n/a	n/a	-999	6	[9, 3, 2]	14	FR1	1	R1120E
675.168	3.433	682378	PROB	3.433	n/a	n/a	-999	6	[5, 2, 4]	11	FR1	1	R1120E
678.601	2.584	685811	PROB	2.584	n/a	n/a	-999	6	[7, 1, 9]	17	FR1	1	R1120E
681.185	3.819	688395	PROB	3.819	n/a	n/a	-999	6	[8, 6, 3]	17	FR1	1	R1120E
685.004	0.015	692213	STOP	n/a	n/a	n/a	-999	6	[-999, -999, -999]	n/a	FR1	1	R1120E
685.019	1.218	692228	DISTRACT_END	n/a	n/a	n/a	-999	6	[0, 0, 0]	n/a	FR1	1	R1120E
686.237	0.96	693446	REC_START	n/a	n/a	n/a	-999	6	[0, 0, 0]	n/a	FR1	1	R1120E
687.197	3.689	694406	REC_WORD	3.689	n/a	CHEF	-999	6	[0, 0, 0]	n/a	FR1	1	R1120E
690.886	2.093	698095	REC_WORD	2.093	n/a	PASTE	-999	6	[0, 0, 0]	n/a	FR1	1	R1120E
692.979	2.55	700188	REC_WORD	2.55	n/a	TEETH	-999	6	[0, 0, 0]	n/a	FR1	1	R1120E
695.529	2.77	702738	REC_WORD	2.77	n/a	FROG	-999	6	[0, 0, 0]	n/a	FR1	1	R1120E
698.299	4.467	705507	REC_WORD	4.467	n/a	HORSE	-999	6	[0, 0, 0]	n/a	FR1	1	R1120E
702.766	13.479	709974	REC_WORD	13.479	n/a	SHEEP	-999	6	[0, 0, 0]	n/a	FR1	1	R1120E
716.245	5.214	723452	REC_END	n/a	n/a	n/a	-999	6	[0, 0, 0]	n/a	FR1	1	R1120E
721.459	0.0	728666	TRIAL	n/a	n/a	n/a	-999	7	[0, 0, 0]	n/a	FR1	1	R1120E
721.459	10.428	728666	COUNTDOWN_START	n/a	n/a	n/a	-999	7	[0, 0, 0]	n/a	FR1	1	R1120E
731.887	0.007	739093	COUNTDOWN_END	n/a	n/a	n/a	-999	7	[0, 0, 0]	n/a	FR1	1	R1120E
731.894	2.384	739100	ORIENT	n/a	n/a	n/a	-999	7	[0, 0, 0]	n/a	FR1	1	R1120E
734.278	2.568	741484	WORD	n/a	wordpools/wordpool_EN.txt	STAIR	1	7	[0, 0, 0]	n/a	FR1	1	R1120E
736.846	2.549	744052	WORD	n/a	wordpools/wordpool_EN.txt	NET	2	7	[0, 0, 0]	n/a	FR1	1	R1120E
739.395	2.418	746601	WORD	n/a	wordpools/wordpool_EN.txt	BALL	3	7	[0, 0, 0]	n/a	FR1	1	R1120E
741.813	2.4	749018	WORD	n/a	wordpools/wordpool_EN.txt	SHEET	4	7	[0, 0, 0]	n/a	FR1	1	R1120E
744.213	2.518	751418	WORD	n/a	wordpools/wordpool_EN.txt	SCHOOL	5	7	[0, 0, 0]	n/a	FR1	1	R1120E
746.731	2.616	753936	WORD	n/a	wordpools/wordpool_EN.txt	MAP	6	7	[0, 0, 0]	n/a	FR1	1	R1120E
749.347	2.468	756552	WORD	n/a	wordpools/wordpool_EN.txt	WAND	7	7	[0, 0, 0]	n/a	FR1	1	R1120E
751.815	2.466	759020	WORD	n/a	wordpools/wordpool_EN.txt	BOARD	8	7	[0, 0, 0]	n/a	FR1	1	R1120E
754.281	2.552	761486	WORD	n/a	wordpools/wordpool_EN.txt	BOOK	9	7	[0, 0, 0]	n/a	FR1	1	R1120E
756.833	2.533	764037	WORD	n/a	wordpools/wordpool_EN.txt	TRAIN	10	7	[0, 0, 0]	n/a	FR1	1	R1120E
759.366	2.5	766570	WORD	n/a	wordpools/wordpool_EN.txt	DUCK	11	7	[0, 0, 0]	n/a	FR1	1	R1120E
761.866	1.617	769070	WORD	n/a	wordpools/wordpool_EN.txt	JUDGE	12	7	[0, 0, 0]	n/a	FR1	1	R1120E
763.483	0.001	770687	DISTRACT_START	n/a	n/a	n/a	-999	7	[0, 0, 0]	n/a	FR1	1	R1120E
763.484	0.016	770688	START	n/a	n/a	n/a	-999	7	[-999, -999, -999]	n/a	FR1	1	R1120E
763.5	3.617	770704	PROB	3.617	n/a	n/a	-999	7	[6, 7, 2]	15	FR1	1	R1120E
767.117	2.85	774321	PROB	2.85	n/a	n/a	-999	7	[2, 6, 8]	15	FR1	1	R1120E
769.967	2.734	777171	PROB	2.734	n/a	n/a	-999	7	[4, 5, 4]	13	FR1	1	R1120E
772.701	2.317	779904	PROB	2.317	n/a	n/a	-999	7	[4, 5, 7]	16	FR1	1	R1120E
775.018	2.567	782221	PROB	2.567	n/a	n/a	-999	7	[4, 5, 2]	11	FR1	1	R1120E
777.585	3.284	784788	PROB	3.284	n/a	n/a	-999	7	[6, 8, 5]	19	FR1	1	R1120E
780.869	2.847	788072	PROB	2.847	n/a	n/a	-999	7	[8, 8, 2]	18	FR1	1	R1120E
783.716	0.004	790919	STOP	n/a	n/a	n/a	-999	7	[-999, -999, -999]	n/a	FR1	1	R1120E
783.72	1.085	790923	DISTRACT_END	n/a	n/a	n/a	-999	7	[0, 0, 0]	n/a	FR1	1	R1120E
784.805	1.167	792008	REC_START	n/a	n/a	n/a	-999	7	[0, 0, 0]	n/a	FR1	1	R1120E
785.972	1.702	793174	REC_WORD	1.702	n/a	DUCK	-999	7	[0, 0, 0]	n/a	FR1	1	R1120E
787.674	2.254	794876	REC_WORD	2.254	n/a	JUDGE	-999	7	[0, 0, 0]	n/a	FR1	1	R1120E
789.928	2.146	797130	REC_WORD	2.146	n/a	HORSE	-999	7	[0, 0, 0]	n/a	FR1	1	R1120E
792.074	3.494	799276	REC_WORD	3.494	n/a	FROG	-999	7	[0, 0, 0]	n/a	FR1	1	R1120E
795.568	6.726	802770	REC_WORD	6.726	n/a	LEAF	-999	7	[0, 0, 0]	n/a	FR1	1	R1120E
802.294	8.764	809495	REC_WORD	8.764	n/a	BOARD	-999	7	[0, 0, 0]	n/a	FR1	1	R1120E
811.058	3.755	818259	REC_WORD	3.755	n/a	TRAIN	-999	7	[0, 0, 0]	n/a	FR1	1	R1120E
814.813	2.563	822014	REC_END	n/a	n/a	n/a	-999	7	[0, 0, 0]	n/a	FR1	1	R1120E
817.376	0.0	824576	TRIAL	n/a	n/a	n/a	-999	8	[0, 0, 0]	n/a	FR1	1	R1120E
817.376	10.428	824576	COUNTDOWN_START	n/a	n/a	n/a	-999	8	[0, 0, 0]	n/a	FR1	1	R1120E
827.804	0.008	835004	COUNTDOWN_END	n/a	n/a	n/a	-999	8	[0, 0, 0]	n/a	FR1	1	R1120E
827.812	2.599	835012	ORIENT	n/a	n/a	n/a	-999	8	[0, 0, 0]	n/a	FR1	1	R1120E
830.411	2.501	837610	WORD	n/a	wordpools/wordpool_EN.txt	POLE	1	8	[0, 0, 0]	n/a	FR1	1	R1120E
832.912	2.517	840111	WORD	n/a	wordpools/wordpool_EN.txt	CART	2	8	[0, 0, 0]	n/a	FR1	1	R1120E
835.429	2.401	842628	WORD	n/a	wordpools/wordpool_EN.txt	SUIT	3	8	[0, 0, 0]	n/a	FR1	1	R1120E
837.83	2.466	845029	WORD	n/a	wordpools/wordpool_EN.txt	ELF	4	8	[0, 0, 0]	n/a	FR1	1	R1120E
840.296	2.601	847495	WORD	n/a	wordpools/wordpool_EN.txt	PARK	5	8	[0, 0, 0]	n/a	FR1	1	R1120E
842.897	2.5	850096	WORD	n/a	wordpools/wordpool_EN.txt	SEAT	6	8	[0, 0, 0]	n/a	FR1	1	R1120E
845.397	2.634	852595	WORD	n/a	wordpools/wordpool_EN.txt	FLAG	7	8	[0, 0, 0]	n/a	FR1	1	R1120E
848.031	2.517	855229	WORD	n/a	wordpools/wordpool_EN.txt	TENT	8	8	[0, 0, 0]	n/a	FR1	1	R1120E
850.548	2.384	857746	WORD	n/a	wordpools/wordpool_EN.txt	TRUCK	9	8	[0, 0, 0]	n/a	FR1	1	R1120E
852.932	2.584	860130	WORD	n/a	wordpools/wordpool_EN.txt	ROOF	10	8	[0, 0, 0]	n/a	FR1	1	R1120E
855.516	2.45	862714	WORD	n/a	wordpools/wordpool_EN.txt	VEST	11	8	[0, 0, 0]	n/a	FR1	1	R1120E
857.966	1.617	865164	WORD	n/a	wordpools/wordpool_EN.txt	BAND	12	8	[0, 0, 0]	n/a	FR1	1	R1120E
859.583	0.001	866780	DISTRACT_START	n/a	n/a	n/a	-999	8	[0, 0, 0]	n/a	FR1	1	R1120E
859.584	0.016	866781	START	n/a	n/a	n/a	-999	8	[-999, -999, -999]	n/a	FR1	1	R1120E
859.6	2.817	866797	PROB	2.817	n/a	n/a	-999	8	[9, 2, 1]	13	FR1	1	R1120E
862.417	2.934	869614	PROB	2.934	n/a	n/a	-999	8	[1, 9, 7]	17	FR1	1	R1120E
865.351	2.533	872548	PROB	2.533	n/a	n/a	-999	8	[3, 3, 4]	10	FR1	1	R1120E
867.884	3.334	875081	PROB	3.334	n/a	n/a	-999	8	[6, 3, 7]	16	FR1	1	R1120E
871.218	3.118	878415	PROB	3.118	n/a	n/a	-999	8	[9, 4, 9]	22	FR1	1	R1120E
874.336	2.533	881532	PROB	2.533	n/a	n/a	-999	8	[6, 5, 8]	19	FR1	1	R1120E
876.869	2.317	884065	PROB	2.317	n/a	n/a	-999	8	[4, 6, 8]	18	FR1	1	R1120E
879.186	2.418	886382	PROB	2.418	n/a	n/a	-999	8	[5, 7, 3]	15	FR1	1	R1120E
881.604	0.016	888800	STOP	n/a	n/a	n/a	-999	8	[-999, -999, -999]	n/a	FR1	1	R1120E
881.62	1.102	888816	DISTRACT_END	n/a	n/a	n/a	-999	8	[0, 0, 0]	n/a	FR1	1	R1120E
882.722	2.686	889918	REC_START	n/a	n/a	n/a	-999	8	[0, 0, 0]	n/a	FR1	1	R1120E
885.408	2.337	892604	REC_WORD	2.337	n/a	BOARD	-999	8	[0, 0, 0]	n/a	FR1	1	R1120E
887.745	2.945	894941	REC_WORD	2.945	n/a	PLANE	-999	8	[0, 0, 0]	n/a	FR1	1	R1120E
890.69	22.04	897885	REC_WORD	22.04	n/a	POLE	-999	8	[0, 0, 0]	n/a	FR1	1	R1120E
912.73	2.846	919924	REC_END	n/a	n/a	n/a	-999	8	[0, 0, 0]	n/a	FR1	1	R1120E
915.576	0.0	922770	TRIAL	n/a	n/a	n/a	-999	9	[0, 0, 0]	n/a	FR1	1	R1120E
915.576	10.428	922770	COUNTDOWN_START	n/a	n/a	n/a	-999	9	[0, 0, 0]	n/a	FR1	1	R1120E
926.004	0.007	933197	COUNTDOWN_END	n/a	n/a	n/a	-999	9	[0, 0, 0]	n/a	FR1	1	R1120E
926.011	2.6	933204	ORIENT	n/a	n/a	n/a	-999	9	[0, 0, 0]	n/a	FR1	1	R1120E
928.611	2.551	935804	WORD	n/a	wordpools/wordpool_EN.txt	HAND	1	9	[0, 0, 0]	n/a	FR1	1	R1120E
931.162	2.417	938355	WORD	n/a	wordpools/wordpool_EN.txt	BEE	2	9	[0, 0, 0]	n/a	FR1	1	R1120E
933.579	2.617	940771	WORD	n/a	wordpools/wordpool_EN.txt	DOOR	3	9	[0, 0, 0]	n/a	FR1	1	R1120E
936.196	2.585	943388	WORD	n/a	wordpools/wordpool_EN.txt	FLUTE	4	9	[0, 0, 0]	n/a	FR1	1	R1120E
938.781	2.583	945973	WORD	n/a	wordpools/wordpool_EN.txt	BRANCH	5	9	[0, 0, 0]	n/a	FR1	1	R1120E
941.364	2.401	948556	WORD	n/a	wordpools/wordpool_EN.txt	TREE	6	9	[0, 0, 0]	n/a	FR1	1	R1120E
943.765	2.466	950957	WORD	n/a	wordpools/wordpool_EN.txt	MOLE	7	9	[0, 0, 0]	n/a	FR1	1	R1120E
946.231	2.468	953423	WORD	n/a	wordpools/wordpool_EN.txt	CANE	8	9	[0, 0, 0]	n/a	FR1	1	R1120E
948.699	2.483	955890	WORD	n/a	wordpools/wordpool_EN.txt	DOLL	9	9	[0, 0, 0]	n/a	FR1	1	R1120E
951.182	2.401	958373	WORD	n/a	wordpools/wordpool_EN.txt	HOLE	10	9	[0, 0, 0]	n/a	FR1	1	R1120E
953.583	2.567	960774	WORD	n/a	wordpools/wordpool_EN.txt	WEB	11	9	[0, 0, 0]	n/a	FR1	1	R1120E
956.15	1.618	963341	WORD	n/a	wordpools/wordpool_EN.txt	SNAKE	12	9	[0, 0, 0]	n/a	FR1	1	R1120E
957.768	0.0	964959	DISTRACT_START	n/a	n/a	n/a	-999	9	[0, 0, 0]	n/a	FR1	1	R1120E
957.768	0.016	964959	START	n/a	n/a	n/a	-999	9	[-999, -999, -999]	n/a	FR1	1	R1120E
957.784	2.733	964975	PROB	2.733	n/a	n/a	-999	9	[9, 1, 5]	15	FR1	1	R1120E
960.517	2.617	967708	PROB	2.617	n/a	n/a	-999	9	[6, 6, 8]	20	FR1	1	R1120E
963.134	2.351	970324	PROB	2.351	n/a	n/a	-999	9	[7, 5, 3]	15	FR1	1	R1120E
965.485	2.368	972675	PROB	2.368	n/a	n/a	-999	9	[9, 9, 2]	20	FR1	1	R1120E
967.853	3.416	975043	PROB	3.416	n/a	n/a	-999	9	[5, 1, 2]	8	FR1	1	R1120E
971.269	2.884	978459	PROB	2.884	n/a	n/a	-999	9	[2, 1, 8]	11	FR1	1	R1120E
974.153	4.267	981343	PROB	4.267	n/a	n/a	-999	9	[3, 1, 9]	13	FR1	1	R1120E
978.42	0.017	985609	STOP	n/a	n/a	n/a	-999	9	[-999, -999, -999]	n/a	FR1	1	R1120E
978.437	1.151	985626	DISTRACT_END	n/a	n/a	n/a	-999	9	[0, 0, 0]	n/a	FR1	1	R1120E
979.588	0.536	986777	REC_START	n/a	n/a	n/a	-999	9	[0, 0, 0]	n/a	FR1	1	R1120E
980.124	1.492	987313	REC_WORD	1.492	n/a	HAND	-999	9	[0, 0, 0]	n/a	FR1	1	R1120E
981.616	1.459	988805	REC_WORD	1.459	n/a	BEE	-999	9	[0, 0, 0]	n/a	FR1	1	R1120E
983.075	1.291	990264	REC_WORD	1.291	n/a	DOOR	-999	9	[0, 0, 0]	n/a	FR1	1	R1120E
984.366	1.431	991555	REC_WORD	1.431	n/a	WEB	-999	9	[0, 0, 0]	n/a	FR1	1	R1120E
985.797	23.799	992986	REC_WORD	23.799	n/a	SNAKE	-999	9	[0, 0, 0]	n/a	FR1	1	R1120E
1009.596	4.165	1016783	REC_END	n/a	n/a	n/a	-999	9	[0, 0, 0]	n/a	FR1	1	R1120E
1013.761	0.0	1020948	TRIAL	n/a	n/a	n/a	-999	10	[0, 0, 0]	n/a	FR1	1	R1120E
1013.761	10.428	1020948	COUNTDOWN_START	n/a	n/a	n/a	-999	10	[0, 0, 0]	n/a	FR1	1	R1120E
1024.189	0.006	1031375	COUNTDOWN_END	n/a	n/a	n/a	-999	10	[0, 0, 0]	n/a	FR1	1	R1120E
1024.195	2.484	1031381	ORIENT	n/a	n/a	n/a	-999	10	[0, 0, 0]	n/a	FR1	1	R1120E
1026.679	2.6	1033865	WORD	n/a	wordpools/wordpool_EN.txt	THUMB	1	10	[0, 0, 0]	n/a	FR1	1	R1120E
1029.279	2.417	1036465	WORD	n/a	wordpools/wordpool_EN.txt	SLEEVE	2	10	[0, 0, 0]	n/a	FR1	1	R1120E
1031.696	2.4	1038882	WORD	n/a	wordpools/wordpool_EN.txt	FENCE	3	10	[0, 0, 0]	n/a	FR1	1	R1120E
1034.096	2.418	1041282	WORD	n/a	wordpools/wordpool_EN.txt	YARD	4	10	[0, 0, 0]	n/a	FR1	1	R1120E
1036.514	2.45	1043700	WORD	n/a	wordpools/wordpool_EN.txt	PEN	5	10	[0, 0, 0]	n/a	FR1	1	R1120E
1038.964	2.484	1046149	WORD	n/a	wordpools/wordpool_EN.txt	COUCH	6	10	[0, 0, 0]	n/a	FR1	1	R1120E
1041.448	2.617	1048633	WORD	n/a	wordpools/wordpool_EN.txt	TAIL	7	10	[0, 0, 0]	n/a	FR1	1	R1120E
1044.065	2.384	1051250	WORD	n/a	wordpools/wordpool_EN.txt	GATE	8	10	[0, 0, 0]	n/a	FR1	1	R1120E
1046.449	2.6	1053634	WORD	n/a	wordpools/wordpool_EN.txt	POOL	9	10	[0, 0, 0]	n/a	FR1	1	R1120E
1049.049	2.584	1056234	WORD	n/a	wordpools/wordpool_EN.txt	BAG	10	10	[0, 0, 0]	n/a	FR1	1	R1120E
1051.633	2.617	1058817	WORD	n/a	wordpools/wordpool_EN.txt	CUBE	11	10	[0, 0, 0]	n/a	FR1	1	R1120E
1054.25	1.601	1061434	WORD	n/a	wordpools/wordpool_EN.txt	ROOM	12	10	[0, 0, 0]	n/a	FR1	1	R1120E
1055.851	0.001	1063035	DISTRACT_START	n/a	n/a	n/a	-999	10	[0, 0, 0]	n/a	FR1	1	R1120E
1055.852	0.015	1063036	START	n/a	n/a	n/a	-999	10	[-999, -999, -999]	n/a	FR1	1	R1120E
1055.867	3.234	1063051	PROB	3.234	n/a	n/a	-999	10	[5, 8, 4]	17	FR1	1	R1120E
1059.101	2.084	1066285	PROB	2.084	n/a	n/a	-999	10	[3, 3, 3]	9	FR1	1	R1120E
1061.185	3.967	1068369	PROB	3.967	n/a	n/a	-999	10	[4, 8, 7]	19	FR1	1	R1120E
1065.152	5.351	1072336	PROB	5.351	n/a	n/a	-999	10	[8, 9, 9]	26	FR1	1	R1120E
1070.503	4.618	1077686	PROB	4.618	n/a	n/a	-999	10	[2, 1, 4]	7	FR1	1	R1120E
1075.121	3.967	1082304	PROB	3.967	n/a	n/a	-999	10	[7, 5, 2]	14	FR1	1	R1120E
1079.088	0.017	1086271	STOP	n/a	n/a	n/a	-999	10	[-999, -999, -999]	n/a	FR1	1	R1120E
1079.105	1.184	1086288	DISTRACT_END	n/a	n/a	n/a	-999	10	[0, 0, 0]	n/a	FR1	1	R1120E
1080.289	1.007	1087472	REC_START	n/a	n/a	n/a	-999	10	[0, 0, 0]	n/a	FR1	1	R1120E
1081.296	1.863	1088478	REC_WORD	1.863	n/a	FENCE	-999	10	[0, 0, 0]	n/a	FR1	1	R1120E
1083.159	1.622	1090341	REC_WORD	1.622	n/a	YARD	-999	10	[0, 0, 0]	n/a	FR1	1	R1120E
1084.781	1.81	1091963	REC_WORD	1.81	n/a	GATE	-999	10	[0, 0, 0]	n/a	FR1	1	R1120E
1086.591	6.88	1093773	REC_WORD	6.88	n/a	POOL	-999	10	[0, 0, 0]	n/a	FR1	1	R1120E
1093.471	4.815	1100653	REC_WORD	4.815	n/a	COUCH	-999	10	[0, 0, 0]	n/a	FR1	1	R1120E
1098.286	2.412	1105467	REC_WORD	2.412	n/a	SLEEVE	-999	10	[0, 0, 0]	n/a	FR1	1	R1120E
1100.698	9.601	1107879	REC_WORD	9.601	n/a	THUMB	-999	10	[0, 0, 0]	n/a	FR1	1	R1120E
1110.299	4.446	1117480	REC_END	n/a	n/a	n/a	-999	10	[0, 0, 0]	n/a	FR1	1	R1120E
1114.745	0.0	1121925	TRIAL	n/a	n/a	n/a	-999	11	[0, 0, 0]	n/a	FR1	1	R1120E
1114.745	10.428	1121925	COUNTDOWN_START	n/a	n/a	n/a	-999	11	[0, 0, 0]	n/a	FR1	1	R1120E
1125.173	0.006	1132353	COUNTDOWN_END	n/a	n/a	n/a	-999	11	[0, 0, 0]	n/a	FR1	1	R1120E
1125.179	2.45	1132359	ORIENT	n/a	n/a	n/a	-999	11	[0, 0, 0]	n/a	FR1	1	R1120E
1127.629	2.401	1134808	WORD	n/a	wordpools/wordpool_EN.txt	JET	1	11	[0, 0, 0]	n/a	FR1	1	R1120E
1130.03	2.617	1137209	WORD	n/a	wordpools/wordpool_EN.txt	BRIDGE	2	11	[0, 0, 0]	n/a	FR1	1	R1120E
1132.647	2.384	1139826	WORD	n/a	wordpools/wordpool_EN.txt	WAVE	3	11	[0, 0, 0]	n/a	FR1	1	R1120E
1135.031	2.617	1142210	WORD	n/a	wordpools/wordpool_EN.txt	SPEAR	4	11	[0, 0, 0]	n/a	FR1	1	R1120E
1137.648	2.384	1144827	WORD	n/a	wordpools/wordpool_EN.txt	SAIL	5	11	[0, 0, 0]	n/a	FR1	1	R1120E
1140.032	2.484	1147211	WORD	n/a	wordpools/wordpool_EN.txt	PRINCE	6	11	[0, 0, 0]	n/a	FR1	1	R1120E
1142.516	2.383	1149694	WORD	n/a	wordpools/wordpool_EN.txt	ROAD	7	11	[0, 0, 0]	n/a	FR1	1	R1120E
1144.899	2.417	1152077	WORD	n/a	wordpools/wordpool_EN.txt	PLANE	8	11	[0, 0, 0]	n/a	FR1	1	R1120E
1147.316	2.584	1154494	WORD	n/a	wordpools/wordpool_EN.txt	BOAT	9	11	[0, 0, 0]	n/a	FR1	1	R1120E
1149.9	2.534	1157078	WORD	n/a	wordpools/wordpool_EN.txt	FOG	10	11	[0, 0, 0]	n/a	FR1	1	R1120E
1152.434	2.434	1159612	WORD	n/a	wordpools/wordpool_EN.txt	DOCK	11	11	[0, 0, 0]	n/a	FR1	1	R1120E
1154.868	1.617	1162046	WORD	n/a	wordpools/wordpool_EN.txt	BEAK	12	11	[0, 0, 0]	n/a	FR1	1	R1120E
1156.485	0.0	1163662	DISTRACT_START	n/a	n/a	n/a	-999	11	[0, 0, 0]	n/a	FR1	1	R1120E
1156.485	0.016	1163662	START	n/a	n/a	n/a	-999	11	[-999, -999, -999]	n/a	FR1	1	R1120E
1156.501	2.618	1163678	PROB	2.618	n/a	n/a	-999	11	[5, 6, 6]	17	FR1	1	R1120E
1159.119	2.95	1166296	PROB	2.95	n/a	n/a	-999	11	[1, 6, 9]	16	FR1	1	R1120E
1162.069	6.451	1169246	PROB	6.451	n/a	n/a	-999	11	[8, 1, 3]	112	FR1	1	R1120E
1168.52	8.151	1175697	PROB	8.151	n/a	n/a	-999	11	[8, 6, 9]	23	FR1	1	R1120E
1176.671	0.017	1183847	STOP	n/a	n/a	n/a	-999	11	[-999, -999, -999]	n/a	FR1	1	R1120E
1176.688	1.171	1183864	DISTRACT_END	n/a	n/a	n/a	-999	11	[0, 0, 0]	n/a	FR1	1	R1120E
1177.859	1.19	1185035	REC_START	n/a	n/a	n/a	-999	11	[0, 0, 0]	n/a	FR1	1	R1120E
1179.049	2.221	1186225	REC_WORD	2.221	n/a	PLANE	-999	11	[0, 0, 0]	n/a	FR1	1	R1120E
1181.27	2.218	1188446	REC_WORD	2.218	n/a	BOAT	-999	11	[0, 0, 0]	n/a	FR1	1	R1120E
1183.488	9.215	1190664	REC_WORD	9.215	n/a	BRIDGE	-999	11	[0, 0, 0]	n/a	FR1	1	R1120E
1192.703	6.673	1199878	REC_WORD	6.673	n/a	WAVE	-999	11	[0, 0, 0]	n/a	FR1	1	R1120E
1199.376	8.489	1206550	REC_WORD	8.489	n/a	JET	-999	11	[0, 0, 0]	n/a	FR1	1	R1120E
1207.865	3.113	1215039	REC_END	n/a	n/a	n/a	-999	11	[0, 0, 0]	n/a	FR1	1	R1120E
1210.978	0.0	1218152	COUNTDOWN_START	n/a	n/a	n/a	-999	12	[0, 0, 0]	n/a	FR1	1	R1120E
1210.978	10.428	1218152	TRIAL	n/a	n/a	n/a	-999	12	[0, 0, 0]	n/a	FR1	1	R1120E
1221.406	0.007	1228579	COUNTDOWN_END	n/a	n/a	n/a	-999	12	[0, 0, 0]	n/a	FR1	1	R1120E
1221.413	2.567	1228586	ORIENT	n/a	n/a	n/a	-999	12	[0, 0, 0]	n/a	FR1	1	R1120E
1223.98	2.534	1231153	WORD	n/a	wordpools/wordpool_EN.txt	LEG	1	12	[0, 0, 0]	n/a	FR1	1	R1120E
1226.514	2.433	1233687	WORD	n/a	wordpools/wordpool_EN.txt	SHOE	2	12	[0, 0, 0]	n/a	FR1	1	R1120E
1228.947	2.501	1236119	WORD	n/a	wordpools/wordpool_EN.txt	SWAMP	3	12	[0, 0, 0]	n/a	FR1	1	R1120E
1231.448	2.567	1238620	WORD	n/a	wordpools/wordpool_EN.txt	SKI	4	12	[0, 0, 0]	n/a	FR1	1	R1120E
1234.015	2.534	1241187	WORD	n/a	wordpools/wordpool_EN.txt	SHIRT	5	12	[0, 0, 0]	n/a	FR1	1	R1120E
1236.549	2.417	1243721	WORD	n/a	wordpools/wordpool_EN.txt	TOE	6	12	[0, 0, 0]	n/a	FR1	1	R1120E
1238.966	2.467	1246138	WORD	n/a	wordpools/wordpool_EN.txt	CLIFF	7	12	[0, 0, 0]	n/a	FR1	1	R1120E
1241.433	2.5	1248605	WORD	n/a	wordpools/wordpool_EN.txt	BOOT	8	12	[0, 0, 0]	n/a	FR1	1	R1120E
1243.933	2.401	1251104	WORD	n/a	wordpools/wordpool_EN.txt	BADGE	9	12	[0, 0, 0]	n/a	FR1	1	R1120E
1246.334	2.418	1253505	WORD	n/a	wordpools/wordpool_EN.txt	STREET	10	12	[0, 0, 0]	n/a	FR1	1	R1120E
1248.752	2.516	1255923	WORD	n/a	wordpools/wordpool_EN.txt	ARK	11	12	[0, 0, 0]	n/a	FR1	1	R1120E
1251.268	1.617	1258439	WORD	n/a	wordpools/wordpool_EN.txt	HILL	12	12	[0, 0, 0]	n/a	FR1	1	R1120E
1252.885	0.001	1260056	DISTRACT_START	n/a	n/a	n/a	-999	12	[0, 0, 0]	n/a	FR1	1	R1120E
1252.886	0.016	1260057	START	n/a	n/a	n/a	-999	12	[-999, -999, -999]	n/a	FR1	1	R1120E
1252.902	3.217	1260073	PROB	3.217	n/a	n/a	-999	12	[3, 2, 7]	12	FR1	1	R1120E
1256.119	2.25	1263290	PROB	2.25	n/a	n/a	-999	12	[1, 8, 6]	15	FR1	1	R1120E
1258.369	2.684	1265540	PROB	2.684	n/a	n/a	-999	12	[9, 9, 2]	20	FR1	1	R1120E
1261.053	3.217	1268223	PROB	3.217	n/a	n/a	-999	12	[1, 3, 5]	9	FR1	1	R1120E
1264.27	3.017	1271440	PROB	3.017	n/a	n/a	-999	12	[6, 2, 6]	14	FR1	1	R1120E
1267.287	3.301	1274457	PROB	3.301	n/a	n/a	-999	12	[8, 1, 3]	12	FR1	1	R1120E
1270.588	2.967	1277758	PROB	2.967	n/a	n/a	-999	12	[6, 3, 6]	15	FR1	1	R1120E
1273.555	0.017	1280724	STOP	n/a	n/a	n/a	-999	12	[-999, -999, -999]	n/a	FR1	1	R1120E
1273.572	1.185	1280741	DISTRACT_END	n/a	n/a	n/a	-999	12	[0, 0, 0]	n/a	FR1	1	R1120E
1274.757	1.213	1281926	REC_START	n/a	n/a	n/a	-999	12	[0, 0, 0]	n/a	FR1	1	R1120E
1275.97	1.948	1283139	REC_WORD	1.948	n/a	BOOT	-999	12	[0, 0, 0]	n/a	FR1	1	R1120E
1277.918	3.753	1285087	REC_WORD	3.753	n/a	BADGE	-999	12	[0, 0, 0]	n/a	FR1	1	R1120E
1281.671	4.827	1288840	REC_WORD	4.827	n/a	TOE	-999	12	[0, 0, 0]	n/a	FR1	1	R1120E
1286.498	18.269	1293667	REC_WORD	18.269	n/a	FOOT	-999	12	[0, 0, 0]	n/a	FR1	1	R1120E
1304.767	7.162	1311934	REC_END	n/a	n/a	n/a	-999	12	[0, 0, 0]	n/a	FR1	1	R1120E
1311.929	0.0	1319096	TRIAL	n/a	n/a	n/a	-999	13	[0, 0, 0]	n/a	FR1	1	R1120E
1311.929	10.428	1319096	COUNTDOWN_START	n/a	n/a	n/a	-999	13	[0, 0, 0]	n/a	FR1	1	R1120E
1322.357	0.007	1329523	COUNTDOWN_END	n/a	n/a	n/a	-999	13	[0, 0, 0]	n/a	FR1	1	R1120E
1322.364	2.55	1329530	ORIENT	n/a	n/a	n/a	-999	13	[0, 0, 0]	n/a	FR1	1	R1120E
1324.914	2.534	1332080	WORD	n/a	wordpools/wordpool_EN.txt	HOSE	1	13	[0, 0, 0]	n/a	FR1	1	R1120E
1327.448	2.467	1334614	WORD	n/a	wordpools/wordpool_EN.txt	SOAP	2	13	[0, 0, 0]	n/a	FR1	1	R1120E
1329.915	2.401	1337081	WORD	n/a	wordpools/wordpool_EN.txt	MAIL	3	13	[0, 0, 0]	n/a	FR1	1	R1120E
1332.316	2.583	1339481	WORD	n/a	wordpools/wordpool_EN.txt	SLUSH	4	13	[0, 0, 0]	n/a	FR1	1	R1120E
1334.899	2.434	1342064	WORD	n/a	wordpools/wordpool_EN.txt	FOAM	5	13	[0, 0, 0]	n/a	FR1	1	R1120E
1337.333	2.518	1344498	WORD	n/a	wordpools/wordpool_EN.txt	STORE	6	13	[0, 0, 0]	n/a	FR1	1	R1120E
1339.851	2.633	1347016	WORD	n/a	wordpools/wordpool_EN.txt	GRAPE	7	13	[0, 0, 0]	n/a	FR1	1	R1120E
1342.484	2.534	1349649	WORD	n/a	wordpools/wordpool_EN.txt	JUICE	8	13	[0, 0, 0]	n/a	FR1	1	R1120E
1345.018	2.5	1352183	WORD	n/a	wordpools/wordpool_EN.txt	RICE	9	13	[0, 0, 0]	n/a	FR1	1	R1120E
1347.518	2.484	1354682	WORD	n/a	wordpools/wordpool_EN.txt	BANK	10	13	[0, 0, 0]	n/a	FR1	1	R1120E
1350.002	2.617	1357166	WORD	n/a	wordpools/wordpool_EN.txt	FOOD	11	13	[0, 0, 0]	n/a	FR1	1	R1120E
1352.619	1.617	1359783	WORD	n/a	wordpools/wordpool_EN.txt	MULE	12	13	[0, 0, 0]	n/a	FR1	1	R1120E
1354.236	0.001	1361400	DISTRACT_START	n/a	n/a	n/a	-999	13	[0, 0, 0]	n/a	FR1	1	R1120E
1354.237	0.016	1361401	START	n/a	n/a	n/a	-999	13	[-999, -999, -999]	n/a	FR1	1	R1120E
1354.253	3.017	1361417	PROB	3.017	n/a	n/a	-999	13	[3, 4, 7]	14	FR1	1	R1120E
1357.27	3.25	1364434	PROB	3.25	n/a	n/a	-999	13	[7, 4, 8]	19	FR1	1	R1120E
1360.52	2.568	1367684	PROB	2.568	n/a	n/a	-999	13	[5, 4, 7]	16	FR1	1	R1120E
1363.088	2.433	1370251	PROB	2.433	n/a	n/a	-999	13	[9, 2, 8]	19	FR1	1	R1120E
1365.521	3.368	1372684	PROB	3.368	n/a	n/a	-999	13	[5, 7, 4]	16	FR1	1	R1120E
1368.889	2.383	1376052	PROB	2.383	n/a	n/a	-999	13	[3, 2, 5]	10	FR1	1	R1120E
1371.272	4.212	1378435	PROB	4.212	n/a	n/a	-999	13	[1, 1, 9]	11	FR1	1	R1120E
1375.484	0.006	1382647	STOP	n/a	n/a	n/a	-999	13	[-999, -999, -999]	n/a	FR1	1	R1120E
1375.49	1.1	1382653	DISTRACT_END	n/a	n/a	n/a	-999	13	[0, 0, 0]	n/a	FR1	1	R1120E
1376.59	0.797	1383752	REC_START	n/a	n/a	n/a	-999	13	[0, 0, 0]	n/a	FR1	1	R1120E
1377.387	1.537	1384549	REC_WORD	1.537	n/a	FOOD	-999	13	[0, 0, 0]	n/a	FR1	1	R1120E
1378.924	2.06	1386086	REC_WORD	2.06	n/a	RICE	-999	13	[0, 0, 0]	n/a	FR1	1	R1120E
1380.984	1.989	1388146	REC_WORD	1.989	n/a	BANK	-999	13	[0, 0, 0]	n/a	FR1	1	R1120E
1382.973	2.074	1390135	REC_WORD	2.074	n/a	SKI	-999	13	[0, 0, 0]	n/a	FR1	1	R1120E
1385.047	2.991	1392209	REC_WORD	2.991	n/a	HOSE	-999	13	[0, 0, 0]	n/a	FR1	1	R1120E
1388.038	8.162	1395200	REC_WORD	8.162	n/a	MAIL	-999	13	[0, 0, 0]	n/a	FR1	1	R1120E
1396.2	10.401	1403361	REC_WORD	10.401	n/a	BRUSH	-999	13	[0, 0, 0]	n/a	FR1	1	R1120E
1406.601	2.711	1413761	REC_END	n/a	n/a	n/a	-999	13	[0, 0, 0]	n/a	FR1	1	R1120E
1409.312	0.0	1416472	TRIAL	n/a	n/a	n/a	-999	14	[0, 0, 0]	n/a	FR1	1	R1120E
1409.312	10.428	1416472	COUNTDOWN_START	n/a	n/a	n/a	-999	14	[0, 0, 0]	n/a	FR1	1	R1120E
1419.74	0.008	1426900	COUNTDOWN_END	n/a	n/a	n/a	-999	14	[0, 0, 0]	n/a	FR1	1	R1120E
1419.748	2.416	1426908	ORIENT	n/a	n/a	n/a	-999	14	[0, 0, 0]	n/a	FR1	1	R1120E
1422.164	2.484	1429323	WORD	n/a	wordpools/wordpool_EN.txt	DESK	1	14	[0, 0, 0]	n/a	FR1	1	R1120E
1424.648	2.484	1431807	WORD	n/a	wordpools/wordpool_EN.txt	BREAD	2	14	[0, 0, 0]	n/a	FR1	1	R1120E
1427.132	2.384	1434291	WORD	n/a	wordpools/wordpool_EN.txt	WORLD	3	14	[0, 0, 0]	n/a	FR1	1	R1120E
1429.516	2.617	1436675	WORD	n/a	wordpools/wordpool_EN.txt	BENCH	4	14	[0, 0, 0]	n/a	FR1	1	R1120E
1432.133	2.467	1439292	WORD	n/a	wordpools/wordpool_EN.txt	STOOL	5	14	[0, 0, 0]	n/a	FR1	1	R1120E
1434.6	2.417	1441759	WORD	n/a	wordpools/wordpool_EN.txt	MOUTH	6	14	[0, 0, 0]	n/a	FR1	1	R1120E
1437.017	2.584	1444175	WORD	n/a	wordpools/wordpool_EN.txt	SKUNK	7	14	[0, 0, 0]	n/a	FR1	1	R1120E
1439.601	2.517	1446759	WORD	n/a	wordpools/wordpool_EN.txt	RAT	8	14	[0, 0, 0]	n/a	FR1	1	R1120E
1442.118	2.601	1449276	WORD	n/a	wordpools/wordpool_EN.txt	BUSH	9	14	[0, 0, 0]	n/a	FR1	1	R1120E
1444.719	2.55	1451877	WORD	n/a	wordpools/wordpool_EN.txt	SINK	10	14	[0, 0, 0]	n/a	FR1	1	R1120E
1447.269	2.434	1454427	WORD	n/a	wordpools/wordpool_EN.txt	BROOM	11	14	[0, 0, 0]	n/a	FR1	1	R1120E
1449.703	1.617	1456861	WORD	n/a	wordpools/wordpool_EN.txt	VASE	12	14	[0, 0, 0]	n/a	FR1	1	R1120E
1451.32	0.0	1458477	DISTRACT_START	n/a	n/a	n/a	-999	14	[0, 0, 0]	n/a	FR1	1	R1120E
1451.32	0.016	1458477	START	n/a	n/a	n/a	-999	14	[-999, -999, -999]	n/a	FR1	1	R1120E
1451.336	3.318	1458493	PROB	3.318	n/a	n/a	-999	14	[9, 1, 9]	19	FR1	1	R1120E
1454.654	2.583	1461811	PROB	2.583	n/a	n/a	-999	14	[8, 9, 3]	21	FR1	1	R1120E
1457.237	4.251	1464394	PROB	4.251	n/a	n/a	-999	14	[2, 7, 9]	18	FR1	1	R1120E
1461.488	3.067	1468645	PROB	3.067	n/a	n/a	-999	14	[2, 6, 2]	10	FR1	1	R1120E
1464.555	3.285	1471712	PROB	3.285	n/a	n/a	-999	14	[7, 5, 2]	14	FR1	1	R1120E
1467.84	2.8	1474996	PROB	2.8	n/a	n/a	-999	14	[7, 4, 7]	18	FR1	1	R1120E
1470.64	3.852	1477796	PROB	3.852	n/a	n/a	-999	14	[1, 4, 3]	8	FR1	1	R1120E
1474.492	0.015	1481648	STOP	n/a	n/a	n/a	-999	14	[-999, -999, -999]	n/a	FR1	1	R1120E
1474.507	1.219	1481663	DISTRACT_END	n/a	n/a	n/a	-999	14	[0, 0, 0]	n/a	FR1	1	R1120E
1475.726	1.832	1482882	REC_START	n/a	n/a	n/a	-999	14	[0, 0, 0]	n/a	FR1	1	R1120E
1477.558	2.08	1484714	REC_WORD	2.08	n/a	STOOL	-999	14	[0, 0, 0]	n/a	FR1	1	R1120E
1479.638	2.471	1486794	REC_WORD	2.471	n/a	BENCH	-999	14	[0, 0, 0]	n/a	FR1	1	R1120E
1482.109	4.855	1489264	REC_WORD	4.855	n/a	DESK	-999	14	[0, 0, 0]	n/a	FR1	1	R1120E
1486.964	3.441	1494119	REC_WORD	3.441	n/a	SPOON	-999	14	[0, 0, 0]	n/a	FR1	1	R1120E
1490.405	15.33	1497560	REC_WORD	15.33	n/a	VASE	-999	14	[0, 0, 0]	n/a	FR1	1	R1120E
1505.735	2.778	1512889	REC_END	n/a	n/a	n/a	-999	14	[0, 0, 0]	n/a	FR1	1	R1120E
1508.513	0.0	1515667	TRIAL	n/a	n/a	n/a	-999	15	[0, 0, 0]	n/a	FR1	1	R1120E
1508.513	10.428	1515667	COUNTDOWN_START	n/a	n/a	n/a	-999	15	[0, 0, 0]	n/a	FR1	1	R1120E
1518.941	0.007	1526094	COUNTDOWN_END	n/a	n/a	n/a	-999	15	[0, 0, 0]	n/a	FR1	1	R1120E
1518.948	2.467	1526101	ORIENT	n/a	n/a	n/a	-999	15	[0, 0, 0]	n/a	FR1	1	R1120E
1521.415	2.617	1528568	WORD	n/a	wordpools/wordpool_EN.txt	STEM	1	15	[0, 0, 0]	n/a	FR1	1	R1120E
1524.032	2.484	1531185	WORD	n/a	wordpools/wordpool_EN.txt	WORM	2	15	[0, 0, 0]	n/a	FR1	1	R1120E
1526.516	2.484	1533668	WORD	n/a	wordpools/wordpool_EN.txt	SALT	3	15	[0, 0, 0]	n/a	FR1	1	R1120E
1529.0	2.584	1536152	WORD	n/a	wordpools/wordpool_EN.txt	CORD	4	15	[0, 0, 0]	n/a	FR1	1	R1120E
1531.584	2.617	1538736	WORD	n/a	wordpools/wordpool_EN.txt	RAKE	5	15	[0, 0, 0]	n/a	FR1	1	R1120E
1534.201	2.483	1541353	WORD	n/a	wordpools/wordpool_EN.txt	SNAIL	6	15	[0, 0, 0]	n/a	FR1	1	R1120E
1536.684	2.601	1543836	WORD	n/a	wordpools/wordpool_EN.txt	RIB	7	15	[0, 0, 0]	n/a	FR1	1	R1120E
1539.285	2.6	1546436	WORD	n/a	wordpools/wordpool_EN.txt	ANT	8	15	[0, 0, 0]	n/a	FR1	1	R1120E
1541.885	2.568	1549036	WORD	n/a	wordpools/wordpool_EN.txt	MILK	9	15	[0, 0, 0]	n/a	FR1	1	R1120E
1544.453	2.45	1551604	WORD	n/a	wordpools/wordpool_EN.txt	HEART	10	15	[0, 0, 0]	n/a	FR1	1	R1120E
1546.903	2.467	1554054	WORD	n/a	wordpools/wordpool_EN.txt	MOTH	11	15	[0, 0, 0]	n/a	FR1	1	R1120E
1549.37	1.617	1556521	WORD	n/a	wordpools/wordpool_EN.txt	FRUIT	12	15	[0, 0, 0]	n/a	FR1	1	R1120E
1550.987	0.001	1558138	DISTRACT_START	n/a	n/a	n/a	-999	15	[0, 0, 0]	n/a	FR1	1	R1120E
1550.988	0.016	1558139	START	n/a	n/a	n/a	-999	15	[-999, -999, -999]	n/a	FR1	1	R1120E
1551.004	3.45	1558155	PROB	3.45	n/a	n/a	-999	15	[9, 6, 2]	17	FR1	1	R1120E
1554.454	2.634	1561604	PROB	2.634	n/a	n/a	-999	15	[1, 9, 5]	15	FR1	1	R1120E
1557.088	3.051	1564238	PROB	3.051	n/a	n/a	-999	15	[5, 4, 9]	18	FR1	1	R1120E
1560.139	2.167	1567289	PROB	2.167	n/a	n/a	-999	15	[1, 5, 6]	12	FR1	1	R1120E
1562.306	3.734	1569456	PROB	3.734	n/a	n/a	-999	15	[1, 1, 3]	5	FR1	1	R1120E
1566.04	2.45	1573190	PROB	2.45	n/a	n/a	-999	15	[8, 5, 2]	15	FR1	1	R1120E
1568.49	2.368	1575640	PROB	2.368	n/a	n/a	-999	15	[3, 7, 9]	19	FR1	1	R1120E
1570.858	4.691	1578007	PROB	4.691	n/a	n/a	-999	15	[9, 6, 8]	23	FR1	1	R1120E
1575.549	0.009	1582698	STOP	n/a	n/a	n/a	-999	15	[-999, -999, -999]	n/a	FR1	1	R1120E
1575.558	1.151	1582707	DISTRACT_END	n/a	n/a	n/a	-999	15	[0, 0, 0]	n/a	FR1	1	R1120E
1576.709	1.544	1583858	REC_START	n/a	n/a	n/a	-999	15	[0, 0, 0]	n/a	FR1	1	R1120E
1578.253	2.713	1585402	REC_WORD	2.713	n/a	STEAM	-999	15	[0, 0, 0]	n/a	FR1	1	R1120E
1580.966	6.823	1588115	REC_WORD	6.823	n/a	PLANT	-999	15	[0, 0, 0]	n/a	FR1	1	R1120E
1587.789	3.247	1594937	REC_WORD	3.247	n/a	ROOT	-999	15	[0, 0, 0]	n/a	FR1	1	R1120E
1591.036	13.799	1598184	REC_WORD	13.799	n/a	VASE	-999	15	[0, 0, 0]	n/a	FR1	1	R1120E
1604.835	1.885	1611982	REC_WORD	1.885	n/a	SNAIL	-999	15	[0, 0, 0]	n/a	FR1	1	R1120E
1606.72	4.861	1613867	REC_END	n/a	n/a	n/a	-999	15	[0, 0, 0]	n/a	FR1	1	R1120E
1611.581	0.0	1618728	TRIAL	n/a	n/a	n/a	-999	16	[0, 0, 0]	n/a	FR1	1	R1120E
1611.581	10.428	1618728	COUNTDOWN_START	n/a	n/a	n/a	-999	16	[0, 0, 0]	n/a	FR1	1	R1120E
1622.009	0.007	1629155	COUNTDOWN_END	n/a	n/a	n/a	-999	16	[0, 0, 0]	n/a	FR1	1	R1120E
1622.016	2.601	1629162	ORIENT	n/a	n/a	n/a	-999	16	[0, 0, 0]	n/a	FR1	1	R1120E
1624.617	2.417	1631763	WORD	n/a	wordpools/wordpool_EN.txt	SNOW	1	16	[0, 0, 0]	n/a	FR1	1	R1120E
1627.034	2.633	1634180	WORD	n/a	wordpools/wordpool_EN.txt	CLAY	2	16	[0, 0, 0]	n/a	FR1	1	R1120E
1629.667	2.501	1636812	WORD	n/a	wordpools/wordpool_EN.txt	STRAW	3	16	[0, 0, 0]	n/a	FR1	1	R1120E
1632.168	2.601	1639313	WORD	n/a	wordpools/wordpool_EN.txt	SQUARE	4	16	[0, 0, 0]	n/a	FR1	1	R1120E
1634.769	2.616	1641914	WORD	n/a	wordpools/wordpool_EN.txt	MUD	5	16	[0, 0, 0]	n/a	FR1	1	R1120E
1637.385	2.435	1644530	WORD	n/a	wordpools/wordpool_EN.txt	STORM	6	16	[0, 0, 0]	n/a	FR1	1	R1120E
1639.82	2.416	1646965	WORD	n/a	wordpools/wordpool_EN.txt	THREAD	7	16	[0, 0, 0]	n/a	FR1	1	R1120E
1642.236	2.467	1649381	WORD	n/a	wordpools/wordpool_EN.txt	CLOUD	8	16	[0, 0, 0]	n/a	FR1	1	R1120E
1644.703	2.617	1651847	WORD	n/a	wordpools/wordpool_EN.txt	LAND	9	16	[0, 0, 0]	n/a	FR1	1	R1120E
1647.32	2.384	1654464	WORD	n/a	wordpools/wordpool_EN.txt	LAMP	10	16	[0, 0, 0]	n/a	FR1	1	R1120E
1649.704	2.484	1656848	WORD	n/a	wordpools/wordpool_EN.txt	SHARK	11	16	[0, 0, 0]	n/a	FR1	1	R1120E
1652.188	1.618	1659332	WORD	n/a	wordpools/wordpool_EN.txt	RUG	12	16	[0, 0, 0]	n/a	FR1	1	R1120E
1653.806	0.001	1660950	DISTRACT_START	n/a	n/a	n/a	-999	16	[0, 0, 0]	n/a	FR1	1	R1120E
1653.807	0.016	1660951	START	n/a	n/a	n/a	-999	16	[-999, -999, -999]	n/a	FR1	1	R1120E
1653.823	3.499	1660967	PROB	3.499	n/a	n/a	-999	16	[7, 8, 7]	22	FR1	1	R1120E
1657.322	2.767	1664465	PROB	2.767	n/a	n/a	-999	16	[8, 9, 3]	21	FR1	1	R1120E
1660.089	2.769	1667232	PROB	2.769	n/a	n/a	-999	16	[2, 8, 1]	11	FR1	1	R1120E
1662.858	3.166	1670001	PROB	3.166	n/a	n/a	-999	16	[2, 9, 7]	18	FR1	1	R1120E
1666.024	3.567	1673167	PROB	3.567	n/a	n/a	-999	16	[9, 2, 4]	15	FR1	1	R1120E
1669.591	4.001	1676734	PROB	4.001	n/a	n/a	-999	16	[1, 5, 9]	15	FR1	1	R1120E
1673.592	2.488	1680734	PROB	2.488	n/a	n/a	-999	16	[9, 9, 3]	21	FR1	1	R1120E
1676.08	0.012	1683222	STOP	n/a	n/a	n/a	-999	16	[-999, -999, -999]	n/a	FR1	1	R1120E
1676.092	1.051	1683234	DISTRACT_END	n/a	n/a	n/a	-999	16	[0, 0, 0]	n/a	FR1	1	R1120E
1677.143	1.31	1684285	REC_START	n/a	n/a	n/a	-999	16	[0, 0, 0]	n/a	FR1	1	R1120E
1678.453	3.858	1685595	REC_WORD	3.858	n/a	SNOW	-999	16	[0, 0, 0]	n/a	FR1	1	R1120E
1682.311	2.58	1689453	REC_WORD	2.58	n/a	LAND	-999	16	[0, 0, 0]	n/a	FR1	1	R1120E
1684.891	1.129	1692033	REC_WORD	1.129	n/a	CLAY	-999	16	[0, 0, 0]	n/a	FR1	1	R1120E
1686.02	0.924	1693162	REC_WORD	0.924	n/a	MUD	-999	16	[0, 0, 0]	n/a	FR1	1	R1120E
1686.944	20.209	1694085	REC_WORD	20.209	n/a	STORM	-999	16	[0, 0, 0]	n/a	FR1	1	R1120E
1707.153	2.245	1714293	REC_END	n/a	n/a	n/a	-999	16	[0, 0, 0]	n/a	FR1	1	R1120E
1709.398	0.0	1716538	TRIAL	n/a	n/a	n/a	-999	17	[0, 0, 0]	n/a	FR1	1	R1120E
1709.398	10.428	1716538	COUNTDOWN_START	n/a	n/a	n/a	-999	17	[0, 0, 0]	n/a	FR1	1	R1120E
1719.826	0.008	1726965	COUNTDOWN_END	n/a	n/a	n/a	-999	17	[0, 0, 0]	n/a	FR1	1	R1120E
1719.834	2.533	1726973	ORIENT	n/a	n/a	n/a	-999	17	[0, 0, 0]	n/a	FR1	1	R1120E
1722.367	2.6	1729506	WORD	n/a	wordpools/wordpool_EN.txt	SHELL	1	17	[0, 0, 0]	n/a	FR1	1	R1120E
1724.967	2.417	1732106	WORD	n/a	wordpools/wordpool_EN.txt	PEAR	2	17	[0, 0, 0]	n/a	FR1	1	R1120E
1727.384	2.435	1734523	WORD	n/a	wordpools/wordpool_EN.txt	SHRIMP	3	17	[0, 0, 0]	n/a	FR1	1	R1120E
1729.819	2.433	1736958	WORD	n/a	wordpools/wordpool_EN.txt	BOX	4	17	[0, 0, 0]	n/a	FR1	1	R1120E
1732.252	2.434	1739390	WORD	n/a	wordpools/wordpool_EN.txt	PALM	5	17	[0, 0, 0]	n/a	FR1	1	R1120E
1734.686	2.433	1741824	WORD	n/a	wordpools/wordpool_EN.txt	PIT	6	17	[0, 0, 0]	n/a	FR1	1	R1120E
1737.119	2.451	1744257	WORD	n/a	wordpools/wordpool_EN.txt	BEACH	7	17	[0, 0, 0]	n/a	FR1	1	R1120E
1739.57	2.534	1746708	WORD	n/a	wordpools/wordpool_EN.txt	JAR	8	17	[0, 0, 0]	n/a	FR1	1	R1120E
1742.104	2.55	1749242	WORD	n/a	wordpools/wordpool_EN.txt	WOOD	9	17	[0, 0, 0]	n/a	FR1	1	R1120E
1744.654	2.434	1751792	WORD	n/a	wordpools/wordpool_EN.txt	SEA	10	17	[0, 0, 0]	n/a	FR1	1	R1120E
1747.088	2.55	1754225	WORD	n/a	wordpools/wordpool_EN.txt	FUDGE	11	17	[0, 0, 0]	n/a	FR1	1	R1120E
1749.638	1.617	1756775	WORD	n/a	wordpools/wordpool_EN.txt	ARM	12	17	[0, 0, 0]	n/a	FR1	1	R1120E
1751.255	0.001	1758392	DISTRACT_START	n/a	n/a	n/a	-999	17	[0, 0, 0]	n/a	FR1	1	R1120E
1751.256	0.016	1758393	START	n/a	n/a	n/a	-999	17	[-999, -999, -999]	n/a	FR1	1	R1120E
1751.272	3.284	1758409	PROB	3.284	n/a	n/a	-999	17	[9, 3, 7]	19	FR1	1	R1120E
1754.556	2.017	1761693	PROB	2.017	n/a	n/a	-999	17	[5, 5, 3]	13	FR1	1	R1120E
1756.573	6.534	1763710	PROB	6.534	n/a	n/a	-999	17	[9, 8, 6]	23	FR1	1	R1120E
1763.107	3.551	1770243	PROB	3.551	n/a	n/a	-999	17	[6, 8, 4]	18	FR1	1	R1120E
1766.658	3.417	1773794	PROB	3.417	n/a	n/a	-999	17	[7, 6, 7]	20	FR1	1	R1120E
1770.075	5.341	1777211	PROB	5.341	n/a	n/a	-999	17	[7, 9, 9]	25	FR1	1	R1120E
1775.416	0.01	1782552	STOP	n/a	n/a	n/a	-999	17	[-999, -999, -999]	n/a	FR1	1	R1120E
1775.426	1.085	1782561	DISTRACT_END	n/a	n/a	n/a	-999	17	[0, 0, 0]	n/a	FR1	1	R1120E
1776.511	2.945	1783646	REC_START	n/a	n/a	n/a	-999	17	[0, 0, 0]	n/a	FR1	1	R1120E
1779.456	1.828	1786591	REC_WORD	1.828	n/a	BEACH	-999	17	[0, 0, 0]	n/a	FR1	1	R1120E
1781.284	2.085	1788419	REC_WORD	2.085	n/a	SEA	-999	17	[0, 0, 0]	n/a	FR1	1	R1120E
1783.369	2.267	1790504	REC_WORD	2.267	n/a	JAR	-999	17	[0, 0, 0]	n/a	FR1	1	R1120E
1785.636	6.58	1792771	REC_WORD	6.58	n/a	BENCH	-999	17	[0, 0, 0]	n/a	FR1	1	R1120E
1792.216	1.805	1799350	REC_WORD	1.805	n/a	PEACH	-999	17	[0, 0, 0]	n/a	FR1	1	R1120E
1794.021	12.501	1801155	REC_WORD	12.501	n/a	SHELL	-999	17	[0, 0, 0]	n/a	FR1	1	R1120E
1806.522	2.543	1813655	REC_END	n/a	n/a	n/a	-999	17	[0, 0, 0]	n/a	FR1	1	R1120E
1809.065	0.001	1816198	COUNTDOWN_START	n/a	n/a	n/a	-999	18	[0, 0, 0]	n/a	FR1	1	R1120E
1809.066	10.427	1816199	TRIAL	n/a	n/a	n/a	-999	18	[0, 0, 0]	n/a	FR1	1	R1120E
1819.493	0.008	1826626	COUNTDOWN_END	n/a	n/a	n/a	-999	18	[0, 0, 0]	n/a	FR1	1	R1120E
1819.501	2.5	1826634	ORIENT	n/a	n/a	n/a	-999	18	[0, 0, 0]	n/a	FR1	1	R1120E
1822.001	2.6	1829133	WORD	n/a	wordpools/wordpool_EN.txt	ROPE	1	18	[0, 0, 0]	n/a	FR1	1	R1120E
1824.601	2.434	1831733	WORD	n/a	wordpools/wordpool_EN.txt	HAWK	2	18	[0, 0, 0]	n/a	FR1	1	R1120E
1827.035	2.384	1834167	WORD	n/a	wordpools/wordpool_EN.txt	OWL	3	18	[0, 0, 0]	n/a	FR1	1	R1120E
1829.419	2.567	1836551	WORD	n/a	wordpools/wordpool_EN.txt	PIG	4	18	[0, 0, 0]	n/a	FR1	1	R1120E
1831.986	2.55	1839118	WORD	n/a	wordpools/wordpool_EN.txt	LAWN	5	18	[0, 0, 0]	n/a	FR1	1	R1120E
1834.536	2.501	1841667	WORD	n/a	wordpools/wordpool_EN.txt	HOUSE	6	18	[0, 0, 0]	n/a	FR1	1	R1120E
1837.037	2.5	1844168	WORD	n/a	wordpools/wordpool_EN.txt	FOOT	7	18	[0, 0, 0]	n/a	FR1	1	R1120E
1839.537	2.451	1846668	WORD	n/a	wordpools/wordpool_EN.txt	BIRD	8	18	[0, 0, 0]	n/a	FR1	1	R1120E
1841.988	2.567	1849119	WORD	n/a	wordpools/wordpool_EN.txt	COW	9	18	[0, 0, 0]	n/a	FR1	1	R1120E
1844.555	2.384	1851686	WORD	n/a	wordpools/wordpool_EN.txt	CAVE	10	18	[0, 0, 0]	n/a	FR1	1	R1120E
1846.939	2.617	1854070	WORD	n/a	wordpools/wordpool_EN.txt	SPRING	11	18	[0, 0, 0]	n/a	FR1	1	R1120E
1849.556	1.617	1856686	WORD	n/a	wordpools/wordpool_EN.txt	BLUSH	12	18	[0, 0, 0]	n/a	FR1	1	R1120E
1851.173	0.0	1858303	DISTRACT_START	n/a	n/a	n/a	-999	18	[0, 0, 0]	n/a	FR1	1	R1120E
1851.173	0.016	1858303	START	n/a	n/a	n/a	-999	18	[-999, -999, -999]	n/a	FR1	1	R1120E
1851.189	5.385	1858319	PROB	5.385	n/a	n/a	-999	18	[1, 6, 8]	15	FR1	1	R1120E
1856.574	2.767	1863704	PROB	2.767	n/a	n/a	-999	18	[3, 9, 3]	15	FR1	1	R1120E
1859.341	5.567	1866471	PROB	5.567	n/a	n/a	-999	18	[7, 5, 2]	14	FR1	1	R1120E
1864.908	5.085	1872037	PROB	5.085	n/a	n/a	-999	18	[8, 7, 7]	22	FR1	1	R1120E
1869.993	2.178	1877122	PROB	2.178	n/a	n/a	-999	18	[3, 3, 2]	8	FR1	1	R1120E
1872.171	0.005	1879300	STOP	n/a	n/a	n/a	-999	18	[-999, -999, -999]	n/a	FR1	1	R1120E
1872.176	1.051	1879305	DISTRACT_END	n/a	n/a	n/a	-999	18	[0, 0, 0]	n/a	FR1	1	R1120E
1873.227	1.873	1880356	REC_START	n/a	n/a	n/a	-999	18	[0, 0, 0]	n/a	FR1	1	R1120E
1875.1	1.63	1882229	REC_WORD	1.63	n/a	HAWK	-999	18	[0, 0, 0]	n/a	FR1	1	R1120E
1876.73	2.46	1883859	REC_WORD	2.46	n/a	OWL	-999	18	[0, 0, 0]	n/a	FR1	1	R1120E
1879.19	2.081	1886318	REC_WORD	2.081	n/a	BIRD	-999	18	[0, 0, 0]	n/a	FR1	1	R1120E
1881.271	7.683	1888399	REC_WORD	7.683	n/a	FOOT	-999	18	[0, 0, 0]	n/a	FR1	1	R1120E
1888.954	1.606	1896082	REC_WORD	1.606	n/a	PIG	-999	18	[0, 0, 0]	n/a	FR1	1	R1120E
1890.56	2.319	1897688	REC_WORD	2.319	n/a	HOUSE	-999	18	[0, 0, 0]	n/a	FR1	1	R1120E
1892.879	10.359	1900007	REC_WORD	10.359	n/a	LAND	-999	18	[0, 0, 0]	n/a	FR1	1	R1120E
1903.238	2.111	1910365	REC_END	n/a	n/a	n/a	-999	18	[0, 0, 0]	n/a	FR1	1	R1120E
1905.349	0.0	1912476	TRIAL	n/a	n/a	n/a	-999	19	[0, 0, 0]	n/a	FR1	1	R1120E
1905.349	10.428	1912476	COUNTDOWN_START	n/a	n/a	n/a	-999	19	[0, 0, 0]	n/a	FR1	1	R1120E
1915.777	0.008	1922903	COUNTDOWN_END	n/a	n/a	n/a	-999	19	[0, 0, 0]	n/a	FR1	1	R1120E
1915.785	2.516	1922911	ORIENT	n/a	n/a	n/a	-999	19	[0, 0, 0]	n/a	FR1	1	R1120E
1918.301	2.518	1925427	WORD	n/a	wordpools/wordpool_EN.txt	BED	1	19	[0, 0, 0]	n/a	FR1	1	R1120E
1920.819	2.45	1927945	WORD	n/a	wordpools/wordpool_EN.txt	TEA	2	19	[0, 0, 0]	n/a	FR1	1	R1120E
1923.269	2.434	1930394	WORD	n/a	wordpools/wordpool_EN.txt	PANTS	3	19	[0, 0, 0]	n/a	FR1	1	R1120E
1925.703	2.6	1932828	WORD	n/a	wordpools/wordpool_EN.txt	TOY	4	19	[0, 0, 0]	n/a	FR1	1	R1120E
1928.303	2.551	1935428	WORD	n/a	wordpools/wordpool_EN.txt	CLOTH	5	19	[0, 0, 0]	n/a	FR1	1	R1120E
1930.854	2.467	1937979	WORD	n/a	wordpools/wordpool_EN.txt	GRASS	6	19	[0, 0, 0]	n/a	FR1	1	R1120E
1933.321	2.617	1940446	WORD	n/a	wordpools/wordpool_EN.txt	OAK	7	19	[0, 0, 0]	n/a	FR1	1	R1120E
1935.938	2.517	1943063	WORD	n/a	wordpools/wordpool_EN.txt	FUR	8	19	[0, 0, 0]	n/a	FR1	1	R1120E
1938.455	2.466	1945579	WORD	n/a	wordpools/wordpool_EN.txt	SOCK	9	19	[0, 0, 0]	n/a	FR1	1	R1120E
1940.921	2.601	1948045	WORD	n/a	wordpools/wordpool_EN.txt	MAT	10	19	[0, 0, 0]	n/a	FR1	1	R1120E
1943.522	2.517	1950646	WORD	n/a	wordpools/wordpool_EN.txt	TIE	11	19	[0, 0, 0]	n/a	FR1	1	R1120E
1946.039	1.617	1953163	WORD	n/a	wordpools/wordpool_EN.txt	LAMB	12	19	[0, 0, 0]	n/a	FR1	1	R1120E
1947.656	0.001	1954780	DISTRACT_START	n/a	n/a	n/a	-999	19	[0, 0, 0]	n/a	FR1	1	R1120E
1947.657	0.016	1954781	START	n/a	n/a	n/a	-999	19	[-999, -999, -999]	n/a	FR1	1	R1120E
1947.673	2.317	1954797	PROB	2.317	n/a	n/a	-999	19	[3, 3, 5]	11	FR1	1	R1120E
1949.99	2.351	1957114	PROB	2.351	n/a	n/a	-999	19	[6, 6, 3]	15	FR1	1	R1120E
1952.341	3.784	1959465	PROB	3.784	n/a	n/a	-999	19	[9, 2, 9]	20	FR1	1	R1120E
1956.125	3.333	1963248	PROB	3.333	n/a	n/a	-999	19	[1, 8, 9]	18	FR1	1	R1120E
1959.458	3.402	1966581	PROB	3.402	n/a	n/a	-999	19	[6, 7, 2]	14	FR1	1	R1120E
1962.86	3.566	1969983	PROB	3.566	n/a	n/a	-999	19	[2, 6, 9]	17	FR1	1	R1120E
1966.426	3.756	1973549	PROB	3.756	n/a	n/a	-999	19	[6, 5, 3]	14	FR1	1	R1120E
1970.182	0.012	1977304	STOP	n/a	n/a	n/a	-999	19	[-999, -999, -999]	n/a	FR1	1	R1120E
1970.194	1.167	1977316	DISTRACT_END	n/a	n/a	n/a	-999	19	[0, 0, 0]	n/a	FR1	1	R1120E
1971.361	0.966	1978483	REC_START	n/a	n/a	n/a	-999	19	[0, 0, 0]	n/a	FR1	1	R1120E
1972.327	1.595	1979449	REC_WORD	1.595	n/a	LAMB	-999	19	[0, 0, 0]	n/a	FR1	1	R1120E
1973.922	1.815	1981044	REC_WORD	1.815	n/a	TIE	-999	19	[0, 0, 0]	n/a	FR1	1	R1120E
1975.737	1.5	1982859	REC_WORD	1.5	n/a	MAT	-999	19	[0, 0, 0]	n/a	FR1	1	R1120E
1977.237	1.562	1984359	REC_WORD	1.562	n/a	PANTS	-999	19	[0, 0, 0]	n/a	FR1	1	R1120E
1978.799	1.528	1985921	REC_WORD	1.528	n/a	CLOTH	-999	19	[0, 0, 0]	n/a	FR1	1	R1120E
1980.327	1.804	1987449	REC_WORD	1.804	n/a	FUR	-999	19	[0, 0, 0]	n/a	FR1	1	R1120E
1982.131	17.334	1989253	REC_WORD	17.334	n/a	GRASS	-999	19	[0, 0, 0]	n/a	FR1	1	R1120E
1999.465	1.906	2006585	REC_WORD	1.906	n/a	BED	-999	19	[0, 0, 0]	n/a	FR1	1	R1120E
2001.371	9.33	2008491	REC_END	n/a	n/a	n/a	-999	19	[0, 0, 0]	n/a	FR1	1	R1120E
2010.701	0.0	2017821	COUNTDOWN_START	n/a	n/a	n/a	-999	20	[0, 0, 0]	n/a	FR1	1	R1120E
2010.701	10.428	2017821	TRIAL	n/a	n/a	n/a	-999	20	[0, 0, 0]	n/a	FR1	1	R1120E
2021.129	0.007	2028248	COUNTDOWN_END	n/a	n/a	n/a	-999	20	[0, 0, 0]	n/a	FR1	1	R1120E
2021.136	2.585	2028255	ORIENT	n/a	n/a	n/a	-999	20	[0, 0, 0]	n/a	FR1	1	R1120E
2023.721	2.516	2030840	WORD	n/a	wordpools/wordpool_EN.txt	LIP	1	20	[0, 0, 0]	n/a	FR1	1	R1120E
2026.237	2.501	2033356	WORD	n/a	wordpools/wordpool_EN.txt	TRASH	2	20	[0, 0, 0]	n/a	FR1	1	R1120E
2028.738	2.616	2035856	WORD	n/a	wordpools/wordpool_EN.txt	BOWL	3	20	[0, 0, 0]	n/a	FR1	1	R1120E
2031.354	2.485	2038472	WORD	n/a	wordpools/wordpool_EN.txt	BEAN	4	20	[0, 0, 0]	n/a	FR1	1	R1120E
2033.839	2.433	2040957	WORD	n/a	wordpools/wordpool_EN.txt	STEAK	5	20	[0, 0, 0]	n/a	FR1	1	R1120E
2036.272	2.451	2043390	WORD	n/a	wordpools/wordpool_EN.txt	SPOON	6	20	[0, 0, 0]	n/a	FR1	1	R1120E
2038.723	2.566	2045841	WORD	n/a	wordpools/wordpool_EN.txt	FACE	7	20	[0, 0, 0]	n/a	FR1	1	R1120E
2041.289	2.552	2048407	WORD	n/a	wordpools/wordpool_EN.txt	EEL	8	20	[0, 0, 0]	n/a	FR1	1	R1120E
2043.841	2.399	2050958	WORD	n/a	wordpools/wordpool_EN.txt	SHIELD	9	20	[0, 0, 0]	n/a	FR1	1	R1120E
2046.24	2.367	2053357	WORD	n/a	wordpools/wordpool_EN.txt	SEAL	10	20	[0, 0, 0]	n/a	FR1	1	R1120E
2048.607	2.434	2055724	WORD	n/a	wordpools/wordpool_EN.txt	SOUP	11	20	[0, 0, 0]	n/a	FR1	1	R1120E
2051.041	1.617	2058158	WORD	n/a	wordpools/wordpool_EN.txt	PURSE	12	20	[0, 0, 0]	n/a	FR1	1	R1120E
2052.658	0.001	2059775	DISTRACT_START	n/a	n/a	n/a	-999	20	[0, 0, 0]	n/a	FR1	1	R1120E
2052.659	0.016	2059776	START	n/a	n/a	n/a	-999	20	[-999, -999, -999]	n/a	FR1	1	R1120E
2052.675	2.817	2059792	PROB	2.817	n/a	n/a	-999	20	[3, 4, 1]	8	FR1	1	R1120E
2055.492	8.501	2062609	PROB	8.501	n/a	n/a	-999	20	[9, 5, 7]	21	FR1	1	R1120E
2063.993	2.117	2071109	PROB	2.117	n/a	n/a	-999	20	[1, 8, 4]	13	FR1	1	R1120E
2066.11	2.317	2073226	PROB	2.317	n/a	n/a	-999	20	[8, 7, 5]	20	FR1	1	R1120E
2068.427	2.385	2075543	PROB	2.385	n/a	n/a	-999	20	[9, 5, 3]	17	FR1	1	R1120E
2070.812	4.223	2077928	PROB	4.223	n/a	n/a	-999	20	[6, 9, 8]	23	FR1	1	R1120E
2075.035	0.01	2082150	STOP	n/a	n/a	n/a	-999	20	[-999, -999, -999]	n/a	FR1	1	R1120E
2075.045	1.184	2082160	DISTRACT_END	n/a	n/a	n/a	-999	20	[0, 0, 0]	n/a	FR1	1	R1120E
2076.229	1.772	2083344	REC_START	n/a	n/a	n/a	-999	20	[0, 0, 0]	n/a	FR1	1	R1120E
2078.001	1.257	2085116	REC_WORD	1.257	n/a	SOUP	-999	20	[0, 0, 0]	n/a	FR1	1	R1120E
2079.258	0.849	2086373	REC_WORD	0.849	n/a	BEAN	-999	20	[0, 0, 0]	n/a	FR1	1	R1120E
2080.107	2.327	2087222	REC_WORD	2.327	n/a	STEAK	-999	20	[0, 0, 0]	n/a	FR1	1	R1120E
2082.434	2.993	2089549	REC_WORD	2.993	n/a	EEL	-999	20	[0, 0, 0]	n/a	FR1	1	R1120E
2085.427	9.938	2092542	REC_WORD	9.938	n/a	SPOON	-999	20	[0, 0, 0]	n/a	FR1	1	R1120E
2095.365	10.874	2102479	REC_WORD	10.874	n/a	BOWL	-999	20	[0, 0, 0]	n/a	FR1	1	R1120E
2106.239	2.58	2113352	REC_END	n/a	n/a	n/a	-999	20	[0, 0, 0]	n/a	FR1	1	R1120E
2108.819	0.0	2115932	TRIAL	n/a	n/a	n/a	-999	21	[0, 0, 0]	n/a	FR1	1	R1120E
2108.819	10.428	2115932	COUNTDOWN_START	n/a	n/a	n/a	-999	21	[0, 0, 0]	n/a	FR1	1	R1120E
2119.247	0.006	2126359	COUNTDOWN_END	n/a	n/a	n/a	-999	21	[0, 0, 0]	n/a	FR1	1	R1120E
2119.253	2.433	2126365	ORIENT	n/a	n/a	n/a	-999	21	[0, 0, 0]	n/a	FR1	1	R1120E
2121.686	2.418	2128798	WORD	n/a	wordpools/wordpool_EN.txt	STOVE	1	21	[0, 0, 0]	n/a	FR1	1	R1120E
2124.104	2.4	2131216	WORD	n/a	wordpools/wordpool_EN.txt	CALF	2	21	[0, 0, 0]	n/a	FR1	1	R1120E
2126.504	2.434	2133616	WORD	n/a	wordpools/wordpool_EN.txt	MUG	3	21	[0, 0, 0]	n/a	FR1	1	R1120E
2128.938	2.534	2136050	WORD	n/a	wordpools/wordpool_EN.txt	APE	4	21	[0, 0, 0]	n/a	FR1	1	R1120E
2131.472	2.484	2138583	WORD	n/a	wordpools/wordpool_EN.txt	FOX	5	21	[0, 0, 0]	n/a	FR1	1	R1120E
2133.956	2.583	2141067	WORD	n/a	wordpools/wordpool_EN.txt	WOLF	6	21	[0, 0, 0]	n/a	FR1	1	R1120E
2136.539	2.534	2143650	WORD	n/a	wordpools/wordpool_EN.txt	HOOK	7	21	[0, 0, 0]	n/a	FR1	1	R1120E
2139.073	2.401	2146184	WORD	n/a	wordpools/wordpool_EN.txt	BARN	8	21	[0, 0, 0]	n/a	FR1	1	R1120E
2141.474	2.483	2148585	WORD	n/a	wordpools/wordpool_EN.txt	NOSE	9	21	[0, 0, 0]	n/a	FR1	1	R1120E
2143.957	2.534	2151068	WORD	n/a	wordpools/wordpool_EN.txt	HEN	10	21	[0, 0, 0]	n/a	FR1	1	R1120E
2146.491	2.384	2153601	WORD	n/a	wordpools/wordpool_EN.txt	FARM	11	21	[0, 0, 0]	n/a	FR1	1	R1120E
2148.875	1.617	2155985	WORD	n/a	wordpools/wordpool_EN.txt	FORK	12	21	[0, 0, 0]	n/a	FR1	1	R1120E
2150.492	0.0	2157602	DISTRACT_START	n/a	n/a	n/a	-999	21	[0, 0, 0]	n/a	FR1	1	R1120E
2150.492	0.016	2157602	START	n/a	n/a	n/a	-999	21	[-999, -999, -999]	n/a	FR1	1	R1120E
2150.508	2.768	2157618	PROB	2.768	n/a	n/a	-999	21	[5, 7, 8]	20	FR1	1	R1120E
2153.276	3.6	2160386	PROB	3.6	n/a	n/a	-999	21	[2, 8, 1]	11	FR1	1	R1120E
2156.876	3.151	2163986	PROB	3.151	n/a	n/a	-999	21	[7, 2, 7]	16	FR1	1	R1120E
2160.027	2.484	2167136	PROB	2.484	n/a	n/a	-999	21	[9, 3, 2]	14	FR1	1	R1120E
2162.511	2.917	2169620	PROB	2.917	n/a	n/a	-999	21	[9, 5, 9]	23	FR1	1	R1120E
2165.428	5.791	2172537	PROB	5.791	n/a	n/a	-999	21	[4, 7, 2]	13	FR1	1	R1120E
2171.219	0.01	2178328	STOP	n/a	n/a	n/a	-999	21	[-999, -999, -999]	n/a	FR1	1	R1120E
2171.229	1.134	2178338	DISTRACT_END	n/a	n/a	n/a	-999	21	[0, 0, 0]	n/a	FR1	1	R1120E
2172.363	1.528	2179472	REC_START	n/a	n/a	n/a	-999	21	[0, 0, 0]	n/a	FR1	1	R1120E
2173.891	1.422	2181000	REC_WORD	1.422	n/a	HEN	-999	21	[0, 0, 0]	n/a	FR1	1	R1120E
2175.313	2.707	2182421	REC_WORD	2.707	n/a	FARM	-999	21	[0, 0, 0]	n/a	FR1	1	R1120E
2178.02	4.41	2185128	REC_WORD	4.41	n/a	BARN	-999	21	[0, 0, 0]	n/a	FR1	1	R1120E
2182.43	15.814	2189538	REC_WORD	15.814	n/a	THUMB	-999	21	[0, 0, 0]	n/a	FR1	1	R1120E
2198.244	4.129	2205351	REC_WORD	4.129	n/a	LAMB	-999	21	[0, 0, 0]	n/a	FR1	1	R1120E
2202.373	2.528	2209480	REC_END	n/a	n/a	n/a	-999	21	[0, 0, 0]	n/a	FR1	1	R1120E
2204.901	0.0	2212007	TRIAL	n/a	n/a	n/a	-999	22	[0, 0, 0]	n/a	FR1	1	R1120E
2204.901	10.428	2212007	COUNTDOWN_START	n/a	n/a	n/a	-999	22	[0, 0, 0]	n/a	FR1	1	R1120E
2215.329	0.007	2222435	COUNTDOWN_END	n/a	n/a	n/a	-999	22	[0, 0, 0]	n/a	FR1	1	R1120E
2215.336	2.601	2222442	ORIENT	n/a	n/a	n/a	-999	22	[0, 0, 0]	n/a	FR1	1	R1120E
2217.937	2.467	2225043	WORD	n/a	wordpools/wordpool_EN.txt	SIGN	1	22	[0, 0, 0]	n/a	FR1	1	R1120E
2220.404	2.617	2227509	WORD	n/a	wordpools/wordpool_EN.txt	DOG	2	22	[0, 0, 0]	n/a	FR1	1	R1120E
2223.021	2.601	2230126	WORD	n/a	wordpools/wordpool_EN.txt	WEED	3	22	[0, 0, 0]	n/a	FR1	1	R1120E
2225.622	2.583	2232727	WORD	n/a	wordpools/wordpool_EN.txt	CHIN	4	22	[0, 0, 0]	n/a	FR1	1	R1120E
2228.205	2.519	2235310	WORD	n/a	wordpools/wordpool_EN.txt	VAN	5	22	[0, 0, 0]	n/a	FR1	1	R1120E
2230.724	2.432	2237829	WORD	n/a	wordpools/wordpool_EN.txt	PET	6	22	[0, 0, 0]	n/a	FR1	1	R1120E
2233.156	2.417	2240261	WORD	n/a	wordpools/wordpool_EN.txt	BATH	7	22	[0, 0, 0]	n/a	FR1	1	R1120E
2235.573	2.501	2242677	WORD	n/a	wordpools/wordpool_EN.txt	SMILE	8	22	[0, 0, 0]	n/a	FR1	1	R1120E
2238.074	2.534	2245178	WORD	n/a	wordpools/wordpool_EN.txt	CONE	9	22	[0, 0, 0]	n/a	FR1	1	R1120E
2240.608	2.517	2247712	WORD	n/a	wordpools/wordpool_EN.txt	CHALK	10	22	[0, 0, 0]	n/a	FR1	1	R1120E
2243.125	2.4	2250229	WORD	n/a	wordpools/wordpool_EN.txt	FLEA	11	22	[0, 0, 0]	n/a	FR1	1	R1120E
2245.525	1.617	2252629	WORD	n/a	wordpools/wordpool_EN.txt	EAR	12	22	[0, 0, 0]	n/a	FR1	1	R1120E
2247.142	0.001	2254246	DISTRACT_START	n/a	n/a	n/a	-999	22	[0, 0, 0]	n/a	FR1	1	R1120E
2247.143	0.016	2254247	START	n/a	n/a	n/a	-999	22	[-999, -999, -999]	n/a	FR1	1	R1120E
2247.159	2.568	2254263	PROB	2.568	n/a	n/a	-999	22	[3, 7, 1]	11	FR1	1	R1120E
2249.727	3.199	2256830	PROB	3.199	n/a	n/a	-999	22	[6, 5, 7]	18	FR1	1	R1120E
2252.926	2.885	2260029	PROB	2.885	n/a	n/a	-999	22	[1, 9, 4]	14	FR1	1	R1120E
2255.811	4.918	2262914	PROB	4.918	n/a	n/a	-999	22	[4, 8, 4]	16	FR1	1	R1120E
2260.729	2.632	2267832	PROB	2.632	n/a	n/a	-999	22	[4, 5, 9]	13	FR1	1	R1120E
2263.361	2.485	2270463	PROB	2.485	n/a	n/a	-999	22	[5, 6, 1]	12	FR1	1	R1120E
2265.846	2.416	2272948	PROB	2.416	n/a	n/a	-999	22	[2, 7, 7]	16	FR1	1	R1120E
2268.262	0.017	2275364	STOP	n/a	n/a	n/a	-999	22	[-999, -999, -999]	n/a	FR1	1	R1120E
2268.279	1.234	2275381	DISTRACT_END	n/a	n/a	n/a	-999	22	[0, 0, 0]	n/a	FR1	1	R1120E
2269.513	1.13	2276615	REC_START	n/a	n/a	n/a	-999	22	[0, 0, 0]	n/a	FR1	1	R1120E
2270.643	1.65	2277745	REC_WORD	1.65	n/a	SIGN	-999	22	[0, 0, 0]	n/a	FR1	1	R1120E
2272.293	1.293	2279395	REC_WORD	1.293	n/a	DOG	-999	22	[0, 0, 0]	n/a	FR1	1	R1120E
2273.586	1.087	2280688	REC_WORD	1.087	n/a	PET	-999	22	[0, 0, 0]	n/a	FR1	1	R1120E
2274.673	1.429	2281775	REC_WORD	1.429	n/a	FLEA	-999	22	[0, 0, 0]	n/a	FR1	1	R1120E
2276.102	0.991	2283204	REC_WORD	0.991	n/a	EAR	-999	22	[0, 0, 0]	n/a	FR1	1	R1120E
2277.093	5.223	2284195	REC_WORD	5.223	n/a	SMILE	-999	22	[0, 0, 0]	n/a	FR1	1	R1120E
2282.316	15.457	2289417	REC_WORD	15.457	n/a	PARK	-999	22	[0, 0, 0]	n/a	FR1	1	R1120E
2297.773	1.756	2304873	REC_WORD	1.756	n/a	CONE	-999	22	[0, 0, 0]	n/a	FR1	1	R1120E
2299.529	12.209	2306629	REC_END	n/a	n/a	n/a	-999	22	[0, 0, 0]	n/a	FR1	1	R1120E
2311.738	0.0	2318837	TRIAL	n/a	n/a	n/a	-999	23	[0, 0, 0]	n/a	FR1	1	R1120E
2311.738	10.428	2318837	COUNTDOWN_START	n/a	n/a	n/a	-999	23	[0, 0, 0]	n/a	FR1	1	R1120E
2322.166	0.006	2329264	COUNTDOWN_END	n/a	n/a	n/a	-999	23	[0, 0, 0]	n/a	FR1	1	R1120E
2322.172	2.551	2329270	ORIENT	n/a	n/a	n/a	-999	23	[0, 0, 0]	n/a	FR1	1	R1120E
2324.723	2.416	2331821	WORD	n/a	wordpools/wordpool_EN.txt	GOLD	1	23	[0, 0, 0]	n/a	FR1	1	R1120E
2327.139	2.417	2334237	WORD	n/a	wordpools/wordpool_EN.txt	KEY	2	23	[0, 0, 0]	n/a	FR1	1	R1120E
2329.556	2.584	2336654	WORD	n/a	wordpools/wordpool_EN.txt	SUN	3	23	[0, 0, 0]	n/a	FR1	1	R1120E
2332.14	2.602	2339238	WORD	n/a	wordpools/wordpool_EN.txt	SEED	4	23	[0, 0, 0]	n/a	FR1	1	R1120E
2334.742	2.499	2341840	WORD	n/a	wordpools/wordpool_EN.txt	SPARK	5	23	[0, 0, 0]	n/a	FR1	1	R1120E
2337.241	2.485	2344338	WORD	n/a	wordpools/wordpool_EN.txt	STEAM	6	23	[0, 0, 0]	n/a	FR1	1	R1120E
2339.726	2.449	2346823	WORD	n/a	wordpools/wordpool_EN.txt	LEAF	7	23	[0, 0, 0]	n/a	FR1	1	R1120E
2342.175	2.585	2349272	WORD	n/a	wordpools/wordpool_EN.txt	OAR	8	23	[0, 0, 0]	n/a	FR1	1	R1120E
2344.76	2.55	2351857	WORD	n/a	wordpools/wordpool_EN.txt	PLANT	9	23	[0, 0, 0]	n/a	FR1	1	R1120E
2347.31	2.418	2354407	WORD	n/a	wordpools/wordpool_EN.txt	COIN	10	23	[0, 0, 0]	n/a	FR1	1	R1120E
2349.728	2.532	2356825	WORD	n/a	wordpools/wordpool_EN.txt	BOMB	11	23	[0, 0, 0]	n/a	FR1	1	R1120E
2352.26	1.601	2359356	WORD	n/a	wordpools/wordpool_EN.txt	CORN	12	23	[0, 0, 0]	n/a	FR1	1	R1120E
2353.861	0.001	2360957	DISTRACT_START	n/a	n/a	n/a	-999	23	[0, 0, 0]	n/a	FR1	1	R1120E
2353.862	0.015	2360958	START	n/a	n/a	n/a	-999	23	[-999, -999, -999]	n/a	FR1	1	R1120E
2353.877	6.001	2360973	PROB	6.001	n/a	n/a	-999	23	[6, 8, 9]	23	FR1	1	R1120E
2359.878	4.184	2366974	PROB	4.184	n/a	n/a	-999	23	[6, 3, 2]	11	FR1	1	R1120E
2364.062	2.868	2371158	PROB	2.868	n/a	n/a	-999	23	[4, 2, 2]	8	FR1	1	R1120E
2366.93	3.801	2374025	PROB	3.801	n/a	n/a	-999	23	[9, 7, 6]	22	FR1	1	R1120E
2370.731	2.383	2377826	PROB	2.383	n/a	n/a	-999	23	[2, 9, 9]	20	FR1	1	R1120E
2373.114	2.744	2380209	PROB	2.744	n/a	n/a	-999	23	[1, 8, 9]	18	FR1	1	R1120E
2375.858	0.007	2382953	STOP	n/a	n/a	n/a	-999	23	[-999, -999, -999]	n/a	FR1	1	R1120E
2375.865	1.151	2382960	DISTRACT_END	n/a	n/a	n/a	-999	23	[0, 0, 0]	n/a	FR1	1	R1120E
2377.016	1.362	2384111	REC_START	n/a	n/a	n/a	-999	23	[0, 0, 0]	n/a	FR1	1	R1120E
2378.378	12.218	2385473	REC_WORD	12.218	n/a	STEAM	-999	23	[0, 0, 0]	n/a	FR1	1	R1120E
2390.596	3.263	2397690	REC_WORD	3.263	n/a	OAR	-999	23	[0, 0, 0]	n/a	FR1	1	R1120E
2393.859	0.936	2400953	REC_WORD	0.936	n/a	SEED	-999	23	[0, 0, 0]	n/a	FR1	1	R1120E
2394.795	2.701	2401889	REC_WORD	2.701	n/a	SUN	-999	23	[0, 0, 0]	n/a	FR1	1	R1120E
2397.496	9.53	2404589	REC_WORD	9.53	n/a	STREAM	-999	23	[0, 0, 0]	n/a	FR1	1	R1120E
2407.026	3.094	2414119	REC_END	n/a	n/a	n/a	-999	23	[0, 0, 0]	n/a	FR1	1	R1120E
2410.12	0.001	2417213	COUNTDOWN_START	n/a	n/a	n/a	-999	24	[0, 0, 0]	n/a	FR1	1	R1120E
2410.121	10.427	2417214	TRIAL	n/a	n/a	n/a	-999	24	[0, 0, 0]	n/a	FR1	1	R1120E
2420.548	0.008	2427640	COUNTDOWN_END	n/a	n/a	n/a	-999	24	[0, 0, 0]	n/a	FR1	1	R1120E
2420.556	2.533	2427648	ORIENT	n/a	n/a	n/a	-999	24	[0, 0, 0]	n/a	FR1	1	R1120E
2423.089	2.584	2430181	WORD	n/a	wordpools/wordpool_EN.txt	TOAST	1	24	[0, 0, 0]	n/a	FR1	1	R1120E
2425.673	2.584	2432764	WORD	n/a	wordpools/wordpool_EN.txt	STICK	2	24	[0, 0, 0]	n/a	FR1	1	R1120E
2428.257	2.585	2435348	WORD	n/a	wordpools/wordpool_EN.txt	DART	3	24	[0, 0, 0]	n/a	FR1	1	R1120E
2430.842	2.616	2437933	WORD	n/a	wordpools/wordpool_EN.txt	CHEEK	4	24	[0, 0, 0]	n/a	FR1	1	R1120E
2433.458	2.483	2440549	WORD	n/a	wordpools/wordpool_EN.txt	FAN	5	24	[0, 0, 0]	n/a	FR1	1	R1120E
2435.941	2.485	2443032	WORD	n/a	wordpools/wordpool_EN.txt	CUP	6	24	[0, 0, 0]	n/a	FR1	1	R1120E
2438.426	2.516	2445517	WORD	n/a	wordpools/wordpool_EN.txt	DRESS	7	24	[0, 0, 0]	n/a	FR1	1	R1120E
2440.942	2.601	2448032	WORD	n/a	wordpools/wordpool_EN.txt	PIE	8	24	[0, 0, 0]	n/a	FR1	1	R1120E
2443.543	2.551	2450633	WORD	n/a	wordpools/wordpool_EN.txt	PLATE	9	24	[0, 0, 0]	n/a	FR1	1	R1120E
2446.094	2.45	2453184	WORD	n/a	wordpools/wordpool_EN.txt	WALL	10	24	[0, 0, 0]	n/a	FR1	1	R1120E
2448.544	2.55	2455634	WORD	n/a	wordpools/wordpool_EN.txt	FLOOR	11	24	[0, 0, 0]	n/a	FR1	1	R1120E
2451.094	1.618	2458184	WORD	n/a	wordpools/wordpool_EN.txt	ROSE	12	24	[0, 0, 0]	n/a	FR1	1	R1120E
2452.712	0.001	2459802	DISTRACT_START	n/a	n/a	n/a	-999	24	[0, 0, 0]	n/a	FR1	1	R1120E
2452.713	0.016	2459803	START	n/a	n/a	n/a	-999	24	[-999, -999, -999]	n/a	FR1	1	R1120E
2452.729	3.816	2459819	PROB	3.816	n/a	n/a	-999	24	[5, 9, 2]	16	FR1	1	R1120E
2456.545	2.834	2463634	PROB	2.834	n/a	n/a	-999	24	[9, 5, 1]	15	FR1	1	R1120E
2459.379	2.567	2466468	PROB	2.567	n/a	n/a	-999	24	[3, 2, 4]	9	FR1	1	R1120E
2461.946	5.351	2469035	PROB	5.351	n/a	n/a	-999	24	[6, 7, 9]	22	FR1	1	R1120E
2467.297	3.751	2474386	PROB	3.751	n/a	n/a	-999	24	[2, 7, 2]	13	FR1	1	R1120E
2471.048	4.157	2478136	PROB	4.157	n/a	n/a	-999	24	[8, 3, 6]	17	FR1	1	R1120E
2475.205	0.01	2482293	STOP	n/a	n/a	n/a	-999	24	[-999, -999, -999]	n/a	FR1	1	R1120E
2475.215	1.184	2482303	DISTRACT_END	n/a	n/a	n/a	-999	24	[0, 0, 0]	n/a	FR1	1	R1120E
2476.399	0.928	2483487	REC_START	n/a	n/a	n/a	-999	24	[0, 0, 0]	n/a	FR1	1	R1120E
2477.327	1.223	2484415	REC_WORD	1.223	n/a	WALL	-999	24	[0, 0, 0]	n/a	FR1	1	R1120E
2478.55	1.631	2485638	REC_WORD	1.631	n/a	FLOOR	-999	24	[0, 0, 0]	n/a	FR1	1	R1120E
2480.181	1.785	2487269	REC_WORD	1.785	n/a	ROSE	-999	24	[0, 0, 0]	n/a	FR1	1	R1120E
2481.966	1.382	2489054	REC_WORD	1.382	n/a	TOAST	-999	24	[0, 0, 0]	n/a	FR1	1	R1120E
2483.348	1.737	2490436	REC_WORD	1.737	n/a	STICK	-999	24	[0, 0, 0]	n/a	FR1	1	R1120E
2485.085	12.114	2492172	REC_WORD	12.114	n/a	CHEEK	-999	24	[0, 0, 0]	n/a	FR1	1	R1120E
2497.199	7.737	2504286	REC_WORD	7.737	n/a	TOAST	-999	24	[0, 0, 0]	n/a	FR1	1	R1120E
2504.936	1.474	2512022	REC_WORD	1.474	n/a	CHEEK	-999	24	[0, 0, 0]	n/a	FR1	1	R1120E
2506.41	2.944	2513496	REC_END	n/a	n/a	n/a	-999	24	[0, 0, 0]	n/a	FR1	1	R1120E
2509.354	0.001	2516440	COUNTDOWN_START	n/a	n/a	n/a	-999	25	[0, 0, 0]	n/a	FR1	1	R1120E
2509.355	10.427	2516441	TRIAL	n/a	n/a	n/a	-999	25	[0, 0, 0]	n/a	FR1	1	R1120E
2519.782	0.009	2526867	COUNTDOWN_END	n/a	n/a	n/a	-999	25	[0, 0, 0]	n/a	FR1	1	R1120E
2519.791	2.433	2526876	ORIENT	n/a	n/a	n/a	-999	25	[0, 0, 0]	n/a	FR1	1	R1120E
2522.224	2.467	2529309	WORD	n/a	wordpools/wordpool_EN.txt	PIPE	1	25	[0, 0, 0]	n/a	FR1	1	R1120E
2524.691	2.567	2531776	WORD	n/a	wordpools/wordpool_EN.txt	HAT	2	25	[0, 0, 0]	n/a	FR1	1	R1120E
2527.258	2.501	2534343	WORD	n/a	wordpools/wordpool_EN.txt	CAKE	3	25	[0, 0, 0]	n/a	FR1	1	R1120E
2529.759	2.45	2536843	WORD	n/a	wordpools/wordpool_EN.txt	GUARD	4	25	[0, 0, 0]	n/a	FR1	1	R1120E
2532.209	2.618	2539293	WORD	n/a	wordpools/wordpool_EN.txt	DIME	5	25	[0, 0, 0]	n/a	FR1	1	R1120E
2534.827	2.416	2541911	WORD	n/a	wordpools/wordpool_EN.txt	GLASS	6	25	[0, 0, 0]	n/a	FR1	1	R1120E
2537.243	2.467	2544327	WORD	n/a	wordpools/wordpool_EN.txt	GLOVE	7	25	[0, 0, 0]	n/a	FR1	1	R1120E
2539.71	2.467	2546794	WORD	n/a	wordpools/wordpool_EN.txt	SWORD	8	25	[0, 0, 0]	n/a	FR1	1	R1120E
2542.177	2.384	2549261	WORD	n/a	wordpools/wordpool_EN.txt	CHAIR	9	25	[0, 0, 0]	n/a	FR1	1	R1120E
2544.561	2.433	2551644	WORD	n/a	wordpools/wordpool_EN.txt	TRAY	10	25	[0, 0, 0]	n/a	FR1	1	R1120E
2546.994	2.568	2554077	WORD	n/a	wordpools/wordpool_EN.txt	CROWN	11	25	[0, 0, 0]	n/a	FR1	1	R1120E
2549.562	1.617	2556645	WORD	n/a	wordpools/wordpool_EN.txt	KITE	12	25	[0, 0, 0]	n/a	FR1	1	R1120E
2551.179	0.0	2558262	DISTRACT_START	n/a	n/a	n/a	-999	25	[0, 0, 0]	n/a	FR1	1	R1120E
2551.179	0.016	2558262	START	n/a	n/a	n/a	-999	25	[-999, -999, -999]	n/a	FR1	1	R1120E
2551.195	2.602	2558278	PROB	2.602	n/a	n/a	-999	25	[2, 8, 2]	14	FR1	1	R1120E
2553.797	3.249	2560880	PROB	3.249	n/a	n/a	-999	25	[1, 7, 3]	11	FR1	1	R1120E
2557.046	7.018	2564129	PROB	7.018	n/a	n/a	-999	25	[5, 7, 9]	21	FR1	1	R1120E
2564.064	3.517	2571146	PROB	3.517	n/a	n/a	-999	25	[1, 2, 9]	12	FR1	1	R1120E
2567.581	2.334	2574663	PROB	2.334	n/a	n/a	-999	25	[4, 3, 1]	8	FR1	1	R1120E
2569.915	3.877	2576997	PROB	3.877	n/a	n/a	-999	25	[2, 9, 7]	18	FR1	1	R1120E
2573.792	0.008	2580873	STOP	n/a	n/a	n/a	-999	25	[-999, -999, -999]	n/a	FR1	1	R1120E
2573.8	1.217	2580881	DISTRACT_END	n/a	n/a	n/a	-999	25	[0, 0, 0]	n/a	FR1	1	R1120E
2575.017	1.265	2582098	REC_START	n/a	n/a	n/a	-999	25	[0, 0, 0]	n/a	FR1	1	R1120E
2576.282	1.337	2583363	REC_WORD	1.337	n/a	PIPE	-999	25	[0, 0, 0]	n/a	FR1	1	R1120E
2577.619	1.717	2584700	REC_WORD	1.717	n/a	CHAIR	-999	25	[0, 0, 0]	n/a	FR1	1	R1120E
2579.336	16.255	2586417	REC_WORD	16.255	n/a	HAT	-999	25	[0, 0, 0]	n/a	FR1	1	R1120E
2595.591	9.436	2602671	REC_WORD	9.436	n/a	CHEEK	-999	25	[0, 0, 0]	n/a	FR1	1	R1120E
2605.027	52.27	2612106	REC_END	n/a	n/a	n/a	-999	25	[0, 0, 0]	n/a	FR1	1	R1120E
2657.297	0.0	2664373	SESS_END	n/a	n/a	n/a	-999	25	[0, 0, 0]	n/a	FR1	1	R1120E
