onset	duration	sample	trial_type	response_time	stim_file	item_name	serialpos	list	test	answer	experiment	session	subject
0.0	54.331	1458	INSTRUCT_START	n/a	n/a	n/a	-999	-999	[0, 0, 0]	n/a	FR1	5	R1299T
54.331	5.601	55787	INSTRUCT_END	n/a	n/a	n/a	-999	-999	[0, 0, 0]	n/a	FR1	5	R1299T
59.932	29.961	61387	MIC TEST_START	n/a	n/a	n/a	-999	-999	[0, 0, 0]	n/a	FR1	5	R1299T
89.893	0.018	91347	MIC TEST_END	n/a	n/a	n/a	-999	-999	[0, 0, 0]	n/a	FR1	5	R1299T
89.911	0.001	91365	TRIAL_START	n/a	n/a	n/a	-999	-1	[0, 0, 0]	n/a	FR1	5	R1299T
89.912	0.0	91366	TRIAL	n/a	n/a	n/a	-999	-1	[0, 0, 0]	n/a	FR1	5	R1299T
89.912	80.79	91366	WAITING_START	n/a	n/a	n/a	-999	-1	[0, 0, 0]	n/a	FR1	5	R1299T
170.702	0.001	172152	WAITING_END	n/a	n/a	n/a	-999	-1	[0, 0, 0]	n/a	FR1	5	R1299T
170.703	10.429	172153	COUNTDOWN_START	n/a	n/a	n/a	-999	-1	[0, 0, 0]	n/a	FR1	5	R1299T
181.132	0.001	182582	COUNTDOWN_END	n/a	n/a	n/a	-999	-1	[0, 0, 0]	n/a	FR1	5	R1299T
181.133	1.055	182583	ORIENT_START	n/a	n/a	n/a	-999	-1	[0, 0, 0]	n/a	FR1	5	R1299T
182.188	0.0	183638	ORIENT_END	n/a	n/a	n/a	-999	-1	[0, 0, 0]	n/a	FR1	5	R1299T
182.188	0.891	183638	ENCODING_START	n/a	n/a	n/a	-999	-1	[0, 0, 0]	n/a	FR1	5	R1299T
183.079	1.626	184529	WORD	n/a	n/a	ATTIC	1	-1	[0, 0, 0]	n/a	FR1	5	R1299T
184.705	0.963	186155	WORD_OFF	n/a	n/a	ATTIC	1	-1	[0, 0, 0]	n/a	FR1	5	R1299T
185.668	1.621	187118	WORD	n/a	n/a	BEAM	2	-1	[0, 0, 0]	n/a	FR1	5	R1299T
187.289	0.981	188739	WORD_OFF	n/a	n/a	BEAM	2	-1	[0, 0, 0]	n/a	FR1	5	R1299T
188.27	1.636	189720	WORD	n/a	n/a	CAMEL	3	-1	[0, 0, 0]	n/a	FR1	5	R1299T
189.906	0.838	191356	WORD_OFF	n/a	n/a	CAMEL	3	-1	[0, 0, 0]	n/a	FR1	5	R1299T
190.744	1.629	192194	WORD	n/a	n/a	CHEST	4	-1	[0, 0, 0]	n/a	FR1	5	R1299T
192.373	1.139	193822	WORD_OFF	n/a	n/a	CHEST	4	-1	[0, 0, 0]	n/a	FR1	5	R1299T
193.512	1.628	194961	WORD	n/a	n/a	COTTON	5	-1	[0, 0, 0]	n/a	FR1	5	R1299T
195.14	0.77	196589	WORD_OFF	n/a	n/a	COTTON	5	-1	[0, 0, 0]	n/a	FR1	5	R1299T
195.91	1.631	197359	WORD	n/a	n/a	FLOOD	6	-1	[0, 0, 0]	n/a	FR1	5	R1299T
197.541	0.893	198990	WORD_OFF	n/a	n/a	FLOOD	6	-1	[0, 0, 0]	n/a	FR1	5	R1299T
198.434	1.624	199883	WORD	n/a	n/a	IRON	7	-1	[0, 0, 0]	n/a	FR1	5	R1299T
200.058	0.929	201507	WORD_OFF	n/a	n/a	IRON	7	-1	[0, 0, 0]	n/a	FR1	5	R1299T
200.987	1.638	202436	WORD	n/a	n/a	RHINO	8	-1	[0, 0, 0]	n/a	FR1	5	R1299T
202.625	0.796	204074	WORD_OFF	n/a	n/a	RHINO	8	-1	[0, 0, 0]	n/a	FR1	5	R1299T
203.421	1.638	204870	WORD	n/a	n/a	RING	9	-1	[0, 0, 0]	n/a	FR1	5	R1299T
205.059	0.757	206508	WORD_OFF	n/a	n/a	RING	9	-1	[0, 0, 0]	n/a	FR1	5	R1299T
205.816	1.626	207265	WORD	n/a	n/a	TONGUE	10	-1	[0, 0, 0]	n/a	FR1	5	R1299T
207.442	0.797	208891	WORD_OFF	n/a	n/a	TONGUE	10	-1	[0, 0, 0]	n/a	FR1	5	R1299T
208.239	1.637	209688	WORD	n/a	n/a	WAGON	11	-1	[0, 0, 0]	n/a	FR1	5	R1299T
209.876	0.938	211325	WORD_OFF	n/a	n/a	WAGON	11	-1	[0, 0, 0]	n/a	FR1	5	R1299T
210.814	1.629	212263	WORD	n/a	n/a	WATCH	12	-1	[0, 0, 0]	n/a	FR1	5	R1299T
212.443	0.001	213892	WORD_OFF	n/a	n/a	WATCH	12	-1	[0, 0, 0]	n/a	FR1	5	R1299T
212.444	0.0	213893	ENCODING_END	n/a	n/a	n/a	-999	-1	[0, 0, 0]	n/a	FR1	5	R1299T
212.444	0.0	213893	DISTRACT_START	n/a	n/a	n/a	-999	-1	[0, 0, 0]	n/a	FR1	5	R1299T
212.444	0.016	213893	START	n/a	n/a	n/a	-999	-1	[-999, -999, -999]	n/a	FR1	5	R1299T
212.46	4.867	213909	PROB	4.867	n/a	n/a	-999	-1	[5, 9, 5]	19	FR1	5	R1299T
217.327	4.051	218775	PROB	4.051	n/a	n/a	-999	-1	[1, 2, 5]	8	FR1	5	R1299T
221.378	3.65	222826	PROB	3.65	n/a	n/a	-999	-1	[3, 1, 7]	11	FR1	5	R1299T
225.028	3.835	226476	PROB	3.835	n/a	n/a	-999	-1	[2, 4, 2]	8	FR1	5	R1299T
228.863	4.638	230311	PROB	4.638	n/a	n/a	-999	-1	[8, 3, 1]	12	FR1	5	R1299T
233.501	0.013	234949	STOP	n/a	n/a	n/a	-999	-1	[-999, -999, -999]	n/a	FR1	5	R1299T
233.514	0.534	234962	DISTRACT_END	n/a	n/a	n/a	-999	-1	[0, 0, 0]	n/a	FR1	5	R1299T
234.048	1.566	235496	RETRIEVAL_ORIENT_START	n/a	n/a	n/a	-999	-1	[0, 0, 0]	n/a	FR1	5	R1299T
235.614	0.0	237062	RETRIEVAL_ORIENT_END	n/a	n/a	n/a	-999	-1	[0, 0, 0]	n/a	FR1	5	R1299T
235.614	1.598	237062	REC_START	n/a	n/a	n/a	-999	-1	[0, 0, 0]	n/a	FR1	5	R1299T
237.212	0.436	238659	REC_WORD_VV	0.436	n/a	<>	-999	-1	[0, 0, 0]	n/a	FR1	5	R1299T
237.648	1.706	239095	REC_WORD	1.706	n/a	TONGUE	-999	-1	[0, 0, 0]	n/a	FR1	5	R1299T
239.354	1.842	240801	REC_WORD	1.842	n/a	COTTON	-999	-1	[0, 0, 0]	n/a	FR1	5	R1299T
241.196	2.288	242643	REC_WORD	2.288	n/a	RHINO	-999	-1	[0, 0, 0]	n/a	FR1	5	R1299T
243.484	3.669	244931	REC_WORD	3.669	n/a	RING	-999	-1	[0, 0, 0]	n/a	FR1	5	R1299T
247.153	18.474	248600	REC_WORD_VV	18.474	n/a	<>	-999	-1	[0, 0, 0]	n/a	FR1	5	R1299T
265.627	0.0	267073	REC_END	n/a	n/a	n/a	-999	-1	[0, 0, 0]	n/a	FR1	5	R1299T
265.627	4.927	267073	PRACTICE_POST_INSTRUCT_START	n/a	n/a	n/a	-999	-1	[0, 0, 0]	n/a	FR1	5	R1299T
270.554	0.001	272000	PRACTICE_POST_INSTRUCT_END	n/a	n/a	n/a	-999	-1	[0, 0, 0]	n/a	FR1	5	R1299T
270.555	0.016	272001	TRIAL_END	n/a	n/a	n/a	-999	-1	[0, 0, 0]	n/a	FR1	5	R1299T
270.571	0.0	272017	WAITING_START	n/a	n/a	n/a	-999	1	[0, 0, 0]	n/a	FR1	5	R1299T
270.571	0.0	272017	TRIAL_START	n/a	n/a	n/a	-999	1	[0, 0, 0]	n/a	FR1	5	R1299T
270.571	12.669	272017	TRIAL	n/a	n/a	n/a	-999	1	[0, 0, 0]	n/a	FR1	5	R1299T
283.24	0.0	284685	WAITING_END	n/a	n/a	n/a	-999	1	[0, 0, 0]	n/a	FR1	5	R1299T
283.24	10.43	284685	COUNTDOWN_START	n/a	n/a	n/a	-999	1	[0, 0, 0]	n/a	FR1	5	R1299T
293.67	0.001	295115	COUNTDOWN_END	n/a	n/a	n/a	-999	1	[0, 0, 0]	n/a	FR1	5	R1299T
293.671	1.187	295116	ORIENT_START	n/a	n/a	n/a	-999	1	[0, 0, 0]	n/a	FR1	5	R1299T
294.858	0.001	296303	ORIENT_END	n/a	n/a	n/a	-999	1	[0, 0, 0]	n/a	FR1	5	R1299T
294.859	0.909	296304	ENCODING_START	n/a	n/a	n/a	-999	1	[0, 0, 0]	n/a	FR1	5	R1299T
295.768	1.624	297213	WORD	n/a	wordpools/wordpool_EN.txt	TOAST	1	1	[0, 0, 0]	n/a	FR1	5	R1299T
297.392	1.126	298837	WORD_OFF	n/a	n/a	TOAST	1	1	[0, 0, 0]	n/a	FR1	5	R1299T
298.518	1.625	299963	WORD	n/a	wordpools/wordpool_EN.txt	SNOW	2	1	[0, 0, 0]	n/a	FR1	5	R1299T
300.143	1.15	301588	WORD_OFF	n/a	n/a	SNOW	2	1	[0, 0, 0]	n/a	FR1	5	R1299T
301.293	1.633	302738	WORD	n/a	wordpools/wordpool_EN.txt	CAGE	3	1	[0, 0, 0]	n/a	FR1	5	R1299T
302.926	1.1	304371	WORD_OFF	n/a	n/a	CAGE	3	1	[0, 0, 0]	n/a	FR1	5	R1299T
304.026	1.635	305471	WORD	n/a	wordpools/wordpool_EN.txt	HAWK	4	1	[0, 0, 0]	n/a	FR1	5	R1299T
305.661	0.993	307105	WORD_OFF	n/a	n/a	HAWK	4	1	[0, 0, 0]	n/a	FR1	5	R1299T
306.654	1.623	308098	WORD	n/a	wordpools/wordpool_EN.txt	WEB	5	1	[0, 0, 0]	n/a	FR1	5	R1299T
308.277	1.092	309721	WORD_OFF	n/a	n/a	WEB	5	1	[0, 0, 0]	n/a	FR1	5	R1299T
309.369	1.625	310813	WORD	n/a	wordpools/wordpool_EN.txt	NAIL	6	1	[0, 0, 0]	n/a	FR1	5	R1299T
310.994	0.755	312438	WORD_OFF	n/a	n/a	NAIL	6	1	[0, 0, 0]	n/a	FR1	5	R1299T
311.749	1.629	313193	WORD	n/a	wordpools/wordpool_EN.txt	CLOUD	7	1	[0, 0, 0]	n/a	FR1	5	R1299T
313.378	0.914	314822	WORD_OFF	n/a	n/a	CLOUD	7	1	[0, 0, 0]	n/a	FR1	5	R1299T
314.292	1.637	315736	WORD	n/a	wordpools/wordpool_EN.txt	PURSE	8	1	[0, 0, 0]	n/a	FR1	5	R1299T
315.929	0.978	317373	WORD_OFF	n/a	n/a	PURSE	8	1	[0, 0, 0]	n/a	FR1	5	R1299T
316.907	1.622	318351	WORD	n/a	wordpools/wordpool_EN.txt	TOAD	9	1	[0, 0, 0]	n/a	FR1	5	R1299T
318.529	0.809	319973	WORD_OFF	n/a	n/a	TOAD	9	1	[0, 0, 0]	n/a	FR1	5	R1299T
319.338	1.625	320782	WORD	n/a	wordpools/wordpool_EN.txt	BRANCH	10	1	[0, 0, 0]	n/a	FR1	5	R1299T
320.963	0.757	322407	WORD_OFF	n/a	n/a	BRANCH	10	1	[0, 0, 0]	n/a	FR1	5	R1299T
321.72	1.627	323164	WORD	n/a	wordpools/wordpool_EN.txt	STAR	11	1	[0, 0, 0]	n/a	FR1	5	R1299T
323.347	0.871	324791	WORD_OFF	n/a	n/a	STAR	11	1	[0, 0, 0]	n/a	FR1	5	R1299T
324.218	1.629	325662	WORD	n/a	wordpools/wordpool_EN.txt	BLUSH	12	1	[0, 0, 0]	n/a	FR1	5	R1299T
325.847	0.0	327291	WORD_OFF	n/a	n/a	BLUSH	12	1	[0, 0, 0]	n/a	FR1	5	R1299T
325.847	0.001	327291	ENCODING_END	n/a	n/a	n/a	-999	1	[0, 0, 0]	n/a	FR1	5	R1299T
325.848	0.0	327292	DISTRACT_START	n/a	n/a	n/a	-999	1	[0, 0, 0]	n/a	FR1	5	R1299T
325.848	0.016	327292	START	n/a	n/a	n/a	-999	1	[-999, -999, -999]	n/a	FR1	5	R1299T
325.864	4.717	327308	PROB	4.717	n/a	n/a	-999	1	[7, 6, 8]	21	FR1	5	R1299T
330.581	5.001	332024	PROB	5.001	n/a	n/a	-999	1	[3, 3, 8]	14	FR1	5	R1299T
335.582	8.251	337025	PROB	8.251	n/a	n/a	-999	1	[6, 3, 8]	17	FR1	5	R1299T
343.833	5.285	345276	PROB	5.285	n/a	n/a	-999	1	[4, 1, 8]	13	FR1	5	R1299T
349.118	0.017	350560	STOP	n/a	n/a	n/a	-999	1	[-999, -999, -999]	n/a	FR1	5	R1299T
349.135	0.63	350577	DISTRACT_END	n/a	n/a	n/a	-999	1	[0, 0, 0]	n/a	FR1	5	R1299T
349.765	1.57	351207	RETRIEVAL_ORIENT_START	n/a	n/a	n/a	-999	1	[0, 0, 0]	n/a	FR1	5	R1299T
351.335	0.0	352777	REC_START	n/a	n/a	n/a	-999	1	[0, 0, 0]	n/a	FR1	5	R1299T
351.335	2.405	352777	RETRIEVAL_ORIENT_END	n/a	n/a	n/a	-999	1	[0, 0, 0]	n/a	FR1	5	R1299T
353.74	5.425	355182	REC_WORD	5.425	n/a	WATCH	-999	1	[0, 0, 0]	n/a	FR1	5	R1299T
359.165	9.23	360607	REC_WORD	9.23	n/a	COTTON	-999	1	[0, 0, 0]	n/a	FR1	5	R1299T
368.395	6.416	369837	REC_WORD	6.416	n/a	TONGUE	-999	1	[0, 0, 0]	n/a	FR1	5	R1299T
374.811	6.537	376252	REC_WORD_VV	6.537	n/a	<>	-999	1	[0, 0, 0]	n/a	FR1	5	R1299T
381.348	0.0	382789	REC_END	n/a	n/a	n/a	-999	1	[0, 0, 0]	n/a	FR1	5	R1299T
381.348	0.015	382789	TRIAL_END	n/a	n/a	n/a	-999	1	[0, 0, 0]	n/a	FR1	5	R1299T
381.363	0.0	382804	TRIAL_START	n/a	n/a	n/a	-999	2	[0, 0, 0]	n/a	FR1	5	R1299T
381.363	0.0	382804	TRIAL	n/a	n/a	n/a	-999	2	[0, 0, 0]	n/a	FR1	5	R1299T
381.363	2.795	382804	WAITING_START	n/a	n/a	n/a	-999	2	[0, 0, 0]	n/a	FR1	5	R1299T
384.158	0.0	385599	WAITING_END	n/a	n/a	n/a	-999	2	[0, 0, 0]	n/a	FR1	5	R1299T
384.158	10.428	385599	COUNTDOWN_START	n/a	n/a	n/a	-999	2	[0, 0, 0]	n/a	FR1	5	R1299T
394.586	0.001	396026	COUNTDOWN_END	n/a	n/a	n/a	-999	2	[0, 0, 0]	n/a	FR1	5	R1299T
394.587	1.106	396027	ORIENT_START	n/a	n/a	n/a	-999	2	[0, 0, 0]	n/a	FR1	5	R1299T
395.693	0.0	397133	ORIENT_END	n/a	n/a	n/a	-999	2	[0, 0, 0]	n/a	FR1	5	R1299T
395.693	0.903	397133	ENCODING_START	n/a	n/a	n/a	-999	2	[0, 0, 0]	n/a	FR1	5	R1299T
396.596	1.631	398036	WORD	n/a	wordpools/wordpool_EN.txt	STRAW	1	2	[0, 0, 0]	n/a	FR1	5	R1299T
398.227	0.834	399667	WORD_OFF	n/a	n/a	STRAW	1	2	[0, 0, 0]	n/a	FR1	5	R1299T
399.061	1.633	400501	WORD	n/a	wordpools/wordpool_EN.txt	CROWN	2	2	[0, 0, 0]	n/a	FR1	5	R1299T
400.694	0.871	402134	WORD_OFF	n/a	n/a	CROWN	2	2	[0, 0, 0]	n/a	FR1	5	R1299T
401.565	1.63	403005	WORD	n/a	wordpools/wordpool_EN.txt	HOLE	3	2	[0, 0, 0]	n/a	FR1	5	R1299T
403.195	0.999	404635	WORD_OFF	n/a	n/a	HOLE	3	2	[0, 0, 0]	n/a	FR1	5	R1299T
404.194	1.634	405634	WORD	n/a	wordpools/wordpool_EN.txt	BANK	4	2	[0, 0, 0]	n/a	FR1	5	R1299T
405.828	1.117	407268	WORD_OFF	n/a	n/a	BANK	4	2	[0, 0, 0]	n/a	FR1	5	R1299T
406.945	1.634	408385	WORD	n/a	wordpools/wordpool_EN.txt	OAR	5	2	[0, 0, 0]	n/a	FR1	5	R1299T
408.579	0.893	410019	WORD_OFF	n/a	n/a	OAR	5	2	[0, 0, 0]	n/a	FR1	5	R1299T
409.472	1.624	410912	WORD	n/a	wordpools/wordpool_EN.txt	NOSE	6	2	[0, 0, 0]	n/a	FR1	5	R1299T
411.096	1.018	412536	WORD_OFF	n/a	n/a	NOSE	6	2	[0, 0, 0]	n/a	FR1	5	R1299T
412.114	1.632	413554	WORD	n/a	wordpools/wordpool_EN.txt	JAR	7	2	[0, 0, 0]	n/a	FR1	5	R1299T
413.746	1.102	415186	WORD_OFF	n/a	n/a	JAR	7	2	[0, 0, 0]	n/a	FR1	5	R1299T
414.848	1.632	416288	WORD	n/a	wordpools/wordpool_EN.txt	BREAD	8	2	[0, 0, 0]	n/a	FR1	5	R1299T
416.48	0.84	417920	WORD_OFF	n/a	n/a	BREAD	8	2	[0, 0, 0]	n/a	FR1	5	R1299T
417.32	1.627	418759	WORD	n/a	wordpools/wordpool_EN.txt	SKY	9	2	[0, 0, 0]	n/a	FR1	5	R1299T
418.947	1.047	420386	WORD_OFF	n/a	n/a	SKY	9	2	[0, 0, 0]	n/a	FR1	5	R1299T
419.994	1.638	421433	WORD	n/a	wordpools/wordpool_EN.txt	FENCE	10	2	[0, 0, 0]	n/a	FR1	5	R1299T
421.632	1.047	423071	WORD_OFF	n/a	n/a	FENCE	10	2	[0, 0, 0]	n/a	FR1	5	R1299T
422.679	1.636	424118	WORD	n/a	wordpools/wordpool_EN.txt	LAKE	11	2	[0, 0, 0]	n/a	FR1	5	R1299T
424.315	1.079	425754	WORD_OFF	n/a	n/a	LAKE	11	2	[0, 0, 0]	n/a	FR1	5	R1299T
425.394	1.622	426833	WORD	n/a	wordpools/wordpool_EN.txt	FAN	12	2	[0, 0, 0]	n/a	FR1	5	R1299T
427.016	0.0	428455	WORD_OFF	n/a	n/a	FAN	12	2	[0, 0, 0]	n/a	FR1	5	R1299T
427.016	0.0	428455	ENCODING_END	n/a	n/a	n/a	-999	2	[0, 0, 0]	n/a	FR1	5	R1299T
427.016	0.001	428455	DISTRACT_START	n/a	n/a	n/a	-999	2	[0, 0, 0]	n/a	FR1	5	R1299T
427.017	0.015	428456	START	n/a	n/a	n/a	-999	2	[-999, -999, -999]	n/a	FR1	5	R1299T
427.032	4.667	428471	PROB	4.667	n/a	n/a	-999	2	[8, 8, 6]	22	FR1	5	R1299T
431.699	4.418	433138	PROB	4.418	n/a	n/a	-999	2	[3, 7, 5]	18	FR1	5	R1299T
436.117	7.085	437556	PROB	7.085	n/a	n/a	-999	2	[9, 9, 2]	20	FR1	5	R1299T
443.202	5.21	444640	PROB	5.21	n/a	n/a	-999	2	[5, 7, 8]	20	FR1	5	R1299T
448.412	0.007	449850	STOP	n/a	n/a	n/a	-999	2	[-999, -999, -999]	n/a	FR1	5	R1299T
448.419	0.601	449857	DISTRACT_END	n/a	n/a	n/a	-999	2	[0, 0, 0]	n/a	FR1	5	R1299T
449.02	1.651	450458	RETRIEVAL_ORIENT_START	n/a	n/a	n/a	-999	2	[0, 0, 0]	n/a	FR1	5	R1299T
450.671	0.0	452109	REC_START	n/a	n/a	n/a	-999	2	[0, 0, 0]	n/a	FR1	5	R1299T
450.671	1.369	452109	RETRIEVAL_ORIENT_END	n/a	n/a	n/a	-999	2	[0, 0, 0]	n/a	FR1	5	R1299T
452.04	3.299	453478	REC_WORD	3.299	n/a	STRAW	1	2	[0, 0, 0]	n/a	FR1	5	R1299T
455.339	25.346	456777	REC_WORD_VV	25.346	n/a	<>	-999	2	[0, 0, 0]	n/a	FR1	5	R1299T
480.685	0.0	482122	REC_END	n/a	n/a	n/a	-999	2	[0, 0, 0]	n/a	FR1	5	R1299T
480.685	0.013	482122	TRIAL_END	n/a	n/a	n/a	-999	2	[0, 0, 0]	n/a	FR1	5	R1299T
480.698	0.0	482135	TRIAL_START	n/a	n/a	n/a	-999	3	[0, 0, 0]	n/a	FR1	5	R1299T
480.698	0.0	482135	TRIAL	n/a	n/a	n/a	-999	3	[0, 0, 0]	n/a	FR1	5	R1299T
480.698	4.311	482135	WAITING_START	n/a	n/a	n/a	-999	3	[0, 0, 0]	n/a	FR1	5	R1299T
485.009	0.001	486445	WAITING_END	n/a	n/a	n/a	-999	3	[0, 0, 0]	n/a	FR1	5	R1299T
485.01	10.428	486446	COUNTDOWN_START	n/a	n/a	n/a	-999	3	[0, 0, 0]	n/a	FR1	5	R1299T
495.438	0.001	496874	COUNTDOWN_END	n/a	n/a	n/a	-999	3	[0, 0, 0]	n/a	FR1	5	R1299T
495.439	1.039	496875	ORIENT_START	n/a	n/a	n/a	-999	3	[0, 0, 0]	n/a	FR1	5	R1299T
496.478	0.001	497914	ORIENT_END	n/a	n/a	n/a	-999	3	[0, 0, 0]	n/a	FR1	5	R1299T
496.479	0.877	497915	ENCODING_START	n/a	n/a	n/a	-999	3	[0, 0, 0]	n/a	FR1	5	R1299T
497.356	1.606	498792	WORD	n/a	wordpools/wordpool_EN.txt	POLE	1	3	[0, 0, 0]	n/a	FR1	5	R1299T
498.962	0.831	500398	WORD_OFF	n/a	n/a	POLE	1	3	[0, 0, 0]	n/a	FR1	5	R1299T
499.793	1.636	501229	WORD	n/a	wordpools/wordpool_EN.txt	ROPE	2	3	[0, 0, 0]	n/a	FR1	5	R1299T
501.429	1.084	502865	WORD_OFF	n/a	n/a	ROPE	2	3	[0, 0, 0]	n/a	FR1	5	R1299T
502.513	1.633	503949	WORD	n/a	wordpools/wordpool_EN.txt	SPOON	3	3	[0, 0, 0]	n/a	FR1	5	R1299T
504.146	0.915	505582	WORD_OFF	n/a	n/a	SPOON	3	3	[0, 0, 0]	n/a	FR1	5	R1299T
505.061	1.62	506497	WORD	n/a	wordpools/wordpool_EN.txt	FOOD	4	3	[0, 0, 0]	n/a	FR1	5	R1299T
506.681	0.885	508116	WORD_OFF	n/a	n/a	FOOD	4	3	[0, 0, 0]	n/a	FR1	5	R1299T
507.566	1.631	509001	WORD	n/a	wordpools/wordpool_EN.txt	ROOF	5	3	[0, 0, 0]	n/a	FR1	5	R1299T
509.197	1.066	510632	WORD_OFF	n/a	n/a	ROOF	5	3	[0, 0, 0]	n/a	FR1	5	R1299T
510.263	1.635	511698	WORD	n/a	wordpools/wordpool_EN.txt	SMILE	6	3	[0, 0, 0]	n/a	FR1	5	R1299T
511.898	1.032	513333	WORD_OFF	n/a	n/a	SMILE	6	3	[0, 0, 0]	n/a	FR1	5	R1299T
512.93	1.634	514365	WORD	n/a	wordpools/wordpool_EN.txt	HOUSE	7	3	[0, 0, 0]	n/a	FR1	5	R1299T
514.564	0.801	515999	WORD_OFF	n/a	n/a	HOUSE	7	3	[0, 0, 0]	n/a	FR1	5	R1299T
515.365	1.634	516800	WORD	n/a	wordpools/wordpool_EN.txt	CRANE	8	3	[0, 0, 0]	n/a	FR1	5	R1299T
516.999	0.797	518434	WORD_OFF	n/a	n/a	CRANE	8	3	[0, 0, 0]	n/a	FR1	5	R1299T
517.796	1.636	519231	WORD	n/a	wordpools/wordpool_EN.txt	MOUTH	9	3	[0, 0, 0]	n/a	FR1	5	R1299T
519.432	0.841	520867	WORD_OFF	n/a	n/a	MOUTH	9	3	[0, 0, 0]	n/a	FR1	5	R1299T
520.273	1.626	521708	WORD	n/a	wordpools/wordpool_EN.txt	TREE	10	3	[0, 0, 0]	n/a	FR1	5	R1299T
521.899	1.141	523334	WORD_OFF	n/a	n/a	TREE	10	3	[0, 0, 0]	n/a	FR1	5	R1299T
523.04	1.611	524475	WORD	n/a	wordpools/wordpool_EN.txt	PRINCE	11	3	[0, 0, 0]	n/a	FR1	5	R1299T
524.651	1.135	526086	WORD_OFF	n/a	n/a	PRINCE	11	3	[0, 0, 0]	n/a	FR1	5	R1299T
525.786	1.631	527221	WORD	n/a	wordpools/wordpool_EN.txt	MOLE	12	3	[0, 0, 0]	n/a	FR1	5	R1299T
527.417	0.0	528852	WORD_OFF	n/a	n/a	MOLE	12	3	[0, 0, 0]	n/a	FR1	5	R1299T
527.417	0.001	528852	ENCODING_END	n/a	n/a	n/a	-999	3	[0, 0, 0]	n/a	FR1	5	R1299T
527.418	0.0	528853	DISTRACT_START	n/a	n/a	n/a	-999	3	[0, 0, 0]	n/a	FR1	5	R1299T
527.418	0.016	528853	START	n/a	n/a	n/a	-999	3	[-999, -999, -999]	n/a	FR1	5	R1299T
527.434	5.484	528869	PROB	5.484	n/a	n/a	-999	3	[3, 1, 5]	9	FR1	5	R1299T
532.918	6.784	534352	PROB	6.784	n/a	n/a	-999	3	[4, 4, 9]	17	FR1	5	R1299T
539.702	4.268	541136	PROB	4.268	n/a	n/a	-999	3	[6, 7, 4]	17	FR1	5	R1299T
543.97	7.848	545404	PROB	7.848	n/a	n/a	-999	3	[9, 2, 7]	18	FR1	5	R1299T
551.818	0.02	553251	STOP	n/a	n/a	n/a	-999	3	[-999, -999, -999]	n/a	FR1	5	R1299T
551.838	0.54	553271	DISTRACT_END	n/a	n/a	n/a	-999	3	[0, 0, 0]	n/a	FR1	5	R1299T
552.378	1.711	553811	RETRIEVAL_ORIENT_START	n/a	n/a	n/a	-999	3	[0, 0, 0]	n/a	FR1	5	R1299T
554.089	0.0	555522	RETRIEVAL_ORIENT_END	n/a	n/a	n/a	-999	3	[0, 0, 0]	n/a	FR1	5	R1299T
554.089	1.657	555522	REC_START	n/a	n/a	n/a	-999	3	[0, 0, 0]	n/a	FR1	5	R1299T
555.746	0.569	557179	REC_WORD_VV	0.569	n/a	<>	-999	3	[0, 0, 0]	n/a	FR1	5	R1299T
556.315	0.603	557748	REC_WORD_VV	0.603	n/a	<>	-999	3	[0, 0, 0]	n/a	FR1	5	R1299T
556.918	1.59	558351	REC_WORD	1.59	n/a	PRINCE	11	3	[0, 0, 0]	n/a	FR1	5	R1299T
558.508	4.009	559941	REC_WORD	4.009	n/a	MOLE	12	3	[0, 0, 0]	n/a	FR1	5	R1299T
562.517	17.387	563950	REC_WORD_VV	17.387	n/a	<>	-999	3	[0, 0, 0]	n/a	FR1	5	R1299T
579.904	0.177	581336	REC_WORD_VV	0.177	n/a	<>	-999	3	[0, 0, 0]	n/a	FR1	5	R1299T
580.081	4.02	581513	REC_WORD	4.02	n/a	STRAW	-999	3	[0, 0, 0]	n/a	FR1	5	R1299T
584.101	0.0	585533	REC_END	n/a	n/a	n/a	-999	3	[0, 0, 0]	n/a	FR1	5	R1299T
584.101	0.014	585533	TRIAL_END	n/a	n/a	n/a	-999	3	[0, 0, 0]	n/a	FR1	5	R1299T
584.115	0.0	585547	WAITING_START	n/a	n/a	n/a	-999	4	[0, 0, 0]	n/a	FR1	5	R1299T
584.115	0.0	585547	TRIAL	n/a	n/a	n/a	-999	4	[0, 0, 0]	n/a	FR1	5	R1299T
584.115	2.596	585547	TRIAL_START	n/a	n/a	n/a	-999	4	[0, 0, 0]	n/a	FR1	5	R1299T
586.711	0.001	588143	WAITING_END	n/a	n/a	n/a	-999	4	[0, 0, 0]	n/a	FR1	5	R1299T
586.712	10.429	588144	COUNTDOWN_START	n/a	n/a	n/a	-999	4	[0, 0, 0]	n/a	FR1	5	R1299T
597.141	0.001	598572	COUNTDOWN_END	n/a	n/a	n/a	-999	4	[0, 0, 0]	n/a	FR1	5	R1299T
597.142	1.188	598573	ORIENT_START	n/a	n/a	n/a	-999	4	[0, 0, 0]	n/a	FR1	5	R1299T
598.33	0.0	599761	ORIENT_END	n/a	n/a	n/a	-999	4	[0, 0, 0]	n/a	FR1	5	R1299T
598.33	0.91	599761	ENCODING_START	n/a	n/a	n/a	-999	4	[0, 0, 0]	n/a	FR1	5	R1299T
599.24	1.624	600671	WORD	n/a	wordpools/wordpool_EN.txt	BOARD	1	4	[0, 0, 0]	n/a	FR1	5	R1299T
600.864	1.044	602295	WORD_OFF	n/a	n/a	BOARD	1	4	[0, 0, 0]	n/a	FR1	5	R1299T
601.908	1.623	603339	WORD	n/a	wordpools/wordpool_EN.txt	BEAK	2	4	[0, 0, 0]	n/a	FR1	5	R1299T
603.531	1.053	604962	WORD_OFF	n/a	n/a	BEAK	2	4	[0, 0, 0]	n/a	FR1	5	R1299T
604.584	1.631	606015	WORD	n/a	wordpools/wordpool_EN.txt	MOTH	3	4	[0, 0, 0]	n/a	FR1	5	R1299T
606.215	1.136	607646	WORD_OFF	n/a	n/a	MOTH	3	4	[0, 0, 0]	n/a	FR1	5	R1299T
607.351	1.631	608782	WORD	n/a	wordpools/wordpool_EN.txt	FROG	4	4	[0, 0, 0]	n/a	FR1	5	R1299T
608.982	0.955	610413	WORD_OFF	n/a	n/a	FROG	4	4	[0, 0, 0]	n/a	FR1	5	R1299T
609.937	1.612	611368	WORD	n/a	wordpools/wordpool_EN.txt	PARK	5	4	[0, 0, 0]	n/a	FR1	5	R1299T
611.549	1.041	612980	WORD_OFF	n/a	n/a	PARK	5	4	[0, 0, 0]	n/a	FR1	5	R1299T
612.59	1.626	614021	WORD	n/a	wordpools/wordpool_EN.txt	STONE	6	4	[0, 0, 0]	n/a	FR1	5	R1299T
614.216	1.088	615647	WORD_OFF	n/a	n/a	STONE	6	4	[0, 0, 0]	n/a	FR1	5	R1299T
615.304	1.629	616735	WORD	n/a	wordpools/wordpool_EN.txt	FRUIT	7	4	[0, 0, 0]	n/a	FR1	5	R1299T
616.933	1.043	618364	WORD_OFF	n/a	n/a	FRUIT	7	4	[0, 0, 0]	n/a	FR1	5	R1299T
617.976	1.624	619407	WORD	n/a	wordpools/wordpool_EN.txt	CUBE	8	4	[0, 0, 0]	n/a	FR1	5	R1299T
619.6	0.766	621030	WORD_OFF	n/a	n/a	CUBE	8	4	[0, 0, 0]	n/a	FR1	5	R1299T
620.366	1.635	621796	WORD	n/a	wordpools/wordpool_EN.txt	FOG	9	4	[0, 0, 0]	n/a	FR1	5	R1299T
622.001	0.897	623431	WORD_OFF	n/a	n/a	FOG	9	4	[0, 0, 0]	n/a	FR1	5	R1299T
622.898	1.637	624328	WORD	n/a	wordpools/wordpool_EN.txt	SHOE	10	4	[0, 0, 0]	n/a	FR1	5	R1299T
624.535	0.769	625965	WORD_OFF	n/a	n/a	SHOE	10	4	[0, 0, 0]	n/a	FR1	5	R1299T
625.304	1.631	626734	WORD	n/a	wordpools/wordpool_EN.txt	MUD	11	4	[0, 0, 0]	n/a	FR1	5	R1299T
626.935	0.963	628365	WORD_OFF	n/a	n/a	MUD	11	4	[0, 0, 0]	n/a	FR1	5	R1299T
627.898	1.638	629328	WORD	n/a	wordpools/wordpool_EN.txt	TRAY	12	4	[0, 0, 0]	n/a	FR1	5	R1299T
629.536	0.0	630966	WORD_OFF	n/a	n/a	TRAY	12	4	[0, 0, 0]	n/a	FR1	5	R1299T
629.536	0.0	630966	ENCODING_END	n/a	n/a	n/a	-999	4	[0, 0, 0]	n/a	FR1	5	R1299T
629.536	0.0	630966	DISTRACT_START	n/a	n/a	n/a	-999	4	[0, 0, 0]	n/a	FR1	5	R1299T
629.536	0.016	630966	START	n/a	n/a	n/a	-999	4	[-999, -999, -999]	n/a	FR1	5	R1299T
629.552	5.034	630982	PROB	5.034	n/a	n/a	-999	4	[8, 3, 1]	12	FR1	5	R1299T
634.586	3.884	636016	PROB	3.884	n/a	n/a	-999	4	[7, 1, 2]	10	FR1	5	R1299T
638.47	4.284	639900	PROB	4.284	n/a	n/a	-999	4	[1, 9, 1]	11	FR1	5	R1299T
642.754	3.468	644183	PROB	3.468	n/a	n/a	-999	4	[8, 4, 9]	21	FR1	5	R1299T
646.222	6.059	647651	PROB	6.059	n/a	n/a	-999	4	[8, 5, 8]	21	FR1	5	R1299T
652.281	0.009	653710	STOP	n/a	n/a	n/a	-999	4	[-999, -999, -999]	n/a	FR1	5	R1299T
652.29	0.631	653719	DISTRACT_END	n/a	n/a	n/a	-999	4	[0, 0, 0]	n/a	FR1	5	R1299T
652.921	1.686	654350	RETRIEVAL_ORIENT_START	n/a	n/a	n/a	-999	4	[0, 0, 0]	n/a	FR1	5	R1299T
654.607	0.0	656036	REC_START	n/a	n/a	n/a	-999	4	[0, 0, 0]	n/a	FR1	5	R1299T
654.607	1.219	656036	RETRIEVAL_ORIENT_END	n/a	n/a	n/a	-999	4	[0, 0, 0]	n/a	FR1	5	R1299T
655.826	0.383	657255	REC_WORD_VV	0.383	n/a	<>	-999	4	[0, 0, 0]	n/a	FR1	5	R1299T
656.209	2.131	657638	REC_WORD	2.131	n/a	MUD	11	4	[0, 0, 0]	n/a	FR1	5	R1299T
658.34	16.951	659769	REC_WORD	16.951	n/a	SHOE	10	4	[0, 0, 0]	n/a	FR1	5	R1299T
675.291	0.428	676719	REC_WORD_VV	0.428	n/a	<>	-999	4	[0, 0, 0]	n/a	FR1	5	R1299T
675.719	5.457	677147	REC_WORD	5.457	n/a	JAR	-999	4	[0, 0, 0]	n/a	FR1	5	R1299T
681.176	3.443	682604	REC_WORD_VV	3.443	n/a	<>	-999	4	[0, 0, 0]	n/a	FR1	5	R1299T
684.619	0.0	686047	TRIAL_END	n/a	n/a	n/a	-999	4	[0, 0, 0]	n/a	FR1	5	R1299T
684.619	0.015	686047	REC_END	n/a	n/a	n/a	-999	4	[0, 0, 0]	n/a	FR1	5	R1299T
684.634	0.0	686062	WAITING_START	n/a	n/a	n/a	-999	5	[0, 0, 0]	n/a	FR1	5	R1299T
684.634	0.0	686062	TRIAL_START	n/a	n/a	n/a	-999	5	[0, 0, 0]	n/a	FR1	5	R1299T
684.634	11.547	686062	TRIAL	n/a	n/a	n/a	-999	5	[0, 0, 0]	n/a	FR1	5	R1299T
696.181	0.001	697608	WAITING_END	n/a	n/a	n/a	-999	5	[0, 0, 0]	n/a	FR1	5	R1299T
696.182	10.428	697609	COUNTDOWN_START	n/a	n/a	n/a	-999	5	[0, 0, 0]	n/a	FR1	5	R1299T
706.61	0.0	708037	COUNTDOWN_END	n/a	n/a	n/a	-999	5	[0, 0, 0]	n/a	FR1	5	R1299T
706.61	1.09	708037	ORIENT_START	n/a	n/a	n/a	-999	5	[0, 0, 0]	n/a	FR1	5	R1299T
707.7	0.0	709127	ORIENT_END	n/a	n/a	n/a	-999	5	[0, 0, 0]	n/a	FR1	5	R1299T
707.7	1.082	709127	ENCODING_START	n/a	n/a	n/a	-999	5	[0, 0, 0]	n/a	FR1	5	R1299T
708.782	1.635	710208	WORD	n/a	wordpools/wordpool_EN.txt	WORM	1	5	[0, 0, 0]	n/a	FR1	5	R1299T
710.417	1.109	711843	WORD_OFF	n/a	n/a	WORM	1	5	[0, 0, 0]	n/a	FR1	5	R1299T
711.526	1.625	712952	WORD	n/a	wordpools/wordpool_EN.txt	SNAIL	2	5	[0, 0, 0]	n/a	FR1	5	R1299T
713.151	1.032	714577	WORD_OFF	n/a	n/a	SNAIL	2	5	[0, 0, 0]	n/a	FR1	5	R1299T
714.183	1.635	715609	WORD	n/a	wordpools/wordpool_EN.txt	ROOT	3	5	[0, 0, 0]	n/a	FR1	5	R1299T
715.818	0.829	717244	WORD_OFF	n/a	n/a	ROOT	3	5	[0, 0, 0]	n/a	FR1	5	R1299T
716.647	1.621	718073	WORD	n/a	wordpools/wordpool_EN.txt	SEA	4	5	[0, 0, 0]	n/a	FR1	5	R1299T
718.268	0.937	719694	WORD_OFF	n/a	n/a	SEA	4	5	[0, 0, 0]	n/a	FR1	5	R1299T
719.205	1.631	720631	WORD	n/a	wordpools/wordpool_EN.txt	PIN	5	5	[0, 0, 0]	n/a	FR1	5	R1299T
720.836	1.029	722262	WORD_OFF	n/a	n/a	PIN	5	5	[0, 0, 0]	n/a	FR1	5	R1299T
721.865	1.638	723291	WORD	n/a	wordpools/wordpool_EN.txt	TOOTH	6	5	[0, 0, 0]	n/a	FR1	5	R1299T
723.503	1.113	724929	WORD_OFF	n/a	n/a	TOOTH	6	5	[0, 0, 0]	n/a	FR1	5	R1299T
724.616	1.637	726042	WORD	n/a	wordpools/wordpool_EN.txt	GOLD	7	5	[0, 0, 0]	n/a	FR1	5	R1299T
726.253	0.826	727679	WORD_OFF	n/a	n/a	GOLD	7	5	[0, 0, 0]	n/a	FR1	5	R1299T
727.079	1.608	728505	WORD	n/a	wordpools/wordpool_EN.txt	BOMB	8	5	[0, 0, 0]	n/a	FR1	5	R1299T
728.687	1.089	730113	WORD_OFF	n/a	n/a	BOMB	8	5	[0, 0, 0]	n/a	FR1	5	R1299T
729.776	1.628	731202	WORD	n/a	wordpools/wordpool_EN.txt	CORD	9	5	[0, 0, 0]	n/a	FR1	5	R1299T
731.404	0.804	732829	WORD_OFF	n/a	n/a	CORD	9	5	[0, 0, 0]	n/a	FR1	5	R1299T
732.208	1.63	733633	WORD	n/a	wordpools/wordpool_EN.txt	SPONGE	10	5	[0, 0, 0]	n/a	FR1	5	R1299T
733.838	0.865	735263	WORD_OFF	n/a	n/a	SPONGE	10	5	[0, 0, 0]	n/a	FR1	5	R1299T
734.703	1.636	736128	WORD	n/a	wordpools/wordpool_EN.txt	SEAT	11	5	[0, 0, 0]	n/a	FR1	5	R1299T
736.339	1.056	737764	WORD_OFF	n/a	n/a	SEAT	11	5	[0, 0, 0]	n/a	FR1	5	R1299T
737.395	1.627	738820	WORD	n/a	wordpools/wordpool_EN.txt	INK	12	5	[0, 0, 0]	n/a	FR1	5	R1299T
739.022	0.001	740447	WORD_OFF	n/a	n/a	INK	12	5	[0, 0, 0]	n/a	FR1	5	R1299T
739.023	0.0	740448	ENCODING_END	n/a	n/a	n/a	-999	5	[0, 0, 0]	n/a	FR1	5	R1299T
739.023	0.0	740448	DISTRACT_START	n/a	n/a	n/a	-999	5	[0, 0, 0]	n/a	FR1	5	R1299T
739.023	0.016	740448	START	n/a	n/a	n/a	-999	5	[-999, -999, -999]	n/a	FR1	5	R1299T
739.039	5.151	740464	PROB	5.151	n/a	n/a	-999	5	[3, 5, 7]	15	FR1	5	R1299T
744.19	5.617	745615	PROB	5.617	n/a	n/a	-999	5	[2, 3, 5]	10	FR1	5	R1299T
749.807	4.401	751232	PROB	4.401	n/a	n/a	-999	5	[1, 4, 7]	12	FR1	5	R1299T
754.208	7.613	755632	PROB	7.613	n/a	n/a	-999	5	[7, 6, 5]	18	FR1	5	R1299T
761.821	0.022	763245	STOP	n/a	n/a	n/a	-999	5	[-999, -999, -999]	n/a	FR1	5	R1299T
761.843	0.553	763267	DISTRACT_END	n/a	n/a	n/a	-999	5	[0, 0, 0]	n/a	FR1	5	R1299T
762.396	1.547	763820	RETRIEVAL_ORIENT_START	n/a	n/a	n/a	-999	5	[0, 0, 0]	n/a	FR1	5	R1299T
763.943	0.001	765367	RETRIEVAL_ORIENT_END	n/a	n/a	n/a	-999	5	[0, 0, 0]	n/a	FR1	5	R1299T
763.944	4.128	765368	REC_START	n/a	n/a	n/a	-999	5	[0, 0, 0]	n/a	FR1	5	R1299T
768.072	4.45	769496	REC_WORD	4.45	n/a	WORM	1	5	[0, 0, 0]	n/a	FR1	5	R1299T
772.522	3.293	773946	REC_WORD	3.293	n/a	ROOT	3	5	[0, 0, 0]	n/a	FR1	5	R1299T
775.815	18.141	777239	REC_WORD	18.141	n/a	SNAIL	2	5	[0, 0, 0]	n/a	FR1	5	R1299T
793.956	0.001	795379	REC_END	n/a	n/a	n/a	-999	5	[0, 0, 0]	n/a	FR1	5	R1299T
793.957	0.013	795380	TRIAL_END	n/a	n/a	n/a	-999	5	[0, 0, 0]	n/a	FR1	5	R1299T
793.97	0.001	795393	TRIAL_START	n/a	n/a	n/a	-999	6	[0, 0, 0]	n/a	FR1	5	R1299T
793.971	0.0	795394	WAITING_START	n/a	n/a	n/a	-999	6	[0, 0, 0]	n/a	FR1	5	R1299T
793.971	1.911	795394	TRIAL	n/a	n/a	n/a	-999	6	[0, 0, 0]	n/a	FR1	5	R1299T
795.882	0.001	797305	WAITING_END	n/a	n/a	n/a	-999	6	[0, 0, 0]	n/a	FR1	5	R1299T
795.883	10.429	797306	COUNTDOWN_START	n/a	n/a	n/a	-999	6	[0, 0, 0]	n/a	FR1	5	R1299T
806.312	0.0	807734	COUNTDOWN_END	n/a	n/a	n/a	-999	6	[0, 0, 0]	n/a	FR1	5	R1299T
806.312	1.039	807734	ORIENT_START	n/a	n/a	n/a	-999	6	[0, 0, 0]	n/a	FR1	5	R1299T
807.351	0.001	808773	ORIENT_END	n/a	n/a	n/a	-999	6	[0, 0, 0]	n/a	FR1	5	R1299T
807.352	0.945	808774	ENCODING_START	n/a	n/a	n/a	-999	6	[0, 0, 0]	n/a	FR1	5	R1299T
808.297	1.638	809719	WORD	n/a	wordpools/wordpool_EN.txt	PANTS	1	6	[0, 0, 0]	n/a	FR1	5	R1299T
809.935	0.884	811357	WORD_OFF	n/a	n/a	PANTS	1	6	[0, 0, 0]	n/a	FR1	5	R1299T
810.819	1.633	812241	WORD	n/a	wordpools/wordpool_EN.txt	TOY	2	6	[0, 0, 0]	n/a	FR1	5	R1299T
812.452	1.138	813874	WORD_OFF	n/a	n/a	TOY	2	6	[0, 0, 0]	n/a	FR1	5	R1299T
813.59	1.629	815012	WORD	n/a	wordpools/wordpool_EN.txt	CLAY	3	6	[0, 0, 0]	n/a	FR1	5	R1299T
815.219	1.002	816641	WORD_OFF	n/a	n/a	CLAY	3	6	[0, 0, 0]	n/a	FR1	5	R1299T
816.221	1.632	817643	WORD	n/a	wordpools/wordpool_EN.txt	LIP	4	6	[0, 0, 0]	n/a	FR1	5	R1299T
817.853	0.921	819275	WORD_OFF	n/a	n/a	LIP	4	6	[0, 0, 0]	n/a	FR1	5	R1299T
818.774	1.63	820196	WORD	n/a	wordpools/wordpool_EN.txt	SINK	5	6	[0, 0, 0]	n/a	FR1	5	R1299T
820.404	0.874	821826	WORD_OFF	n/a	n/a	SINK	5	6	[0, 0, 0]	n/a	FR1	5	R1299T
821.278	1.626	822699	WORD	n/a	wordpools/wordpool_EN.txt	MOUSE	6	6	[0, 0, 0]	n/a	FR1	5	R1299T
822.904	1.092	824325	WORD_OFF	n/a	n/a	MOUSE	6	6	[0, 0, 0]	n/a	FR1	5	R1299T
823.996	1.625	825417	WORD	n/a	wordpools/wordpool_EN.txt	STRING	7	6	[0, 0, 0]	n/a	FR1	5	R1299T
825.621	1.15	827042	WORD_OFF	n/a	n/a	STRING	7	6	[0, 0, 0]	n/a	FR1	5	R1299T
826.771	1.634	828192	WORD	n/a	wordpools/wordpool_EN.txt	BED	8	6	[0, 0, 0]	n/a	FR1	5	R1299T
828.405	0.977	829826	WORD_OFF	n/a	n/a	BED	8	6	[0, 0, 0]	n/a	FR1	5	R1299T
829.382	1.624	830803	WORD	n/a	wordpools/wordpool_EN.txt	BARN	9	6	[0, 0, 0]	n/a	FR1	5	R1299T
831.006	0.971	832427	WORD_OFF	n/a	n/a	BARN	9	6	[0, 0, 0]	n/a	FR1	5	R1299T
831.977	1.629	833398	WORD	n/a	wordpools/wordpool_EN.txt	SPRING	10	6	[0, 0, 0]	n/a	FR1	5	R1299T
833.606	0.975	835027	WORD_OFF	n/a	n/a	SPRING	10	6	[0, 0, 0]	n/a	FR1	5	R1299T
834.581	1.626	836002	WORD	n/a	wordpools/wordpool_EN.txt	COW	11	6	[0, 0, 0]	n/a	FR1	5	R1299T
836.207	0.966	837628	WORD_OFF	n/a	n/a	COW	11	6	[0, 0, 0]	n/a	FR1	5	R1299T
837.173	1.634	838594	WORD	n/a	wordpools/wordpool_EN.txt	BATH	12	6	[0, 0, 0]	n/a	FR1	5	R1299T
838.807	0.0	840228	WORD_OFF	n/a	n/a	BATH	12	6	[0, 0, 0]	n/a	FR1	5	R1299T
838.807	0.001	840228	ENCODING_END	n/a	n/a	n/a	-999	6	[0, 0, 0]	n/a	FR1	5	R1299T
838.808	0.0	840229	DISTRACT_START	n/a	n/a	n/a	-999	6	[0, 0, 0]	n/a	FR1	5	R1299T
838.808	0.015	840229	START	n/a	n/a	n/a	-999	6	[-999, -999, -999]	n/a	FR1	5	R1299T
838.823	4.301	840244	PROB	4.301	n/a	n/a	-999	6	[1, 5, 9]	15	FR1	5	R1299T
843.124	4.401	844545	PROB	4.401	n/a	n/a	-999	6	[4, 8, 8]	20	FR1	5	R1299T
847.525	5.951	848945	PROB	5.951	n/a	n/a	-999	6	[6, 8, 5]	19	FR1	5	R1299T
853.476	4.118	854896	PROB	4.118	n/a	n/a	-999	6	[2, 1, 1]	4	FR1	5	R1299T
857.594	4.403	859014	PROB	4.403	n/a	n/a	-999	6	[8, 4, 9]	21	FR1	5	R1299T
861.997	0.014	863417	STOP	n/a	n/a	n/a	-999	6	[-999, -999, -999]	n/a	FR1	5	R1299T
862.011	0.623	863431	DISTRACT_END	n/a	n/a	n/a	-999	6	[0, 0, 0]	n/a	FR1	5	R1299T
862.634	1.561	864054	RETRIEVAL_ORIENT_START	n/a	n/a	n/a	-999	6	[0, 0, 0]	n/a	FR1	5	R1299T
864.195	0.0	865615	RETRIEVAL_ORIENT_END	n/a	n/a	n/a	-999	6	[0, 0, 0]	n/a	FR1	5	R1299T
864.195	4.113	865615	REC_START	n/a	n/a	n/a	-999	6	[0, 0, 0]	n/a	FR1	5	R1299T
868.308	6.122	869727	REC_WORD	6.122	n/a	STRING	7	6	[0, 0, 0]	n/a	FR1	5	R1299T
874.43	2.224	875849	REC_WORD_VV	2.224	n/a	<>	-999	6	[0, 0, 0]	n/a	FR1	5	R1299T
876.654	17.554	878073	REC_WORD	17.554	n/a	SHOWER	-999	6	[0, 0, 0]	n/a	FR1	5	R1299T
894.208	0.0	895626	REC_END	n/a	n/a	n/a	-999	6	[0, 0, 0]	n/a	FR1	5	R1299T
894.208	0.014	895626	TRIAL_END	n/a	n/a	n/a	-999	6	[0, 0, 0]	n/a	FR1	5	R1299T
894.222	0.0	895640	TRIAL_START	n/a	n/a	n/a	-999	7	[0, 0, 0]	n/a	FR1	5	R1299T
894.222	0.0	895640	TRIAL	n/a	n/a	n/a	-999	7	[0, 0, 0]	n/a	FR1	5	R1299T
894.222	2.212	895640	WAITING_START	n/a	n/a	n/a	-999	7	[0, 0, 0]	n/a	FR1	5	R1299T
896.434	0.001	897852	WAITING_END	n/a	n/a	n/a	-999	7	[0, 0, 0]	n/a	FR1	5	R1299T
896.435	10.429	897853	COUNTDOWN_START	n/a	n/a	n/a	-999	7	[0, 0, 0]	n/a	FR1	5	R1299T
906.864	0.0	908282	COUNTDOWN_END	n/a	n/a	n/a	-999	7	[0, 0, 0]	n/a	FR1	5	R1299T
906.864	1.222	908282	ORIENT_START	n/a	n/a	n/a	-999	7	[0, 0, 0]	n/a	FR1	5	R1299T
908.086	0.001	909504	ORIENT_END	n/a	n/a	n/a	-999	7	[0, 0, 0]	n/a	FR1	5	R1299T
908.087	0.929	909505	ENCODING_START	n/a	n/a	n/a	-999	7	[0, 0, 0]	n/a	FR1	5	R1299T
909.016	1.622	910434	WORD	n/a	wordpools/wordpool_EN.txt	JUDGE	1	7	[0, 0, 0]	n/a	FR1	5	R1299T
910.638	0.749	912056	WORD_OFF	n/a	n/a	JUDGE	1	7	[0, 0, 0]	n/a	FR1	5	R1299T
911.387	1.633	912804	WORD	n/a	wordpools/wordpool_EN.txt	SEAL	2	7	[0, 0, 0]	n/a	FR1	5	R1299T
913.02	0.88	914437	WORD_OFF	n/a	n/a	SEAL	2	7	[0, 0, 0]	n/a	FR1	5	R1299T
913.9	1.638	915317	WORD	n/a	wordpools/wordpool_EN.txt	BENCH	3	7	[0, 0, 0]	n/a	FR1	5	R1299T
915.538	0.764	916955	WORD_OFF	n/a	n/a	BENCH	3	7	[0, 0, 0]	n/a	FR1	5	R1299T
916.302	1.636	917719	WORD	n/a	wordpools/wordpool_EN.txt	GEESE	4	7	[0, 0, 0]	n/a	FR1	5	R1299T
917.938	0.787	919355	WORD_OFF	n/a	n/a	GEESE	4	7	[0, 0, 0]	n/a	FR1	5	R1299T
918.725	1.63	920142	WORD	n/a	wordpools/wordpool_EN.txt	MAZE	5	7	[0, 0, 0]	n/a	FR1	5	R1299T
920.355	0.799	921772	WORD_OFF	n/a	n/a	MAZE	5	7	[0, 0, 0]	n/a	FR1	5	R1299T
921.154	1.635	922571	WORD	n/a	wordpools/wordpool_EN.txt	PLATE	6	7	[0, 0, 0]	n/a	FR1	5	R1299T
922.789	1.09	924206	WORD_OFF	n/a	n/a	PLATE	6	7	[0, 0, 0]	n/a	FR1	5	R1299T
923.879	1.627	925296	WORD	n/a	wordpools/wordpool_EN.txt	CONE	7	7	[0, 0, 0]	n/a	FR1	5	R1299T
925.506	1.013	926923	WORD_OFF	n/a	n/a	CONE	7	7	[0, 0, 0]	n/a	FR1	5	R1299T
926.519	1.638	927936	WORD	n/a	wordpools/wordpool_EN.txt	BAG	8	7	[0, 0, 0]	n/a	FR1	5	R1299T
928.157	0.99	929574	WORD_OFF	n/a	n/a	BAG	8	7	[0, 0, 0]	n/a	FR1	5	R1299T
929.147	1.627	930564	WORD	n/a	wordpools/wordpool_EN.txt	PEAR	9	7	[0, 0, 0]	n/a	FR1	5	R1299T
930.774	1.11	932191	WORD_OFF	n/a	n/a	PEAR	9	7	[0, 0, 0]	n/a	FR1	5	R1299T
931.884	1.624	933301	WORD	n/a	wordpools/wordpool_EN.txt	SNAKE	10	7	[0, 0, 0]	n/a	FR1	5	R1299T
933.508	0.886	934925	WORD_OFF	n/a	n/a	SNAKE	10	7	[0, 0, 0]	n/a	FR1	5	R1299T
934.394	1.631	935810	WORD	n/a	wordpools/wordpool_EN.txt	BOWL	11	7	[0, 0, 0]	n/a	FR1	5	R1299T
936.025	1.039	937441	WORD_OFF	n/a	n/a	BOWL	11	7	[0, 0, 0]	n/a	FR1	5	R1299T
937.064	1.628	938480	WORD	n/a	wordpools/wordpool_EN.txt	HAT	12	7	[0, 0, 0]	n/a	FR1	5	R1299T
938.692	0.0	940108	WORD_OFF	n/a	n/a	HAT	12	7	[0, 0, 0]	n/a	FR1	5	R1299T
938.692	0.0	940108	ENCODING_END	n/a	n/a	n/a	-999	7	[0, 0, 0]	n/a	FR1	5	R1299T
938.692	0.001	940108	DISTRACT_START	n/a	n/a	n/a	-999	7	[0, 0, 0]	n/a	FR1	5	R1299T
938.693	0.015	940109	START	n/a	n/a	n/a	-999	7	[-999, -999, -999]	n/a	FR1	5	R1299T
938.708	4.051	940124	PROB	4.051	n/a	n/a	-999	7	[1, 8, 3]	12	FR1	5	R1299T
942.759	3.351	944175	PROB	3.351	n/a	n/a	-999	7	[8, 2, 3]	13	FR1	5	R1299T
946.11	3.834	947526	PROB	3.834	n/a	n/a	-999	7	[1, 9, 4]	14	FR1	5	R1299T
949.944	3.934	951360	PROB	3.934	n/a	n/a	-999	7	[8, 1, 4]	13	FR1	5	R1299T
953.878	4.517	955294	PROB	4.517	n/a	n/a	-999	7	[4, 6, 3]	13	FR1	5	R1299T
958.395	4.162	959810	PROB	4.162	n/a	n/a	-999	7	[1, 7, 8]	16	FR1	5	R1299T
962.557	0.006	963972	STOP	n/a	n/a	n/a	-999	7	[-999, -999, -999]	n/a	FR1	5	R1299T
962.563	0.566	963978	DISTRACT_END	n/a	n/a	n/a	-999	7	[0, 0, 0]	n/a	FR1	5	R1299T
963.129	1.718	964544	RETRIEVAL_ORIENT_START	n/a	n/a	n/a	-999	7	[0, 0, 0]	n/a	FR1	5	R1299T
964.847	0.0	966262	RETRIEVAL_ORIENT_END	n/a	n/a	n/a	-999	7	[0, 0, 0]	n/a	FR1	5	R1299T
964.847	0.965	966262	REC_START	n/a	n/a	n/a	-999	7	[0, 0, 0]	n/a	FR1	5	R1299T
965.812	0.642	967227	REC_WORD_VV	0.642	n/a	<>	-999	7	[0, 0, 0]	n/a	FR1	5	R1299T
966.454	2.067	967869	REC_WORD	2.067	n/a	JUDGE	1	7	[0, 0, 0]	n/a	FR1	5	R1299T
968.521	2.741	969936	REC_WORD	2.741	n/a	BENCH	3	7	[0, 0, 0]	n/a	FR1	5	R1299T
971.262	1.0	972677	REC_WORD	1.0	n/a	SEAL	2	7	[0, 0, 0]	n/a	FR1	5	R1299T
972.262	22.598	973677	REC_WORD_VV	22.598	n/a	<>	-999	7	[0, 0, 0]	n/a	FR1	5	R1299T
994.86	0.0	996274	REC_END	n/a	n/a	n/a	-999	7	[0, 0, 0]	n/a	FR1	5	R1299T
994.86	0.014	996274	TRIAL_END	n/a	n/a	n/a	-999	7	[0, 0, 0]	n/a	FR1	5	R1299T
994.874	0.0	996288	TRIAL_START	n/a	n/a	n/a	-999	8	[0, 0, 0]	n/a	FR1	5	R1299T
994.874	0.0	996288	TRIAL	n/a	n/a	n/a	-999	8	[0, 0, 0]	n/a	FR1	5	R1299T
994.874	1.595	996288	WAITING_START	n/a	n/a	n/a	-999	8	[0, 0, 0]	n/a	FR1	5	R1299T
996.469	0.001	997883	WAITING_END	n/a	n/a	n/a	-999	8	[0, 0, 0]	n/a	FR1	5	R1299T
996.47	10.429	997884	COUNTDOWN_START	n/a	n/a	n/a	-999	8	[0, 0, 0]	n/a	FR1	5	R1299T
1006.899	0.0	1008312	COUNTDOWN_END	n/a	n/a	n/a	-999	8	[0, 0, 0]	n/a	FR1	5	R1299T
1006.899	1.205	1008312	ORIENT_START	n/a	n/a	n/a	-999	8	[0, 0, 0]	n/a	FR1	5	R1299T
1008.104	0.001	1009517	ORIENT_END	n/a	n/a	n/a	-999	8	[0, 0, 0]	n/a	FR1	5	R1299T
1008.105	0.803	1009518	ENCODING_START	n/a	n/a	n/a	-999	8	[0, 0, 0]	n/a	FR1	5	R1299T
1008.908	1.63	1010321	WORD	n/a	wordpools/wordpool_EN.txt	SHIP	1	8	[0, 0, 0]	n/a	FR1	5	R1299T
1010.538	1.048	1011951	WORD_OFF	n/a	n/a	SHIP	1	8	[0, 0, 0]	n/a	FR1	5	R1299T
1011.586	1.636	1012999	WORD	n/a	wordpools/wordpool_EN.txt	CHAIR	2	8	[0, 0, 0]	n/a	FR1	5	R1299T
1013.222	1.093	1014635	WORD_OFF	n/a	n/a	CHAIR	2	8	[0, 0, 0]	n/a	FR1	5	R1299T
1014.315	1.624	1015728	WORD	n/a	wordpools/wordpool_EN.txt	CLOTH	3	8	[0, 0, 0]	n/a	FR1	5	R1299T
1015.939	0.937	1017352	WORD_OFF	n/a	n/a	CLOTH	3	8	[0, 0, 0]	n/a	FR1	5	R1299T
1016.876	1.63	1018289	WORD	n/a	wordpools/wordpool_EN.txt	PLANE	4	8	[0, 0, 0]	n/a	FR1	5	R1299T
1018.506	1.034	1019919	WORD_OFF	n/a	n/a	PLANE	4	8	[0, 0, 0]	n/a	FR1	5	R1299T
1019.54	1.634	1020953	WORD	n/a	wordpools/wordpool_EN.txt	ROAD	5	8	[0, 0, 0]	n/a	FR1	5	R1299T
1021.174	1.006	1022587	WORD_OFF	n/a	n/a	ROAD	5	8	[0, 0, 0]	n/a	FR1	5	R1299T
1022.18	1.627	1023593	WORD	n/a	wordpools/wordpool_EN.txt	GLOVE	6	8	[0, 0, 0]	n/a	FR1	5	R1299T
1023.807	1.049	1025219	WORD_OFF	n/a	n/a	GLOVE	6	8	[0, 0, 0]	n/a	FR1	5	R1299T
1024.856	1.635	1026268	WORD	n/a	wordpools/wordpool_EN.txt	BRUSH	7	8	[0, 0, 0]	n/a	FR1	5	R1299T
1026.491	0.899	1027903	WORD_OFF	n/a	n/a	BRUSH	7	8	[0, 0, 0]	n/a	FR1	5	R1299T
1027.39	1.635	1028802	WORD	n/a	wordpools/wordpool_EN.txt	TRASH	8	8	[0, 0, 0]	n/a	FR1	5	R1299T
1029.025	0.914	1030437	WORD_OFF	n/a	n/a	TRASH	8	8	[0, 0, 0]	n/a	FR1	5	R1299T
1029.939	1.636	1031351	WORD	n/a	wordpools/wordpool_EN.txt	FUR	9	8	[0, 0, 0]	n/a	FR1	5	R1299T
1031.575	0.792	1032987	WORD_OFF	n/a	n/a	FUR	9	8	[0, 0, 0]	n/a	FR1	5	R1299T
1032.367	1.626	1033779	WORD	n/a	wordpools/wordpool_EN.txt	EGG	10	8	[0, 0, 0]	n/a	FR1	5	R1299T
1033.993	1.012	1035405	WORD_OFF	n/a	n/a	EGG	10	8	[0, 0, 0]	n/a	FR1	5	R1299T
1035.005	1.621	1036417	WORD	n/a	wordpools/wordpool_EN.txt	GRAPE	11	8	[0, 0, 0]	n/a	FR1	5	R1299T
1036.626	1.098	1038038	WORD_OFF	n/a	n/a	GRAPE	11	8	[0, 0, 0]	n/a	FR1	5	R1299T
1037.724	1.636	1039136	WORD	n/a	wordpools/wordpool_EN.txt	DRUM	12	8	[0, 0, 0]	n/a	FR1	5	R1299T
1039.36	0.001	1040772	WORD_OFF	n/a	n/a	DRUM	12	8	[0, 0, 0]	n/a	FR1	5	R1299T
1039.361	0.0	1040773	ENCODING_END	n/a	n/a	n/a	-999	8	[0, 0, 0]	n/a	FR1	5	R1299T
1039.361	0.0	1040773	DISTRACT_START	n/a	n/a	n/a	-999	8	[0, 0, 0]	n/a	FR1	5	R1299T
1039.361	0.016	1040773	START	n/a	n/a	n/a	-999	8	[-999, -999, -999]	n/a	FR1	5	R1299T
1039.377	4.567	1040789	PROB	4.567	n/a	n/a	-999	8	[7, 8, 1]	16	FR1	5	R1299T
1043.944	4.068	1045356	PROB	4.068	n/a	n/a	-999	8	[4, 3, 7]	14	FR1	5	R1299T
1048.012	3.15	1049423	PROB	3.15	n/a	n/a	-999	8	[2, 5, 7]	14	FR1	5	R1299T
1051.162	6.618	1052573	PROB	6.618	n/a	n/a	-999	8	[3, 5, 9]	17	FR1	5	R1299T
1057.78	5.512	1059191	PROB	5.512	n/a	n/a	-999	8	[3, 4, 5]	12	FR1	5	R1299T
1063.292	0.005	1064703	STOP	n/a	n/a	n/a	-999	8	[-999, -999, -999]	n/a	FR1	5	R1299T
1063.297	0.699	1064708	DISTRACT_END	n/a	n/a	n/a	-999	8	[0, 0, 0]	n/a	FR1	5	R1299T
1063.996	1.619	1065407	RETRIEVAL_ORIENT_START	n/a	n/a	n/a	-999	8	[0, 0, 0]	n/a	FR1	5	R1299T
1065.615	0.0	1067026	RETRIEVAL_ORIENT_END	n/a	n/a	n/a	-999	8	[0, 0, 0]	n/a	FR1	5	R1299T
1065.615	2.762	1067026	REC_START	n/a	n/a	n/a	-999	8	[0, 0, 0]	n/a	FR1	5	R1299T
1068.377	0.36	1069788	REC_WORD_VV	0.36	n/a	<>	-999	8	[0, 0, 0]	n/a	FR1	5	R1299T
1068.737	10.014	1070147	REC_WORD	10.014	n/a	TRASH	8	8	[0, 0, 0]	n/a	FR1	5	R1299T
1078.751	14.535	1080161	REC_WORD	14.535	n/a	FUR	9	8	[0, 0, 0]	n/a	FR1	5	R1299T
1093.286	1.043	1094695	REC_WORD	1.043	n/a	CLOTH	3	8	[0, 0, 0]	n/a	FR1	5	R1299T
1094.329	1.298	1095738	REC_WORD_VV	1.298	n/a	<>	-999	8	[0, 0, 0]	n/a	FR1	5	R1299T
1095.627	0.0	1097036	REC_END	n/a	n/a	n/a	-999	8	[0, 0, 0]	n/a	FR1	5	R1299T
1095.627	0.017	1097036	TRIAL_END	n/a	n/a	n/a	-999	8	[0, 0, 0]	n/a	FR1	5	R1299T
1095.644	0.0	1097053	TRIAL_START	n/a	n/a	n/a	-999	9	[0, 0, 0]	n/a	FR1	5	R1299T
1095.644	0.0	1097053	TRIAL	n/a	n/a	n/a	-999	9	[0, 0, 0]	n/a	FR1	5	R1299T
1095.644	2.56	1097053	WAITING_START	n/a	n/a	n/a	-999	9	[0, 0, 0]	n/a	FR1	5	R1299T
1098.204	0.001	1099613	WAITING_END	n/a	n/a	n/a	-999	9	[0, 0, 0]	n/a	FR1	5	R1299T
1098.205	10.429	1099614	COUNTDOWN_START	n/a	n/a	n/a	-999	9	[0, 0, 0]	n/a	FR1	5	R1299T
1108.634	0.0	1110043	COUNTDOWN_END	n/a	n/a	n/a	-999	9	[0, 0, 0]	n/a	FR1	5	R1299T
1108.634	1.04	1110043	ORIENT_START	n/a	n/a	n/a	-999	9	[0, 0, 0]	n/a	FR1	5	R1299T
1109.674	0.0	1111083	ORIENT_END	n/a	n/a	n/a	-999	9	[0, 0, 0]	n/a	FR1	5	R1299T
1109.674	0.806	1111083	ENCODING_START	n/a	n/a	n/a	-999	9	[0, 0, 0]	n/a	FR1	5	R1299T
1110.48	1.627	1111889	WORD	n/a	wordpools/wordpool_EN.txt	PEACH	1	9	[0, 0, 0]	n/a	FR1	5	R1299T
1112.107	1.134	1113516	WORD_OFF	n/a	n/a	PEACH	1	9	[0, 0, 0]	n/a	FR1	5	R1299T
1113.241	1.633	1114650	WORD	n/a	wordpools/wordpool_EN.txt	OWL	2	9	[0, 0, 0]	n/a	FR1	5	R1299T
1114.874	0.926	1116282	WORD_OFF	n/a	n/a	OWL	2	9	[0, 0, 0]	n/a	FR1	5	R1299T
1115.8	1.624	1117208	WORD	n/a	wordpools/wordpool_EN.txt	WHALE	3	9	[0, 0, 0]	n/a	FR1	5	R1299T
1117.424	0.78	1118832	WORD_OFF	n/a	n/a	WHALE	3	9	[0, 0, 0]	n/a	FR1	5	R1299T
1118.204	1.637	1119612	WORD	n/a	wordpools/wordpool_EN.txt	SQUARE	4	9	[0, 0, 0]	n/a	FR1	5	R1299T
1119.841	0.825	1121249	WORD_OFF	n/a	n/a	SQUARE	4	9	[0, 0, 0]	n/a	FR1	5	R1299T
1120.666	1.626	1122074	WORD	n/a	wordpools/wordpool_EN.txt	HOOK	5	9	[0, 0, 0]	n/a	FR1	5	R1299T
1122.292	0.882	1123700	WORD_OFF	n/a	n/a	HOOK	5	9	[0, 0, 0]	n/a	FR1	5	R1299T
1123.174	1.635	1124582	WORD	n/a	wordpools/wordpool_EN.txt	DOCK	6	9	[0, 0, 0]	n/a	FR1	5	R1299T
1124.809	0.81	1126217	WORD_OFF	n/a	n/a	DOCK	6	9	[0, 0, 0]	n/a	FR1	5	R1299T
1125.619	1.624	1127027	WORD	n/a	wordpools/wordpool_EN.txt	BEACH	7	9	[0, 0, 0]	n/a	FR1	5	R1299T
1127.243	0.955	1128651	WORD_OFF	n/a	n/a	BEACH	7	9	[0, 0, 0]	n/a	FR1	5	R1299T
1128.198	1.629	1129606	WORD	n/a	wordpools/wordpool_EN.txt	EAR	8	9	[0, 0, 0]	n/a	FR1	5	R1299T
1129.827	1.049	1131235	WORD_OFF	n/a	n/a	EAR	8	9	[0, 0, 0]	n/a	FR1	5	R1299T
1130.876	1.634	1132284	WORD	n/a	wordpools/wordpool_EN.txt	RICE	9	9	[0, 0, 0]	n/a	FR1	5	R1299T
1132.51	1.098	1133918	WORD_OFF	n/a	n/a	RICE	9	9	[0, 0, 0]	n/a	FR1	5	R1299T
1133.608	1.636	1135016	WORD	n/a	wordpools/wordpool_EN.txt	BAND	10	9	[0, 0, 0]	n/a	FR1	5	R1299T
1135.244	0.763	1136652	WORD_OFF	n/a	n/a	BAND	10	9	[0, 0, 0]	n/a	FR1	5	R1299T
1136.007	1.622	1137414	WORD	n/a	wordpools/wordpool_EN.txt	FOX	11	9	[0, 0, 0]	n/a	FR1	5	R1299T
1137.629	0.76	1139036	WORD_OFF	n/a	n/a	FOX	11	9	[0, 0, 0]	n/a	FR1	5	R1299T
1138.389	1.623	1139796	WORD	n/a	wordpools/wordpool_EN.txt	CHIEF	12	9	[0, 0, 0]	n/a	FR1	5	R1299T
1140.012	0.0	1141419	WORD_OFF	n/a	n/a	CHIEF	12	9	[0, 0, 0]	n/a	FR1	5	R1299T
1140.012	0.0	1141419	ENCODING_END	n/a	n/a	n/a	-999	9	[0, 0, 0]	n/a	FR1	5	R1299T
1140.012	0.001	1141419	DISTRACT_START	n/a	n/a	n/a	-999	9	[0, 0, 0]	n/a	FR1	5	R1299T
1140.013	0.015	1141420	START	n/a	n/a	n/a	-999	9	[-999, -999, -999]	n/a	FR1	5	R1299T
1140.028	4.801	1141435	PROB	4.801	n/a	n/a	-999	9	[3, 5, 1]	9	FR1	5	R1299T
1144.829	4.234	1146236	PROB	4.234	n/a	n/a	-999	9	[8, 3, 6]	17	FR1	5	R1299T
1149.063	4.301	1150470	PROB	4.301	n/a	n/a	-999	9	[3, 7, 6]	17	FR1	5	R1299T
1153.364	5.968	1154771	PROB	5.968	n/a	n/a	-999	9	[3, 2, 2]	7	FR1	5	R1299T
1159.332	5.0	1160738	PROB	5.0	n/a	n/a	-999	9	[1, 8, 7]	16	FR1	5	R1299T
1164.332	0.018	1165738	STOP	n/a	n/a	n/a	-999	9	[-999, -999, -999]	n/a	FR1	5	R1299T
1164.35	0.583	1165756	DISTRACT_END	n/a	n/a	n/a	-999	9	[0, 0, 0]	n/a	FR1	5	R1299T
1164.933	1.65	1166339	RETRIEVAL_ORIENT_START	n/a	n/a	n/a	-999	9	[0, 0, 0]	n/a	FR1	5	R1299T
1166.583	0.001	1167989	RETRIEVAL_ORIENT_END	n/a	n/a	n/a	-999	9	[0, 0, 0]	n/a	FR1	5	R1299T
1166.584	4.193	1167990	REC_START	n/a	n/a	n/a	-999	9	[0, 0, 0]	n/a	FR1	5	R1299T
1170.777	1.0	1172183	REC_WORD	1.0	n/a	FOX	11	9	[0, 0, 0]	n/a	FR1	5	R1299T
1171.777	7.187	1173183	REC_WORD_VV	7.187	n/a	<>	-999	9	[0, 0, 0]	n/a	FR1	5	R1299T
1178.964	5.384	1180370	REC_WORD	5.384	n/a	SQUARE	4	9	[0, 0, 0]	n/a	FR1	5	R1299T
1184.348	12.247	1185753	REC_WORD	12.247	n/a	HOOK	5	9	[0, 0, 0]	n/a	FR1	5	R1299T
1196.595	0.0	1198000	REC_END	n/a	n/a	n/a	-999	9	[0, 0, 0]	n/a	FR1	5	R1299T
1196.595	0.016	1198000	TRIAL_END	n/a	n/a	n/a	-999	9	[0, 0, 0]	n/a	FR1	5	R1299T
1196.611	0.0	1198016	TRIAL_START	n/a	n/a	n/a	-999	10	[0, 0, 0]	n/a	FR1	5	R1299T
1196.611	0.0	1198016	TRIAL	n/a	n/a	n/a	-999	10	[0, 0, 0]	n/a	FR1	5	R1299T
1196.611	13.197	1198016	WAITING_START	n/a	n/a	n/a	-999	10	[0, 0, 0]	n/a	FR1	5	R1299T
1209.808	0.0	1211212	COUNTDOWN_START	n/a	n/a	n/a	-999	10	[0, 0, 0]	n/a	FR1	5	R1299T
1209.808	10.429	1211212	WAITING_END	n/a	n/a	n/a	-999	10	[0, 0, 0]	n/a	FR1	5	R1299T
1220.237	0.001	1221641	COUNTDOWN_END	n/a	n/a	n/a	-999	10	[0, 0, 0]	n/a	FR1	5	R1299T
1220.238	1.172	1221642	ORIENT_START	n/a	n/a	n/a	-999	10	[0, 0, 0]	n/a	FR1	5	R1299T
1221.41	0.0	1222814	ORIENT_END	n/a	n/a	n/a	-999	10	[0, 0, 0]	n/a	FR1	5	R1299T
1221.41	0.819	1222814	ENCODING_START	n/a	n/a	n/a	-999	10	[0, 0, 0]	n/a	FR1	5	R1299T
1222.229	1.631	1223633	WORD	n/a	wordpools/wordpool_EN.txt	SPEAR	1	10	[0, 0, 0]	n/a	FR1	5	R1299T
1223.86	0.977	1225264	WORD_OFF	n/a	n/a	SPEAR	1	10	[0, 0, 0]	n/a	FR1	5	R1299T
1224.837	1.624	1226241	WORD	n/a	wordpools/wordpool_EN.txt	MAIL	2	10	[0, 0, 0]	n/a	FR1	5	R1299T
1226.461	0.904	1227864	WORD_OFF	n/a	n/a	MAIL	2	10	[0, 0, 0]	n/a	FR1	5	R1299T
1227.365	1.63	1228768	WORD	n/a	wordpools/wordpool_EN.txt	CORN	3	10	[0, 0, 0]	n/a	FR1	5	R1299T
1228.995	0.763	1230398	WORD_OFF	n/a	n/a	CORN	3	10	[0, 0, 0]	n/a	FR1	5	R1299T
1229.758	1.637	1231161	WORD	n/a	wordpools/wordpool_EN.txt	FILM	4	10	[0, 0, 0]	n/a	FR1	5	R1299T
1231.395	0.85	1232798	WORD_OFF	n/a	n/a	FILM	4	10	[0, 0, 0]	n/a	FR1	5	R1299T
1232.245	1.634	1233648	WORD	n/a	wordpools/wordpool_EN.txt	KEY	5	10	[0, 0, 0]	n/a	FR1	5	R1299T
1233.879	0.752	1235282	WORD_OFF	n/a	n/a	KEY	5	10	[0, 0, 0]	n/a	FR1	5	R1299T
1234.631	1.632	1236034	WORD	n/a	wordpools/wordpool_EN.txt	PHONE	6	10	[0, 0, 0]	n/a	FR1	5	R1299T
1236.263	1.079	1237666	WORD_OFF	n/a	n/a	PHONE	6	10	[0, 0, 0]	n/a	FR1	5	R1299T
1237.342	1.638	1238745	WORD	n/a	wordpools/wordpool_EN.txt	MOOSE	7	10	[0, 0, 0]	n/a	FR1	5	R1299T
1238.98	0.808	1240383	WORD_OFF	n/a	n/a	MOOSE	7	10	[0, 0, 0]	n/a	FR1	5	R1299T
1239.788	1.626	1241191	WORD	n/a	wordpools/wordpool_EN.txt	MULE	8	10	[0, 0, 0]	n/a	FR1	5	R1299T
1241.414	0.794	1242817	WORD_OFF	n/a	n/a	MULE	8	10	[0, 0, 0]	n/a	FR1	5	R1299T
1242.208	1.623	1243611	WORD	n/a	wordpools/wordpool_EN.txt	STAIR	9	10	[0, 0, 0]	n/a	FR1	5	R1299T
1243.831	1.036	1245234	WORD_OFF	n/a	n/a	STAIR	9	10	[0, 0, 0]	n/a	FR1	5	R1299T
1244.867	1.631	1246270	WORD	n/a	wordpools/wordpool_EN.txt	TIE	10	10	[0, 0, 0]	n/a	FR1	5	R1299T
1246.498	1.073	1247901	WORD_OFF	n/a	n/a	TIE	10	10	[0, 0, 0]	n/a	FR1	5	R1299T
1247.571	1.627	1248974	WORD	n/a	wordpools/wordpool_EN.txt	RIB	11	10	[0, 0, 0]	n/a	FR1	5	R1299T
1249.198	1.063	1250600	WORD_OFF	n/a	n/a	RIB	11	10	[0, 0, 0]	n/a	FR1	5	R1299T
1250.261	1.621	1251663	WORD	n/a	wordpools/wordpool_EN.txt	HILL	12	10	[0, 0, 0]	n/a	FR1	5	R1299T
1251.882	0.001	1253284	WORD_OFF	n/a	n/a	HILL	12	10	[0, 0, 0]	n/a	FR1	5	R1299T
1251.883	0.0	1253285	ENCODING_END	n/a	n/a	n/a	-999	10	[0, 0, 0]	n/a	FR1	5	R1299T
1251.883	0.0	1253285	DISTRACT_START	n/a	n/a	n/a	-999	10	[0, 0, 0]	n/a	FR1	5	R1299T
1251.883	0.016	1253285	START	n/a	n/a	n/a	-999	10	[-999, -999, -999]	n/a	FR1	5	R1299T
1251.899	4.284	1253301	PROB	4.284	n/a	n/a	-999	10	[6, 1, 5]	12	FR1	5	R1299T
1256.183	3.534	1257585	PROB	3.534	n/a	n/a	-999	10	[3, 5, 1]	9	FR1	5	R1299T
1259.717	5.867	1261119	PROB	5.867	n/a	n/a	-999	10	[4, 5, 9]	18	FR1	5	R1299T
1265.584	5.218	1266986	PROB	5.218	n/a	n/a	-999	10	[5, 2, 6]	13	FR1	5	R1299T
1270.802	2.639	1272203	PROB	2.639	n/a	n/a	-999	10	[8, 2, 5]	15	FR1	5	R1299T
1273.441	0.012	1274842	STOP	n/a	n/a	n/a	-999	10	[-999, -999, -999]	n/a	FR1	5	R1299T
1273.453	0.698	1274854	DISTRACT_END	n/a	n/a	n/a	-999	10	[0, 0, 0]	n/a	FR1	5	R1299T
1274.151	1.652	1275552	RETRIEVAL_ORIENT_START	n/a	n/a	n/a	-999	10	[0, 0, 0]	n/a	FR1	5	R1299T
1275.803	0.0	1277204	RETRIEVAL_ORIENT_END	n/a	n/a	n/a	-999	10	[0, 0, 0]	n/a	FR1	5	R1299T
1275.803	6.323	1277204	REC_START	n/a	n/a	n/a	-999	10	[0, 0, 0]	n/a	FR1	5	R1299T
1282.126	23.69	1283527	REC_WORD	23.69	n/a	RIB	11	10	[0, 0, 0]	n/a	FR1	5	R1299T
1305.816	0.0	1307216	TRIAL_END	n/a	n/a	n/a	-999	10	[0, 0, 0]	n/a	FR1	5	R1299T
1305.816	0.015	1307216	REC_END	n/a	n/a	n/a	-999	10	[0, 0, 0]	n/a	FR1	5	R1299T
1305.831	0.0	1307231	TRIAL_START	n/a	n/a	n/a	-999	11	[0, 0, 0]	n/a	FR1	5	R1299T
1305.831	0.0	1307231	TRIAL	n/a	n/a	n/a	-999	11	[0, 0, 0]	n/a	FR1	5	R1299T
1305.831	4.095	1307231	WAITING_START	n/a	n/a	n/a	-999	11	[0, 0, 0]	n/a	FR1	5	R1299T
1309.926	0.0	1311326	WAITING_END	n/a	n/a	n/a	-999	11	[0, 0, 0]	n/a	FR1	5	R1299T
1309.926	10.429	1311326	COUNTDOWN_START	n/a	n/a	n/a	-999	11	[0, 0, 0]	n/a	FR1	5	R1299T
1320.355	0.001	1321754	COUNTDOWN_END	n/a	n/a	n/a	-999	11	[0, 0, 0]	n/a	FR1	5	R1299T
1320.356	1.122	1321755	ORIENT_START	n/a	n/a	n/a	-999	11	[0, 0, 0]	n/a	FR1	5	R1299T
1321.478	0.0	1322877	ENCODING_START	n/a	n/a	n/a	-999	11	[0, 0, 0]	n/a	FR1	5	R1299T
1321.478	0.883	1322877	ORIENT_END	n/a	n/a	n/a	-999	11	[0, 0, 0]	n/a	FR1	5	R1299T
1322.361	1.634	1323760	WORD	n/a	wordpools/wordpool_EN.txt	WAND	1	11	[0, 0, 0]	n/a	FR1	5	R1299T
1323.995	0.994	1325394	WORD_OFF	n/a	n/a	WAND	1	11	[0, 0, 0]	n/a	FR1	5	R1299T
1324.989	1.623	1326388	WORD	n/a	wordpools/wordpool_EN.txt	ROCK	2	11	[0, 0, 0]	n/a	FR1	5	R1299T
1326.612	0.921	1328011	WORD_OFF	n/a	n/a	ROCK	2	11	[0, 0, 0]	n/a	FR1	5	R1299T
1327.533	1.63	1328932	WORD	n/a	wordpools/wordpool_EN.txt	LAMB	3	11	[0, 0, 0]	n/a	FR1	5	R1299T
1329.163	1.087	1330562	WORD_OFF	n/a	n/a	LAMB	3	11	[0, 0, 0]	n/a	FR1	5	R1299T
1330.25	1.63	1331649	WORD	n/a	wordpools/wordpool_EN.txt	PIPE	4	11	[0, 0, 0]	n/a	FR1	5	R1299T
1331.88	0.82	1333279	WORD_OFF	n/a	n/a	PIPE	4	11	[0, 0, 0]	n/a	FR1	5	R1299T
1332.7	1.63	1334099	WORD	n/a	wordpools/wordpool_EN.txt	LAWN	5	11	[0, 0, 0]	n/a	FR1	5	R1299T
1334.33	0.809	1335729	WORD_OFF	n/a	n/a	LAWN	5	11	[0, 0, 0]	n/a	FR1	5	R1299T
1335.139	1.625	1336538	WORD	n/a	wordpools/wordpool_EN.txt	POND	6	11	[0, 0, 0]	n/a	FR1	5	R1299T
1336.764	0.841	1338163	WORD_OFF	n/a	n/a	POND	6	11	[0, 0, 0]	n/a	FR1	5	R1299T
1337.605	1.626	1339004	WORD	n/a	wordpools/wordpool_EN.txt	MILK	7	11	[0, 0, 0]	n/a	FR1	5	R1299T
1339.231	0.988	1340629	WORD_OFF	n/a	n/a	MILK	7	11	[0, 0, 0]	n/a	FR1	5	R1299T
1340.219	1.629	1341617	WORD	n/a	wordpools/wordpool_EN.txt	DART	8	11	[0, 0, 0]	n/a	FR1	5	R1299T
1341.848	0.933	1343246	WORD_OFF	n/a	n/a	DART	8	11	[0, 0, 0]	n/a	FR1	5	R1299T
1342.781	1.635	1344179	WORD	n/a	wordpools/wordpool_EN.txt	RAT	9	11	[0, 0, 0]	n/a	FR1	5	R1299T
1344.416	0.76	1345814	WORD_OFF	n/a	n/a	RAT	9	11	[0, 0, 0]	n/a	FR1	5	R1299T
1345.176	1.623	1346574	WORD	n/a	wordpools/wordpool_EN.txt	BAT	10	11	[0, 0, 0]	n/a	FR1	5	R1299T
1346.799	1.067	1348197	WORD_OFF	n/a	n/a	BAT	10	11	[0, 0, 0]	n/a	FR1	5	R1299T
1347.866	1.634	1349264	WORD	n/a	wordpools/wordpool_EN.txt	ROSE	11	11	[0, 0, 0]	n/a	FR1	5	R1299T
1349.5	0.837	1350898	WORD_OFF	n/a	n/a	ROSE	11	11	[0, 0, 0]	n/a	FR1	5	R1299T
1350.337	1.63	1351735	WORD	n/a	wordpools/wordpool_EN.txt	BOX	12	11	[0, 0, 0]	n/a	FR1	5	R1299T
1351.967	0.001	1353365	WORD_OFF	n/a	n/a	BOX	12	11	[0, 0, 0]	n/a	FR1	5	R1299T
1351.968	0.0	1353366	DISTRACT_START	n/a	n/a	n/a	-999	11	[0, 0, 0]	n/a	FR1	5	R1299T
1351.968	0.0	1353366	ENCODING_END	n/a	n/a	n/a	-999	11	[0, 0, 0]	n/a	FR1	5	R1299T
1351.968	0.015	1353366	START	n/a	n/a	n/a	-999	11	[-999, -999, -999]	n/a	FR1	5	R1299T
1351.983	5.801	1353381	PROB	5.801	n/a	n/a	-999	11	[8, 1, 3]	12	FR1	5	R1299T
1357.784	4.651	1359182	PROB	4.651	n/a	n/a	-999	11	[6, 7, 5]	18	FR1	5	R1299T
1362.435	4.818	1363832	PROB	4.818	n/a	n/a	-999	11	[1, 6, 1]	8	FR1	5	R1299T
1367.253	3.734	1368650	PROB	3.734	n/a	n/a	-999	11	[4, 5, 2]	11	FR1	5	R1299T
1370.987	3.525	1372384	PROB	3.525	n/a	n/a	-999	11	[9, 3, 5]	17	FR1	5	R1299T
1374.512	0.009	1375909	STOP	n/a	n/a	n/a	-999	11	[-999, -999, -999]	n/a	FR1	5	R1299T
1374.521	0.584	1375918	DISTRACT_END	n/a	n/a	n/a	-999	11	[0, 0, 0]	n/a	FR1	5	R1299T
1375.105	1.534	1376502	RETRIEVAL_ORIENT_START	n/a	n/a	n/a	-999	11	[0, 0, 0]	n/a	FR1	5	R1299T
1376.639	0.0	1378036	RETRIEVAL_ORIENT_END	n/a	n/a	n/a	-999	11	[0, 0, 0]	n/a	FR1	5	R1299T
1376.639	4.372	1378036	REC_START	n/a	n/a	n/a	-999	11	[0, 0, 0]	n/a	FR1	5	R1299T
1381.011	11.951	1382408	REC_WORD	11.951	n/a	POND	6	11	[0, 0, 0]	n/a	FR1	5	R1299T
1392.962	0.142	1394358	REC_WORD_VV	0.142	n/a	<>	-999	11	[0, 0, 0]	n/a	FR1	5	R1299T
1393.104	0.391	1394500	REC_WORD	0.391	n/a	RAT	9	11	[0, 0, 0]	n/a	FR1	5	R1299T
1393.495	13.157	1394891	REC_WORD_VV	13.157	n/a	<>	-999	11	[0, 0, 0]	n/a	FR1	5	R1299T
1406.652	0.001	1408047	REC_END	n/a	n/a	n/a	-999	11	[0, 0, 0]	n/a	FR1	5	R1299T
1406.653	0.014	1408048	TRIAL_END	n/a	n/a	n/a	-999	11	[0, 0, 0]	n/a	FR1	5	R1299T
1406.667	0.001	1408062	TRIAL_START	n/a	n/a	n/a	-999	12	[0, 0, 0]	n/a	FR1	5	R1299T
1406.668	0.0	1408063	TRIAL	n/a	n/a	n/a	-999	12	[0, 0, 0]	n/a	FR1	5	R1299T
1406.668	1.859	1408063	WAITING_START	n/a	n/a	n/a	-999	12	[0, 0, 0]	n/a	FR1	5	R1299T
1408.527	0.001	1409922	WAITING_END	n/a	n/a	n/a	-999	12	[0, 0, 0]	n/a	FR1	5	R1299T
1408.528	10.429	1409923	COUNTDOWN_START	n/a	n/a	n/a	-999	12	[0, 0, 0]	n/a	FR1	5	R1299T
1418.957	0.0	1420352	COUNTDOWN_END	n/a	n/a	n/a	-999	12	[0, 0, 0]	n/a	FR1	5	R1299T
1418.957	1.056	1420352	ORIENT_START	n/a	n/a	n/a	-999	12	[0, 0, 0]	n/a	FR1	5	R1299T
1420.013	0.0	1421408	ENCODING_START	n/a	n/a	n/a	-999	12	[0, 0, 0]	n/a	FR1	5	R1299T
1420.013	0.979	1421408	ORIENT_END	n/a	n/a	n/a	-999	12	[0, 0, 0]	n/a	FR1	5	R1299T
1420.992	1.621	1422387	WORD	n/a	wordpools/wordpool_EN.txt	FISH	1	12	[0, 0, 0]	n/a	FR1	5	R1299T
1422.613	0.901	1424008	WORD_OFF	n/a	n/a	FISH	1	12	[0, 0, 0]	n/a	FR1	5	R1299T
1423.514	1.633	1424909	WORD	n/a	wordpools/wordpool_EN.txt	LAMP	2	12	[0, 0, 0]	n/a	FR1	5	R1299T
1425.147	1.098	1426542	WORD_OFF	n/a	n/a	LAMP	2	12	[0, 0, 0]	n/a	FR1	5	R1299T
1426.245	1.636	1427640	WORD	n/a	wordpools/wordpool_EN.txt	ARM	3	12	[0, 0, 0]	n/a	FR1	5	R1299T
1427.881	0.779	1429276	WORD_OFF	n/a	n/a	ARM	3	12	[0, 0, 0]	n/a	FR1	5	R1299T
1428.66	1.621	1430054	WORD	n/a	wordpools/wordpool_EN.txt	RAIN	4	12	[0, 0, 0]	n/a	FR1	5	R1299T
1430.281	1.106	1431675	WORD_OFF	n/a	n/a	RAIN	4	12	[0, 0, 0]	n/a	FR1	5	R1299T
1431.387	1.628	1432781	WORD	n/a	wordpools/wordpool_EN.txt	FORT	5	12	[0, 0, 0]	n/a	FR1	5	R1299T
1433.015	0.773	1434409	WORD_OFF	n/a	n/a	FORT	5	12	[0, 0, 0]	n/a	FR1	5	R1299T
1433.788	1.627	1435182	WORD	n/a	wordpools/wordpool_EN.txt	WAVE	6	12	[0, 0, 0]	n/a	FR1	5	R1299T
1435.415	0.795	1436809	WORD_OFF	n/a	n/a	WAVE	6	12	[0, 0, 0]	n/a	FR1	5	R1299T
1436.21	1.623	1437604	WORD	n/a	wordpools/wordpool_EN.txt	GLASS	7	12	[0, 0, 0]	n/a	FR1	5	R1299T
1437.833	0.968	1439227	WORD_OFF	n/a	n/a	GLASS	7	12	[0, 0, 0]	n/a	FR1	5	R1299T
1438.801	1.632	1440195	WORD	n/a	wordpools/wordpool_EN.txt	LAND	8	12	[0, 0, 0]	n/a	FR1	5	R1299T
1440.433	1.049	1441827	WORD_OFF	n/a	n/a	LAND	8	12	[0, 0, 0]	n/a	FR1	5	R1299T
1441.482	1.635	1442876	WORD	n/a	wordpools/wordpool_EN.txt	TRUCK	9	12	[0, 0, 0]	n/a	FR1	5	R1299T
1443.117	1.068	1444511	WORD_OFF	n/a	n/a	TRUCK	9	12	[0, 0, 0]	n/a	FR1	5	R1299T
1444.185	1.632	1445579	WORD	n/a	wordpools/wordpool_EN.txt	COUCH	10	12	[0, 0, 0]	n/a	FR1	5	R1299T
1445.817	1.077	1447211	WORD_OFF	n/a	n/a	COUCH	10	12	[0, 0, 0]	n/a	FR1	5	R1299T
1446.894	1.624	1448288	WORD	n/a	wordpools/wordpool_EN.txt	BEAN	11	12	[0, 0, 0]	n/a	FR1	5	R1299T
1448.518	0.928	1449912	WORD_OFF	n/a	n/a	BEAN	11	12	[0, 0, 0]	n/a	FR1	5	R1299T
1449.446	1.622	1450840	WORD	n/a	wordpools/wordpool_EN.txt	PLANT	12	12	[0, 0, 0]	n/a	FR1	5	R1299T
1451.068	0.001	1452461	WORD_OFF	n/a	n/a	PLANT	12	12	[0, 0, 0]	n/a	FR1	5	R1299T
1451.069	0.0	1452462	ENCODING_END	n/a	n/a	n/a	-999	12	[0, 0, 0]	n/a	FR1	5	R1299T
1451.069	0.0	1452462	DISTRACT_START	n/a	n/a	n/a	-999	12	[0, 0, 0]	n/a	FR1	5	R1299T
1451.069	0.016	1452462	START	n/a	n/a	n/a	-999	12	[-999, -999, -999]	n/a	FR1	5	R1299T
1451.085	8.318	1452478	PROB	8.318	n/a	n/a	-999	12	[6, 3, 1]	10	FR1	5	R1299T
1459.403	5.134	1460796	PROB	5.134	n/a	n/a	-999	12	[2, 5, 2]	9	FR1	5	R1299T
1464.537	7.028	1465930	PROB	7.028	n/a	n/a	-999	12	[9, 2, 4]	15	FR1	5	R1299T
1471.565	0.007	1472958	STOP	n/a	n/a	n/a	-999	12	[-999, -999, -999]	n/a	FR1	5	R1299T
1471.572	0.602	1472965	DISTRACT_END	n/a	n/a	n/a	-999	12	[0, 0, 0]	n/a	FR1	5	R1299T
1472.174	1.598	1473567	RETRIEVAL_ORIENT_START	n/a	n/a	n/a	-999	12	[0, 0, 0]	n/a	FR1	5	R1299T
1473.772	0.001	1475164	RETRIEVAL_ORIENT_END	n/a	n/a	n/a	-999	12	[0, 0, 0]	n/a	FR1	5	R1299T
1473.773	1.854	1475165	REC_START	n/a	n/a	n/a	-999	12	[0, 0, 0]	n/a	FR1	5	R1299T
1475.627	3.726	1477019	REC_WORD	3.726	n/a	ARM	3	12	[0, 0, 0]	n/a	FR1	5	R1299T
1479.353	3.688	1480745	REC_WORD	3.688	n/a	POND	-999	12	[0, 0, 0]	n/a	FR1	5	R1299T
1483.041	8.274	1484433	REC_WORD	8.274	n/a	GLASS	7	12	[0, 0, 0]	n/a	FR1	5	R1299T
1491.315	12.469	1492707	REC_WORD	12.469	n/a	ARM	3	12	[0, 0, 0]	n/a	FR1	5	R1299T
1503.784	0.001	1505175	REC_END	n/a	n/a	n/a	-999	12	[0, 0, 0]	n/a	FR1	5	R1299T
1503.785	0.014	1505176	TRIAL_END	n/a	n/a	n/a	-999	12	[0, 0, 0]	n/a	FR1	5	R1299T
1503.799	0.0	1505190	WAITING_START	n/a	n/a	n/a	-999	13	[0, 0, 0]	n/a	FR1	5	R1299T
1503.799	0.0	1505190	TRIAL	n/a	n/a	n/a	-999	13	[0, 0, 0]	n/a	FR1	5	R1299T
1503.799	5.53	1505190	TRIAL_START	n/a	n/a	n/a	-999	13	[0, 0, 0]	n/a	FR1	5	R1299T
1509.329	0.0	1510720	WAITING_END	n/a	n/a	n/a	-999	13	[0, 0, 0]	n/a	FR1	5	R1299T
1509.329	10.428	1510720	COUNTDOWN_START	n/a	n/a	n/a	-999	13	[0, 0, 0]	n/a	FR1	5	R1299T
1519.757	0.001	1521147	COUNTDOWN_END	n/a	n/a	n/a	-999	13	[0, 0, 0]	n/a	FR1	5	R1299T
1519.758	1.14	1521148	ORIENT_START	n/a	n/a	n/a	-999	13	[0, 0, 0]	n/a	FR1	5	R1299T
1520.898	0.0	1522288	ORIENT_END	n/a	n/a	n/a	-999	13	[0, 0, 0]	n/a	FR1	5	R1299T
1520.898	1.043	1522288	ENCODING_START	n/a	n/a	n/a	-999	13	[0, 0, 0]	n/a	FR1	5	R1299T
1521.941	1.624	1523331	WORD	n/a	wordpools/wordpool_EN.txt	CANE	1	13	[0, 0, 0]	n/a	FR1	5	R1299T
1523.565	1.135	1524955	WORD_OFF	n/a	n/a	CANE	1	13	[0, 0, 0]	n/a	FR1	5	R1299T
1524.7	1.632	1526090	WORD	n/a	wordpools/wordpool_EN.txt	STEM	2	13	[0, 0, 0]	n/a	FR1	5	R1299T
1526.332	1.003	1527722	WORD_OFF	n/a	n/a	STEM	2	13	[0, 0, 0]	n/a	FR1	5	R1299T
1527.335	1.631	1528725	WORD	n/a	wordpools/wordpool_EN.txt	SOCK	3	13	[0, 0, 0]	n/a	FR1	5	R1299T
1528.966	0.856	1530356	WORD_OFF	n/a	n/a	SOCK	3	13	[0, 0, 0]	n/a	FR1	5	R1299T
1529.822	1.628	1531212	WORD	n/a	wordpools/wordpool_EN.txt	HOOF	4	13	[0, 0, 0]	n/a	FR1	5	R1299T
1531.45	1.098	1532840	WORD_OFF	n/a	n/a	HOOF	4	13	[0, 0, 0]	n/a	FR1	5	R1299T
1532.548	1.635	1533938	WORD	n/a	wordpools/wordpool_EN.txt	DESK	5	13	[0, 0, 0]	n/a	FR1	5	R1299T
1534.183	1.055	1535573	WORD_OFF	n/a	n/a	DESK	5	13	[0, 0, 0]	n/a	FR1	5	R1299T
1535.238	1.629	1536628	WORD	n/a	wordpools/wordpool_EN.txt	TANK	6	13	[0, 0, 0]	n/a	FR1	5	R1299T
1536.867	1.127	1538257	WORD_OFF	n/a	n/a	TANK	6	13	[0, 0, 0]	n/a	FR1	5	R1299T
1537.994	1.624	1539384	WORD	n/a	wordpools/wordpool_EN.txt	CASH	7	13	[0, 0, 0]	n/a	FR1	5	R1299T
1539.618	0.968	1541008	WORD_OFF	n/a	n/a	CASH	7	13	[0, 0, 0]	n/a	FR1	5	R1299T
1540.586	1.632	1541975	WORD	n/a	wordpools/wordpool_EN.txt	WING	8	13	[0, 0, 0]	n/a	FR1	5	R1299T
1542.218	1.042	1543607	WORD_OFF	n/a	n/a	WING	8	13	[0, 0, 0]	n/a	FR1	5	R1299T
1543.26	1.625	1544649	WORD	n/a	wordpools/wordpool_EN.txt	DRESS	9	13	[0, 0, 0]	n/a	FR1	5	R1299T
1544.885	0.881	1546274	WORD_OFF	n/a	n/a	DRESS	9	13	[0, 0, 0]	n/a	FR1	5	R1299T
1545.766	1.637	1547155	WORD	n/a	wordpools/wordpool_EN.txt	SLIME	10	13	[0, 0, 0]	n/a	FR1	5	R1299T
1547.403	1.089	1548792	WORD_OFF	n/a	n/a	SLIME	10	13	[0, 0, 0]	n/a	FR1	5	R1299T
1548.492	1.628	1549881	WORD	n/a	wordpools/wordpool_EN.txt	VASE	11	13	[0, 0, 0]	n/a	FR1	5	R1299T
1550.12	1.031	1551509	WORD_OFF	n/a	n/a	VASE	11	13	[0, 0, 0]	n/a	FR1	5	R1299T
1551.151	1.636	1552540	WORD	n/a	wordpools/wordpool_EN.txt	HEN	12	13	[0, 0, 0]	n/a	FR1	5	R1299T
1552.787	0.0	1554176	WORD_OFF	n/a	n/a	HEN	12	13	[0, 0, 0]	n/a	FR1	5	R1299T
1552.787	0.001	1554176	ENCODING_END	n/a	n/a	n/a	-999	13	[0, 0, 0]	n/a	FR1	5	R1299T
1552.788	0.0	1554177	DISTRACT_START	n/a	n/a	n/a	-999	13	[0, 0, 0]	n/a	FR1	5	R1299T
1552.788	0.015	1554177	START	n/a	n/a	n/a	-999	13	[-999, -999, -999]	n/a	FR1	5	R1299T
1552.803	4.401	1554192	PROB	4.401	n/a	n/a	-999	13	[2, 5, 7]	14	FR1	5	R1299T
1557.204	2.601	1558593	PROB	2.601	n/a	n/a	-999	13	[2, 5, 5]	12	FR1	5	R1299T
1559.805	3.95	1561194	PROB	3.95	n/a	n/a	-999	13	[4, 1, 2]	7	FR1	5	R1299T
1563.755	4.434	1565143	PROB	4.434	n/a	n/a	-999	13	[9, 4, 6]	19	FR1	5	R1299T
1568.189	4.8	1569577	PROB	4.8	n/a	n/a	-999	13	[9, 9, 3]	21	FR1	5	R1299T
1572.989	0.018	1574377	STOP	n/a	n/a	n/a	-999	13	[-999, -999, -999]	n/a	FR1	5	R1299T
1573.007	0.627	1574395	DISTRACT_END	n/a	n/a	n/a	-999	13	[0, 0, 0]	n/a	FR1	5	R1299T
1573.634	1.54	1575022	RETRIEVAL_ORIENT_START	n/a	n/a	n/a	-999	13	[0, 0, 0]	n/a	FR1	5	R1299T
1575.174	0.001	1576562	RETRIEVAL_ORIENT_END	n/a	n/a	n/a	-999	13	[0, 0, 0]	n/a	FR1	5	R1299T
1575.175	1.804	1576563	REC_START	n/a	n/a	n/a	-999	13	[0, 0, 0]	n/a	FR1	5	R1299T
1576.979	6.723	1578367	REC_WORD	6.723	n/a	DESK	5	13	[0, 0, 0]	n/a	FR1	5	R1299T
1583.702	0.123	1585090	REC_WORD_VV	0.123	n/a	<>	-999	13	[0, 0, 0]	n/a	FR1	5	R1299T
1583.825	3.085	1585213	REC_WORD	3.085	n/a	SLIME	10	13	[0, 0, 0]	n/a	FR1	5	R1299T
1586.91	3.926	1588297	REC_WORD	3.926	n/a	JAR	-999	13	[0, 0, 0]	n/a	FR1	5	R1299T
1590.836	9.281	1592223	REC_WORD	9.281	n/a	POND	-999	13	[0, 0, 0]	n/a	FR1	5	R1299T
1600.117	5.069	1601504	REC_WORD	5.069	n/a	SOCK	3	13	[0, 0, 0]	n/a	FR1	5	R1299T
1605.186	0.0	1606573	TRIAL_END	n/a	n/a	n/a	-999	13	[0, 0, 0]	n/a	FR1	5	R1299T
1605.186	0.014	1606573	REC_END	n/a	n/a	n/a	-999	13	[0, 0, 0]	n/a	FR1	5	R1299T
1605.2	0.0	1606587	TRIAL_START	n/a	n/a	n/a	-999	14	[0, 0, 0]	n/a	FR1	5	R1299T
1605.2	0.001	1606587	TRIAL	n/a	n/a	n/a	-999	14	[0, 0, 0]	n/a	FR1	5	R1299T
1605.201	2.046	1606588	WAITING_START	n/a	n/a	n/a	-999	14	[0, 0, 0]	n/a	FR1	5	R1299T
1607.247	0.0	1608634	WAITING_END	n/a	n/a	n/a	-999	14	[0, 0, 0]	n/a	FR1	5	R1299T
1607.247	10.428	1608634	COUNTDOWN_START	n/a	n/a	n/a	-999	14	[0, 0, 0]	n/a	FR1	5	R1299T
1617.675	0.001	1619061	COUNTDOWN_END	n/a	n/a	n/a	-999	14	[0, 0, 0]	n/a	FR1	5	R1299T
1617.676	1.139	1619062	ORIENT_START	n/a	n/a	n/a	-999	14	[0, 0, 0]	n/a	FR1	5	R1299T
1618.815	0.001	1620201	ORIENT_END	n/a	n/a	n/a	-999	14	[0, 0, 0]	n/a	FR1	5	R1299T
1618.816	0.837	1620202	ENCODING_START	n/a	n/a	n/a	-999	14	[0, 0, 0]	n/a	FR1	5	R1299T
1619.653	1.629	1621039	WORD	n/a	wordpools/wordpool_EN.txt	MOON	1	14	[0, 0, 0]	n/a	FR1	5	R1299T
1621.282	0.753	1622668	WORD_OFF	n/a	n/a	MOON	1	14	[0, 0, 0]	n/a	FR1	5	R1299T
1622.035	1.616	1623421	WORD	n/a	wordpools/wordpool_EN.txt	SHIELD	2	14	[0, 0, 0]	n/a	FR1	5	R1299T
1623.651	0.881	1625037	WORD_OFF	n/a	n/a	SHIELD	2	14	[0, 0, 0]	n/a	FR1	5	R1299T
1624.532	1.635	1625918	WORD	n/a	wordpools/wordpool_EN.txt	SHIRT	3	14	[0, 0, 0]	n/a	FR1	5	R1299T
1626.167	0.891	1627553	WORD_OFF	n/a	n/a	SHIRT	3	14	[0, 0, 0]	n/a	FR1	5	R1299T
1627.058	1.627	1628444	WORD	n/a	wordpools/wordpool_EN.txt	SLUSH	4	14	[0, 0, 0]	n/a	FR1	5	R1299T
1628.685	0.862	1630071	WORD_OFF	n/a	n/a	SLUSH	4	14	[0, 0, 0]	n/a	FR1	5	R1299T
1629.547	1.637	1630933	WORD	n/a	wordpools/wordpool_EN.txt	BADGE	5	14	[0, 0, 0]	n/a	FR1	5	R1299T
1631.184	1.147	1632569	WORD_OFF	n/a	n/a	BADGE	5	14	[0, 0, 0]	n/a	FR1	5	R1299T
1632.331	1.637	1633716	WORD	n/a	wordpools/wordpool_EN.txt	SLEEVE	6	14	[0, 0, 0]	n/a	FR1	5	R1299T
1633.968	1.064	1635353	WORD_OFF	n/a	n/a	SLEEVE	6	14	[0, 0, 0]	n/a	FR1	5	R1299T
1635.032	1.638	1636417	WORD	n/a	wordpools/wordpool_EN.txt	SUIT	7	14	[0, 0, 0]	n/a	FR1	5	R1299T
1636.67	1.078	1638055	WORD_OFF	n/a	n/a	SUIT	7	14	[0, 0, 0]	n/a	FR1	5	R1299T
1637.748	1.621	1639133	WORD	n/a	wordpools/wordpool_EN.txt	STEAK	8	14	[0, 0, 0]	n/a	FR1	5	R1299T
1639.369	0.764	1640754	WORD_OFF	n/a	n/a	STEAK	8	14	[0, 0, 0]	n/a	FR1	5	R1299T
1640.133	1.637	1641518	WORD	n/a	wordpools/wordpool_EN.txt	HOSE	9	14	[0, 0, 0]	n/a	FR1	5	R1299T
1641.77	1.101	1643155	WORD_OFF	n/a	n/a	HOSE	9	14	[0, 0, 0]	n/a	FR1	5	R1299T
1642.871	1.632	1644256	WORD	n/a	wordpools/wordpool_EN.txt	TRAIN	10	14	[0, 0, 0]	n/a	FR1	5	R1299T
1644.503	0.929	1645888	WORD_OFF	n/a	n/a	TRAIN	10	14	[0, 0, 0]	n/a	FR1	5	R1299T
1645.432	1.622	1646817	WORD	n/a	wordpools/wordpool_EN.txt	CART	11	14	[0, 0, 0]	n/a	FR1	5	R1299T
1647.054	0.83	1648439	WORD_OFF	n/a	n/a	CART	11	14	[0, 0, 0]	n/a	FR1	5	R1299T
1647.884	1.637	1649269	WORD	n/a	wordpools/wordpool_EN.txt	SKI	12	14	[0, 0, 0]	n/a	FR1	5	R1299T
1649.521	0.0	1650906	WORD_OFF	n/a	n/a	SKI	12	14	[0, 0, 0]	n/a	FR1	5	R1299T
1649.521	0.001	1650906	ENCODING_END	n/a	n/a	n/a	-999	14	[0, 0, 0]	n/a	FR1	5	R1299T
1649.522	0.0	1650907	DISTRACT_START	n/a	n/a	n/a	-999	14	[0, 0, 0]	n/a	FR1	5	R1299T
1649.522	0.016	1650907	START	n/a	n/a	n/a	-999	14	[-999, -999, -999]	n/a	FR1	5	R1299T
1649.538	4.484	1650923	PROB	4.484	n/a	n/a	-999	14	[7, 6, 1]	14	FR1	5	R1299T
1654.022	4.284	1655406	PROB	4.284	n/a	n/a	-999	14	[6, 1, 1]	8	FR1	5	R1299T
1658.306	4.934	1659690	PROB	4.934	n/a	n/a	-999	14	[6, 7, 5]	18	FR1	5	R1299T
1663.24	4.601	1664624	PROB	4.601	n/a	n/a	-999	14	[7, 6, 5]	18	FR1	5	R1299T
1667.841	3.71	1669225	PROB	3.71	n/a	n/a	-999	14	[1, 9, 9]	19	FR1	5	R1299T
1671.551	0.008	1672935	STOP	n/a	n/a	n/a	-999	14	[-999, -999, -999]	n/a	FR1	5	R1299T
1671.559	0.551	1672943	DISTRACT_END	n/a	n/a	n/a	-999	14	[0, 0, 0]	n/a	FR1	5	R1299T
1672.11	1.533	1673494	RETRIEVAL_ORIENT_START	n/a	n/a	n/a	-999	14	[0, 0, 0]	n/a	FR1	5	R1299T
1673.643	0.0	1675027	RETRIEVAL_ORIENT_END	n/a	n/a	n/a	-999	14	[0, 0, 0]	n/a	FR1	5	R1299T
1673.643	2.224	1675027	REC_START	n/a	n/a	n/a	-999	14	[0, 0, 0]	n/a	FR1	5	R1299T
1675.867	0.935	1677250	REC_WORD_VV	0.935	n/a	<>	-999	14	[0, 0, 0]	n/a	FR1	5	R1299T
1676.802	8.731	1678185	REC_WORD	8.731	n/a	SLEEVE	6	14	[0, 0, 0]	n/a	FR1	5	R1299T
1685.533	0.173	1686916	REC_WORD_VV	0.173	n/a	<>	-999	14	[0, 0, 0]	n/a	FR1	5	R1299T
1685.706	17.95	1687089	REC_WORD	17.95	n/a	SHIRT	3	14	[0, 0, 0]	n/a	FR1	5	R1299T
1703.656	0.001	1705038	REC_END	n/a	n/a	n/a	-999	14	[0, 0, 0]	n/a	FR1	5	R1299T
1703.657	0.014	1705039	TRIAL_END	n/a	n/a	n/a	-999	14	[0, 0, 0]	n/a	FR1	5	R1299T
1703.671	0.0	1705053	TRIAL_START	n/a	n/a	n/a	-999	15	[0, 0, 0]	n/a	FR1	5	R1299T
1703.671	0.0	1705053	TRIAL	n/a	n/a	n/a	-999	15	[0, 0, 0]	n/a	FR1	5	R1299T
1703.671	3.527	1705053	WAITING_START	n/a	n/a	n/a	-999	15	[0, 0, 0]	n/a	FR1	5	R1299T
1707.198	0.001	1708580	WAITING_END	n/a	n/a	n/a	-999	15	[0, 0, 0]	n/a	FR1	5	R1299T
1707.199	10.429	1708581	COUNTDOWN_START	n/a	n/a	n/a	-999	15	[0, 0, 0]	n/a	FR1	5	R1299T
1717.628	0.001	1719010	COUNTDOWN_END	n/a	n/a	n/a	-999	15	[0, 0, 0]	n/a	FR1	5	R1299T
1717.629	1.188	1719011	ORIENT_START	n/a	n/a	n/a	-999	15	[0, 0, 0]	n/a	FR1	5	R1299T
1718.817	0.0	1720199	ENCODING_START	n/a	n/a	n/a	-999	15	[0, 0, 0]	n/a	FR1	5	R1299T
1718.817	1.085	1720199	ORIENT_END	n/a	n/a	n/a	-999	15	[0, 0, 0]	n/a	FR1	5	R1299T
1719.902	1.632	1721284	WORD	n/a	wordpools/wordpool_EN.txt	LEG	1	15	[0, 0, 0]	n/a	FR1	5	R1299T
1721.534	0.756	1722915	WORD_OFF	n/a	n/a	LEG	1	15	[0, 0, 0]	n/a	FR1	5	R1299T
1722.29	1.628	1723671	WORD	n/a	wordpools/wordpool_EN.txt	BEE	2	15	[0, 0, 0]	n/a	FR1	5	R1299T
1723.918	0.891	1725299	WORD_OFF	n/a	n/a	BEE	2	15	[0, 0, 0]	n/a	FR1	5	R1299T
1724.809	1.626	1726190	WORD	n/a	wordpools/wordpool_EN.txt	VEST	3	15	[0, 0, 0]	n/a	FR1	5	R1299T
1726.435	0.818	1727816	WORD_OFF	n/a	n/a	VEST	3	15	[0, 0, 0]	n/a	FR1	5	R1299T
1727.253	1.632	1728634	WORD	n/a	wordpools/wordpool_EN.txt	PET	4	15	[0, 0, 0]	n/a	FR1	5	R1299T
1728.885	0.877	1730266	WORD_OFF	n/a	n/a	PET	4	15	[0, 0, 0]	n/a	FR1	5	R1299T
1729.762	1.624	1731143	WORD	n/a	wordpools/wordpool_EN.txt	CLIFF	5	15	[0, 0, 0]	n/a	FR1	5	R1299T
1731.386	1.062	1732767	WORD_OFF	n/a	n/a	CLIFF	5	15	[0, 0, 0]	n/a	FR1	5	R1299T
1732.448	1.622	1733829	WORD	n/a	wordpools/wordpool_EN.txt	MAT	6	15	[0, 0, 0]	n/a	FR1	5	R1299T
1734.07	0.91	1735451	WORD_OFF	n/a	n/a	MAT	6	15	[0, 0, 0]	n/a	FR1	5	R1299T
1734.98	1.624	1736361	WORD	n/a	wordpools/wordpool_EN.txt	PIE	7	15	[0, 0, 0]	n/a	FR1	5	R1299T
1736.604	1.1	1737985	WORD_OFF	n/a	n/a	PIE	7	15	[0, 0, 0]	n/a	FR1	5	R1299T
1737.704	1.633	1739085	WORD	n/a	wordpools/wordpool_EN.txt	SAIL	8	15	[0, 0, 0]	n/a	FR1	5	R1299T
1739.337	1.022	1740718	WORD_OFF	n/a	n/a	SAIL	8	15	[0, 0, 0]	n/a	FR1	5	R1299T
1740.359	1.629	1741740	WORD	n/a	wordpools/wordpool_EN.txt	JET	9	15	[0, 0, 0]	n/a	FR1	5	R1299T
1741.988	0.997	1743369	WORD_OFF	n/a	n/a	JET	9	15	[0, 0, 0]	n/a	FR1	5	R1299T
1742.985	1.637	1744365	WORD	n/a	wordpools/wordpool_EN.txt	BRIDGE	10	15	[0, 0, 0]	n/a	FR1	5	R1299T
1744.622	1.019	1746002	WORD_OFF	n/a	n/a	BRIDGE	10	15	[0, 0, 0]	n/a	FR1	5	R1299T
1745.641	1.631	1747021	WORD	n/a	wordpools/wordpool_EN.txt	BUSH	11	15	[0, 0, 0]	n/a	FR1	5	R1299T
1747.272	0.967	1748652	WORD_OFF	n/a	n/a	BUSH	11	15	[0, 0, 0]	n/a	FR1	5	R1299T
1748.239	1.634	1749619	WORD	n/a	wordpools/wordpool_EN.txt	DIME	12	15	[0, 0, 0]	n/a	FR1	5	R1299T
1749.873	0.0	1751253	WORD_OFF	n/a	n/a	DIME	12	15	[0, 0, 0]	n/a	FR1	5	R1299T
1749.873	0.0	1751253	ENCODING_END	n/a	n/a	n/a	-999	15	[0, 0, 0]	n/a	FR1	5	R1299T
1749.873	0.0	1751253	DISTRACT_START	n/a	n/a	n/a	-999	15	[0, 0, 0]	n/a	FR1	5	R1299T
1749.873	0.016	1751253	START	n/a	n/a	n/a	-999	15	[-999, -999, -999]	n/a	FR1	5	R1299T
1749.889	5.584	1751269	PROB	5.584	n/a	n/a	-999	15	[4, 7, 7]	18	FR1	5	R1299T
1755.473	4.635	1756853	PROB	4.635	n/a	n/a	-999	15	[6, 6, 1]	13	FR1	5	R1299T
1760.108	4.2	1761488	PROB	4.2	n/a	n/a	-999	15	[3, 9, 2]	14	FR1	5	R1299T
1764.308	4.001	1765688	PROB	4.001	n/a	n/a	-999	15	[7, 9, 6]	22	FR1	5	R1299T
1768.309	4.326	1769688	PROB	4.326	n/a	n/a	-999	15	[7, 5, 8]	20	FR1	5	R1299T
1772.635	0.009	1774014	STOP	n/a	n/a	n/a	-999	15	[-999, -999, -999]	n/a	FR1	5	R1299T
1772.644	0.533	1774023	DISTRACT_END	n/a	n/a	n/a	-999	15	[0, 0, 0]	n/a	FR1	5	R1299T
1773.177	1.667	1774556	RETRIEVAL_ORIENT_START	n/a	n/a	n/a	-999	15	[0, 0, 0]	n/a	FR1	5	R1299T
1774.844	0.0	1776223	RETRIEVAL_ORIENT_END	n/a	n/a	n/a	-999	15	[0, 0, 0]	n/a	FR1	5	R1299T
1774.844	2.17	1776223	REC_START	n/a	n/a	n/a	-999	15	[0, 0, 0]	n/a	FR1	5	R1299T
1777.014	6.258	1778393	REC_WORD	6.258	n/a	BRIDGE	10	15	[0, 0, 0]	n/a	FR1	5	R1299T
1783.272	5.219	1784651	REC_WORD	5.219	n/a	PET	4	15	[0, 0, 0]	n/a	FR1	5	R1299T
1788.491	16.368	1789869	REC_WORD	16.368	n/a	SKI	-999	15	[0, 0, 0]	n/a	FR1	5	R1299T
1804.859	0.0	1806237	TRIAL_END	n/a	n/a	n/a	-999	15	[0, 0, 0]	n/a	FR1	5	R1299T
1804.859	0.014	1806237	REC_END	n/a	n/a	n/a	-999	15	[0, 0, 0]	n/a	FR1	5	R1299T
1804.873	0.0	1806251	TRIAL	n/a	n/a	n/a	-999	16	[0, 0, 0]	n/a	FR1	5	R1299T
1804.873	0.0	1806251	WAITING_START	n/a	n/a	n/a	-999	16	[0, 0, 0]	n/a	FR1	5	R1299T
1804.873	1.893	1806251	TRIAL_START	n/a	n/a	n/a	-999	16	[0, 0, 0]	n/a	FR1	5	R1299T
1806.766	0.001	1808144	WAITING_END	n/a	n/a	n/a	-999	16	[0, 0, 0]	n/a	FR1	5	R1299T
1806.767	10.429	1808145	COUNTDOWN_START	n/a	n/a	n/a	-999	16	[0, 0, 0]	n/a	FR1	5	R1299T
1817.196	0.0	1818573	COUNTDOWN_END	n/a	n/a	n/a	-999	16	[0, 0, 0]	n/a	FR1	5	R1299T
1817.196	1.072	1818573	ORIENT_START	n/a	n/a	n/a	-999	16	[0, 0, 0]	n/a	FR1	5	R1299T
1818.268	0.0	1819645	ORIENT_END	n/a	n/a	n/a	-999	16	[0, 0, 0]	n/a	FR1	5	R1299T
1818.268	0.985	1819645	ENCODING_START	n/a	n/a	n/a	-999	16	[0, 0, 0]	n/a	FR1	5	R1299T
1819.253	1.632	1820630	WORD	n/a	wordpools/wordpool_EN.txt	SWAMP	1	16	[0, 0, 0]	n/a	FR1	5	R1299T
1820.885	1.119	1822262	WORD_OFF	n/a	n/a	SWAMP	1	16	[0, 0, 0]	n/a	FR1	5	R1299T
1822.004	1.633	1823381	WORD	n/a	wordpools/wordpool_EN.txt	THUMB	2	16	[0, 0, 0]	n/a	FR1	5	R1299T
1823.637	1.094	1825014	WORD_OFF	n/a	n/a	THUMB	2	16	[0, 0, 0]	n/a	FR1	5	R1299T
1824.731	1.639	1826108	WORD	n/a	wordpools/wordpool_EN.txt	HORN	3	16	[0, 0, 0]	n/a	FR1	5	R1299T
1826.37	0.898	1827747	WORD_OFF	n/a	n/a	HORN	3	16	[0, 0, 0]	n/a	FR1	5	R1299T
1827.268	1.636	1828645	WORD	n/a	wordpools/wordpool_EN.txt	FOAM	4	16	[0, 0, 0]	n/a	FR1	5	R1299T
1828.904	0.968	1830281	WORD_OFF	n/a	n/a	FOAM	4	16	[0, 0, 0]	n/a	FR1	5	R1299T
1829.872	1.632	1831249	WORD	n/a	wordpools/wordpool_EN.txt	DOLL	5	16	[0, 0, 0]	n/a	FR1	5	R1299T
1831.504	0.892	1832881	WORD_OFF	n/a	n/a	DOLL	5	16	[0, 0, 0]	n/a	FR1	5	R1299T
1832.396	1.625	1833773	WORD	n/a	wordpools/wordpool_EN.txt	SCHOOL	6	16	[0, 0, 0]	n/a	FR1	5	R1299T
1834.021	0.834	1835397	WORD_OFF	n/a	n/a	SCHOOL	6	16	[0, 0, 0]	n/a	FR1	5	R1299T
1834.855	1.633	1836231	WORD	n/a	wordpools/wordpool_EN.txt	SMOKE	7	16	[0, 0, 0]	n/a	FR1	5	R1299T
1836.488	1.002	1837864	WORD_OFF	n/a	n/a	SMOKE	7	16	[0, 0, 0]	n/a	FR1	5	R1299T
1837.49	1.632	1838866	WORD	n/a	wordpools/wordpool_EN.txt	ROOM	8	16	[0, 0, 0]	n/a	FR1	5	R1299T
1839.122	0.864	1840498	WORD_OFF	n/a	n/a	ROOM	8	16	[0, 0, 0]	n/a	FR1	5	R1299T
1839.986	1.636	1841362	WORD	n/a	wordpools/wordpool_EN.txt	BLOOM	9	16	[0, 0, 0]	n/a	FR1	5	R1299T
1841.622	1.089	1842998	WORD_OFF	n/a	n/a	BLOOM	9	16	[0, 0, 0]	n/a	FR1	5	R1299T
1842.711	1.629	1844087	WORD	n/a	wordpools/wordpool_EN.txt	BOOT	10	16	[0, 0, 0]	n/a	FR1	5	R1299T
1844.34	0.787	1845716	WORD_OFF	n/a	n/a	BOOT	10	16	[0, 0, 0]	n/a	FR1	5	R1299T
1845.127	1.63	1846503	WORD	n/a	wordpools/wordpool_EN.txt	SHEET	11	16	[0, 0, 0]	n/a	FR1	5	R1299T
1846.757	0.878	1848133	WORD_OFF	n/a	n/a	SHEET	11	16	[0, 0, 0]	n/a	FR1	5	R1299T
1847.635	1.622	1849011	WORD	n/a	wordpools/wordpool_EN.txt	SHARK	12	16	[0, 0, 0]	n/a	FR1	5	R1299T
1849.257	0.001	1850633	WORD_OFF	n/a	n/a	SHARK	12	16	[0, 0, 0]	n/a	FR1	5	R1299T
1849.258	0.0	1850634	ENCODING_END	n/a	n/a	n/a	-999	16	[0, 0, 0]	n/a	FR1	5	R1299T
1849.258	0.0	1850634	DISTRACT_START	n/a	n/a	n/a	-999	16	[0, 0, 0]	n/a	FR1	5	R1299T
1849.258	0.016	1850634	START	n/a	n/a	n/a	-999	16	[-999, -999, -999]	n/a	FR1	5	R1299T
1849.274	3.867	1850650	PROB	3.867	n/a	n/a	-999	16	[2, 1, 4]	7	FR1	5	R1299T
1853.141	3.184	1854517	PROB	3.184	n/a	n/a	-999	16	[1, 4, 3]	8	FR1	5	R1299T
1856.325	4.384	1857700	PROB	4.384	n/a	n/a	-999	16	[3, 6, 6]	15	FR1	5	R1299T
1860.709	5.651	1862084	PROB	5.651	n/a	n/a	-999	16	[5, 8, 3]	16	FR1	5	R1299T
1866.36	5.076	1867735	PROB	5.076	n/a	n/a	-999	16	[1, 7, 8]	16	FR1	5	R1299T
1871.436	0.009	1872811	STOP	n/a	n/a	n/a	-999	16	[-999, -999, -999]	n/a	FR1	5	R1299T
1871.445	0.607	1872820	DISTRACT_END	n/a	n/a	n/a	-999	16	[0, 0, 0]	n/a	FR1	5	R1299T
1872.052	1.66	1873427	RETRIEVAL_ORIENT_START	n/a	n/a	n/a	-999	16	[0, 0, 0]	n/a	FR1	5	R1299T
1873.712	0.0	1875087	REC_START	n/a	n/a	n/a	-999	16	[0, 0, 0]	n/a	FR1	5	R1299T
1873.712	0.597	1875087	RETRIEVAL_ORIENT_END	n/a	n/a	n/a	-999	16	[0, 0, 0]	n/a	FR1	5	R1299T
1874.309	0.498	1875684	REC_WORD_VV	0.498	n/a	<>	-999	16	[0, 0, 0]	n/a	FR1	5	R1299T
1874.807	2.297	1876182	REC_WORD	2.297	n/a	ROOM	8	16	[0, 0, 0]	n/a	FR1	5	R1299T
1877.104	3.834	1878479	REC_WORD	3.834	n/a	SMOKE	7	16	[0, 0, 0]	n/a	FR1	5	R1299T
1880.938	22.788	1882312	REC_WORD_VV	22.788	n/a	<>	-999	16	[0, 0, 0]	n/a	FR1	5	R1299T
1903.726	0.001	1905099	REC_END	n/a	n/a	n/a	-999	16	[0, 0, 0]	n/a	FR1	5	R1299T
1903.727	0.014	1905100	TRIAL_END	n/a	n/a	n/a	-999	16	[0, 0, 0]	n/a	FR1	5	R1299T
1903.741	0.0	1905114	WAITING_START	n/a	n/a	n/a	-999	17	[0, 0, 0]	n/a	FR1	5	R1299T
1903.741	0.0	1905114	TRIAL	n/a	n/a	n/a	-999	17	[0, 0, 0]	n/a	FR1	5	R1299T
1903.741	4.56	1905114	TRIAL_START	n/a	n/a	n/a	-999	17	[0, 0, 0]	n/a	FR1	5	R1299T
1908.301	0.001	1909674	WAITING_END	n/a	n/a	n/a	-999	17	[0, 0, 0]	n/a	FR1	5	R1299T
1908.302	10.428	1909675	COUNTDOWN_START	n/a	n/a	n/a	-999	17	[0, 0, 0]	n/a	FR1	5	R1299T
1918.73	0.001	1920103	COUNTDOWN_END	n/a	n/a	n/a	-999	17	[0, 0, 0]	n/a	FR1	5	R1299T
1918.731	1.056	1920104	ORIENT_START	n/a	n/a	n/a	-999	17	[0, 0, 0]	n/a	FR1	5	R1299T
1919.787	0.0	1921160	ORIENT_END	n/a	n/a	n/a	-999	17	[0, 0, 0]	n/a	FR1	5	R1299T
1919.787	0.843	1921160	ENCODING_START	n/a	n/a	n/a	-999	17	[0, 0, 0]	n/a	FR1	5	R1299T
1920.63	1.624	1922003	WORD	n/a	wordpools/wordpool_EN.txt	MAP	1	17	[0, 0, 0]	n/a	FR1	5	R1299T
1922.254	1.005	1923627	WORD_OFF	n/a	n/a	MAP	1	17	[0, 0, 0]	n/a	FR1	5	R1299T
1923.259	1.629	1924631	WORD	n/a	wordpools/wordpool_EN.txt	STICK	2	17	[0, 0, 0]	n/a	FR1	5	R1299T
1924.888	1.079	1926260	WORD_OFF	n/a	n/a	STICK	2	17	[0, 0, 0]	n/a	FR1	5	R1299T
1925.967	1.621	1927339	WORD	n/a	wordpools/wordpool_EN.txt	FARM	3	17	[0, 0, 0]	n/a	FR1	5	R1299T
1927.588	0.864	1928960	WORD_OFF	n/a	n/a	FARM	3	17	[0, 0, 0]	n/a	FR1	5	R1299T
1928.452	1.637	1929824	WORD	n/a	wordpools/wordpool_EN.txt	SKUNK	4	17	[0, 0, 0]	n/a	FR1	5	R1299T
1930.089	1.071	1931461	WORD_OFF	n/a	n/a	SKUNK	4	17	[0, 0, 0]	n/a	FR1	5	R1299T
1931.16	1.629	1932532	WORD	n/a	wordpools/wordpool_EN.txt	FOOT	5	17	[0, 0, 0]	n/a	FR1	5	R1299T
1932.789	0.92	1934161	WORD_OFF	n/a	n/a	FOOT	5	17	[0, 0, 0]	n/a	FR1	5	R1299T
1933.709	1.63	1935081	WORD	n/a	wordpools/wordpool_EN.txt	RUG	6	17	[0, 0, 0]	n/a	FR1	5	R1299T
1935.339	1.082	1936711	WORD_OFF	n/a	n/a	RUG	6	17	[0, 0, 0]	n/a	FR1	5	R1299T
1936.421	1.636	1937793	WORD	n/a	wordpools/wordpool_EN.txt	DOG	7	17	[0, 0, 0]	n/a	FR1	5	R1299T
1938.057	0.967	1939429	WORD_OFF	n/a	n/a	DOG	7	17	[0, 0, 0]	n/a	FR1	5	R1299T
1939.024	1.634	1940396	WORD	n/a	wordpools/wordpool_EN.txt	EEL	8	17	[0, 0, 0]	n/a	FR1	5	R1299T
1940.658	0.804	1942030	WORD_OFF	n/a	n/a	EEL	8	17	[0, 0, 0]	n/a	FR1	5	R1299T
1941.462	1.629	1942834	WORD	n/a	wordpools/wordpool_EN.txt	PALM	9	17	[0, 0, 0]	n/a	FR1	5	R1299T
1943.091	0.752	1944463	WORD_OFF	n/a	n/a	PALM	9	17	[0, 0, 0]	n/a	FR1	5	R1299T
1943.843	1.632	1945215	WORD	n/a	wordpools/wordpool_EN.txt	AXE	10	17	[0, 0, 0]	n/a	FR1	5	R1299T
1945.475	1.104	1946846	WORD_OFF	n/a	n/a	AXE	10	17	[0, 0, 0]	n/a	FR1	5	R1299T
1946.579	1.63	1947950	WORD	n/a	wordpools/wordpool_EN.txt	SOAP	11	17	[0, 0, 0]	n/a	FR1	5	R1299T
1948.209	0.978	1949580	WORD_OFF	n/a	n/a	SOAP	11	17	[0, 0, 0]	n/a	FR1	5	R1299T
1949.187	1.622	1950558	WORD	n/a	wordpools/wordpool_EN.txt	TEETH	12	17	[0, 0, 0]	n/a	FR1	5	R1299T
1950.809	0.001	1952180	WORD_OFF	n/a	n/a	TEETH	12	17	[0, 0, 0]	n/a	FR1	5	R1299T
1950.81	0.0	1952181	ENCODING_END	n/a	n/a	n/a	-999	17	[0, 0, 0]	n/a	FR1	5	R1299T
1950.81	0.0	1952181	DISTRACT_START	n/a	n/a	n/a	-999	17	[0, 0, 0]	n/a	FR1	5	R1299T
1950.81	0.015	1952181	START	n/a	n/a	n/a	-999	17	[-999, -999, -999]	n/a	FR1	5	R1299T
1950.825	5.768	1952196	PROB	5.768	n/a	n/a	-999	17	[6, 9, 8]	23	FR1	5	R1299T
1956.593	3.751	1957964	PROB	3.751	n/a	n/a	-999	17	[2, 2, 6]	10	FR1	5	R1299T
1960.344	4.351	1961715	PROB	4.351	n/a	n/a	-999	17	[9, 9, 2]	20	FR1	5	R1299T
1964.695	5.751	1966066	PROB	5.751	n/a	n/a	-999	17	[1, 1, 9]	11	FR1	5	R1299T
1970.446	3.548	1971816	PROB	3.548	n/a	n/a	-999	17	[1, 9, 5]	15	FR1	5	R1299T
1973.994	0.019	1975364	STOP	n/a	n/a	n/a	-999	17	[-999, -999, -999]	n/a	FR1	5	R1299T
1974.013	0.583	1975383	DISTRACT_END	n/a	n/a	n/a	-999	17	[0, 0, 0]	n/a	FR1	5	R1299T
1974.596	1.618	1975966	RETRIEVAL_ORIENT_START	n/a	n/a	n/a	-999	17	[0, 0, 0]	n/a	FR1	5	R1299T
1976.214	0.0	1977584	RETRIEVAL_ORIENT_END	n/a	n/a	n/a	-999	17	[0, 0, 0]	n/a	FR1	5	R1299T
1976.214	3.788	1977584	REC_START	n/a	n/a	n/a	-999	17	[0, 0, 0]	n/a	FR1	5	R1299T
1980.002	8.879	1981372	REC_WORD	8.879	n/a	SOAP	11	17	[0, 0, 0]	n/a	FR1	5	R1299T
1988.881	13.311	1990251	REC_WORD	13.311	n/a	ARM	-999	17	[0, 0, 0]	n/a	FR1	5	R1299T
2002.192	4.033	2003561	REC_WORD	4.033	n/a	GLOVE	-999	17	[0, 0, 0]	n/a	FR1	5	R1299T
2006.225	0.0	2007594	REC_END	n/a	n/a	n/a	-999	17	[0, 0, 0]	n/a	FR1	5	R1299T
2006.225	0.014	2007594	TRIAL_END	n/a	n/a	n/a	-999	17	[0, 0, 0]	n/a	FR1	5	R1299T
2006.239	0.0	2007608	TRIAL_START	n/a	n/a	n/a	-999	18	[0, 0, 0]	n/a	FR1	5	R1299T
2006.239	0.0	2007608	TRIAL	n/a	n/a	n/a	-999	18	[0, 0, 0]	n/a	FR1	5	R1299T
2006.239	2.214	2007608	WAITING_START	n/a	n/a	n/a	-999	18	[0, 0, 0]	n/a	FR1	5	R1299T
2008.453	0.0	2009822	COUNTDOWN_START	n/a	n/a	n/a	-999	18	[0, 0, 0]	n/a	FR1	5	R1299T
2008.453	10.429	2009822	WAITING_END	n/a	n/a	n/a	-999	18	[0, 0, 0]	n/a	FR1	5	R1299T
2018.882	0.0	2020250	COUNTDOWN_END	n/a	n/a	n/a	-999	18	[0, 0, 0]	n/a	FR1	5	R1299T
2018.882	1.073	2020250	ORIENT_START	n/a	n/a	n/a	-999	18	[0, 0, 0]	n/a	FR1	5	R1299T
2019.955	0.0	2021323	ORIENT_END	n/a	n/a	n/a	-999	18	[0, 0, 0]	n/a	FR1	5	R1299T
2019.955	0.99	2021323	ENCODING_START	n/a	n/a	n/a	-999	18	[0, 0, 0]	n/a	FR1	5	R1299T
2020.945	1.627	2022313	WORD	n/a	wordpools/wordpool_EN.txt	LOCK	1	18	[0, 0, 0]	n/a	FR1	5	R1299T
2022.572	0.937	2023940	WORD_OFF	n/a	n/a	LOCK	1	18	[0, 0, 0]	n/a	FR1	5	R1299T
2023.509	1.63	2024877	WORD	n/a	wordpools/wordpool_EN.txt	ARK	2	18	[0, 0, 0]	n/a	FR1	5	R1299T
2025.139	0.801	2026507	WORD_OFF	n/a	n/a	ARK	2	18	[0, 0, 0]	n/a	FR1	5	R1299T
2025.94	1.633	2027308	WORD	n/a	wordpools/wordpool_EN.txt	TAIL	3	18	[0, 0, 0]	n/a	FR1	5	R1299T
2027.573	0.884	2028941	WORD_OFF	n/a	n/a	TAIL	3	18	[0, 0, 0]	n/a	FR1	5	R1299T
2028.457	1.633	2029825	WORD	n/a	wordpools/wordpool_EN.txt	GRASS	4	18	[0, 0, 0]	n/a	FR1	5	R1299T
2030.09	1.021	2031458	WORD_OFF	n/a	n/a	GRASS	4	18	[0, 0, 0]	n/a	FR1	5	R1299T
2031.111	1.63	2032479	WORD	n/a	wordpools/wordpool_EN.txt	CROW	5	18	[0, 0, 0]	n/a	FR1	5	R1299T
2032.741	1.016	2034109	WORD_OFF	n/a	n/a	CROW	5	18	[0, 0, 0]	n/a	FR1	5	R1299T
2033.757	1.634	2035125	WORD	n/a	wordpools/wordpool_EN.txt	SHELL	6	18	[0, 0, 0]	n/a	FR1	5	R1299T
2035.391	0.963	2036758	WORD_OFF	n/a	n/a	SHELL	6	18	[0, 0, 0]	n/a	FR1	5	R1299T
2036.354	1.637	2037721	WORD	n/a	wordpools/wordpool_EN.txt	VAN	7	18	[0, 0, 0]	n/a	FR1	5	R1299T
2037.991	0.986	2039358	WORD_OFF	n/a	n/a	VAN	7	18	[0, 0, 0]	n/a	FR1	5	R1299T
2038.977	1.632	2040344	WORD	n/a	wordpools/wordpool_EN.txt	FORK	8	18	[0, 0, 0]	n/a	FR1	5	R1299T
2040.609	1.145	2041976	WORD_OFF	n/a	n/a	FORK	8	18	[0, 0, 0]	n/a	FR1	5	R1299T
2041.754	1.638	2043121	WORD	n/a	wordpools/wordpool_EN.txt	THREAD	9	18	[0, 0, 0]	n/a	FR1	5	R1299T
2043.392	1.117	2044759	WORD_OFF	n/a	n/a	THREAD	9	18	[0, 0, 0]	n/a	FR1	5	R1299T
2044.509	1.634	2045876	WORD	n/a	wordpools/wordpool_EN.txt	FLOOR	10	18	[0, 0, 0]	n/a	FR1	5	R1299T
2046.143	0.933	2047510	WORD_OFF	n/a	n/a	FLOOR	10	18	[0, 0, 0]	n/a	FR1	5	R1299T
2047.076	1.634	2048443	WORD	n/a	wordpools/wordpool_EN.txt	ICE	11	18	[0, 0, 0]	n/a	FR1	5	R1299T
2048.71	0.996	2050077	WORD_OFF	n/a	n/a	ICE	11	18	[0, 0, 0]	n/a	FR1	5	R1299T
2049.706	1.621	2051073	WORD	n/a	wordpools/wordpool_EN.txt	FACE	12	18	[0, 0, 0]	n/a	FR1	5	R1299T
2051.327	0.001	2052694	WORD_OFF	n/a	n/a	FACE	12	18	[0, 0, 0]	n/a	FR1	5	R1299T
2051.328	0.0	2052695	ENCODING_END	n/a	n/a	n/a	-999	18	[0, 0, 0]	n/a	FR1	5	R1299T
2051.328	0.0	2052695	DISTRACT_START	n/a	n/a	n/a	-999	18	[0, 0, 0]	n/a	FR1	5	R1299T
2051.328	0.016	2052695	START	n/a	n/a	n/a	-999	18	[-999, -999, -999]	n/a	FR1	5	R1299T
2051.344	5.967	2052711	PROB	5.967	n/a	n/a	-999	18	[2, 7, 5]	19	FR1	5	R1299T
2057.311	5.468	2058678	PROB	5.468	n/a	n/a	-999	18	[2, 3, 6]	11	FR1	5	R1299T
2062.779	6.918	2064145	PROB	6.918	n/a	n/a	-999	18	[9, 8, 4]	19	FR1	5	R1299T
2069.697	7.397	2071063	PROB	7.397	n/a	n/a	-999	18	[7, 5, 8]	20	FR1	5	R1299T
2077.094	0.021	2078460	STOP	n/a	n/a	n/a	-999	18	[-999, -999, -999]	n/a	FR1	5	R1299T
2077.115	0.65	2078481	DISTRACT_END	n/a	n/a	n/a	-999	18	[0, 0, 0]	n/a	FR1	5	R1299T
2077.765	1.717	2079131	RETRIEVAL_ORIENT_START	n/a	n/a	n/a	-999	18	[0, 0, 0]	n/a	FR1	5	R1299T
2079.482	0.001	2080848	RETRIEVAL_ORIENT_END	n/a	n/a	n/a	-999	18	[0, 0, 0]	n/a	FR1	5	R1299T
2079.483	4.578	2080849	REC_START	n/a	n/a	n/a	-999	18	[0, 0, 0]	n/a	FR1	5	R1299T
2084.061	25.436	2085426	REC_WORD	25.436	n/a	FLOOR	10	18	[0, 0, 0]	n/a	FR1	5	R1299T
2109.497	0.0	2110861	TRIAL_END	n/a	n/a	n/a	-999	18	[0, 0, 0]	n/a	FR1	5	R1299T
2109.497	0.013	2110861	REC_END	n/a	n/a	n/a	-999	18	[0, 0, 0]	n/a	FR1	5	R1299T
2109.51	0.001	2110874	TRIAL_START	n/a	n/a	n/a	-999	19	[0, 0, 0]	n/a	FR1	5	R1299T
2109.511	0.0	2110875	TRIAL	n/a	n/a	n/a	-999	19	[0, 0, 0]	n/a	FR1	5	R1299T
2109.511	1.81	2110875	WAITING_START	n/a	n/a	n/a	-999	19	[0, 0, 0]	n/a	FR1	5	R1299T
2111.321	0.001	2112685	WAITING_END	n/a	n/a	n/a	-999	19	[0, 0, 0]	n/a	FR1	5	R1299T
2111.322	10.429	2112686	COUNTDOWN_START	n/a	n/a	n/a	-999	19	[0, 0, 0]	n/a	FR1	5	R1299T
2121.751	0.001	2123115	COUNTDOWN_END	n/a	n/a	n/a	-999	19	[0, 0, 0]	n/a	FR1	5	R1299T
2121.752	1.038	2123116	ORIENT_START	n/a	n/a	n/a	-999	19	[0, 0, 0]	n/a	FR1	5	R1299T
2122.79	0.0	2124154	ORIENT_END	n/a	n/a	n/a	-999	19	[0, 0, 0]	n/a	FR1	5	R1299T
2122.79	0.998	2124154	ENCODING_START	n/a	n/a	n/a	-999	19	[0, 0, 0]	n/a	FR1	5	R1299T
2123.788	1.636	2125152	WORD	n/a	wordpools/wordpool_EN.txt	CLOCK	1	19	[0, 0, 0]	n/a	FR1	5	R1299T
2125.424	0.757	2126787	WORD_OFF	n/a	n/a	CLOCK	1	19	[0, 0, 0]	n/a	FR1	5	R1299T
2126.181	1.627	2127544	WORD	n/a	wordpools/wordpool_EN.txt	CAPE	2	19	[0, 0, 0]	n/a	FR1	5	R1299T
2127.808	1.055	2129171	WORD_OFF	n/a	n/a	CAPE	2	19	[0, 0, 0]	n/a	FR1	5	R1299T
2128.863	1.612	2130226	WORD	n/a	wordpools/wordpool_EN.txt	CUP	3	19	[0, 0, 0]	n/a	FR1	5	R1299T
2130.475	1.149	2131838	WORD_OFF	n/a	n/a	CUP	3	19	[0, 0, 0]	n/a	FR1	5	R1299T
2131.624	1.635	2132987	WORD	n/a	wordpools/wordpool_EN.txt	STORE	4	19	[0, 0, 0]	n/a	FR1	5	R1299T
2133.259	1.084	2134622	WORD_OFF	n/a	n/a	STORE	4	19	[0, 0, 0]	n/a	FR1	5	R1299T
2134.343	1.633	2135706	WORD	n/a	wordpools/wordpool_EN.txt	SPARK	5	19	[0, 0, 0]	n/a	FR1	5	R1299T
2135.976	0.769	2137339	WORD_OFF	n/a	n/a	SPARK	5	19	[0, 0, 0]	n/a	FR1	5	R1299T
2136.745	1.631	2138108	WORD	n/a	wordpools/wordpool_EN.txt	ZOO	6	19	[0, 0, 0]	n/a	FR1	5	R1299T
2138.376	0.959	2139739	WORD_OFF	n/a	n/a	ZOO	6	19	[0, 0, 0]	n/a	FR1	5	R1299T
2139.335	1.625	2140698	WORD	n/a	wordpools/wordpool_EN.txt	FLAG	7	19	[0, 0, 0]	n/a	FR1	5	R1299T
2140.96	1.026	2142323	WORD_OFF	n/a	n/a	FLAG	7	19	[0, 0, 0]	n/a	FR1	5	R1299T
2141.986	1.625	2143349	WORD	n/a	wordpools/wordpool_EN.txt	PEA	8	19	[0, 0, 0]	n/a	FR1	5	R1299T
2143.611	0.783	2144974	WORD_OFF	n/a	n/a	PEA	8	19	[0, 0, 0]	n/a	FR1	5	R1299T
2144.394	1.634	2145757	WORD	n/a	wordpools/wordpool_EN.txt	WHEEL	9	19	[0, 0, 0]	n/a	FR1	5	R1299T
2146.028	1.059	2147391	WORD_OFF	n/a	n/a	WHEEL	9	19	[0, 0, 0]	n/a	FR1	5	R1299T
2147.087	1.625	2148450	WORD	n/a	wordpools/wordpool_EN.txt	DOOR	10	19	[0, 0, 0]	n/a	FR1	5	R1299T
2148.712	0.986	2150074	WORD_OFF	n/a	n/a	DOOR	10	19	[0, 0, 0]	n/a	FR1	5	R1299T
2149.698	1.631	2151060	WORD	n/a	wordpools/wordpool_EN.txt	FLAME	11	19	[0, 0, 0]	n/a	FR1	5	R1299T
2151.329	1.075	2152691	WORD_OFF	n/a	n/a	FLAME	11	19	[0, 0, 0]	n/a	FR1	5	R1299T
2152.404	1.625	2153766	WORD	n/a	wordpools/wordpool_EN.txt	CLOWN	12	19	[0, 0, 0]	n/a	FR1	5	R1299T
2154.029	0.001	2155391	WORD_OFF	n/a	n/a	CLOWN	12	19	[0, 0, 0]	n/a	FR1	5	R1299T
2154.03	0.0	2155392	ENCODING_END	n/a	n/a	n/a	-999	19	[0, 0, 0]	n/a	FR1	5	R1299T
2154.03	0.0	2155392	DISTRACT_START	n/a	n/a	n/a	-999	19	[0, 0, 0]	n/a	FR1	5	R1299T
2154.03	0.016	2155392	START	n/a	n/a	n/a	-999	19	[-999, -999, -999]	n/a	FR1	5	R1299T
2154.046	4.784	2155408	PROB	4.784	n/a	n/a	-999	19	[3, 8, 2]	13	FR1	5	R1299T
2158.83	4.601	2160192	PROB	4.601	n/a	n/a	-999	19	[2, 4, 9]	15	FR1	5	R1299T
2163.431	2.65	2164793	PROB	2.65	n/a	n/a	-999	19	[5, 1, 1]	7	FR1	5	R1299T
2166.081	6.051	2167443	PROB	6.051	n/a	n/a	-999	19	[5, 9, 7]	21	FR1	5	R1299T
2172.132	3.524	2173493	PROB	3.524	n/a	n/a	-999	19	[7, 1, 7]	15	FR1	5	R1299T
2175.656	0.011	2177017	STOP	n/a	n/a	n/a	-999	19	[-999, -999, -999]	n/a	FR1	5	R1299T
2175.667	0.644	2177028	DISTRACT_END	n/a	n/a	n/a	-999	19	[0, 0, 0]	n/a	FR1	5	R1299T
2176.311	1.573	2177672	RETRIEVAL_ORIENT_START	n/a	n/a	n/a	-999	19	[0, 0, 0]	n/a	FR1	5	R1299T
2177.884	0.0	2179245	RETRIEVAL_ORIENT_END	n/a	n/a	n/a	-999	19	[0, 0, 0]	n/a	FR1	5	R1299T
2177.884	4.909	2179245	REC_START	n/a	n/a	n/a	-999	19	[0, 0, 0]	n/a	FR1	5	R1299T
2182.793	3.199	2184154	REC_WORD	3.199	n/a	STORE	4	19	[0, 0, 0]	n/a	FR1	5	R1299T
2185.992	2.294	2187353	REC_WORD	2.294	n/a	CUP	3	19	[0, 0, 0]	n/a	FR1	5	R1299T
2188.286	19.61	2189647	REC_WORD	19.61	n/a	CLOWN	12	19	[0, 0, 0]	n/a	FR1	5	R1299T
2207.896	0.001	2209256	REC_END	n/a	n/a	n/a	-999	19	[0, 0, 0]	n/a	FR1	5	R1299T
2207.897	0.016	2209257	TRIAL_END	n/a	n/a	n/a	-999	19	[0, 0, 0]	n/a	FR1	5	R1299T
2207.913	0.0	2209273	WAITING_START	n/a	n/a	n/a	-999	20	[0, 0, 0]	n/a	FR1	5	R1299T
2207.913	0.0	2209273	TRIAL	n/a	n/a	n/a	-999	20	[0, 0, 0]	n/a	FR1	5	R1299T
2207.913	1.993	2209273	TRIAL_START	n/a	n/a	n/a	-999	20	[0, 0, 0]	n/a	FR1	5	R1299T
2209.906	0.001	2211266	WAITING_END	n/a	n/a	n/a	-999	20	[0, 0, 0]	n/a	FR1	5	R1299T
2209.907	10.429	2211267	COUNTDOWN_START	n/a	n/a	n/a	-999	20	[0, 0, 0]	n/a	FR1	5	R1299T
2220.336	0.0	2221695	COUNTDOWN_END	n/a	n/a	n/a	-999	20	[0, 0, 0]	n/a	FR1	5	R1299T
2220.336	1.205	2221695	ORIENT_START	n/a	n/a	n/a	-999	20	[0, 0, 0]	n/a	FR1	5	R1299T
2221.541	0.001	2222900	ORIENT_END	n/a	n/a	n/a	-999	20	[0, 0, 0]	n/a	FR1	5	R1299T
2221.542	1.055	2222901	ENCODING_START	n/a	n/a	n/a	-999	20	[0, 0, 0]	n/a	FR1	5	R1299T
2222.597	1.628	2223956	WORD	n/a	wordpools/wordpool_EN.txt	SWORD	1	20	[0, 0, 0]	n/a	FR1	5	R1299T
2224.225	1.114	2225584	WORD_OFF	n/a	n/a	SWORD	1	20	[0, 0, 0]	n/a	FR1	5	R1299T
2225.339	1.637	2226698	WORD	n/a	wordpools/wordpool_EN.txt	SHRIMP	2	20	[0, 0, 0]	n/a	FR1	5	R1299T
2226.976	0.884	2228335	WORD_OFF	n/a	n/a	SHRIMP	2	20	[0, 0, 0]	n/a	FR1	5	R1299T
2227.86	1.633	2229219	WORD	n/a	wordpools/wordpool_EN.txt	SIGN	3	20	[0, 0, 0]	n/a	FR1	5	R1299T
2229.493	0.79	2230852	WORD_OFF	n/a	n/a	SIGN	3	20	[0, 0, 0]	n/a	FR1	5	R1299T
2230.283	1.627	2231642	WORD	n/a	wordpools/wordpool_EN.txt	STREET	4	20	[0, 0, 0]	n/a	FR1	5	R1299T
2231.91	0.89	2233269	WORD_OFF	n/a	n/a	STREET	4	20	[0, 0, 0]	n/a	FR1	5	R1299T
2232.8	1.627	2234159	WORD	n/a	wordpools/wordpool_EN.txt	LEAF	5	20	[0, 0, 0]	n/a	FR1	5	R1299T
2234.427	0.859	2235786	WORD_OFF	n/a	n/a	LEAF	5	20	[0, 0, 0]	n/a	FR1	5	R1299T
2235.286	1.625	2236645	WORD	n/a	wordpools/wordpool_EN.txt	COIN	6	20	[0, 0, 0]	n/a	FR1	5	R1299T
2236.911	0.963	2238270	WORD_OFF	n/a	n/a	COIN	6	20	[0, 0, 0]	n/a	FR1	5	R1299T
2237.874	1.621	2239232	WORD	n/a	wordpools/wordpool_EN.txt	SOUP	7	20	[0, 0, 0]	n/a	FR1	5	R1299T
2239.495	1.063	2240853	WORD_OFF	n/a	n/a	SOUP	7	20	[0, 0, 0]	n/a	FR1	5	R1299T
2240.558	1.637	2241916	WORD	n/a	wordpools/wordpool_EN.txt	CAR	8	20	[0, 0, 0]	n/a	FR1	5	R1299T
2242.195	1.018	2243553	WORD_OFF	n/a	n/a	CAR	8	20	[0, 0, 0]	n/a	FR1	5	R1299T
2243.213	1.633	2244571	WORD	n/a	wordpools/wordpool_EN.txt	HEART	9	20	[0, 0, 0]	n/a	FR1	5	R1299T
2244.846	0.879	2246204	WORD_OFF	n/a	n/a	HEART	9	20	[0, 0, 0]	n/a	FR1	5	R1299T
2245.725	1.638	2247083	WORD	n/a	wordpools/wordpool_EN.txt	FLUTE	10	20	[0, 0, 0]	n/a	FR1	5	R1299T
2247.363	1.09	2248721	WORD_OFF	n/a	n/a	FLUTE	10	20	[0, 0, 0]	n/a	FR1	5	R1299T
2248.453	1.627	2249811	WORD	n/a	wordpools/wordpool_EN.txt	ELF	11	20	[0, 0, 0]	n/a	FR1	5	R1299T
2250.08	0.808	2251438	WORD_OFF	n/a	n/a	ELF	11	20	[0, 0, 0]	n/a	FR1	5	R1299T
2250.888	1.626	2252246	WORD	n/a	wordpools/wordpool_EN.txt	TOE	12	20	[0, 0, 0]	n/a	FR1	5	R1299T
2252.514	0.0	2253872	WORD_OFF	n/a	n/a	TOE	12	20	[0, 0, 0]	n/a	FR1	5	R1299T
2252.514	0.001	2253872	ENCODING_END	n/a	n/a	n/a	-999	20	[0, 0, 0]	n/a	FR1	5	R1299T
2252.515	0.0	2253873	DISTRACT_START	n/a	n/a	n/a	-999	20	[0, 0, 0]	n/a	FR1	5	R1299T
2252.515	0.015	2253873	START	n/a	n/a	n/a	-999	20	[-999, -999, -999]	n/a	FR1	5	R1299T
2252.53	4.568	2253888	PROB	4.568	n/a	n/a	-999	20	[8, 7, 7]	22	FR1	5	R1299T
2257.098	3.25	2258456	PROB	3.25	n/a	n/a	-999	20	[3, 6, 4]	13	FR1	5	R1299T
2260.348	5.368	2261705	PROB	5.368	n/a	n/a	-999	20	[6, 5, 6]	17	FR1	5	R1299T
2265.716	3.918	2267073	PROB	3.918	n/a	n/a	-999	20	[6, 6, 5]	17	FR1	5	R1299T
2269.634	3.708	2270991	PROB	3.708	n/a	n/a	-999	20	[8, 9, 2]	19	FR1	5	R1299T
2273.342	0.009	2274699	STOP	n/a	n/a	n/a	-999	20	[-999, -999, -999]	n/a	FR1	5	R1299T
2273.351	0.501	2274708	DISTRACT_END	n/a	n/a	n/a	-999	20	[0, 0, 0]	n/a	FR1	5	R1299T
2273.852	1.583	2275209	RETRIEVAL_ORIENT_START	n/a	n/a	n/a	-999	20	[0, 0, 0]	n/a	FR1	5	R1299T
2275.435	0.0	2276792	REC_START	n/a	n/a	n/a	-999	20	[0, 0, 0]	n/a	FR1	5	R1299T
2275.435	2.487	2276792	RETRIEVAL_ORIENT_END	n/a	n/a	n/a	-999	20	[0, 0, 0]	n/a	FR1	5	R1299T
2277.922	8.832	2279279	REC_WORD	8.832	n/a	SWORD	1	20	[0, 0, 0]	n/a	FR1	5	R1299T
2286.754	0.135	2288110	REC_WORD_VV	0.135	n/a	<>	-999	20	[0, 0, 0]	n/a	FR1	5	R1299T
2286.889	18.557	2288245	REC_WORD	18.557	n/a	STORE	-999	20	[0, 0, 0]	n/a	FR1	5	R1299T
2305.446	0.001	2306801	REC_END	n/a	n/a	n/a	-999	20	[0, 0, 0]	n/a	FR1	5	R1299T
2305.447	0.016	2306802	TRIAL_END	n/a	n/a	n/a	-999	20	[0, 0, 0]	n/a	FR1	5	R1299T
2305.463	0.0	2306818	WAITING_START	n/a	n/a	n/a	-999	21	[0, 0, 0]	n/a	FR1	5	R1299T
2305.463	0.0	2306818	TRIAL_START	n/a	n/a	n/a	-999	21	[0, 0, 0]	n/a	FR1	5	R1299T
2305.463	1.761	2306818	TRIAL	n/a	n/a	n/a	-999	21	[0, 0, 0]	n/a	FR1	5	R1299T
2307.224	0.0	2308579	COUNTDOWN_START	n/a	n/a	n/a	-999	21	[0, 0, 0]	n/a	FR1	5	R1299T
2307.224	10.429	2308579	WAITING_END	n/a	n/a	n/a	-999	21	[0, 0, 0]	n/a	FR1	5	R1299T
2317.653	0.001	2319008	COUNTDOWN_END	n/a	n/a	n/a	-999	21	[0, 0, 0]	n/a	FR1	5	R1299T
2317.654	1.055	2319009	ORIENT_START	n/a	n/a	n/a	-999	21	[0, 0, 0]	n/a	FR1	5	R1299T
2318.709	0.0	2320064	ORIENT_END	n/a	n/a	n/a	-999	21	[0, 0, 0]	n/a	FR1	5	R1299T
2318.709	1.035	2320064	ENCODING_START	n/a	n/a	n/a	-999	21	[0, 0, 0]	n/a	FR1	5	R1299T
2319.744	1.632	2321099	WORD	n/a	wordpools/wordpool_EN.txt	PIT	1	21	[0, 0, 0]	n/a	FR1	5	R1299T
2321.376	1.009	2322731	WORD_OFF	n/a	n/a	PIT	1	21	[0, 0, 0]	n/a	FR1	5	R1299T
2322.385	1.625	2323740	WORD	n/a	wordpools/wordpool_EN.txt	JAIL	2	21	[0, 0, 0]	n/a	FR1	5	R1299T
2324.01	0.922	2325365	WORD_OFF	n/a	n/a	JAIL	2	21	[0, 0, 0]	n/a	FR1	5	R1299T
2324.932	1.628	2326287	WORD	n/a	wordpools/wordpool_EN.txt	TEA	3	21	[0, 0, 0]	n/a	FR1	5	R1299T
2326.56	0.947	2327915	WORD_OFF	n/a	n/a	TEA	3	21	[0, 0, 0]	n/a	FR1	5	R1299T
2327.507	1.637	2328861	WORD	n/a	wordpools/wordpool_EN.txt	GATE	4	21	[0, 0, 0]	n/a	FR1	5	R1299T
2329.144	0.942	2330498	WORD_OFF	n/a	n/a	GATE	4	21	[0, 0, 0]	n/a	FR1	5	R1299T
2330.086	1.625	2331440	WORD	n/a	wordpools/wordpool_EN.txt	CHEEK	5	21	[0, 0, 0]	n/a	FR1	5	R1299T
2331.711	0.766	2333065	WORD_OFF	n/a	n/a	CHEEK	5	21	[0, 0, 0]	n/a	FR1	5	R1299T
2332.477	1.635	2333831	WORD	n/a	wordpools/wordpool_EN.txt	KITE	6	21	[0, 0, 0]	n/a	FR1	5	R1299T
2334.112	1.019	2335466	WORD_OFF	n/a	n/a	KITE	6	21	[0, 0, 0]	n/a	FR1	5	R1299T
2335.131	1.631	2336485	WORD	n/a	wordpools/wordpool_EN.txt	FUDGE	7	21	[0, 0, 0]	n/a	FR1	5	R1299T
2336.762	0.813	2338116	WORD_OFF	n/a	n/a	FUDGE	7	21	[0, 0, 0]	n/a	FR1	5	R1299T
2337.575	1.638	2338929	WORD	n/a	wordpools/wordpool_EN.txt	STEAM	8	21	[0, 0, 0]	n/a	FR1	5	R1299T
2339.213	0.877	2340567	WORD_OFF	n/a	n/a	STEAM	8	21	[0, 0, 0]	n/a	FR1	5	R1299T
2340.09	1.623	2341444	WORD	n/a	wordpools/wordpool_EN.txt	YARD	9	21	[0, 0, 0]	n/a	FR1	5	R1299T
2341.713	0.885	2343067	WORD_OFF	n/a	n/a	YARD	9	21	[0, 0, 0]	n/a	FR1	5	R1299T
2342.598	1.632	2343952	WORD	n/a	wordpools/wordpool_EN.txt	BOAT	10	21	[0, 0, 0]	n/a	FR1	5	R1299T
2344.23	0.94	2345584	WORD_OFF	n/a	n/a	BOAT	10	21	[0, 0, 0]	n/a	FR1	5	R1299T
2345.17	1.627	2346524	WORD	n/a	wordpools/wordpool_EN.txt	SEED	11	21	[0, 0, 0]	n/a	FR1	5	R1299T
2346.797	1.095	2348151	WORD_OFF	n/a	n/a	SEED	11	21	[0, 0, 0]	n/a	FR1	5	R1299T
2347.892	1.623	2349246	WORD	n/a	wordpools/wordpool_EN.txt	SALT	12	21	[0, 0, 0]	n/a	FR1	5	R1299T
2349.515	0.0	2350869	WORD_OFF	n/a	n/a	SALT	12	21	[0, 0, 0]	n/a	FR1	5	R1299T
2349.515	0.0	2350869	ENCODING_END	n/a	n/a	n/a	-999	21	[0, 0, 0]	n/a	FR1	5	R1299T
2349.515	0.001	2350869	DISTRACT_START	n/a	n/a	n/a	-999	21	[0, 0, 0]	n/a	FR1	5	R1299T
2349.516	0.015	2350870	START	n/a	n/a	n/a	-999	21	[-999, -999, -999]	n/a	FR1	5	R1299T
2349.531	4.251	2350885	PROB	4.251	n/a	n/a	-999	21	[6, 2, 4]	12	FR1	5	R1299T
2353.782	2.65	2355135	PROB	2.65	n/a	n/a	-999	21	[8, 2, 7]	17	FR1	5	R1299T
2356.432	4.168	2357785	PROB	4.168	n/a	n/a	-999	21	[9, 2, 9]	20	FR1	5	R1299T
2360.6	2.834	2361953	PROB	2.834	n/a	n/a	-999	21	[4, 6, 1]	11	FR1	5	R1299T
2363.434	2.5	2364787	PROB	2.5	n/a	n/a	-999	21	[1, 8, 2]	11	FR1	5	R1299T
2365.934	6.627	2367287	PROB	6.627	n/a	n/a	-999	21	[4, 4, 5]	13	FR1	5	R1299T
2372.561	0.008	2373913	STOP	n/a	n/a	n/a	-999	21	[-999, -999, -999]	n/a	FR1	5	R1299T
2372.569	0.6	2373921	DISTRACT_END	n/a	n/a	n/a	-999	21	[0, 0, 0]	n/a	FR1	5	R1299T
2373.169	1.667	2374521	RETRIEVAL_ORIENT_START	n/a	n/a	n/a	-999	21	[0, 0, 0]	n/a	FR1	5	R1299T
2374.836	0.0	2376188	RETRIEVAL_ORIENT_END	n/a	n/a	n/a	-999	21	[0, 0, 0]	n/a	FR1	5	R1299T
2374.836	5.91	2376188	REC_START	n/a	n/a	n/a	-999	21	[0, 0, 0]	n/a	FR1	5	R1299T
2380.746	5.109	2382098	REC_WORD	5.109	n/a	SEA	-999	21	[0, 0, 0]	n/a	FR1	5	R1299T
2385.855	0.222	2387207	REC_WORD_VV	0.222	n/a	<>	-999	21	[0, 0, 0]	n/a	FR1	5	R1299T
2386.077	2.294	2387429	REC_WORD	2.294	n/a	SALT	12	21	[0, 0, 0]	n/a	FR1	5	R1299T
2388.371	0.255	2389723	REC_WORD_VV	0.255	n/a	<>	-999	21	[0, 0, 0]	n/a	FR1	5	R1299T
2388.626	16.224	2389978	REC_WORD	16.224	n/a	GROUND	-999	21	[0, 0, 0]	n/a	FR1	5	R1299T
2404.85	0.0	2406201	REC_END	n/a	n/a	n/a	-999	21	[0, 0, 0]	n/a	FR1	5	R1299T
2404.85	0.014	2406201	TRIAL_END	n/a	n/a	n/a	-999	21	[0, 0, 0]	n/a	FR1	5	R1299T
2404.864	0.0	2406215	TRIAL_START	n/a	n/a	n/a	-999	22	[0, 0, 0]	n/a	FR1	5	R1299T
2404.864	0.0	2406215	TRIAL	n/a	n/a	n/a	-999	22	[0, 0, 0]	n/a	FR1	5	R1299T
2404.864	5.362	2406215	WAITING_START	n/a	n/a	n/a	-999	22	[0, 0, 0]	n/a	FR1	5	R1299T
2410.226	0.0	2411577	COUNTDOWN_START	n/a	n/a	n/a	-999	22	[0, 0, 0]	n/a	FR1	5	R1299T
2410.226	10.429	2411577	WAITING_END	n/a	n/a	n/a	-999	22	[0, 0, 0]	n/a	FR1	5	R1299T
2420.655	0.0	2422005	COUNTDOWN_END	n/a	n/a	n/a	-999	22	[0, 0, 0]	n/a	FR1	5	R1299T
2420.655	1.04	2422005	ORIENT_START	n/a	n/a	n/a	-999	22	[0, 0, 0]	n/a	FR1	5	R1299T
2421.695	0.0	2423045	ORIENT_END	n/a	n/a	n/a	-999	22	[0, 0, 0]	n/a	FR1	5	R1299T
2421.695	1.053	2423045	ENCODING_START	n/a	n/a	n/a	-999	22	[0, 0, 0]	n/a	FR1	5	R1299T
2422.748	1.63	2424098	WORD	n/a	wordpools/wordpool_EN.txt	CAVE	1	22	[0, 0, 0]	n/a	FR1	5	R1299T
2424.378	1.121	2425728	WORD_OFF	n/a	n/a	CAVE	1	22	[0, 0, 0]	n/a	FR1	5	R1299T
2425.499	1.63	2426849	WORD	n/a	wordpools/wordpool_EN.txt	CAKE	2	22	[0, 0, 0]	n/a	FR1	5	R1299T
2427.129	0.911	2428479	WORD_OFF	n/a	n/a	CAKE	2	22	[0, 0, 0]	n/a	FR1	5	R1299T
2428.04	1.624	2429390	WORD	n/a	wordpools/wordpool_EN.txt	RAKE	3	22	[0, 0, 0]	n/a	FR1	5	R1299T
2429.664	1.067	2431014	WORD_OFF	n/a	n/a	RAKE	3	22	[0, 0, 0]	n/a	FR1	5	R1299T
2430.731	1.632	2432081	WORD	n/a	wordpools/wordpool_EN.txt	GUARD	4	22	[0, 0, 0]	n/a	FR1	5	R1299T
2432.363	0.839	2433713	WORD_OFF	n/a	n/a	GUARD	4	22	[0, 0, 0]	n/a	FR1	5	R1299T
2433.202	1.628	2434552	WORD	n/a	wordpools/wordpool_EN.txt	PIG	5	22	[0, 0, 0]	n/a	FR1	5	R1299T
2434.83	0.761	2436180	WORD_OFF	n/a	n/a	PIG	5	22	[0, 0, 0]	n/a	FR1	5	R1299T
2435.591	1.623	2436941	WORD	n/a	wordpools/wordpool_EN.txt	HAND	6	22	[0, 0, 0]	n/a	FR1	5	R1299T
2437.214	1.094	2438564	WORD_OFF	n/a	n/a	HAND	6	22	[0, 0, 0]	n/a	FR1	5	R1299T
2438.308	1.623	2439658	WORD	n/a	wordpools/wordpool_EN.txt	APE	7	22	[0, 0, 0]	n/a	FR1	5	R1299T
2439.931	1.119	2441280	WORD_OFF	n/a	n/a	APE	7	22	[0, 0, 0]	n/a	FR1	5	R1299T
2441.05	1.633	2442399	WORD	n/a	wordpools/wordpool_EN.txt	GOAT	8	22	[0, 0, 0]	n/a	FR1	5	R1299T
2442.683	0.994	2444032	WORD_OFF	n/a	n/a	GOAT	8	22	[0, 0, 0]	n/a	FR1	5	R1299T
2443.677	1.622	2445026	WORD	n/a	wordpools/wordpool_EN.txt	DITCH	9	22	[0, 0, 0]	n/a	FR1	5	R1299T
2445.299	1.012	2446648	WORD_OFF	n/a	n/a	DITCH	9	22	[0, 0, 0]	n/a	FR1	5	R1299T
2446.311	1.638	2447660	WORD	n/a	wordpools/wordpool_EN.txt	STOVE	10	22	[0, 0, 0]	n/a	FR1	5	R1299T
2447.949	0.93	2449298	WORD_OFF	n/a	n/a	STOVE	10	22	[0, 0, 0]	n/a	FR1	5	R1299T
2448.879	1.637	2450228	WORD	n/a	wordpools/wordpool_EN.txt	MUG	11	22	[0, 0, 0]	n/a	FR1	5	R1299T
2450.516	1.144	2451865	WORD_OFF	n/a	n/a	MUG	11	22	[0, 0, 0]	n/a	FR1	5	R1299T
2451.66	1.623	2453009	WORD	n/a	wordpools/wordpool_EN.txt	NEST	12	22	[0, 0, 0]	n/a	FR1	5	R1299T
2453.283	0.001	2454632	WORD_OFF	n/a	n/a	NEST	12	22	[0, 0, 0]	n/a	FR1	5	R1299T
2453.284	0.0	2454633	ENCODING_END	n/a	n/a	n/a	-999	22	[0, 0, 0]	n/a	FR1	5	R1299T
2453.284	0.0	2454633	DISTRACT_START	n/a	n/a	n/a	-999	22	[0, 0, 0]	n/a	FR1	5	R1299T
2453.284	0.016	2454633	START	n/a	n/a	n/a	-999	22	[-999, -999, -999]	n/a	FR1	5	R1299T
2453.3	3.767	2454649	PROB	3.767	n/a	n/a	-999	22	[7, 9, 1]	17	FR1	5	R1299T
2457.067	4.268	2458416	PROB	4.268	n/a	n/a	-999	22	[9, 8, 3]	20	FR1	5	R1299T
2461.335	3.367	2462684	PROB	3.367	n/a	n/a	-999	22	[4, 8, 5]	17	FR1	5	R1299T
2464.702	4.434	2466050	PROB	4.434	n/a	n/a	-999	22	[3, 4, 6]	13	FR1	5	R1299T
2469.136	3.984	2470484	PROB	3.984	n/a	n/a	-999	22	[3, 2, 6]	11	FR1	5	R1299T
2473.12	3.602	2474468	PROB	3.602	n/a	n/a	-999	22	[2, 3, 7]	12	FR1	5	R1299T
2476.722	0.016	2478070	STOP	n/a	n/a	n/a	-999	22	[-999, -999, -999]	n/a	FR1	5	R1299T
2476.738	0.539	2478086	DISTRACT_END	n/a	n/a	n/a	-999	22	[0, 0, 0]	n/a	FR1	5	R1299T
2477.277	1.644	2478625	RETRIEVAL_ORIENT_START	n/a	n/a	n/a	-999	22	[0, 0, 0]	n/a	FR1	5	R1299T
2478.921	0.001	2480269	RETRIEVAL_ORIENT_END	n/a	n/a	n/a	-999	22	[0, 0, 0]	n/a	FR1	5	R1299T
2478.922	2.924	2480270	REC_START	n/a	n/a	n/a	-999	22	[0, 0, 0]	n/a	FR1	5	R1299T
2481.846	0.262	2483194	REC_WORD_VV	0.262	n/a	<>	-999	22	[0, 0, 0]	n/a	FR1	5	R1299T
2482.108	1.141	2483456	REC_WORD	1.141	n/a	APE	7	22	[0, 0, 0]	n/a	FR1	5	R1299T
2483.249	2.372	2484597	REC_WORD_VV	2.372	n/a	<>	-999	22	[0, 0, 0]	n/a	FR1	5	R1299T
2485.621	23.313	2486968	REC_WORD	23.313	n/a	GROUND	-999	22	[0, 0, 0]	n/a	FR1	5	R1299T
2508.934	0.0	2510280	REC_END	n/a	n/a	n/a	-999	22	[0, 0, 0]	n/a	FR1	5	R1299T
2508.934	0.015	2510280	TRIAL_END	n/a	n/a	n/a	-999	22	[0, 0, 0]	n/a	FR1	5	R1299T
2508.949	0.0	2510295	TRIAL_START	n/a	n/a	n/a	-999	23	[0, 0, 0]	n/a	FR1	5	R1299T
2508.949	0.001	2510295	TRIAL	n/a	n/a	n/a	-999	23	[0, 0, 0]	n/a	FR1	5	R1299T
2508.95	3.594	2510296	WAITING_START	n/a	n/a	n/a	-999	23	[0, 0, 0]	n/a	FR1	5	R1299T
2512.544	0.001	2513890	WAITING_END	n/a	n/a	n/a	-999	23	[0, 0, 0]	n/a	FR1	5	R1299T
2512.545	10.429	2513891	COUNTDOWN_START	n/a	n/a	n/a	-999	23	[0, 0, 0]	n/a	FR1	5	R1299T
2522.974	0.0	2524320	COUNTDOWN_END	n/a	n/a	n/a	-999	23	[0, 0, 0]	n/a	FR1	5	R1299T
2522.974	1.089	2524320	ORIENT_START	n/a	n/a	n/a	-999	23	[0, 0, 0]	n/a	FR1	5	R1299T
2524.063	0.001	2525409	ORIENT_END	n/a	n/a	n/a	-999	23	[0, 0, 0]	n/a	FR1	5	R1299T
2524.064	0.78	2525410	ENCODING_START	n/a	n/a	n/a	-999	23	[0, 0, 0]	n/a	FR1	5	R1299T
2524.844	1.636	2526190	WORD	n/a	wordpools/wordpool_EN.txt	BEAR	1	23	[0, 0, 0]	n/a	FR1	5	R1299T
2526.48	1.119	2527826	WORD_OFF	n/a	n/a	BEAR	1	23	[0, 0, 0]	n/a	FR1	5	R1299T
2527.599	1.632	2528945	WORD	n/a	wordpools/wordpool_EN.txt	NET	2	23	[0, 0, 0]	n/a	FR1	5	R1299T
2529.231	0.818	2530577	WORD_OFF	n/a	n/a	NET	2	23	[0, 0, 0]	n/a	FR1	5	R1299T
2530.049	1.616	2531394	WORD	n/a	wordpools/wordpool_EN.txt	OAK	3	23	[0, 0, 0]	n/a	FR1	5	R1299T
2531.665	0.783	2533010	WORD_OFF	n/a	n/a	OAK	3	23	[0, 0, 0]	n/a	FR1	5	R1299T
2532.448	1.633	2533793	WORD	n/a	wordpools/wordpool_EN.txt	BOY	4	23	[0, 0, 0]	n/a	FR1	5	R1299T
2534.081	0.97	2535426	WORD_OFF	n/a	n/a	BOY	4	23	[0, 0, 0]	n/a	FR1	5	R1299T
