onset	duration	sample	trial_type	response_time	stim_file	item_name	serialpos	list	test	answer	experiment	session	subject
0.0	256.008	605	INSTRUCT_START	n/a	n/a	n/a	-999	-999	[0, 0, 0]	n/a	FR1	0	R1337E
256.008	4.301	256603	INSTRUCT_END	n/a	n/a	n/a	-999	-999	[0, 0, 0]	n/a	FR1	0	R1337E
260.309	10.376	260904	MIC TEST_START	n/a	n/a	n/a	-999	-999	[0, 0, 0]	n/a	FR1	0	R1337E
270.685	0.009	271280	MIC TEST_END	n/a	n/a	n/a	-999	-999	[0, 0, 0]	n/a	FR1	0	R1337E
270.694	0.001	271289	TRIAL_START	n/a	n/a	n/a	-999	-1	[0, 0, 0]	n/a	FR1	0	R1337E
270.695	0.0	271290	TRIAL	n/a	n/a	n/a	-999	-1	[0, 0, 0]	n/a	FR1	0	R1337E
270.695	4.749	271290	WAITING_START	n/a	n/a	n/a	-999	-1	[0, 0, 0]	n/a	FR1	0	R1337E
275.444	0.001	276039	WAITING_END	n/a	n/a	n/a	-999	-1	[0, 0, 0]	n/a	FR1	0	R1337E
275.445	10.428	276040	COUNTDOWN_START	n/a	n/a	n/a	-999	-1	[0, 0, 0]	n/a	FR1	0	R1337E
285.873	0.001	286467	COUNTDOWN_END	n/a	n/a	n/a	-999	-1	[0, 0, 0]	n/a	FR1	0	R1337E
285.874	1.239	286468	ORIENT_START	n/a	n/a	n/a	-999	-1	[0, 0, 0]	n/a	FR1	0	R1337E
287.113	0.001	287707	ORIENT_END	n/a	n/a	n/a	-999	-1	[0, 0, 0]	n/a	FR1	0	R1337E
287.114	0.852	287708	ENCODING_START	n/a	n/a	n/a	-999	-1	[0, 0, 0]	n/a	FR1	0	R1337E
287.966	1.631	288560	WORD	n/a	n/a	WAGON	1	-1	[0, 0, 0]	n/a	FR1	0	R1337E
289.597	0.827	290191	WORD_OFF	n/a	n/a	WAGON	1	-1	[0, 0, 0]	n/a	FR1	0	R1337E
290.424	1.623	291018	WORD	n/a	n/a	BEAM	2	-1	[0, 0, 0]	n/a	FR1	0	R1337E
292.047	0.834	292641	WORD_OFF	n/a	n/a	BEAM	2	-1	[0, 0, 0]	n/a	FR1	0	R1337E
292.881	1.634	293475	WORD	n/a	n/a	WATCH	3	-1	[0, 0, 0]	n/a	FR1	0	R1337E
294.515	0.919	295109	WORD_OFF	n/a	n/a	WATCH	3	-1	[0, 0, 0]	n/a	FR1	0	R1337E
295.434	1.631	296028	WORD	n/a	n/a	BABY	4	-1	[0, 0, 0]	n/a	FR1	0	R1337E
297.065	0.861	297659	WORD_OFF	n/a	n/a	BABY	4	-1	[0, 0, 0]	n/a	FR1	0	R1337E
297.926	1.623	298520	WORD	n/a	n/a	TONGUE	5	-1	[0, 0, 0]	n/a	FR1	0	R1337E
299.549	0.842	300143	WORD_OFF	n/a	n/a	TONGUE	5	-1	[0, 0, 0]	n/a	FR1	0	R1337E
300.391	1.625	300985	WORD	n/a	n/a	FLOOD	6	-1	[0, 0, 0]	n/a	FR1	0	R1337E
302.016	0.865	302610	WORD_OFF	n/a	n/a	FLOOD	6	-1	[0, 0, 0]	n/a	FR1	0	R1337E
302.881	1.635	303474	WORD	n/a	n/a	RING	7	-1	[0, 0, 0]	n/a	FR1	0	R1337E
304.516	1.095	305109	WORD_OFF	n/a	n/a	RING	7	-1	[0, 0, 0]	n/a	FR1	0	R1337E
305.611	1.622	306204	WORD	n/a	n/a	IMAGE	8	-1	[0, 0, 0]	n/a	FR1	0	R1337E
307.233	1.039	307826	WORD_OFF	n/a	n/a	IMAGE	8	-1	[0, 0, 0]	n/a	FR1	0	R1337E
308.272	1.613	308865	WORD	n/a	n/a	CAMEL	9	-1	[0, 0, 0]	n/a	FR1	0	R1337E
309.885	1.135	310478	WORD_OFF	n/a	n/a	CAMEL	9	-1	[0, 0, 0]	n/a	FR1	0	R1337E
311.02	1.631	311613	WORD	n/a	n/a	CHEST	10	-1	[0, 0, 0]	n/a	FR1	0	R1337E
312.651	1.059	313244	WORD_OFF	n/a	n/a	CHEST	10	-1	[0, 0, 0]	n/a	FR1	0	R1337E
313.71	1.625	314303	WORD	n/a	n/a	COTTON	11	-1	[0, 0, 0]	n/a	FR1	0	R1337E
315.335	0.922	315928	WORD_OFF	n/a	n/a	COTTON	11	-1	[0, 0, 0]	n/a	FR1	0	R1337E
316.257	1.612	316850	WORD	n/a	n/a	RHINO	12	-1	[0, 0, 0]	n/a	FR1	0	R1337E
317.869	0.001	318462	WORD_OFF	n/a	n/a	RHINO	12	-1	[0, 0, 0]	n/a	FR1	0	R1337E
317.87	0.0	318463	DISTRACT_START	n/a	n/a	n/a	-999	-1	[0, 0, 0]	n/a	FR1	0	R1337E
317.87	0.0	318463	ENCODING_END	n/a	n/a	n/a	-999	-1	[0, 0, 0]	n/a	FR1	0	R1337E
317.87	0.016	318463	START	n/a	n/a	n/a	-999	-1	[-999, -999, -999]	n/a	FR1	0	R1337E
317.886	9.018	318479	PROB	9.018	n/a	n/a	-999	-1	[1, 7, 5]	13	FR1	0	R1337E
326.904	6.267	327497	PROB	6.267	n/a	n/a	-999	-1	[6, 5, 7]	18	FR1	0	R1337E
333.171	5.0	333763	PROB	5.0	n/a	n/a	-999	-1	[8, 2, 6]	16	FR1	0	R1337E
338.171	0.018	338763	STOP	n/a	n/a	n/a	-999	-1	[-999, -999, -999]	n/a	FR1	0	R1337E
338.189	0.655	338781	DISTRACT_END	n/a	n/a	n/a	-999	-1	[0, 0, 0]	n/a	FR1	0	R1337E
338.844	1.562	339436	RETRIEVAL_ORIENT_START	n/a	n/a	n/a	-999	-1	[0, 0, 0]	n/a	FR1	0	R1337E
340.406	0.0	340998	RETRIEVAL_ORIENT_END	n/a	n/a	n/a	-999	-1	[0, 0, 0]	n/a	FR1	0	R1337E
340.406	19.582	340998	REC_START	n/a	n/a	n/a	-999	-1	[0, 0, 0]	n/a	FR1	0	R1337E
359.988	3.644	360579	REC_WORD_VV	3.644	n/a	<>	-999	-1	[0, 0, 0]	n/a	FR1	0	R1337E
363.632	1.676	364223	REC_WORD_VV	1.676	n/a	<>	-999	-1	[0, 0, 0]	n/a	FR1	0	R1337E
365.308	0.489	365899	REC_WORD_VV	0.489	n/a	<>	-999	-1	[0, 0, 0]	n/a	FR1	0	R1337E
365.797	1.721	366388	REC_WORD_VV	1.721	n/a	<>	-999	-1	[0, 0, 0]	n/a	FR1	0	R1337E
367.518	2.899	368109	REC_WORD	2.899	n/a	WAGON	-999	-1	[0, 0, 0]	n/a	FR1	0	R1337E
370.417	0.001	371008	REC_END	n/a	n/a	n/a	-999	-1	[0, 0, 0]	n/a	FR1	0	R1337E
370.418	26.316	371009	PRACTICE_POST_INSTRUCT_START	n/a	n/a	n/a	-999	-1	[0, 0, 0]	n/a	FR1	0	R1337E
396.734	0.0	397324	PRACTICE_POST_INSTRUCT_END	n/a	n/a	n/a	-999	-1	[0, 0, 0]	n/a	FR1	0	R1337E
396.734	0.019	397324	TRIAL_END	n/a	n/a	n/a	-999	-1	[0, 0, 0]	n/a	FR1	0	R1337E
396.753	0.0	397343	TRIAL_START	n/a	n/a	n/a	-999	1	[0, 0, 0]	n/a	FR1	0	R1337E
396.753	0.0	397343	TRIAL	n/a	n/a	n/a	-999	1	[0, 0, 0]	n/a	FR1	0	R1337E
396.753	2.88	397343	WAITING_START	n/a	n/a	n/a	-999	1	[0, 0, 0]	n/a	FR1	0	R1337E
399.633	0.0	400223	WAITING_END	n/a	n/a	n/a	-999	1	[0, 0, 0]	n/a	FR1	0	R1337E
399.633	10.43	400223	COUNTDOWN_START	n/a	n/a	n/a	-999	1	[0, 0, 0]	n/a	FR1	0	R1337E
410.063	0.001	410652	COUNTDOWN_END	n/a	n/a	n/a	-999	1	[0, 0, 0]	n/a	FR1	0	R1337E
410.064	1.071	410653	ORIENT_START	n/a	n/a	n/a	-999	1	[0, 0, 0]	n/a	FR1	0	R1337E
411.135	0.0	411724	ORIENT_END	n/a	n/a	n/a	-999	1	[0, 0, 0]	n/a	FR1	0	R1337E
411.135	1.128	411724	ENCODING_START	n/a	n/a	n/a	-999	1	[0, 0, 0]	n/a	FR1	0	R1337E
412.263	1.607	412852	WORD	n/a	n/a	RAKE	1	1	[0, 0, 0]	n/a	FR1	0	R1337E
413.87	1.12	414459	WORD_OFF	n/a	n/a	RAKE	1	1	[0, 0, 0]	n/a	FR1	0	R1337E
414.99	1.629	415579	WORD	n/a	n/a	EEL	2	1	[0, 0, 0]	n/a	FR1	0	R1337E
416.619	0.899	417208	WORD_OFF	n/a	n/a	EEL	2	1	[0, 0, 0]	n/a	FR1	0	R1337E
417.518	1.635	418107	WORD	n/a	n/a	SNAIL	3	1	[0, 0, 0]	n/a	FR1	0	R1337E
419.153	0.921	419742	WORD_OFF	n/a	n/a	SNAIL	3	1	[0, 0, 0]	n/a	FR1	0	R1337E
420.074	1.629	420663	WORD	n/a	n/a	CROW	4	1	[0, 0, 0]	n/a	FR1	0	R1337E
421.703	0.997	422292	WORD_OFF	n/a	n/a	CROW	4	1	[0, 0, 0]	n/a	FR1	0	R1337E
422.7	1.637	423289	WORD	n/a	n/a	STORE	5	1	[0, 0, 0]	n/a	FR1	0	R1337E
424.337	0.771	424926	WORD_OFF	n/a	n/a	STORE	5	1	[0, 0, 0]	n/a	FR1	0	R1337E
425.108	1.631	425697	WORD	n/a	n/a	CAGE	6	1	[0, 0, 0]	n/a	FR1	0	R1337E
426.739	0.912	427328	WORD_OFF	n/a	n/a	CAGE	6	1	[0, 0, 0]	n/a	FR1	0	R1337E
427.651	1.637	428240	WORD	n/a	n/a	SHIRT	7	1	[0, 0, 0]	n/a	FR1	0	R1337E
429.288	0.794	429877	WORD_OFF	n/a	n/a	SHIRT	7	1	[0, 0, 0]	n/a	FR1	0	R1337E
430.082	1.623	430671	WORD	n/a	n/a	COW	8	1	[0, 0, 0]	n/a	FR1	0	R1337E
431.705	0.96	432294	WORD_OFF	n/a	n/a	COW	8	1	[0, 0, 0]	n/a	FR1	0	R1337E
432.665	1.624	433254	WORD	n/a	n/a	TENT	9	1	[0, 0, 0]	n/a	FR1	0	R1337E
434.289	1.087	434878	WORD_OFF	n/a	n/a	TENT	9	1	[0, 0, 0]	n/a	FR1	0	R1337E
435.376	1.63	435965	WORD	n/a	n/a	FOAM	10	1	[0, 0, 0]	n/a	FR1	0	R1337E
437.006	0.795	437594	WORD_OFF	n/a	n/a	FOAM	10	1	[0, 0, 0]	n/a	FR1	0	R1337E
437.801	1.622	438389	WORD	n/a	n/a	PANTS	11	1	[0, 0, 0]	n/a	FR1	0	R1337E
439.423	1.077	440011	WORD_OFF	n/a	n/a	PANTS	11	1	[0, 0, 0]	n/a	FR1	0	R1337E
440.5	1.624	441088	WORD	n/a	n/a	DOOR	12	1	[0, 0, 0]	n/a	FR1	0	R1337E
442.124	0.0	442712	DISTRACT_START	n/a	n/a	n/a	-999	1	[0, 0, 0]	n/a	FR1	0	R1337E
442.124	0.0	442712	ENCODING_END	n/a	n/a	n/a	-999	1	[0, 0, 0]	n/a	FR1	0	R1337E
442.124	0.001	442712	WORD_OFF	n/a	n/a	DOOR	12	1	[0, 0, 0]	n/a	FR1	0	R1337E
442.125	0.015	442713	START	n/a	n/a	n/a	-999	1	[-999, -999, -999]	n/a	FR1	0	R1337E
442.14	7.852	442728	PROB	7.852	n/a	n/a	-999	1	[6, 6, 7]	19	FR1	0	R1337E
449.992	7.484	450580	PROB	7.484	n/a	n/a	-999	1	[4, 3, 9]	16	FR1	0	R1337E
457.476	3.668	458064	PROB	3.668	n/a	n/a	-999	1	[1, 6, 2]	9	FR1	0	R1337E
461.144	8.015	461732	PROB	8.015	n/a	n/a	-999	1	[4, 6, 2]	12	FR1	0	R1337E
469.159	0.019	469746	STOP	n/a	n/a	n/a	-999	1	[-999, -999, -999]	n/a	FR1	0	R1337E
469.178	0.617	469765	DISTRACT_END	n/a	n/a	n/a	-999	1	[0, 0, 0]	n/a	FR1	0	R1337E
469.795	1.634	470382	RETRIEVAL_ORIENT_START	n/a	n/a	n/a	-999	1	[0, 0, 0]	n/a	FR1	0	R1337E
471.429	0.0	472016	RETRIEVAL_ORIENT_END	n/a	n/a	n/a	-999	1	[0, 0, 0]	n/a	FR1	0	R1337E
471.429	1.761	472016	REC_START	n/a	n/a	n/a	-999	1	[0, 0, 0]	n/a	FR1	0	R1337E
473.19	1.526	473777	REC_WORD	1.526	n/a	RAKE	1	1	[0, 0, 0]	n/a	FR1	0	R1337E
474.716	1.788	475303	REC_WORD	1.788	n/a	EEL	2	1	[0, 0, 0]	n/a	FR1	0	R1337E
476.504	6.108	477091	REC_WORD	6.108	n/a	SNOW	-999	1	[0, 0, 0]	n/a	FR1	0	R1337E
482.612	1.728	483199	REC_WORD	1.728	n/a	GATE	-999	1	[0, 0, 0]	n/a	FR1	0	R1337E
484.34	8.223	484927	REC_WORD_VV	8.223	n/a	<>	-999	1	[0, 0, 0]	n/a	FR1	0	R1337E
492.563	4.195	493149	REC_WORD	4.195	n/a	CAR	-999	1	[0, 0, 0]	n/a	FR1	0	R1337E
496.758	3.927	497344	REC_WORD	3.927	n/a	TRUCK	-999	1	[0, 0, 0]	n/a	FR1	0	R1337E
500.685	0.757	501271	REC_WORD	0.757	n/a	GATE	-999	1	[0, 0, 0]	n/a	FR1	0	R1337E
501.442	0.0	502028	REC_END	n/a	n/a	n/a	-999	1	[0, 0, 0]	n/a	FR1	0	R1337E
501.442	0.018	502028	TRIAL_END	n/a	n/a	n/a	-999	1	[0, 0, 0]	n/a	FR1	0	R1337E
501.46	0.001	502046	TRIAL_START	n/a	n/a	n/a	-999	2	[0, 0, 0]	n/a	FR1	0	R1337E
501.461	0.0	502047	TRIAL	n/a	n/a	n/a	-999	2	[0, 0, 0]	n/a	FR1	0	R1337E
501.461	4.241	502047	WAITING_START	n/a	n/a	n/a	-999	2	[0, 0, 0]	n/a	FR1	0	R1337E
505.702	0.0	506288	COUNTDOWN_START	n/a	n/a	n/a	-999	2	[0, 0, 0]	n/a	FR1	0	R1337E
505.702	10.429	506288	WAITING_END	n/a	n/a	n/a	-999	2	[0, 0, 0]	n/a	FR1	0	R1337E
516.131	0.0	516716	COUNTDOWN_END	n/a	n/a	n/a	-999	2	[0, 0, 0]	n/a	FR1	0	R1337E
516.131	1.189	516716	ORIENT_START	n/a	n/a	n/a	-999	2	[0, 0, 0]	n/a	FR1	0	R1337E
517.32	0.001	517905	ORIENT_END	n/a	n/a	n/a	-999	2	[0, 0, 0]	n/a	FR1	0	R1337E
517.321	0.904	517906	ENCODING_START	n/a	n/a	n/a	-999	2	[0, 0, 0]	n/a	FR1	0	R1337E
518.225	1.63	518810	WORD	n/a	n/a	VEST	1	2	[0, 0, 0]	n/a	FR1	0	R1337E
519.855	0.855	520440	WORD_OFF	n/a	n/a	VEST	1	2	[0, 0, 0]	n/a	FR1	0	R1337E
520.71	1.628	521295	WORD	n/a	n/a	DUCK	2	2	[0, 0, 0]	n/a	FR1	0	R1337E
522.338	0.953	522923	WORD_OFF	n/a	n/a	DUCK	2	2	[0, 0, 0]	n/a	FR1	0	R1337E
523.291	1.632	523876	WORD	n/a	n/a	MOLE	3	2	[0, 0, 0]	n/a	FR1	0	R1337E
524.923	0.96	525508	WORD_OFF	n/a	n/a	MOLE	3	2	[0, 0, 0]	n/a	FR1	0	R1337E
525.883	1.623	526468	WORD	n/a	n/a	STRAW	4	2	[0, 0, 0]	n/a	FR1	0	R1337E
527.506	1.109	528091	WORD_OFF	n/a	n/a	STRAW	4	2	[0, 0, 0]	n/a	FR1	0	R1337E
528.615	1.624	529200	WORD	n/a	n/a	BAND	5	2	[0, 0, 0]	n/a	FR1	0	R1337E
530.239	1.14	530824	WORD_OFF	n/a	n/a	BAND	5	2	[0, 0, 0]	n/a	FR1	0	R1337E
531.379	1.627	531964	WORD	n/a	n/a	SUN	6	2	[0, 0, 0]	n/a	FR1	0	R1337E
533.006	1.008	533591	WORD_OFF	n/a	n/a	SUN	6	2	[0, 0, 0]	n/a	FR1	0	R1337E
534.014	1.626	534599	WORD	n/a	n/a	JUICE	7	2	[0, 0, 0]	n/a	FR1	0	R1337E
535.64	1.035	536225	WORD_OFF	n/a	n/a	JUICE	7	2	[0, 0, 0]	n/a	FR1	0	R1337E
536.675	1.632	537260	WORD	n/a	n/a	SCHOOL	8	2	[0, 0, 0]	n/a	FR1	0	R1337E
538.307	1.045	538892	WORD_OFF	n/a	n/a	SCHOOL	8	2	[0, 0, 0]	n/a	FR1	0	R1337E
539.352	1.606	539937	WORD	n/a	n/a	HEN	9	2	[0, 0, 0]	n/a	FR1	0	R1337E
540.958	0.868	541543	WORD_OFF	n/a	n/a	HEN	9	2	[0, 0, 0]	n/a	FR1	0	R1337E
541.826	1.632	542411	WORD	n/a	n/a	TOAST	10	2	[0, 0, 0]	n/a	FR1	0	R1337E
543.458	1.009	544042	WORD_OFF	n/a	n/a	TOAST	10	2	[0, 0, 0]	n/a	FR1	0	R1337E
544.467	1.625	545051	WORD	n/a	n/a	SOAP	11	2	[0, 0, 0]	n/a	FR1	0	R1337E
546.092	0.779	546676	WORD_OFF	n/a	n/a	SOAP	11	2	[0, 0, 0]	n/a	FR1	0	R1337E
546.871	1.621	547455	WORD	n/a	n/a	THUMB	12	2	[0, 0, 0]	n/a	FR1	0	R1337E
548.492	0.001	549076	WORD_OFF	n/a	n/a	THUMB	12	2	[0, 0, 0]	n/a	FR1	0	R1337E
548.493	0.0	549077	ENCODING_END	n/a	n/a	n/a	-999	2	[0, 0, 0]	n/a	FR1	0	R1337E
548.493	0.0	549077	DISTRACT_START	n/a	n/a	n/a	-999	2	[0, 0, 0]	n/a	FR1	0	R1337E
548.493	0.016	549077	START	n/a	n/a	n/a	-999	2	[-999, -999, -999]	n/a	FR1	0	R1337E
548.509	8.818	549093	PROB	8.818	n/a	n/a	-999	2	[8, 2, 1]	11	FR1	0	R1337E
557.327	4.734	557911	PROB	4.734	n/a	n/a	-999	2	[4, 9, 8]	21	FR1	0	R1337E
562.061	4.118	562645	PROB	4.118	n/a	n/a	-999	2	[7, 3, 5]	15	FR1	0	R1337E
566.179	5.018	566763	PROB	5.018	n/a	n/a	-999	2	[6, 6, 7]	20	FR1	0	R1337E
571.197	0.016	571780	STOP	n/a	n/a	n/a	-999	2	[-999, -999, -999]	n/a	FR1	0	R1337E
571.213	0.629	571796	DISTRACT_END	n/a	n/a	n/a	-999	2	[0, 0, 0]	n/a	FR1	0	R1337E
571.842	1.655	572425	RETRIEVAL_ORIENT_START	n/a	n/a	n/a	-999	2	[0, 0, 0]	n/a	FR1	0	R1337E
573.497	0.0	574080	RETRIEVAL_ORIENT_END	n/a	n/a	n/a	-999	2	[0, 0, 0]	n/a	FR1	0	R1337E
573.497	0.867	574080	REC_START	n/a	n/a	n/a	-999	2	[0, 0, 0]	n/a	FR1	0	R1337E
574.364	0.635	574947	REC_WORD	0.635	n/a	SUN	6	2	[0, 0, 0]	n/a	FR1	0	R1337E
574.999	1.047	575582	REC_WORD	1.047	n/a	SCHOOL	8	2	[0, 0, 0]	n/a	FR1	0	R1337E
576.046	0.597	576629	REC_WORD	0.597	n/a	DUCK	2	2	[0, 0, 0]	n/a	FR1	0	R1337E
576.643	1.246	577226	REC_WORD	1.246	n/a	HEN	9	2	[0, 0, 0]	n/a	FR1	0	R1337E
577.889	8.562	578472	REC_WORD	8.562	n/a	TOAST	10	2	[0, 0, 0]	n/a	FR1	0	R1337E
586.451	7.361	587034	REC_WORD	7.361	n/a	LADDER	-999	2	[0, 0, 0]	n/a	FR1	0	R1337E
593.812	1.586	594395	REC_WORD_VV	1.586	n/a	<>	-999	2	[0, 0, 0]	n/a	FR1	0	R1337E
595.398	1.625	595981	REC_WORD_VV	1.625	n/a	<>	-999	2	[0, 0, 0]	n/a	FR1	0	R1337E
597.023	0.807	597605	REC_WORD	0.807	n/a	SUN	6	2	[0, 0, 0]	n/a	FR1	0	R1337E
597.83	5.679	598412	REC_WORD_VV	5.679	n/a	<>	-999	2	[0, 0, 0]	n/a	FR1	0	R1337E
603.509	0.001	604091	REC_END	n/a	n/a	n/a	-999	2	[0, 0, 0]	n/a	FR1	0	R1337E
603.51	0.017	604092	TRIAL_END	n/a	n/a	n/a	-999	2	[0, 0, 0]	n/a	FR1	0	R1337E
603.527	0.0	604109	WAITING_START	n/a	n/a	n/a	-999	3	[0, 0, 0]	n/a	FR1	0	R1337E
603.527	0.0	604109	TRIAL_START	n/a	n/a	n/a	-999	3	[0, 0, 0]	n/a	FR1	0	R1337E
603.527	3.21	604109	TRIAL	n/a	n/a	n/a	-999	3	[0, 0, 0]	n/a	FR1	0	R1337E
606.737	0.0	607319	WAITING_END	n/a	n/a	n/a	-999	3	[0, 0, 0]	n/a	FR1	0	R1337E
606.737	10.429	607319	COUNTDOWN_START	n/a	n/a	n/a	-999	3	[0, 0, 0]	n/a	FR1	0	R1337E
617.166	0.0	617748	COUNTDOWN_END	n/a	n/a	n/a	-999	3	[0, 0, 0]	n/a	FR1	0	R1337E
617.166	1.039	617748	ORIENT_START	n/a	n/a	n/a	-999	3	[0, 0, 0]	n/a	FR1	0	R1337E
618.205	0.0	618787	ORIENT_END	n/a	n/a	n/a	-999	3	[0, 0, 0]	n/a	FR1	0	R1337E
618.205	0.979	618787	ENCODING_START	n/a	n/a	n/a	-999	3	[0, 0, 0]	n/a	FR1	0	R1337E
619.184	1.622	619766	WORD	n/a	n/a	SPEAR	1	3	[0, 0, 0]	n/a	FR1	0	R1337E
620.806	1.117	621388	WORD_OFF	n/a	n/a	SPEAR	1	3	[0, 0, 0]	n/a	FR1	0	R1337E
621.923	1.633	622505	WORD	n/a	n/a	CHAIR	2	3	[0, 0, 0]	n/a	FR1	0	R1337E
623.556	1.065	624137	WORD_OFF	n/a	n/a	CHAIR	2	3	[0, 0, 0]	n/a	FR1	0	R1337E
624.621	1.635	625202	WORD	n/a	n/a	ZOO	3	3	[0, 0, 0]	n/a	FR1	0	R1337E
626.256	0.78	626837	WORD_OFF	n/a	n/a	ZOO	3	3	[0, 0, 0]	n/a	FR1	0	R1337E
627.036	1.62	627617	WORD	n/a	n/a	DOG	4	3	[0, 0, 0]	n/a	FR1	0	R1337E
628.656	0.865	629237	WORD_OFF	n/a	n/a	DOG	4	3	[0, 0, 0]	n/a	FR1	0	R1337E
629.521	1.636	630102	WORD	n/a	n/a	BROOM	5	3	[0, 0, 0]	n/a	FR1	0	R1337E
631.157	0.79	631738	WORD_OFF	n/a	n/a	BROOM	5	3	[0, 0, 0]	n/a	FR1	0	R1337E
631.947	1.627	632528	WORD	n/a	n/a	WEB	6	3	[0, 0, 0]	n/a	FR1	0	R1337E
633.574	1.13	634155	WORD_OFF	n/a	n/a	WEB	6	3	[0, 0, 0]	n/a	FR1	0	R1337E
634.704	1.621	635285	WORD	n/a	n/a	FROG	7	3	[0, 0, 0]	n/a	FR1	0	R1337E
636.325	0.878	636906	WORD_OFF	n/a	n/a	FROG	7	3	[0, 0, 0]	n/a	FR1	0	R1337E
637.203	1.623	637784	WORD	n/a	n/a	ROOM	8	3	[0, 0, 0]	n/a	FR1	0	R1337E
638.826	0.972	639407	WORD_OFF	n/a	n/a	ROOM	8	3	[0, 0, 0]	n/a	FR1	0	R1337E
639.798	1.627	640379	WORD	n/a	n/a	RAIN	9	3	[0, 0, 0]	n/a	FR1	0	R1337E
641.425	0.914	642006	WORD_OFF	n/a	n/a	RAIN	9	3	[0, 0, 0]	n/a	FR1	0	R1337E
642.339	1.637	642920	WORD	n/a	n/a	JUDGE	10	3	[0, 0, 0]	n/a	FR1	0	R1337E
643.976	1.075	644557	WORD_OFF	n/a	n/a	JUDGE	10	3	[0, 0, 0]	n/a	FR1	0	R1337E
645.051	1.625	645632	WORD	n/a	n/a	CRANE	11	3	[0, 0, 0]	n/a	FR1	0	R1337E
646.676	1.149	647257	WORD_OFF	n/a	n/a	CRANE	11	3	[0, 0, 0]	n/a	FR1	0	R1337E
647.825	1.635	648406	WORD	n/a	n/a	PURSE	12	3	[0, 0, 0]	n/a	FR1	0	R1337E
649.46	0.001	650040	WORD_OFF	n/a	n/a	PURSE	12	3	[0, 0, 0]	n/a	FR1	0	R1337E
649.461	0.0	650041	ENCODING_END	n/a	n/a	n/a	-999	3	[0, 0, 0]	n/a	FR1	0	R1337E
649.461	0.0	650041	DISTRACT_START	n/a	n/a	n/a	-999	3	[0, 0, 0]	n/a	FR1	0	R1337E
649.461	0.016	650041	START	n/a	n/a	n/a	-999	3	[-999, -999, -999]	n/a	FR1	0	R1337E
649.477	5.784	650057	PROB	5.784	n/a	n/a	-999	3	[1, 3, 4]	8	FR1	0	R1337E
655.261	5.951	655841	PROB	5.951	n/a	n/a	-999	3	[3, 8, 7]	18	FR1	0	R1337E
661.212	6.151	661792	PROB	6.151	n/a	n/a	-999	3	[9, 5, 4]	18	FR1	0	R1337E
667.363	4.34	667943	PROB	4.34	n/a	n/a	-999	3	[5, 2, 9]	16	FR1	0	R1337E
671.703	0.012	672283	STOP	n/a	n/a	n/a	-999	3	[-999, -999, -999]	n/a	FR1	0	R1337E
671.715	0.672	672295	DISTRACT_END	n/a	n/a	n/a	-999	3	[0, 0, 0]	n/a	FR1	0	R1337E
672.387	1.578	672967	RETRIEVAL_ORIENT_START	n/a	n/a	n/a	-999	3	[0, 0, 0]	n/a	FR1	0	R1337E
673.965	0.001	674545	RETRIEVAL_ORIENT_END	n/a	n/a	n/a	-999	3	[0, 0, 0]	n/a	FR1	0	R1337E
673.966	1.091	674546	REC_START	n/a	n/a	n/a	-999	3	[0, 0, 0]	n/a	FR1	0	R1337E
675.057	0.928	675637	REC_WORD	0.928	n/a	DOG	4	3	[0, 0, 0]	n/a	FR1	0	R1337E
675.985	16.075	676564	REC_WORD	16.075	n/a	BROOM	5	3	[0, 0, 0]	n/a	FR1	0	R1337E
692.06	8.5	692639	REC_WORD	8.5	n/a	WINDOW	-999	3	[0, 0, 0]	n/a	FR1	0	R1337E
700.56	1.264	701139	REC_WORD_VV	1.264	n/a	<>	-999	3	[0, 0, 0]	n/a	FR1	0	R1337E
701.824	1.0	702403	REC_WORD_VV	1.0	n/a	<>	-999	3	[0, 0, 0]	n/a	FR1	0	R1337E
702.824	1.152	703402	REC_WORD_VV	1.152	n/a	<>	-999	3	[0, 0, 0]	n/a	FR1	0	R1337E
703.976	0.0	704554	REC_END	n/a	n/a	n/a	-999	3	[0, 0, 0]	n/a	FR1	0	R1337E
703.976	0.02	704554	TRIAL_END	n/a	n/a	n/a	-999	3	[0, 0, 0]	n/a	FR1	0	R1337E
703.996	0.0	704574	WAITING_START	n/a	n/a	n/a	-999	4	[0, 0, 0]	n/a	FR1	0	R1337E
703.996	0.0	704574	TRIAL	n/a	n/a	n/a	-999	4	[0, 0, 0]	n/a	FR1	0	R1337E
703.996	2.908	704574	TRIAL_START	n/a	n/a	n/a	-999	4	[0, 0, 0]	n/a	FR1	0	R1337E
706.904	0.001	707482	WAITING_END	n/a	n/a	n/a	-999	4	[0, 0, 0]	n/a	FR1	0	R1337E
706.905	10.429	707483	COUNTDOWN_START	n/a	n/a	n/a	-999	4	[0, 0, 0]	n/a	FR1	0	R1337E
717.334	0.0	717912	COUNTDOWN_END	n/a	n/a	n/a	-999	4	[0, 0, 0]	n/a	FR1	0	R1337E
717.334	1.088	717912	ORIENT_START	n/a	n/a	n/a	-999	4	[0, 0, 0]	n/a	FR1	0	R1337E
718.422	0.001	719000	ORIENT_END	n/a	n/a	n/a	-999	4	[0, 0, 0]	n/a	FR1	0	R1337E
718.423	1.146	719001	ENCODING_START	n/a	n/a	n/a	-999	4	[0, 0, 0]	n/a	FR1	0	R1337E
719.569	1.637	720147	WORD	n/a	n/a	ROOF	1	4	[0, 0, 0]	n/a	FR1	0	R1337E
721.206	0.899	721784	WORD_OFF	n/a	n/a	ROOF	1	4	[0, 0, 0]	n/a	FR1	0	R1337E
722.105	1.636	722683	WORD	n/a	n/a	MAIL	2	4	[0, 0, 0]	n/a	FR1	0	R1337E
723.741	0.774	724319	WORD_OFF	n/a	n/a	MAIL	2	4	[0, 0, 0]	n/a	FR1	0	R1337E
724.515	1.625	725093	WORD	n/a	n/a	KEY	3	4	[0, 0, 0]	n/a	FR1	0	R1337E
726.14	0.807	726718	WORD_OFF	n/a	n/a	KEY	3	4	[0, 0, 0]	n/a	FR1	0	R1337E
726.947	1.627	727525	WORD	n/a	n/a	BRIDGE	4	4	[0, 0, 0]	n/a	FR1	0	R1337E
728.574	0.822	729152	WORD_OFF	n/a	n/a	BRIDGE	4	4	[0, 0, 0]	n/a	FR1	0	R1337E
729.396	1.628	729973	WORD	n/a	n/a	SQUARE	5	4	[0, 0, 0]	n/a	FR1	0	R1337E
731.024	1.106	731601	WORD_OFF	n/a	n/a	SQUARE	5	4	[0, 0, 0]	n/a	FR1	0	R1337E
732.13	1.629	732707	WORD	n/a	n/a	SAIL	6	4	[0, 0, 0]	n/a	FR1	0	R1337E
733.759	1.11	734336	WORD_OFF	n/a	n/a	SAIL	6	4	[0, 0, 0]	n/a	FR1	0	R1337E
734.869	1.623	735446	WORD	n/a	n/a	CLOTH	7	4	[0, 0, 0]	n/a	FR1	0	R1337E
736.492	1.001	737069	WORD_OFF	n/a	n/a	CLOTH	7	4	[0, 0, 0]	n/a	FR1	0	R1337E
737.493	1.633	738070	WORD	n/a	n/a	PEAR	8	4	[0, 0, 0]	n/a	FR1	0	R1337E
739.126	1.015	739703	WORD_OFF	n/a	n/a	PEAR	8	4	[0, 0, 0]	n/a	FR1	0	R1337E
740.141	1.636	740718	WORD	n/a	n/a	JAR	9	4	[0, 0, 0]	n/a	FR1	0	R1337E
741.777	0.951	742354	WORD_OFF	n/a	n/a	JAR	9	4	[0, 0, 0]	n/a	FR1	0	R1337E
742.728	1.632	743305	WORD	n/a	n/a	HAND	10	4	[0, 0, 0]	n/a	FR1	0	R1337E
744.36	0.754	744937	WORD_OFF	n/a	n/a	HAND	10	4	[0, 0, 0]	n/a	FR1	0	R1337E
745.114	1.631	745691	WORD	n/a	n/a	TOE	11	4	[0, 0, 0]	n/a	FR1	0	R1337E
746.745	1.033	747322	WORD_OFF	n/a	n/a	TOE	11	4	[0, 0, 0]	n/a	FR1	0	R1337E
747.778	1.633	748355	WORD	n/a	n/a	BEE	12	4	[0, 0, 0]	n/a	FR1	0	R1337E
749.411	0.0	749988	WORD_OFF	n/a	n/a	BEE	12	4	[0, 0, 0]	n/a	FR1	0	R1337E
749.411	0.001	749988	ENCODING_END	n/a	n/a	n/a	-999	4	[0, 0, 0]	n/a	FR1	0	R1337E
749.412	0.0	749989	DISTRACT_START	n/a	n/a	n/a	-999	4	[0, 0, 0]	n/a	FR1	0	R1337E
749.412	0.015	749989	START	n/a	n/a	n/a	-999	4	[-999, -999, -999]	n/a	FR1	0	R1337E
749.427	5.851	750004	PROB	5.851	n/a	n/a	-999	4	[8, 1, 3]	12	FR1	0	R1337E
755.278	4.151	755854	PROB	4.151	n/a	n/a	-999	4	[4, 6, 5]	15	FR1	0	R1337E
759.429	3.984	760005	PROB	3.984	n/a	n/a	-999	4	[6, 5, 3]	14	FR1	0	R1337E
763.413	3.751	763989	PROB	3.751	n/a	n/a	-999	4	[7, 1, 7]	15	FR1	0	R1337E
767.164	7.247	767740	PROB	7.247	n/a	n/a	-999	4	[6, 3, 9]	18	FR1	0	R1337E
774.411	0.021	774987	STOP	n/a	n/a	n/a	-999	4	[-999, -999, -999]	n/a	FR1	0	R1337E
774.432	0.609	775008	DISTRACT_END	n/a	n/a	n/a	-999	4	[0, 0, 0]	n/a	FR1	0	R1337E
775.041	1.709	775617	RETRIEVAL_ORIENT_START	n/a	n/a	n/a	-999	4	[0, 0, 0]	n/a	FR1	0	R1337E
776.75	0.0	777326	RETRIEVAL_ORIENT_END	n/a	n/a	n/a	-999	4	[0, 0, 0]	n/a	FR1	0	R1337E
776.75	1.31	777326	REC_START	n/a	n/a	n/a	-999	4	[0, 0, 0]	n/a	FR1	0	R1337E
778.06	1.141	778636	REC_WORD	1.141	n/a	HAND	10	4	[0, 0, 0]	n/a	FR1	0	R1337E
779.201	1.275	779777	REC_WORD	1.275	n/a	TOOL	-999	4	[0, 0, 0]	n/a	FR1	0	R1337E
780.476	11.741	781052	REC_WORD	11.741	n/a	BEE	12	4	[0, 0, 0]	n/a	FR1	0	R1337E
792.217	14.545	792792	REC_WORD	14.545	n/a	ROOF	1	4	[0, 0, 0]	n/a	FR1	0	R1337E
806.762	0.0	807337	REC_END	n/a	n/a	n/a	-999	4	[0, 0, 0]	n/a	FR1	0	R1337E
806.762	0.017	807337	TRIAL_END	n/a	n/a	n/a	-999	4	[0, 0, 0]	n/a	FR1	0	R1337E
806.779	0.0	807354	TRIAL_START	n/a	n/a	n/a	-999	5	[0, 0, 0]	n/a	FR1	0	R1337E
806.779	0.0	807354	TRIAL	n/a	n/a	n/a	-999	5	[0, 0, 0]	n/a	FR1	0	R1337E
806.779	3.559	807354	WAITING_START	n/a	n/a	n/a	-999	5	[0, 0, 0]	n/a	FR1	0	R1337E
810.338	0.001	810912	WAITING_END	n/a	n/a	n/a	-999	5	[0, 0, 0]	n/a	FR1	0	R1337E
810.339	10.428	810913	COUNTDOWN_START	n/a	n/a	n/a	-999	5	[0, 0, 0]	n/a	FR1	0	R1337E
820.767	0.0	821341	COUNTDOWN_END	n/a	n/a	n/a	-999	5	[0, 0, 0]	n/a	FR1	0	R1337E
820.767	1.091	821341	ORIENT_START	n/a	n/a	n/a	-999	5	[0, 0, 0]	n/a	FR1	0	R1337E
821.858	0.0	822432	ORIENT_END	n/a	n/a	n/a	-999	5	[0, 0, 0]	n/a	FR1	0	R1337E
821.858	0.924	822432	ENCODING_START	n/a	n/a	n/a	-999	5	[0, 0, 0]	n/a	FR1	0	R1337E
822.782	1.625	823356	WORD	n/a	n/a	STEAK	1	5	[0, 0, 0]	n/a	FR1	0	R1337E
824.407	0.79	824981	WORD_OFF	n/a	n/a	STEAK	1	5	[0, 0, 0]	n/a	FR1	0	R1337E
825.197	1.612	825771	WORD	n/a	n/a	RICE	2	5	[0, 0, 0]	n/a	FR1	0	R1337E
826.809	0.808	827383	WORD_OFF	n/a	n/a	RICE	2	5	[0, 0, 0]	n/a	FR1	0	R1337E
827.617	1.625	828191	WORD	n/a	n/a	FORT	3	5	[0, 0, 0]	n/a	FR1	0	R1337E
829.242	0.927	829816	WORD_OFF	n/a	n/a	FORT	3	5	[0, 0, 0]	n/a	FR1	0	R1337E
830.169	1.624	830743	WORD	n/a	n/a	LIP	4	5	[0, 0, 0]	n/a	FR1	0	R1337E
831.793	0.997	832367	WORD_OFF	n/a	n/a	LIP	4	5	[0, 0, 0]	n/a	FR1	0	R1337E
832.79	1.636	833364	WORD	n/a	n/a	GEESE	5	5	[0, 0, 0]	n/a	FR1	0	R1337E
834.426	1.104	835000	WORD_OFF	n/a	n/a	GEESE	5	5	[0, 0, 0]	n/a	FR1	0	R1337E
835.53	1.63	836103	WORD	n/a	n/a	LAMP	6	5	[0, 0, 0]	n/a	FR1	0	R1337E
837.16	0.852	837733	WORD_OFF	n/a	n/a	LAMP	6	5	[0, 0, 0]	n/a	FR1	0	R1337E
838.012	1.632	838585	WORD	n/a	n/a	WORM	7	5	[0, 0, 0]	n/a	FR1	0	R1337E
839.644	0.816	840217	WORD_OFF	n/a	n/a	WORM	7	5	[0, 0, 0]	n/a	FR1	0	R1337E
840.46	1.634	841033	WORD	n/a	n/a	BOWL	8	5	[0, 0, 0]	n/a	FR1	0	R1337E
842.094	1.053	842667	WORD_OFF	n/a	n/a	BOWL	8	5	[0, 0, 0]	n/a	FR1	0	R1337E
843.147	1.615	843720	WORD	n/a	n/a	NOSE	9	5	[0, 0, 0]	n/a	FR1	0	R1337E
844.762	1.004	845335	WORD_OFF	n/a	n/a	NOSE	9	5	[0, 0, 0]	n/a	FR1	0	R1337E
845.766	1.629	846339	WORD	n/a	n/a	BAT	10	5	[0, 0, 0]	n/a	FR1	0	R1337E
847.395	1.109	847968	WORD_OFF	n/a	n/a	BAT	10	5	[0, 0, 0]	n/a	FR1	0	R1337E
848.504	1.625	849077	WORD	n/a	n/a	BANK	11	5	[0, 0, 0]	n/a	FR1	0	R1337E
850.129	1.075	850702	WORD_OFF	n/a	n/a	BANK	11	5	[0, 0, 0]	n/a	FR1	0	R1337E
851.204	1.609	851777	WORD	n/a	n/a	SPONGE	12	5	[0, 0, 0]	n/a	FR1	0	R1337E
852.813	0.001	853386	WORD_OFF	n/a	n/a	SPONGE	12	5	[0, 0, 0]	n/a	FR1	0	R1337E
852.814	0.0	853387	ENCODING_END	n/a	n/a	n/a	-999	5	[0, 0, 0]	n/a	FR1	0	R1337E
852.814	0.0	853387	DISTRACT_START	n/a	n/a	n/a	-999	5	[0, 0, 0]	n/a	FR1	0	R1337E
852.814	0.016	853387	START	n/a	n/a	n/a	-999	5	[-999, -999, -999]	n/a	FR1	0	R1337E
852.83	8.517	853403	PROB	8.517	n/a	n/a	-999	5	[8, 9, 4]	21	FR1	0	R1337E
861.347	7.651	861920	PROB	7.651	n/a	n/a	-999	5	[9, 5, 5]	19	FR1	0	R1337E
868.998	6.111	869570	PROB	6.111	n/a	n/a	-999	5	[8, 2, 5]	15	FR1	0	R1337E
875.109	0.007	875681	STOP	n/a	n/a	n/a	-999	5	[-999, -999, -999]	n/a	FR1	0	R1337E
875.116	0.622	875688	DISTRACT_END	n/a	n/a	n/a	-999	5	[0, 0, 0]	n/a	FR1	0	R1337E
875.738	1.529	876310	RETRIEVAL_ORIENT_START	n/a	n/a	n/a	-999	5	[0, 0, 0]	n/a	FR1	0	R1337E
877.267	0.0	877839	RETRIEVAL_ORIENT_END	n/a	n/a	n/a	-999	5	[0, 0, 0]	n/a	FR1	0	R1337E
877.267	1.434	877839	REC_START	n/a	n/a	n/a	-999	5	[0, 0, 0]	n/a	FR1	0	R1337E
878.701	1.209	879273	REC_WORD	1.209	n/a	STEAK	1	5	[0, 0, 0]	n/a	FR1	0	R1337E
879.91	3.602	880482	REC_WORD	3.602	n/a	RICE	2	5	[0, 0, 0]	n/a	FR1	0	R1337E
883.512	4.323	884084	REC_WORD	4.323	n/a	LAMP	6	5	[0, 0, 0]	n/a	FR1	0	R1337E
887.835	17.551	888407	REC_WORD	17.551	n/a	ROOF	-999	5	[0, 0, 0]	n/a	FR1	0	R1337E
905.386	1.0	905957	REC_WORD_VV	1.0	n/a	<>	-999	5	[0, 0, 0]	n/a	FR1	0	R1337E
906.386	0.894	906957	REC_WORD_VV	0.894	n/a	<>	-999	5	[0, 0, 0]	n/a	FR1	0	R1337E
907.28	0.0	907851	REC_END	n/a	n/a	n/a	-999	5	[0, 0, 0]	n/a	FR1	0	R1337E
907.28	0.017	907851	TRIAL_END	n/a	n/a	n/a	-999	5	[0, 0, 0]	n/a	FR1	0	R1337E
907.297	0.0	907868	TRIAL	n/a	n/a	n/a	-999	6	[0, 0, 0]	n/a	FR1	0	R1337E
907.297	0.0	907868	WAITING_START	n/a	n/a	n/a	-999	6	[0, 0, 0]	n/a	FR1	0	R1337E
907.297	4.826	907868	TRIAL_START	n/a	n/a	n/a	-999	6	[0, 0, 0]	n/a	FR1	0	R1337E
912.123	0.0	912694	WAITING_END	n/a	n/a	n/a	-999	6	[0, 0, 0]	n/a	FR1	0	R1337E
912.123	10.43	912694	COUNTDOWN_START	n/a	n/a	n/a	-999	6	[0, 0, 0]	n/a	FR1	0	R1337E
922.553	0.0	923123	COUNTDOWN_END	n/a	n/a	n/a	-999	6	[0, 0, 0]	n/a	FR1	0	R1337E
922.553	1.189	923123	ORIENT_START	n/a	n/a	n/a	-999	6	[0, 0, 0]	n/a	FR1	0	R1337E
923.742	0.001	924312	ORIENT_END	n/a	n/a	n/a	-999	6	[0, 0, 0]	n/a	FR1	0	R1337E
923.743	0.987	924313	ENCODING_START	n/a	n/a	n/a	-999	6	[0, 0, 0]	n/a	FR1	0	R1337E
924.73	1.629	925300	WORD	n/a	n/a	PIE	1	6	[0, 0, 0]	n/a	FR1	0	R1337E
926.359	1.129	926929	WORD_OFF	n/a	n/a	PIE	1	6	[0, 0, 0]	n/a	FR1	0	R1337E
927.488	1.621	928058	WORD	n/a	n/a	POOL	2	6	[0, 0, 0]	n/a	FR1	0	R1337E
929.109	0.872	929679	WORD_OFF	n/a	n/a	POOL	2	6	[0, 0, 0]	n/a	FR1	0	R1337E
929.981	1.629	930551	WORD	n/a	n/a	WALL	3	6	[0, 0, 0]	n/a	FR1	0	R1337E
931.61	1.121	932180	WORD_OFF	n/a	n/a	WALL	3	6	[0, 0, 0]	n/a	FR1	0	R1337E
932.731	1.629	933301	WORD	n/a	n/a	MAZE	4	6	[0, 0, 0]	n/a	FR1	0	R1337E
934.36	0.894	934930	WORD_OFF	n/a	n/a	MAZE	4	6	[0, 0, 0]	n/a	FR1	0	R1337E
935.254	1.607	935824	WORD	n/a	n/a	SPOON	5	6	[0, 0, 0]	n/a	FR1	0	R1337E
936.861	1.144	937431	WORD_OFF	n/a	n/a	SPOON	5	6	[0, 0, 0]	n/a	FR1	0	R1337E
938.005	1.623	938575	WORD	n/a	n/a	OAK	6	6	[0, 0, 0]	n/a	FR1	0	R1337E
939.628	1.006	940198	WORD_OFF	n/a	n/a	OAK	6	6	[0, 0, 0]	n/a	FR1	0	R1337E
940.634	1.627	941204	WORD	n/a	n/a	SEA	7	6	[0, 0, 0]	n/a	FR1	0	R1337E
942.261	1.08	942830	WORD_OFF	n/a	n/a	SEA	7	6	[0, 0, 0]	n/a	FR1	0	R1337E
943.341	1.605	943910	WORD	n/a	n/a	GOAT	8	6	[0, 0, 0]	n/a	FR1	0	R1337E
944.946	0.97	945515	WORD_OFF	n/a	n/a	GOAT	8	6	[0, 0, 0]	n/a	FR1	0	R1337E
945.916	1.63	946485	WORD	n/a	n/a	SPRING	9	6	[0, 0, 0]	n/a	FR1	0	R1337E
947.546	0.828	948115	WORD_OFF	n/a	n/a	SPRING	9	6	[0, 0, 0]	n/a	FR1	0	R1337E
948.374	1.622	948943	WORD	n/a	n/a	SEED	10	6	[0, 0, 0]	n/a	FR1	0	R1337E
949.996	1.094	950565	WORD_OFF	n/a	n/a	SEED	10	6	[0, 0, 0]	n/a	FR1	0	R1337E
951.09	1.624	951659	WORD	n/a	n/a	FOX	11	6	[0, 0, 0]	n/a	FR1	0	R1337E
952.714	1.127	953283	WORD_OFF	n/a	n/a	FOX	11	6	[0, 0, 0]	n/a	FR1	0	R1337E
953.841	1.623	954410	WORD	n/a	n/a	GUARD	12	6	[0, 0, 0]	n/a	FR1	0	R1337E
955.464	0.0	956033	DISTRACT_START	n/a	n/a	n/a	-999	6	[0, 0, 0]	n/a	FR1	0	R1337E
955.464	0.0	956033	ENCODING_END	n/a	n/a	n/a	-999	6	[0, 0, 0]	n/a	FR1	0	R1337E
955.464	0.0	956033	WORD_OFF	n/a	n/a	GUARD	12	6	[0, 0, 0]	n/a	FR1	0	R1337E
955.464	0.016	956033	START	n/a	n/a	n/a	-999	6	[-999, -999, -999]	n/a	FR1	0	R1337E
955.48	7.185	956049	PROB	7.185	n/a	n/a	-999	6	[6, 5, 3]	14	FR1	0	R1337E
962.665	6.102	963234	PROB	6.102	n/a	n/a	-999	6	[4, 3, 6]	13	FR1	0	R1337E
968.767	4.716	969335	PROB	4.716	n/a	n/a	-999	6	[3, 5, 7]	15	FR1	0	R1337E
973.483	4.656	974051	PROB	4.656	n/a	n/a	-999	6	[5, 2, 9]	16	FR1	0	R1337E
978.139	0.012	978707	STOP	n/a	n/a	n/a	-999	6	[-999, -999, -999]	n/a	FR1	0	R1337E
978.151	0.618	978719	DISTRACT_END	n/a	n/a	n/a	-999	6	[0, 0, 0]	n/a	FR1	0	R1337E
978.769	1.666	979337	RETRIEVAL_ORIENT_START	n/a	n/a	n/a	-999	6	[0, 0, 0]	n/a	FR1	0	R1337E
980.435	0.0	981003	RETRIEVAL_ORIENT_END	n/a	n/a	n/a	-999	6	[0, 0, 0]	n/a	FR1	0	R1337E
980.435	0.34	981003	REC_START	n/a	n/a	n/a	-999	6	[0, 0, 0]	n/a	FR1	0	R1337E
980.775	0.522	981343	REC_WORD	0.522	n/a	POOL	2	6	[0, 0, 0]	n/a	FR1	0	R1337E
981.297	0.885	981865	REC_WORD	0.885	n/a	WALL	3	6	[0, 0, 0]	n/a	FR1	0	R1337E
982.182	5.018	982750	REC_WORD	5.018	n/a	MAZE	4	6	[0, 0, 0]	n/a	FR1	0	R1337E
987.2	8.961	987768	REC_WORD	8.961	n/a	LAND	-999	6	[0, 0, 0]	n/a	FR1	0	R1337E
996.161	8.627	996728	REC_WORD	8.627	n/a	TREE	-999	6	[0, 0, 0]	n/a	FR1	0	R1337E
1004.788	5.659	1005355	REC_WORD_VV	5.659	n/a	<>	-999	6	[0, 0, 0]	n/a	FR1	0	R1337E
1010.447	0.0	1011014	REC_END	n/a	n/a	n/a	-999	6	[0, 0, 0]	n/a	FR1	0	R1337E
1010.447	0.017	1011014	TRIAL_END	n/a	n/a	n/a	-999	6	[0, 0, 0]	n/a	FR1	0	R1337E
1010.464	0.0	1011031	TRIAL_START	n/a	n/a	n/a	-999	7	[0, 0, 0]	n/a	FR1	0	R1337E
1010.464	0.0	1011031	TRIAL	n/a	n/a	n/a	-999	7	[0, 0, 0]	n/a	FR1	0	R1337E
1010.464	4.027	1011031	WAITING_START	n/a	n/a	n/a	-999	7	[0, 0, 0]	n/a	FR1	0	R1337E
1014.491	0.0	1015058	WAITING_END	n/a	n/a	n/a	-999	7	[0, 0, 0]	n/a	FR1	0	R1337E
1014.491	10.429	1015058	COUNTDOWN_START	n/a	n/a	n/a	-999	7	[0, 0, 0]	n/a	FR1	0	R1337E
1024.92	0.0	1025486	ORIENT_START	n/a	n/a	n/a	-999	7	[0, 0, 0]	n/a	FR1	0	R1337E
1024.92	1.09	1025486	COUNTDOWN_END	n/a	n/a	n/a	-999	7	[0, 0, 0]	n/a	FR1	0	R1337E
1026.01	0.0	1026576	ORIENT_END	n/a	n/a	n/a	-999	7	[0, 0, 0]	n/a	FR1	0	R1337E
1026.01	0.813	1026576	ENCODING_START	n/a	n/a	n/a	-999	7	[0, 0, 0]	n/a	FR1	0	R1337E
1026.823	1.62	1027389	WORD	n/a	n/a	AXE	1	7	[0, 0, 0]	n/a	FR1	0	R1337E
1028.443	0.76	1029009	WORD_OFF	n/a	n/a	AXE	1	7	[0, 0, 0]	n/a	FR1	0	R1337E
1029.203	1.625	1029769	WORD	n/a	n/a	JAIL	2	7	[0, 0, 0]	n/a	FR1	0	R1337E
1030.828	0.796	1031394	WORD_OFF	n/a	n/a	JAIL	2	7	[0, 0, 0]	n/a	FR1	0	R1337E
1031.624	1.637	1032190	WORD	n/a	n/a	NEST	3	7	[0, 0, 0]	n/a	FR1	0	R1337E
1033.261	0.873	1033827	WORD_OFF	n/a	n/a	NEST	3	7	[0, 0, 0]	n/a	FR1	0	R1337E
1034.134	1.611	1034700	WORD	n/a	n/a	NET	4	7	[0, 0, 0]	n/a	FR1	0	R1337E
1035.745	0.9	1036311	WORD_OFF	n/a	n/a	NET	4	7	[0, 0, 0]	n/a	FR1	0	R1337E
1036.645	1.633	1037211	WORD	n/a	n/a	CONE	5	7	[0, 0, 0]	n/a	FR1	0	R1337E
1038.278	1.15	1038844	WORD_OFF	n/a	n/a	CONE	5	7	[0, 0, 0]	n/a	FR1	0	R1337E
1039.428	1.634	1039994	WORD	n/a	n/a	BALL	6	7	[0, 0, 0]	n/a	FR1	0	R1337E
1041.062	1.094	1041628	WORD_OFF	n/a	n/a	BALL	6	7	[0, 0, 0]	n/a	FR1	0	R1337E
1042.156	1.607	1042722	WORD	n/a	n/a	PLATE	7	7	[0, 0, 0]	n/a	FR1	0	R1337E
1043.763	1.082	1044329	WORD_OFF	n/a	n/a	PLATE	7	7	[0, 0, 0]	n/a	FR1	0	R1337E
1044.845	1.635	1045411	WORD	n/a	n/a	BOY	8	7	[0, 0, 0]	n/a	FR1	0	R1337E
1046.48	0.848	1047046	WORD_OFF	n/a	n/a	BOY	8	7	[0, 0, 0]	n/a	FR1	0	R1337E
1047.328	1.62	1047894	WORD	n/a	n/a	FOOT	9	7	[0, 0, 0]	n/a	FR1	0	R1337E
1048.948	1.14	1049513	WORD_OFF	n/a	n/a	FOOT	9	7	[0, 0, 0]	n/a	FR1	0	R1337E
1050.088	1.627	1050653	WORD	n/a	n/a	TOY	10	7	[0, 0, 0]	n/a	FR1	0	R1337E
1051.715	0.754	1052280	WORD_OFF	n/a	n/a	TOY	10	7	[0, 0, 0]	n/a	FR1	0	R1337E
1052.469	1.629	1053034	WORD	n/a	n/a	RIB	11	7	[0, 0, 0]	n/a	FR1	0	R1337E
1054.098	1.042	1054663	WORD_OFF	n/a	n/a	RIB	11	7	[0, 0, 0]	n/a	FR1	0	R1337E
1055.14	1.626	1055705	WORD	n/a	n/a	WAND	12	7	[0, 0, 0]	n/a	FR1	0	R1337E
1056.766	0.0	1057331	DISTRACT_START	n/a	n/a	n/a	-999	7	[0, 0, 0]	n/a	FR1	0	R1337E
1056.766	0.0	1057331	ENCODING_END	n/a	n/a	n/a	-999	7	[0, 0, 0]	n/a	FR1	0	R1337E
1056.766	0.001	1057331	WORD_OFF	n/a	n/a	WAND	12	7	[0, 0, 0]	n/a	FR1	0	R1337E
1056.767	0.015	1057332	START	n/a	n/a	n/a	-999	7	[-999, -999, -999]	n/a	FR1	0	R1337E
1056.782	6.968	1057347	PROB	6.968	n/a	n/a	-999	7	[8, 3, 9]	20	FR1	0	R1337E
1063.75	5.767	1064315	PROB	5.767	n/a	n/a	-999	7	[7, 2, 8]	17	FR1	0	R1337E
1069.517	7.051	1070082	PROB	7.051	n/a	n/a	-999	7	[4, 1, 2]	8	FR1	0	R1337E
1076.568	5.973	1077132	PROB	5.973	n/a	n/a	-999	7	[1, 6, 7]	14	FR1	0	R1337E
1082.541	0.012	1083105	STOP	n/a	n/a	n/a	-999	7	[-999, -999, -999]	n/a	FR1	0	R1337E
1082.553	0.565	1083117	DISTRACT_END	n/a	n/a	n/a	-999	7	[0, 0, 0]	n/a	FR1	0	R1337E
1083.118	1.669	1083682	RETRIEVAL_ORIENT_START	n/a	n/a	n/a	-999	7	[0, 0, 0]	n/a	FR1	0	R1337E
1084.787	0.001	1085351	RETRIEVAL_ORIENT_END	n/a	n/a	n/a	-999	7	[0, 0, 0]	n/a	FR1	0	R1337E
1084.788	0.215	1085352	REC_START	n/a	n/a	n/a	-999	7	[0, 0, 0]	n/a	FR1	0	R1337E
1085.003	0.78	1085567	REC_WORD	0.78	n/a	AXE	1	7	[0, 0, 0]	n/a	FR1	0	R1337E
1085.783	0.814	1086347	REC_WORD	0.814	n/a	JAIL	2	7	[0, 0, 0]	n/a	FR1	0	R1337E
1086.597	1.065	1087161	REC_WORD	1.065	n/a	NET	4	7	[0, 0, 0]	n/a	FR1	0	R1337E
1087.662	1.078	1088226	REC_WORD	1.078	n/a	CONE	5	7	[0, 0, 0]	n/a	FR1	0	R1337E
1088.74	1.284	1089304	REC_WORD	1.284	n/a	TOOL	-999	7	[0, 0, 0]	n/a	FR1	0	R1337E
1090.024	6.679	1090588	REC_WORD	6.679	n/a	BOY	8	7	[0, 0, 0]	n/a	FR1	0	R1337E
1096.703	9.188	1097267	REC_WORD_VV	9.188	n/a	<>	-999	7	[0, 0, 0]	n/a	FR1	0	R1337E
1105.891	8.908	1106454	REC_WORD_VV	8.908	n/a	<>	-999	7	[0, 0, 0]	n/a	FR1	0	R1337E
1114.799	0.0	1115362	REC_END	n/a	n/a	n/a	-999	7	[0, 0, 0]	n/a	FR1	0	R1337E
1114.799	0.017	1115362	TRIAL_END	n/a	n/a	n/a	-999	7	[0, 0, 0]	n/a	FR1	0	R1337E
1114.816	0.001	1115379	TRIAL_START	n/a	n/a	n/a	-999	8	[0, 0, 0]	n/a	FR1	0	R1337E
1114.817	0.0	1115380	TRIAL	n/a	n/a	n/a	-999	8	[0, 0, 0]	n/a	FR1	0	R1337E
1114.817	2.608	1115380	WAITING_START	n/a	n/a	n/a	-999	8	[0, 0, 0]	n/a	FR1	0	R1337E
1117.425	0.001	1117988	WAITING_END	n/a	n/a	n/a	-999	8	[0, 0, 0]	n/a	FR1	0	R1337E
1117.426	10.429	1117989	COUNTDOWN_START	n/a	n/a	n/a	-999	8	[0, 0, 0]	n/a	FR1	0	R1337E
1127.855	0.0	1128418	COUNTDOWN_END	n/a	n/a	n/a	-999	8	[0, 0, 0]	n/a	FR1	0	R1337E
1127.855	1.189	1128418	ORIENT_START	n/a	n/a	n/a	-999	8	[0, 0, 0]	n/a	FR1	0	R1337E
1129.044	0.001	1129606	ORIENT_END	n/a	n/a	n/a	-999	8	[0, 0, 0]	n/a	FR1	0	R1337E
1129.045	1.133	1129607	ENCODING_START	n/a	n/a	n/a	-999	8	[0, 0, 0]	n/a	FR1	0	R1337E
1130.178	1.617	1130740	WORD	n/a	n/a	APE	1	8	[0, 0, 0]	n/a	FR1	0	R1337E
1131.795	0.942	1132357	WORD_OFF	n/a	n/a	APE	1	8	[0, 0, 0]	n/a	FR1	0	R1337E
1132.737	1.625	1133299	WORD	n/a	n/a	CANE	2	8	[0, 0, 0]	n/a	FR1	0	R1337E
1134.362	0.881	1134924	WORD_OFF	n/a	n/a	CANE	2	8	[0, 0, 0]	n/a	FR1	0	R1337E
1135.243	1.637	1135805	WORD	n/a	n/a	MOTH	3	8	[0, 0, 0]	n/a	FR1	0	R1337E
1136.88	0.816	1137442	WORD_OFF	n/a	n/a	MOTH	3	8	[0, 0, 0]	n/a	FR1	0	R1337E
1137.696	1.633	1138258	WORD	n/a	n/a	GLASS	4	8	[0, 0, 0]	n/a	FR1	0	R1337E
1139.329	0.948	1139891	WORD_OFF	n/a	n/a	GLASS	4	8	[0, 0, 0]	n/a	FR1	0	R1337E
1140.277	1.62	1140839	WORD	n/a	n/a	COIN	5	8	[0, 0, 0]	n/a	FR1	0	R1337E
1141.897	0.93	1142459	WORD_OFF	n/a	n/a	COIN	5	8	[0, 0, 0]	n/a	FR1	0	R1337E
1142.827	1.62	1143389	WORD	n/a	n/a	CALF	6	8	[0, 0, 0]	n/a	FR1	0	R1337E
1144.447	1.142	1145009	WORD_OFF	n/a	n/a	CALF	6	8	[0, 0, 0]	n/a	FR1	0	R1337E
1145.589	1.625	1146151	WORD	n/a	n/a	MAT	7	8	[0, 0, 0]	n/a	FR1	0	R1337E
1147.214	0.913	1147776	WORD_OFF	n/a	n/a	MAT	7	8	[0, 0, 0]	n/a	FR1	0	R1337E
1148.127	1.622	1148689	WORD	n/a	n/a	BRUSH	8	8	[0, 0, 0]	n/a	FR1	0	R1337E
1149.749	0.784	1150311	WORD_OFF	n/a	n/a	BRUSH	8	8	[0, 0, 0]	n/a	FR1	0	R1337E
1150.533	1.632	1151095	WORD	n/a	n/a	DOCK	9	8	[0, 0, 0]	n/a	FR1	0	R1337E
1152.165	1.02	1152727	WORD_OFF	n/a	n/a	DOCK	9	8	[0, 0, 0]	n/a	FR1	0	R1337E
1153.185	1.631	1153747	WORD	n/a	n/a	POLE	10	8	[0, 0, 0]	n/a	FR1	0	R1337E
1154.816	0.922	1155377	WORD_OFF	n/a	n/a	POLE	10	8	[0, 0, 0]	n/a	FR1	0	R1337E
1155.738	1.628	1156299	WORD	n/a	n/a	SOCK	11	8	[0, 0, 0]	n/a	FR1	0	R1337E
1157.366	1.048	1157927	WORD_OFF	n/a	n/a	SOCK	11	8	[0, 0, 0]	n/a	FR1	0	R1337E
1158.414	1.636	1158975	WORD	n/a	n/a	STRING	12	8	[0, 0, 0]	n/a	FR1	0	R1337E
1160.05	0.0	1160611	DISTRACT_START	n/a	n/a	n/a	-999	8	[0, 0, 0]	n/a	FR1	0	R1337E
1160.05	0.0	1160611	WORD_OFF	n/a	n/a	STRING	12	8	[0, 0, 0]	n/a	FR1	0	R1337E
1160.05	0.0	1160611	ENCODING_END	n/a	n/a	n/a	-999	8	[0, 0, 0]	n/a	FR1	0	R1337E
1160.05	0.016	1160611	START	n/a	n/a	n/a	-999	8	[-999, -999, -999]	n/a	FR1	0	R1337E
1160.066	9.803	1160627	PROB	9.803	n/a	n/a	-999	8	[2, 3, 9]	14	FR1	0	R1337E
1169.869	6.317	1170430	PROB	6.317	n/a	n/a	-999	8	[4, 1, 1]	6	FR1	0	R1337E
1176.186	4.169	1176747	PROB	4.169	n/a	n/a	-999	8	[5, 2, 8]	15	FR1	0	R1337E
1180.355	0.015	1180916	STOP	n/a	n/a	n/a	-999	8	[-999, -999, -999]	n/a	FR1	0	R1337E
1180.37	0.623	1180931	DISTRACT_END	n/a	n/a	n/a	-999	8	[0, 0, 0]	n/a	FR1	0	R1337E
1180.993	1.711	1181554	RETRIEVAL_ORIENT_START	n/a	n/a	n/a	-999	8	[0, 0, 0]	n/a	FR1	0	R1337E
1182.704	0.0	1183264	RETRIEVAL_ORIENT_END	n/a	n/a	n/a	-999	8	[0, 0, 0]	n/a	FR1	0	R1337E
1182.704	1.055	1183264	REC_START	n/a	n/a	n/a	-999	8	[0, 0, 0]	n/a	FR1	0	R1337E
1183.759	0.589	1184319	REC_WORD	0.589	n/a	APE	1	8	[0, 0, 0]	n/a	FR1	0	R1337E
1184.348	0.776	1184908	REC_WORD	0.776	n/a	MOTH	3	8	[0, 0, 0]	n/a	FR1	0	R1337E
1185.124	0.825	1185684	REC_WORD	0.825	n/a	POLE	10	8	[0, 0, 0]	n/a	FR1	0	R1337E
1185.949	0.717	1186509	REC_WORD	0.717	n/a	CAP	-999	8	[0, 0, 0]	n/a	FR1	0	R1337E
1186.666	26.05	1187226	REC_WORD	26.05	n/a	BRUSH	8	8	[0, 0, 0]	n/a	FR1	0	R1337E
1212.716	0.0	1213275	REC_END	n/a	n/a	n/a	-999	8	[0, 0, 0]	n/a	FR1	0	R1337E
1212.716	0.017	1213275	TRIAL_END	n/a	n/a	n/a	-999	8	[0, 0, 0]	n/a	FR1	0	R1337E
1212.733	0.0	1213292	TRIAL_START	n/a	n/a	n/a	-999	9	[0, 0, 0]	n/a	FR1	0	R1337E
1212.733	0.001	1213292	TRIAL	n/a	n/a	n/a	-999	9	[0, 0, 0]	n/a	FR1	0	R1337E
1212.734	3.776	1213293	WAITING_START	n/a	n/a	n/a	-999	9	[0, 0, 0]	n/a	FR1	0	R1337E
1216.51	0.0	1217069	WAITING_END	n/a	n/a	n/a	-999	9	[0, 0, 0]	n/a	FR1	0	R1337E
1216.51	10.429	1217069	COUNTDOWN_START	n/a	n/a	n/a	-999	9	[0, 0, 0]	n/a	FR1	0	R1337E
1226.939	0.0	1227498	ORIENT_START	n/a	n/a	n/a	-999	9	[0, 0, 0]	n/a	FR1	0	R1337E
1226.939	1.073	1227498	COUNTDOWN_END	n/a	n/a	n/a	-999	9	[0, 0, 0]	n/a	FR1	0	R1337E
1228.012	0.0	1228571	ORIENT_END	n/a	n/a	n/a	-999	9	[0, 0, 0]	n/a	FR1	0	R1337E
1228.012	1.034	1228571	ENCODING_START	n/a	n/a	n/a	-999	9	[0, 0, 0]	n/a	FR1	0	R1337E
1229.046	1.633	1229605	WORD	n/a	n/a	TIE	1	9	[0, 0, 0]	n/a	FR1	0	R1337E
1230.679	0.836	1231238	WORD_OFF	n/a	n/a	TIE	1	9	[0, 0, 0]	n/a	FR1	0	R1337E
1231.515	1.631	1232074	WORD	n/a	n/a	TOOTH	2	9	[0, 0, 0]	n/a	FR1	0	R1337E
1233.146	1.058	1233705	WORD_OFF	n/a	n/a	TOOTH	2	9	[0, 0, 0]	n/a	FR1	0	R1337E
1234.204	1.626	1234763	WORD	n/a	n/a	CHALK	3	9	[0, 0, 0]	n/a	FR1	0	R1337E
1235.83	0.79	1236388	WORD_OFF	n/a	n/a	CHALK	3	9	[0, 0, 0]	n/a	FR1	0	R1337E
1236.62	1.627	1237178	WORD	n/a	n/a	PIT	4	9	[0, 0, 0]	n/a	FR1	0	R1337E
1238.247	0.805	1238805	WORD_OFF	n/a	n/a	PIT	4	9	[0, 0, 0]	n/a	FR1	0	R1337E
1239.052	1.628	1239610	WORD	n/a	n/a	FILM	5	9	[0, 0, 0]	n/a	FR1	0	R1337E
1240.68	0.784	1241238	WORD_OFF	n/a	n/a	FILM	5	9	[0, 0, 0]	n/a	FR1	0	R1337E
1241.464	1.633	1242022	WORD	n/a	n/a	SPARK	6	9	[0, 0, 0]	n/a	FR1	0	R1337E
1243.097	1.125	1243655	WORD_OFF	n/a	n/a	SPARK	6	9	[0, 0, 0]	n/a	FR1	0	R1337E
1244.222	1.627	1244780	WORD	n/a	n/a	ROOT	7	9	[0, 0, 0]	n/a	FR1	0	R1337E
1245.849	0.894	1246407	WORD_OFF	n/a	n/a	ROOT	7	9	[0, 0, 0]	n/a	FR1	0	R1337E
1246.743	1.622	1247301	WORD	n/a	n/a	CAKE	8	9	[0, 0, 0]	n/a	FR1	0	R1337E
1248.365	0.937	1248923	WORD_OFF	n/a	n/a	CAKE	8	9	[0, 0, 0]	n/a	FR1	0	R1337E
1249.302	1.631	1249860	WORD	n/a	n/a	LAND	9	9	[0, 0, 0]	n/a	FR1	0	R1337E
1250.933	0.813	1251491	WORD_OFF	n/a	n/a	LAND	9	9	[0, 0, 0]	n/a	FR1	0	R1337E
1251.746	1.62	1252304	WORD	n/a	n/a	DRUM	10	9	[0, 0, 0]	n/a	FR1	0	R1337E
1253.366	1.084	1253924	WORD_OFF	n/a	n/a	DRUM	10	9	[0, 0, 0]	n/a	FR1	0	R1337E
1254.45	1.633	1255008	WORD	n/a	n/a	BLOOM	11	9	[0, 0, 0]	n/a	FR1	0	R1337E
1256.083	0.773	1256641	WORD_OFF	n/a	n/a	BLOOM	11	9	[0, 0, 0]	n/a	FR1	0	R1337E
1256.856	1.627	1257414	WORD	n/a	n/a	EAR	12	9	[0, 0, 0]	n/a	FR1	0	R1337E
1258.483	0.001	1259041	WORD_OFF	n/a	n/a	EAR	12	9	[0, 0, 0]	n/a	FR1	0	R1337E
1258.484	0.0	1259042	DISTRACT_START	n/a	n/a	n/a	-999	9	[0, 0, 0]	n/a	FR1	0	R1337E
1258.484	0.0	1259042	ENCODING_END	n/a	n/a	n/a	-999	9	[0, 0, 0]	n/a	FR1	0	R1337E
1258.484	0.016	1259042	START	n/a	n/a	n/a	-999	9	[-999, -999, -999]	n/a	FR1	0	R1337E
1258.5	9.135	1259058	PROB	9.135	n/a	n/a	-999	9	[2, 3, 2]	7	FR1	0	R1337E
1267.635	3.901	1268192	PROB	3.901	n/a	n/a	-999	9	[1, 1, 8]	10	FR1	0	R1337E
1271.536	6.185	1272093	PROB	6.185	n/a	n/a	-999	9	[4, 8, 7]	19	FR1	0	R1337E
1277.721	6.849	1278278	PROB	6.849	n/a	n/a	-999	9	[6, 8, 2]	16	FR1	0	R1337E
1284.57	0.018	1285127	STOP	n/a	n/a	n/a	-999	9	[-999, -999, -999]	n/a	FR1	0	R1337E
1284.588	0.531	1285145	DISTRACT_END	n/a	n/a	n/a	-999	9	[0, 0, 0]	n/a	FR1	0	R1337E
1285.119	1.553	1285676	RETRIEVAL_ORIENT_START	n/a	n/a	n/a	-999	9	[0, 0, 0]	n/a	FR1	0	R1337E
1286.672	0.0	1287229	RETRIEVAL_ORIENT_END	n/a	n/a	n/a	-999	9	[0, 0, 0]	n/a	FR1	0	R1337E
1286.672	0.902	1287229	REC_START	n/a	n/a	n/a	-999	9	[0, 0, 0]	n/a	FR1	0	R1337E
1287.574	1.048	1288131	REC_WORD	1.048	n/a	DRUM	10	9	[0, 0, 0]	n/a	FR1	0	R1337E
1288.622	0.867	1289178	REC_WORD	0.867	n/a	BLOOM	11	9	[0, 0, 0]	n/a	FR1	0	R1337E
1289.489	1.438	1290045	REC_WORD	1.438	n/a	EAR	12	9	[0, 0, 0]	n/a	FR1	0	R1337E
1290.927	5.325	1291483	REC_WORD	5.325	n/a	TIE	1	9	[0, 0, 0]	n/a	FR1	0	R1337E
1296.252	3.874	1296808	REC_WORD	3.874	n/a	CHIN	-999	9	[0, 0, 0]	n/a	FR1	0	R1337E
1300.126	16.557	1300682	REC_WORD	16.557	n/a	FLOWER	-999	9	[0, 0, 0]	n/a	FR1	0	R1337E
1316.683	0.001	1317238	REC_END	n/a	n/a	n/a	-999	9	[0, 0, 0]	n/a	FR1	0	R1337E
1316.684	0.016	1317239	TRIAL_END	n/a	n/a	n/a	-999	9	[0, 0, 0]	n/a	FR1	0	R1337E
1316.7	0.001	1317255	TRIAL_START	n/a	n/a	n/a	-999	10	[0, 0, 0]	n/a	FR1	0	R1337E
1316.701	0.0	1317256	TRIAL	n/a	n/a	n/a	-999	10	[0, 0, 0]	n/a	FR1	0	R1337E
1316.701	4.51	1317256	WAITING_START	n/a	n/a	n/a	-999	10	[0, 0, 0]	n/a	FR1	0	R1337E
1321.211	0.001	1321766	WAITING_END	n/a	n/a	n/a	-999	10	[0, 0, 0]	n/a	FR1	0	R1337E
1321.212	10.429	1321767	COUNTDOWN_START	n/a	n/a	n/a	-999	10	[0, 0, 0]	n/a	FR1	0	R1337E
1331.641	0.0	1332196	ORIENT_START	n/a	n/a	n/a	-999	10	[0, 0, 0]	n/a	FR1	0	R1337E
1331.641	1.19	1332196	COUNTDOWN_END	n/a	n/a	n/a	-999	10	[0, 0, 0]	n/a	FR1	0	R1337E
1332.831	0.0	1333386	ORIENT_END	n/a	n/a	n/a	-999	10	[0, 0, 0]	n/a	FR1	0	R1337E
1332.831	1.082	1333386	ENCODING_START	n/a	n/a	n/a	-999	10	[0, 0, 0]	n/a	FR1	0	R1337E
1333.913	1.634	1334468	WORD	n/a	n/a	CLOCK	1	10	[0, 0, 0]	n/a	FR1	0	R1337E
1335.547	0.84	1336102	WORD_OFF	n/a	n/a	CLOCK	1	10	[0, 0, 0]	n/a	FR1	0	R1337E
1336.387	1.627	1336942	WORD	n/a	n/a	LAWN	2	10	[0, 0, 0]	n/a	FR1	0	R1337E
1338.014	0.969	1338569	WORD_OFF	n/a	n/a	LAWN	2	10	[0, 0, 0]	n/a	FR1	0	R1337E
1338.983	1.632	1339538	WORD	n/a	n/a	CLIFF	3	10	[0, 0, 0]	n/a	FR1	0	R1337E
1340.615	0.787	1341170	WORD_OFF	n/a	n/a	CLIFF	3	10	[0, 0, 0]	n/a	FR1	0	R1337E
1341.402	1.629	1341956	WORD	n/a	n/a	LAKE	4	10	[0, 0, 0]	n/a	FR1	0	R1337E
1343.031	0.884	1343585	WORD_OFF	n/a	n/a	LAKE	4	10	[0, 0, 0]	n/a	FR1	0	R1337E
1343.915	1.634	1344469	WORD	n/a	n/a	NAIL	5	10	[0, 0, 0]	n/a	FR1	0	R1337E
1345.549	0.83	1346103	WORD_OFF	n/a	n/a	NAIL	5	10	[0, 0, 0]	n/a	FR1	0	R1337E
1346.379	1.637	1346933	WORD	n/a	n/a	VINE	6	10	[0, 0, 0]	n/a	FR1	0	R1337E
1348.016	0.909	1348570	WORD_OFF	n/a	n/a	VINE	6	10	[0, 0, 0]	n/a	FR1	0	R1337E
1348.925	1.625	1349479	WORD	n/a	n/a	SHEEP	7	10	[0, 0, 0]	n/a	FR1	0	R1337E
1350.55	1.134	1351104	WORD_OFF	n/a	n/a	SHEEP	7	10	[0, 0, 0]	n/a	FR1	0	R1337E
1351.684	1.633	1352238	WORD	n/a	n/a	PHONE	8	10	[0, 0, 0]	n/a	FR1	0	R1337E
1353.317	1.047	1353871	WORD_OFF	n/a	n/a	PHONE	8	10	[0, 0, 0]	n/a	FR1	0	R1337E
1354.364	1.637	1354918	WORD	n/a	n/a	SMOKE	9	10	[0, 0, 0]	n/a	FR1	0	R1337E
1356.001	0.778	1356555	WORD_OFF	n/a	n/a	SMOKE	9	10	[0, 0, 0]	n/a	FR1	0	R1337E
1356.779	1.622	1357333	WORD	n/a	n/a	BARN	10	10	[0, 0, 0]	n/a	FR1	0	R1337E
1358.401	0.956	1358955	WORD_OFF	n/a	n/a	BARN	10	10	[0, 0, 0]	n/a	FR1	0	R1337E
1359.357	1.628	1359911	WORD	n/a	n/a	BREAD	11	10	[0, 0, 0]	n/a	FR1	0	R1337E
1360.985	1.054	1361539	WORD_OFF	n/a	n/a	BREAD	11	10	[0, 0, 0]	n/a	FR1	0	R1337E
1362.039	1.63	1362593	WORD	n/a	n/a	HOUSE	12	10	[0, 0, 0]	n/a	FR1	0	R1337E
1363.669	0.0	1364223	WORD_OFF	n/a	n/a	HOUSE	12	10	[0, 0, 0]	n/a	FR1	0	R1337E
1363.669	0.0	1364223	ENCODING_END	n/a	n/a	n/a	-999	10	[0, 0, 0]	n/a	FR1	0	R1337E
1363.669	0.0	1364223	DISTRACT_START	n/a	n/a	n/a	-999	10	[0, 0, 0]	n/a	FR1	0	R1337E
1363.669	0.016	1364223	START	n/a	n/a	n/a	-999	10	[-999, -999, -999]	n/a	FR1	0	R1337E
1363.685	5.601	1364239	PROB	5.601	n/a	n/a	-999	10	[1, 3, 3]	7	FR1	0	R1337E
1369.286	5.834	1369839	PROB	5.834	n/a	n/a	-999	10	[7, 4, 2]	13	FR1	0	R1337E
1375.12	6.968	1375673	PROB	6.968	n/a	n/a	-999	10	[9, 7, 3]	19	FR1	0	R1337E
1382.088	4.138	1382641	PROB	4.138	n/a	n/a	-999	10	[8, 5, 4]	17	FR1	0	R1337E
1386.226	0.013	1386779	STOP	n/a	n/a	n/a	-999	10	[-999, -999, -999]	n/a	FR1	0	R1337E
1386.239	0.548	1386792	DISTRACT_END	n/a	n/a	n/a	-999	10	[0, 0, 0]	n/a	FR1	0	R1337E
1386.787	1.719	1387340	RETRIEVAL_ORIENT_START	n/a	n/a	n/a	-999	10	[0, 0, 0]	n/a	FR1	0	R1337E
1388.506	0.001	1389059	RETRIEVAL_ORIENT_END	n/a	n/a	n/a	-999	10	[0, 0, 0]	n/a	FR1	0	R1337E
1388.507	0.921	1389060	REC_START	n/a	n/a	n/a	-999	10	[0, 0, 0]	n/a	FR1	0	R1337E
1389.428	0.725	1389981	REC_WORD	0.725	n/a	NAIL	5	10	[0, 0, 0]	n/a	FR1	0	R1337E
1390.153	0.716	1390706	REC_WORD	0.716	n/a	VINE	6	10	[0, 0, 0]	n/a	FR1	0	R1337E
1390.869	0.896	1391422	REC_WORD	0.896	n/a	SHIP	-999	10	[0, 0, 0]	n/a	FR1	0	R1337E
1391.765	26.752	1392318	REC_WORD	26.752	n/a	BREAD	11	10	[0, 0, 0]	n/a	FR1	0	R1337E
1418.517	0.001	1419069	REC_END	n/a	n/a	n/a	-999	10	[0, 0, 0]	n/a	FR1	0	R1337E
1418.518	0.017	1419070	TRIAL_END	n/a	n/a	n/a	-999	10	[0, 0, 0]	n/a	FR1	0	R1337E
1418.535	0.0	1419087	WAITING_START	n/a	n/a	n/a	-999	11	[0, 0, 0]	n/a	FR1	0	R1337E
1418.535	0.0	1419087	TRIAL_START	n/a	n/a	n/a	-999	11	[0, 0, 0]	n/a	FR1	0	R1337E
1418.535	7.811	1419087	TRIAL	n/a	n/a	n/a	-999	11	[0, 0, 0]	n/a	FR1	0	R1337E
1426.346	0.001	1426897	WAITING_END	n/a	n/a	n/a	-999	11	[0, 0, 0]	n/a	FR1	0	R1337E
1426.347	10.428	1426898	COUNTDOWN_START	n/a	n/a	n/a	-999	11	[0, 0, 0]	n/a	FR1	0	R1337E
1436.775	0.001	1437326	COUNTDOWN_END	n/a	n/a	n/a	-999	11	[0, 0, 0]	n/a	FR1	0	R1337E
1436.776	1.19	1437327	ORIENT_START	n/a	n/a	n/a	-999	11	[0, 0, 0]	n/a	FR1	0	R1337E
1437.966	0.0	1438517	ENCODING_START	n/a	n/a	n/a	-999	11	[0, 0, 0]	n/a	FR1	0	R1337E
1437.966	0.758	1438517	ORIENT_END	n/a	n/a	n/a	-999	11	[0, 0, 0]	n/a	FR1	0	R1337E
1438.724	1.625	1439275	WORD	n/a	n/a	SMILE	1	11	[0, 0, 0]	n/a	FR1	0	R1337E
1440.349	0.862	1440900	WORD_OFF	n/a	n/a	SMILE	1	11	[0, 0, 0]	n/a	FR1	0	R1337E
1441.211	1.622	1441762	WORD	n/a	n/a	BOMB	2	11	[0, 0, 0]	n/a	FR1	0	R1337E
1442.833	0.849	1443384	WORD_OFF	n/a	n/a	BOMB	2	11	[0, 0, 0]	n/a	FR1	0	R1337E
1443.682	1.634	1444233	WORD	n/a	n/a	BOOT	3	11	[0, 0, 0]	n/a	FR1	0	R1337E
1445.316	0.804	1445867	WORD_OFF	n/a	n/a	BOOT	3	11	[0, 0, 0]	n/a	FR1	0	R1337E
1446.12	1.631	1446671	WORD	n/a	n/a	SALT	4	11	[0, 0, 0]	n/a	FR1	0	R1337E
1447.751	1.069	1448301	WORD_OFF	n/a	n/a	SALT	4	11	[0, 0, 0]	n/a	FR1	0	R1337E
1448.82	1.63	1449370	WORD	n/a	n/a	SOUP	5	11	[0, 0, 0]	n/a	FR1	0	R1337E
1450.45	0.788	1451000	WORD_OFF	n/a	n/a	SOUP	5	11	[0, 0, 0]	n/a	FR1	0	R1337E
1451.238	1.614	1451788	WORD	n/a	n/a	FLEA	6	11	[0, 0, 0]	n/a	FR1	0	R1337E
1452.852	0.977	1453402	WORD_OFF	n/a	n/a	FLEA	6	11	[0, 0, 0]	n/a	FR1	0	R1337E
1453.829	1.622	1454379	WORD	n/a	n/a	SUIT	7	11	[0, 0, 0]	n/a	FR1	0	R1337E
1455.451	1.038	1456001	WORD_OFF	n/a	n/a	SUIT	7	11	[0, 0, 0]	n/a	FR1	0	R1337E
1456.489	1.629	1457039	WORD	n/a	n/a	MOUSE	8	11	[0, 0, 0]	n/a	FR1	0	R1337E
1458.118	1.147	1458668	WORD_OFF	n/a	n/a	MOUSE	8	11	[0, 0, 0]	n/a	FR1	0	R1337E
1459.265	1.605	1459815	WORD	n/a	n/a	BLUSH	9	11	[0, 0, 0]	n/a	FR1	0	R1337E
1460.87	1.026	1461420	WORD_OFF	n/a	n/a	BLUSH	9	11	[0, 0, 0]	n/a	FR1	0	R1337E
1461.896	1.623	1462446	WORD	n/a	n/a	CART	10	11	[0, 0, 0]	n/a	FR1	0	R1337E
1463.519	0.943	1464069	WORD_OFF	n/a	n/a	CART	10	11	[0, 0, 0]	n/a	FR1	0	R1337E
1464.462	1.625	1465012	WORD	n/a	n/a	CUBE	11	11	[0, 0, 0]	n/a	FR1	0	R1337E
1466.087	1.116	1466637	WORD_OFF	n/a	n/a	CUBE	11	11	[0, 0, 0]	n/a	FR1	0	R1337E
1467.203	1.635	1467753	WORD	n/a	n/a	TRASH	12	11	[0, 0, 0]	n/a	FR1	0	R1337E
1468.838	0.0	1469388	WORD_OFF	n/a	n/a	TRASH	12	11	[0, 0, 0]	n/a	FR1	0	R1337E
1468.838	0.001	1469388	ENCODING_END	n/a	n/a	n/a	-999	11	[0, 0, 0]	n/a	FR1	0	R1337E
1468.839	0.0	1469389	DISTRACT_START	n/a	n/a	n/a	-999	11	[0, 0, 0]	n/a	FR1	0	R1337E
1468.839	0.015	1469389	START	n/a	n/a	n/a	-999	11	[-999, -999, -999]	n/a	FR1	0	R1337E
1468.854	7.935	1469404	PROB	7.935	n/a	n/a	-999	11	[1, 9, 7]	17	FR1	0	R1337E
1476.789	6.2	1477338	PROB	6.2	n/a	n/a	-999	11	[3, 9, 9]	21	FR1	0	R1337E
1482.989	4.318	1483538	PROB	4.318	n/a	n/a	-999	11	[9, 3, 9]	21	FR1	0	R1337E
1487.307	6.217	1487856	PROB	6.217	n/a	n/a	-999	11	[4, 7, 7]	18	FR1	0	R1337E
1493.524	0.017	1494073	STOP	n/a	n/a	n/a	-999	11	[-999, -999, -999]	n/a	FR1	0	R1337E
1493.541	0.604	1494090	DISTRACT_END	n/a	n/a	n/a	-999	11	[0, 0, 0]	n/a	FR1	0	R1337E
1494.145	1.53	1494694	RETRIEVAL_ORIENT_START	n/a	n/a	n/a	-999	11	[0, 0, 0]	n/a	FR1	0	R1337E
1495.675	0.0	1496224	REC_WORD	0.0	n/a	SOUP	5	11	[0, 0, 0]	n/a	FR1	0	R1337E
1495.675	0.0	1496224	RETRIEVAL_ORIENT_END	n/a	n/a	n/a	-999	11	[0, 0, 0]	n/a	FR1	0	R1337E
1495.675	0.615	1496224	REC_START	n/a	n/a	n/a	-999	11	[0, 0, 0]	n/a	FR1	0	R1337E
1496.29	0.852	1496839	REC_WORD	0.852	n/a	FLEA	6	11	[0, 0, 0]	n/a	FR1	0	R1337E
1497.142	0.95	1497691	REC_WORD	0.95	n/a	SUIT	7	11	[0, 0, 0]	n/a	FR1	0	R1337E
1498.092	0.918	1498641	REC_WORD	0.918	n/a	CUBE	11	11	[0, 0, 0]	n/a	FR1	0	R1337E
1499.01	26.677	1499559	REC_WORD	26.677	n/a	SMILE	1	11	[0, 0, 0]	n/a	FR1	0	R1337E
1525.687	0.001	1526235	REC_END	n/a	n/a	n/a	-999	11	[0, 0, 0]	n/a	FR1	0	R1337E
1525.688	0.017	1526236	TRIAL_END	n/a	n/a	n/a	-999	11	[0, 0, 0]	n/a	FR1	0	R1337E
1525.705	0.0	1526253	TRIAL	n/a	n/a	n/a	-999	12	[0, 0, 0]	n/a	FR1	0	R1337E
1525.705	0.0	1526253	WAITING_START	n/a	n/a	n/a	-999	12	[0, 0, 0]	n/a	FR1	0	R1337E
1525.705	2.693	1526253	TRIAL_START	n/a	n/a	n/a	-999	12	[0, 0, 0]	n/a	FR1	0	R1337E
1528.398	0.0	1528945	WAITING_END	n/a	n/a	n/a	-999	12	[0, 0, 0]	n/a	FR1	0	R1337E
1528.398	10.428	1528945	COUNTDOWN_START	n/a	n/a	n/a	-999	12	[0, 0, 0]	n/a	FR1	0	R1337E
1538.826	0.001	1539373	COUNTDOWN_END	n/a	n/a	n/a	-999	12	[0, 0, 0]	n/a	FR1	0	R1337E
1538.827	1.223	1539374	ORIENT_START	n/a	n/a	n/a	-999	12	[0, 0, 0]	n/a	FR1	0	R1337E
1540.05	0.0	1540597	ORIENT_END	n/a	n/a	n/a	-999	12	[0, 0, 0]	n/a	FR1	0	R1337E
1540.05	1.149	1540597	ENCODING_START	n/a	n/a	n/a	-999	12	[0, 0, 0]	n/a	FR1	0	R1337E
1541.199	1.618	1541746	WORD	n/a	n/a	CHEEK	1	12	[0, 0, 0]	n/a	FR1	0	R1337E
1542.817	1.118	1543364	WORD_OFF	n/a	n/a	CHEEK	1	12	[0, 0, 0]	n/a	FR1	0	R1337E
1543.935	1.632	1544482	WORD	n/a	n/a	RUG	2	12	[0, 0, 0]	n/a	FR1	0	R1337E
1545.567	0.865	1546114	WORD_OFF	n/a	n/a	RUG	2	12	[0, 0, 0]	n/a	FR1	0	R1337E
1546.432	1.636	1546979	WORD	n/a	n/a	STICK	3	12	[0, 0, 0]	n/a	FR1	0	R1337E
1548.068	0.857	1548615	WORD_OFF	n/a	n/a	STICK	3	12	[0, 0, 0]	n/a	FR1	0	R1337E
1548.925	1.626	1549472	WORD	n/a	n/a	SINK	4	12	[0, 0, 0]	n/a	FR1	0	R1337E
1550.551	0.946	1551098	WORD_OFF	n/a	n/a	SINK	4	12	[0, 0, 0]	n/a	FR1	0	R1337E
1551.497	1.622	1552044	WORD	n/a	n/a	PEA	5	12	[0, 0, 0]	n/a	FR1	0	R1337E
1553.119	0.971	1553666	WORD_OFF	n/a	n/a	PEA	5	12	[0, 0, 0]	n/a	FR1	0	R1337E
1554.09	1.63	1554637	WORD	n/a	n/a	GRASS	6	12	[0, 0, 0]	n/a	FR1	0	R1337E
1555.72	1.116	1556266	WORD_OFF	n/a	n/a	GRASS	6	12	[0, 0, 0]	n/a	FR1	0	R1337E
1556.836	1.633	1557382	WORD	n/a	n/a	SIGN	7	12	[0, 0, 0]	n/a	FR1	0	R1337E
1558.469	0.959	1559015	WORD_OFF	n/a	n/a	SIGN	7	12	[0, 0, 0]	n/a	FR1	0	R1337E
1559.428	1.625	1559974	WORD	n/a	n/a	PIPE	8	12	[0, 0, 0]	n/a	FR1	0	R1337E
1561.053	0.978	1561599	WORD_OFF	n/a	n/a	PIPE	8	12	[0, 0, 0]	n/a	FR1	0	R1337E
1562.031	1.623	1562577	WORD	n/a	n/a	PARK	9	12	[0, 0, 0]	n/a	FR1	0	R1337E
1563.654	0.879	1564200	WORD_OFF	n/a	n/a	PARK	9	12	[0, 0, 0]	n/a	FR1	0	R1337E
1564.533	1.621	1565079	WORD	n/a	n/a	BEAK	10	12	[0, 0, 0]	n/a	FR1	0	R1337E
1566.154	0.762	1566700	WORD_OFF	n/a	n/a	BEAK	10	12	[0, 0, 0]	n/a	FR1	0	R1337E
1566.916	1.622	1567462	WORD	n/a	n/a	PEARL	11	12	[0, 0, 0]	n/a	FR1	0	R1337E
1568.538	0.965	1569084	WORD_OFF	n/a	n/a	PEARL	11	12	[0, 0, 0]	n/a	FR1	0	R1337E
1569.503	1.635	1570049	WORD	n/a	n/a	FRUIT	12	12	[0, 0, 0]	n/a	FR1	0	R1337E
1571.138	0.001	1571684	WORD_OFF	n/a	n/a	FRUIT	12	12	[0, 0, 0]	n/a	FR1	0	R1337E
1571.139	0.0	1571685	ENCODING_END	n/a	n/a	n/a	-999	12	[0, 0, 0]	n/a	FR1	0	R1337E
1571.139	0.0	1571685	DISTRACT_START	n/a	n/a	n/a	-999	12	[0, 0, 0]	n/a	FR1	0	R1337E
1571.139	0.016	1571685	START	n/a	n/a	n/a	-999	12	[-999, -999, -999]	n/a	FR1	0	R1337E
1571.155	8.401	1571701	PROB	8.401	n/a	n/a	-999	12	[9, 6, 6]	17	FR1	0	R1337E
1579.556	6.601	1580102	PROB	6.601	n/a	n/a	-999	12	[2, 9, 3]	14	FR1	0	R1337E
1586.157	5.775	1586702	PROB	5.775	n/a	n/a	-999	12	[2, 9, 7]	18	FR1	0	R1337E
1591.932	0.011	1592477	STOP	n/a	n/a	n/a	-999	12	[-999, -999, -999]	n/a	FR1	0	R1337E
1591.943	0.517	1592488	DISTRACT_END	n/a	n/a	n/a	-999	12	[0, 0, 0]	n/a	FR1	0	R1337E
1592.46	1.532	1593005	RETRIEVAL_ORIENT_START	n/a	n/a	n/a	-999	12	[0, 0, 0]	n/a	FR1	0	R1337E
1593.992	0.001	1594537	RETRIEVAL_ORIENT_END	n/a	n/a	n/a	-999	12	[0, 0, 0]	n/a	FR1	0	R1337E
1593.993	0.674	1594538	REC_START	n/a	n/a	n/a	-999	12	[0, 0, 0]	n/a	FR1	0	R1337E
1594.667	0.95	1595212	REC_WORD	0.95	n/a	PEARL	11	12	[0, 0, 0]	n/a	FR1	0	R1337E
1595.617	1.032	1596162	REC_WORD	1.032	n/a	FRUIT	12	12	[0, 0, 0]	n/a	FR1	0	R1337E
1596.649	1.76	1597194	REC_WORD	1.76	n/a	BLACK	-999	12	[0, 0, 0]	n/a	FR1	0	R1337E
1598.409	4.173	1598954	REC_WORD	4.173	n/a	FLOOR	-999	12	[0, 0, 0]	n/a	FR1	0	R1337E
1602.582	14.946	1603127	REC_WORD	14.946	n/a	FOOT	-999	12	[0, 0, 0]	n/a	FR1	0	R1337E
1617.528	6.476	1618072	REC_WORD	6.476	n/a	BOARD	-999	12	[0, 0, 0]	n/a	FR1	0	R1337E
1624.004	0.0	1624548	REC_END	n/a	n/a	n/a	-999	12	[0, 0, 0]	n/a	FR1	0	R1337E
1624.004	0.017	1624548	TRIAL_END	n/a	n/a	n/a	-999	12	[0, 0, 0]	n/a	FR1	0	R1337E
1624.021	0.0	1624565	TRIAL_START	n/a	n/a	n/a	-999	13	[0, 0, 0]	n/a	FR1	0	R1337E
1624.021	0.0	1624565	TRIAL	n/a	n/a	n/a	-999	13	[0, 0, 0]	n/a	FR1	0	R1337E
1624.021	5.161	1624565	WAITING_START	n/a	n/a	n/a	-999	13	[0, 0, 0]	n/a	FR1	0	R1337E
1629.182	0.0	1629726	COUNTDOWN_START	n/a	n/a	n/a	-999	13	[0, 0, 0]	n/a	FR1	0	R1337E
1629.182	10.429	1629726	WAITING_END	n/a	n/a	n/a	-999	13	[0, 0, 0]	n/a	FR1	0	R1337E
1639.611	0.0	1640154	COUNTDOWN_END	n/a	n/a	n/a	-999	13	[0, 0, 0]	n/a	FR1	0	R1337E
1639.611	1.039	1640154	ORIENT_START	n/a	n/a	n/a	-999	13	[0, 0, 0]	n/a	FR1	0	R1337E
1640.65	0.001	1641193	ORIENT_END	n/a	n/a	n/a	-999	13	[0, 0, 0]	n/a	FR1	0	R1337E
1640.651	0.92	1641194	ENCODING_START	n/a	n/a	n/a	-999	13	[0, 0, 0]	n/a	FR1	0	R1337E
1641.571	1.63	1642114	WORD	n/a	n/a	CAR	1	13	[0, 0, 0]	n/a	FR1	0	R1337E
1643.201	1.138	1643744	WORD_OFF	n/a	n/a	CAR	1	13	[0, 0, 0]	n/a	FR1	0	R1337E
1644.339	1.629	1644882	WORD	n/a	n/a	CHIEF	2	13	[0, 0, 0]	n/a	FR1	0	R1337E
1645.968	0.908	1646511	WORD_OFF	n/a	n/a	CHIEF	2	13	[0, 0, 0]	n/a	FR1	0	R1337E
1646.876	1.626	1647419	WORD	n/a	n/a	HOLE	3	13	[0, 0, 0]	n/a	FR1	0	R1337E
1648.502	0.802	1649045	WORD_OFF	n/a	n/a	HOLE	3	13	[0, 0, 0]	n/a	FR1	0	R1337E
1649.304	1.616	1649847	WORD	n/a	n/a	HEART	4	13	[0, 0, 0]	n/a	FR1	0	R1337E
1650.92	0.886	1651463	WORD_OFF	n/a	n/a	HEART	4	13	[0, 0, 0]	n/a	FR1	0	R1337E
1651.806	1.63	1652349	WORD	n/a	n/a	BOAT	5	13	[0, 0, 0]	n/a	FR1	0	R1337E
1653.436	0.953	1653979	WORD_OFF	n/a	n/a	BOAT	5	13	[0, 0, 0]	n/a	FR1	0	R1337E
1654.389	1.631	1654932	WORD	n/a	n/a	BENCH	6	13	[0, 0, 0]	n/a	FR1	0	R1337E
1656.02	0.911	1656563	WORD_OFF	n/a	n/a	BENCH	6	13	[0, 0, 0]	n/a	FR1	0	R1337E
1656.931	1.623	1657474	WORD	n/a	n/a	FLOOR	7	13	[0, 0, 0]	n/a	FR1	0	R1337E
1658.554	0.969	1659097	WORD_OFF	n/a	n/a	FLOOR	7	13	[0, 0, 0]	n/a	FR1	0	R1337E
1659.523	1.631	1660066	WORD	n/a	n/a	VAN	8	13	[0, 0, 0]	n/a	FR1	0	R1337E
1661.154	0.935	1661696	WORD_OFF	n/a	n/a	VAN	8	13	[0, 0, 0]	n/a	FR1	0	R1337E
1662.089	1.633	1662631	WORD	n/a	n/a	MAP	9	13	[0, 0, 0]	n/a	FR1	0	R1337E
1663.722	1.042	1664264	WORD_OFF	n/a	n/a	MAP	9	13	[0, 0, 0]	n/a	FR1	0	R1337E
1664.764	1.624	1665306	WORD	n/a	n/a	ROCK	10	13	[0, 0, 0]	n/a	FR1	0	R1337E
1666.388	1.136	1666930	WORD_OFF	n/a	n/a	ROCK	10	13	[0, 0, 0]	n/a	FR1	0	R1337E
1667.524	1.632	1668066	WORD	n/a	n/a	HOOK	11	13	[0, 0, 0]	n/a	FR1	0	R1337E
1669.156	0.881	1669698	WORD_OFF	n/a	n/a	HOOK	11	13	[0, 0, 0]	n/a	FR1	0	R1337E
1670.037	1.636	1670579	WORD	n/a	n/a	EGG	12	13	[0, 0, 0]	n/a	FR1	0	R1337E
1671.673	0.0	1672215	DISTRACT_START	n/a	n/a	n/a	-999	13	[0, 0, 0]	n/a	FR1	0	R1337E
1671.673	0.0	1672215	WORD_OFF	n/a	n/a	EGG	12	13	[0, 0, 0]	n/a	FR1	0	R1337E
1671.673	0.0	1672215	ENCODING_END	n/a	n/a	n/a	-999	13	[0, 0, 0]	n/a	FR1	0	R1337E
1671.673	0.016	1672215	START	n/a	n/a	n/a	-999	13	[-999, -999, -999]	n/a	FR1	0	R1337E
1671.689	5.334	1672231	PROB	5.334	n/a	n/a	-999	13	[3, 1, 1]	5	FR1	0	R1337E
1677.023	4.001	1677565	PROB	4.001	n/a	n/a	-999	13	[3, 7, 3]	13	FR1	0	R1337E
1681.024	4.735	1681566	PROB	4.735	n/a	n/a	-999	13	[2, 6, 9]	17	FR1	0	R1337E
1685.759	3.266	1686301	PROB	3.266	n/a	n/a	-999	13	[6, 1, 4]	11	FR1	0	R1337E
1689.025	4.621	1689566	PROB	4.621	n/a	n/a	-999	13	[5, 2, 9]	16	FR1	0	R1337E
1693.646	0.014	1694187	STOP	n/a	n/a	n/a	-999	13	[-999, -999, -999]	n/a	FR1	0	R1337E
1693.66	0.529	1694201	DISTRACT_END	n/a	n/a	n/a	-999	13	[0, 0, 0]	n/a	FR1	0	R1337E
1694.189	1.722	1694730	RETRIEVAL_ORIENT_START	n/a	n/a	n/a	-999	13	[0, 0, 0]	n/a	FR1	0	R1337E
1695.911	0.0	1696452	RETRIEVAL_ORIENT_END	n/a	n/a	n/a	-999	13	[0, 0, 0]	n/a	FR1	0	R1337E
1695.911	0.372	1696452	REC_START	n/a	n/a	n/a	-999	13	[0, 0, 0]	n/a	FR1	0	R1337E
1696.283	1.042	1696824	REC_WORD	1.042	n/a	BOAT	5	13	[0, 0, 0]	n/a	FR1	0	R1337E
1697.325	0.933	1697866	REC_WORD	0.933	n/a	BENCH	6	13	[0, 0, 0]	n/a	FR1	0	R1337E
1698.258	1.298	1698799	REC_WORD	1.298	n/a	FLOOR	7	13	[0, 0, 0]	n/a	FR1	0	R1337E
1699.556	4.193	1700097	REC_WORD	4.193	n/a	VAN	8	13	[0, 0, 0]	n/a	FR1	0	R1337E
1703.749	22.175	1704290	REC_WORD	22.175	n/a	FOOT	-999	13	[0, 0, 0]	n/a	FR1	0	R1337E
1725.924	0.0	1726464	REC_END	n/a	n/a	n/a	-999	13	[0, 0, 0]	n/a	FR1	0	R1337E
1725.924	0.017	1726464	TRIAL_END	n/a	n/a	n/a	-999	13	[0, 0, 0]	n/a	FR1	0	R1337E
1725.941	0.0	1726481	TRIAL_START	n/a	n/a	n/a	-999	14	[0, 0, 0]	n/a	FR1	0	R1337E
1725.941	0.0	1726481	TRIAL	n/a	n/a	n/a	-999	14	[0, 0, 0]	n/a	FR1	0	R1337E
1725.941	3.542	1726481	WAITING_START	n/a	n/a	n/a	-999	14	[0, 0, 0]	n/a	FR1	0	R1337E
1729.483	0.0	1730023	WAITING_END	n/a	n/a	n/a	-999	14	[0, 0, 0]	n/a	FR1	0	R1337E
1729.483	10.429	1730023	COUNTDOWN_START	n/a	n/a	n/a	-999	14	[0, 0, 0]	n/a	FR1	0	R1337E
1739.912	0.0	1740452	ORIENT_START	n/a	n/a	n/a	-999	14	[0, 0, 0]	n/a	FR1	0	R1337E
1739.912	1.089	1740452	COUNTDOWN_END	n/a	n/a	n/a	-999	14	[0, 0, 0]	n/a	FR1	0	R1337E
1741.001	0.001	1741540	ORIENT_END	n/a	n/a	n/a	-999	14	[0, 0, 0]	n/a	FR1	0	R1337E
1741.002	0.989	1741541	ENCODING_START	n/a	n/a	n/a	-999	14	[0, 0, 0]	n/a	FR1	0	R1337E
1741.991	1.628	1742530	WORD	n/a	n/a	ANT	1	14	[0, 0, 0]	n/a	FR1	0	R1337E
1743.619	0.789	1744158	WORD_OFF	n/a	n/a	ANT	1	14	[0, 0, 0]	n/a	FR1	0	R1337E
1744.408	1.628	1744947	WORD	n/a	n/a	PALM	2	14	[0, 0, 0]	n/a	FR1	0	R1337E
1746.036	0.978	1746575	WORD_OFF	n/a	n/a	PALM	2	14	[0, 0, 0]	n/a	FR1	0	R1337E
1747.014	1.622	1747553	WORD	n/a	n/a	OAR	3	14	[0, 0, 0]	n/a	FR1	0	R1337E
1748.636	0.917	1749175	WORD_OFF	n/a	n/a	OAR	3	14	[0, 0, 0]	n/a	FR1	0	R1337E
1749.553	1.633	1750092	WORD	n/a	n/a	SHIP	4	14	[0, 0, 0]	n/a	FR1	0	R1337E
1751.186	1.065	1751725	WORD_OFF	n/a	n/a	SHIP	4	14	[0, 0, 0]	n/a	FR1	0	R1337E
1752.251	1.637	1752790	WORD	n/a	n/a	GOLD	5	14	[0, 0, 0]	n/a	FR1	0	R1337E
1753.888	1.114	1754427	WORD_OFF	n/a	n/a	GOLD	5	14	[0, 0, 0]	n/a	FR1	0	R1337E
1755.002	1.635	1755541	WORD	n/a	n/a	GLOVE	6	14	[0, 0, 0]	n/a	FR1	0	R1337E
1756.637	1.132	1757176	WORD_OFF	n/a	n/a	GLOVE	6	14	[0, 0, 0]	n/a	FR1	0	R1337E
1757.769	1.636	1758308	WORD	n/a	n/a	CAPE	7	14	[0, 0, 0]	n/a	FR1	0	R1337E
1759.405	1.15	1759944	WORD_OFF	n/a	n/a	CAPE	7	14	[0, 0, 0]	n/a	FR1	0	R1337E
1760.555	1.634	1761094	WORD	n/a	n/a	MULE	8	14	[0, 0, 0]	n/a	FR1	0	R1337E
1762.189	0.966	1762728	WORD_OFF	n/a	n/a	MULE	8	14	[0, 0, 0]	n/a	FR1	0	R1337E
1763.155	1.635	1763694	WORD	n/a	n/a	SHEET	9	14	[0, 0, 0]	n/a	FR1	0	R1337E
1764.79	0.903	1765329	WORD_OFF	n/a	n/a	SHEET	9	14	[0, 0, 0]	n/a	FR1	0	R1337E
1765.693	1.63	1766232	WORD	n/a	n/a	CAT	10	14	[0, 0, 0]	n/a	FR1	0	R1337E
1767.323	1.007	1767861	WORD_OFF	n/a	n/a	CAT	10	14	[0, 0, 0]	n/a	FR1	0	R1337E
1768.33	1.611	1768868	WORD	n/a	n/a	PEN	11	14	[0, 0, 0]	n/a	FR1	0	R1337E
1769.941	0.997	1770479	WORD_OFF	n/a	n/a	PEN	11	14	[0, 0, 0]	n/a	FR1	0	R1337E
1770.938	1.636	1771476	WORD	n/a	n/a	HOOF	12	14	[0, 0, 0]	n/a	FR1	0	R1337E
1772.574	0.0	1773112	DISTRACT_START	n/a	n/a	n/a	-999	14	[0, 0, 0]	n/a	FR1	0	R1337E
1772.574	0.0	1773112	ENCODING_END	n/a	n/a	n/a	-999	14	[0, 0, 0]	n/a	FR1	0	R1337E
1772.574	0.0	1773112	WORD_OFF	n/a	n/a	HOOF	12	14	[0, 0, 0]	n/a	FR1	0	R1337E
1772.574	0.016	1773112	START	n/a	n/a	n/a	-999	14	[-999, -999, -999]	n/a	FR1	0	R1337E
1772.59	8.402	1773128	PROB	8.402	n/a	n/a	-999	14	[2, 4, 5]	11	FR1	0	R1337E
1780.992	5.317	1781530	PROB	5.317	n/a	n/a	-999	14	[3, 7, 5]	15	FR1	0	R1337E
1786.309	4.201	1786847	PROB	4.201	n/a	n/a	-999	14	[8, 2, 7]	17	FR1	0	R1337E
1790.51	4.827	1791048	PROB	4.827	n/a	n/a	-999	14	[1, 7, 2]	10	FR1	0	R1337E
1795.337	0.007	1795874	STOP	n/a	n/a	n/a	-999	14	[-999, -999, -999]	n/a	FR1	0	R1337E
1795.344	0.6	1795881	DISTRACT_END	n/a	n/a	n/a	-999	14	[0, 0, 0]	n/a	FR1	0	R1337E
1795.944	1.601	1796481	RETRIEVAL_ORIENT_START	n/a	n/a	n/a	-999	14	[0, 0, 0]	n/a	FR1	0	R1337E
1797.545	0.0	1798082	RETRIEVAL_ORIENT_END	n/a	n/a	n/a	-999	14	[0, 0, 0]	n/a	FR1	0	R1337E
1797.545	0.613	1798082	REC_START	n/a	n/a	n/a	-999	14	[0, 0, 0]	n/a	FR1	0	R1337E
1798.158	0.679	1798695	REC_WORD	0.679	n/a	ANT	1	14	[0, 0, 0]	n/a	FR1	0	R1337E
1798.837	0.767	1799374	REC_WORD	0.767	n/a	TAM	-999	14	[0, 0, 0]	n/a	FR1	0	R1337E
1799.604	0.7	1800141	REC_WORD	0.7	n/a	OAR	3	14	[0, 0, 0]	n/a	FR1	0	R1337E
1800.304	1.664	1800841	REC_WORD	1.664	n/a	SHIP	4	14	[0, 0, 0]	n/a	FR1	0	R1337E
1801.968	25.588	1802505	REC_WORD	25.588	n/a	GOLD	5	14	[0, 0, 0]	n/a	FR1	0	R1337E
1827.556	0.0	1828092	REC_END	n/a	n/a	n/a	-999	14	[0, 0, 0]	n/a	FR1	0	R1337E
1827.556	0.017	1828092	TRIAL_END	n/a	n/a	n/a	-999	14	[0, 0, 0]	n/a	FR1	0	R1337E
1827.573	0.0	1828109	TRIAL_START	n/a	n/a	n/a	-999	15	[0, 0, 0]	n/a	FR1	0	R1337E
1827.573	0.0	1828109	TRIAL	n/a	n/a	n/a	-999	15	[0, 0, 0]	n/a	FR1	0	R1337E
1827.573	3.179	1828109	WAITING_START	n/a	n/a	n/a	-999	15	[0, 0, 0]	n/a	FR1	0	R1337E
1830.752	0.0	1831288	WAITING_END	n/a	n/a	n/a	-999	15	[0, 0, 0]	n/a	FR1	0	R1337E
1830.752	10.429	1831288	COUNTDOWN_START	n/a	n/a	n/a	-999	15	[0, 0, 0]	n/a	FR1	0	R1337E
1841.181	0.0	1841717	ORIENT_START	n/a	n/a	n/a	-999	15	[0, 0, 0]	n/a	FR1	0	R1337E
1841.181	1.022	1841717	COUNTDOWN_END	n/a	n/a	n/a	-999	15	[0, 0, 0]	n/a	FR1	0	R1337E
1842.203	0.0	1842739	ORIENT_END	n/a	n/a	n/a	-999	15	[0, 0, 0]	n/a	FR1	0	R1337E
1842.203	1.126	1842739	ENCODING_START	n/a	n/a	n/a	-999	15	[0, 0, 0]	n/a	FR1	0	R1337E
1843.329	1.625	1843865	WORD	n/a	n/a	BADGE	1	15	[0, 0, 0]	n/a	FR1	0	R1337E
1844.954	1.15	1845490	WORD_OFF	n/a	n/a	BADGE	1	15	[0, 0, 0]	n/a	FR1	0	R1337E
1846.104	1.634	1846640	WORD	n/a	n/a	POND	2	15	[0, 0, 0]	n/a	FR1	0	R1337E
1847.738	0.88	1848273	WORD_OFF	n/a	n/a	POND	2	15	[0, 0, 0]	n/a	FR1	0	R1337E
1848.618	1.636	1849153	WORD	n/a	n/a	FOOD	3	15	[0, 0, 0]	n/a	FR1	0	R1337E
1850.254	0.955	1850789	WORD_OFF	n/a	n/a	FOOD	3	15	[0, 0, 0]	n/a	FR1	0	R1337E
1851.209	1.63	1851744	WORD	n/a	n/a	DITCH	4	15	[0, 0, 0]	n/a	FR1	0	R1337E
1852.839	0.827	1853374	WORD_OFF	n/a	n/a	DITCH	4	15	[0, 0, 0]	n/a	FR1	0	R1337E
1853.666	1.622	1854201	WORD	n/a	n/a	SKI	5	15	[0, 0, 0]	n/a	FR1	0	R1337E
1855.288	1.013	1855823	WORD_OFF	n/a	n/a	SKI	5	15	[0, 0, 0]	n/a	FR1	0	R1337E
1856.301	1.622	1856836	WORD	n/a	n/a	DOLL	6	15	[0, 0, 0]	n/a	FR1	0	R1337E
1857.923	0.988	1858458	WORD_OFF	n/a	n/a	DOLL	6	15	[0, 0, 0]	n/a	FR1	0	R1337E
1858.911	1.628	1859446	WORD	n/a	n/a	COUCH	7	15	[0, 0, 0]	n/a	FR1	0	R1337E
1860.539	0.776	1861074	WORD_OFF	n/a	n/a	COUCH	7	15	[0, 0, 0]	n/a	FR1	0	R1337E
1861.315	1.609	1861850	WORD	n/a	n/a	TEA	8	15	[0, 0, 0]	n/a	FR1	0	R1337E
1862.924	0.942	1863459	WORD_OFF	n/a	n/a	TEA	8	15	[0, 0, 0]	n/a	FR1	0	R1337E
1863.866	1.624	1864401	WORD	n/a	n/a	KITE	9	15	[0, 0, 0]	n/a	FR1	0	R1337E
1865.49	0.805	1866025	WORD_OFF	n/a	n/a	KITE	9	15	[0, 0, 0]	n/a	FR1	0	R1337E
1866.295	1.613	1866830	WORD	n/a	n/a	SHOE	10	15	[0, 0, 0]	n/a	FR1	0	R1337E
1867.908	1.075	1868443	WORD_OFF	n/a	n/a	SHOE	10	15	[0, 0, 0]	n/a	FR1	0	R1337E
1868.983	1.625	1869518	WORD	n/a	n/a	BEAN	11	15	[0, 0, 0]	n/a	FR1	0	R1337E
1870.608	1.093	1871143	WORD_OFF	n/a	n/a	BEAN	11	15	[0, 0, 0]	n/a	FR1	0	R1337E
1871.701	1.624	1872236	WORD	n/a	n/a	ARK	12	15	[0, 0, 0]	n/a	FR1	0	R1337E
1873.325	0.0	1873860	WORD_OFF	n/a	n/a	ARK	12	15	[0, 0, 0]	n/a	FR1	0	R1337E
1873.325	0.0	1873860	ENCODING_END	n/a	n/a	n/a	-999	15	[0, 0, 0]	n/a	FR1	0	R1337E
1873.325	0.001	1873860	DISTRACT_START	n/a	n/a	n/a	-999	15	[0, 0, 0]	n/a	FR1	0	R1337E
1873.326	0.015	1873861	START	n/a	n/a	n/a	-999	15	[-999, -999, -999]	n/a	FR1	0	R1337E
1873.341	14.719	1873876	PROB	14.719	n/a	n/a	-999	15	[9, 9, 9]	27	FR1	0	R1337E
1888.06	5.035	1888594	PROB	5.035	n/a	n/a	-999	15	[7, 5, 8]	20	FR1	0	R1337E
1893.095	8.642	1893629	PROB	8.642	n/a	n/a	-999	15	[3, 9, 4]	16	FR1	0	R1337E
1901.737	0.01	1902270	STOP	n/a	n/a	n/a	-999	15	[-999, -999, -999]	n/a	FR1	0	R1337E
1901.747	0.659	1902280	DISTRACT_END	n/a	n/a	n/a	-999	15	[0, 0, 0]	n/a	FR1	0	R1337E
1902.406	1.707	1902939	RETRIEVAL_ORIENT_START	n/a	n/a	n/a	-999	15	[0, 0, 0]	n/a	FR1	0	R1337E
1904.113	0.001	1904646	RETRIEVAL_ORIENT_END	n/a	n/a	n/a	-999	15	[0, 0, 0]	n/a	FR1	0	R1337E
1904.114	0.318	1904647	REC_START	n/a	n/a	n/a	-999	15	[0, 0, 0]	n/a	FR1	0	R1337E
1904.432	0.617	1904965	REC_WORD	0.617	n/a	KITE	9	15	[0, 0, 0]	n/a	FR1	0	R1337E
1905.049	0.865	1905582	REC_WORD	0.865	n/a	KEY	-999	15	[0, 0, 0]	n/a	FR1	0	R1337E
1905.914	0.942	1906447	REC_WORD	0.942	n/a	COAT	-999	15	[0, 0, 0]	n/a	FR1	0	R1337E
1906.856	0.595	1907389	REC_WORD	0.595	n/a	KITE	9	15	[0, 0, 0]	n/a	FR1	0	R1337E
1907.451	2.561	1907984	REC_WORD	2.561	n/a	KEY	-999	15	[0, 0, 0]	n/a	FR1	0	R1337E
1910.012	2.664	1910545	REC_WORD	2.664	n/a	COUCH	7	15	[0, 0, 0]	n/a	FR1	0	R1337E
1912.676	2.688	1913209	REC_WORD	2.688	n/a	STOOL	-999	15	[0, 0, 0]	n/a	FR1	0	R1337E
1915.364	2.153	1915897	REC_WORD	2.153	n/a	POND	2	15	[0, 0, 0]	n/a	FR1	0	R1337E
1917.517	1.22	1918050	REC_WORD	1.22	n/a	FISH	-999	15	[0, 0, 0]	n/a	FR1	0	R1337E
1918.737	15.387	1919270	REC_WORD	15.387	n/a	LAKE	-999	15	[0, 0, 0]	n/a	FR1	0	R1337E
1934.124	0.001	1934656	REC_END	n/a	n/a	n/a	-999	15	[0, 0, 0]	n/a	FR1	0	R1337E
1934.125	0.017	1934657	TRIAL_END	n/a	n/a	n/a	-999	15	[0, 0, 0]	n/a	FR1	0	R1337E
1934.142	0.0	1934674	TRIAL_START	n/a	n/a	n/a	-999	16	[0, 0, 0]	n/a	FR1	0	R1337E
1934.142	0.0	1934674	TRIAL	n/a	n/a	n/a	-999	16	[0, 0, 0]	n/a	FR1	0	R1337E
1934.142	3.894	1934674	WAITING_START	n/a	n/a	n/a	-999	16	[0, 0, 0]	n/a	FR1	0	R1337E
1938.036	0.0	1938568	COUNTDOWN_START	n/a	n/a	n/a	-999	16	[0, 0, 0]	n/a	FR1	0	R1337E
1938.036	10.43	1938568	WAITING_END	n/a	n/a	n/a	-999	16	[0, 0, 0]	n/a	FR1	0	R1337E
1948.466	0.0	1948998	COUNTDOWN_END	n/a	n/a	n/a	-999	16	[0, 0, 0]	n/a	FR1	0	R1337E
1948.466	1.089	1948998	ORIENT_START	n/a	n/a	n/a	-999	16	[0, 0, 0]	n/a	FR1	0	R1337E
1949.555	0.0	1950087	ORIENT_END	n/a	n/a	n/a	-999	16	[0, 0, 0]	n/a	FR1	0	R1337E
1949.555	0.802	1950087	ENCODING_START	n/a	n/a	n/a	-999	16	[0, 0, 0]	n/a	FR1	0	R1337E
1950.357	1.632	1950889	WORD	n/a	n/a	HORN	1	16	[0, 0, 0]	n/a	FR1	0	R1337E
1951.989	0.768	1952521	WORD_OFF	n/a	n/a	HORN	1	16	[0, 0, 0]	n/a	FR1	0	R1337E
1952.757	1.632	1953289	WORD	n/a	n/a	STREET	2	16	[0, 0, 0]	n/a	FR1	0	R1337E
1954.389	0.922	1954920	WORD_OFF	n/a	n/a	STREET	2	16	[0, 0, 0]	n/a	FR1	0	R1337E
1955.311	1.612	1955842	WORD	n/a	n/a	FISH	3	16	[0, 0, 0]	n/a	FR1	0	R1337E
1956.923	0.832	1957454	WORD_OFF	n/a	n/a	FISH	3	16	[0, 0, 0]	n/a	FR1	0	R1337E
1957.755	1.635	1958286	WORD	n/a	n/a	PRINCE	4	16	[0, 0, 0]	n/a	FR1	0	R1337E
1959.39	0.786	1959921	WORD_OFF	n/a	n/a	PRINCE	4	16	[0, 0, 0]	n/a	FR1	0	R1337E
1960.176	1.632	1960707	WORD	n/a	n/a	PASTE	5	16	[0, 0, 0]	n/a	FR1	0	R1337E
1961.808	1.065	1962339	WORD_OFF	n/a	n/a	PASTE	5	16	[0, 0, 0]	n/a	FR1	0	R1337E
1962.873	1.634	1963404	WORD	n/a	n/a	WEED	6	16	[0, 0, 0]	n/a	FR1	0	R1337E
1964.507	0.784	1965038	WORD_OFF	n/a	n/a	WEED	6	16	[0, 0, 0]	n/a	FR1	0	R1337E
1965.291	1.634	1965822	WORD	n/a	n/a	FLAG	7	16	[0, 0, 0]	n/a	FR1	0	R1337E
1966.925	1.077	1967456	WORD_OFF	n/a	n/a	FLAG	7	16	[0, 0, 0]	n/a	FR1	0	R1337E
1968.002	1.623	1968533	WORD	n/a	n/a	SKUNK	8	16	[0, 0, 0]	n/a	FR1	0	R1337E
1969.625	0.765	1970156	WORD_OFF	n/a	n/a	SKUNK	8	16	[0, 0, 0]	n/a	FR1	0	R1337E
1970.39	1.635	1970921	WORD	n/a	n/a	HILL	9	16	[0, 0, 0]	n/a	FR1	0	R1337E
1972.025	0.934	1972556	WORD_OFF	n/a	n/a	HILL	9	16	[0, 0, 0]	n/a	FR1	0	R1337E
1972.959	1.633	1973490	WORD	n/a	n/a	ROSE	10	16	[0, 0, 0]	n/a	FR1	0	R1337E
1974.592	0.971	1975123	WORD_OFF	n/a	n/a	ROSE	10	16	[0, 0, 0]	n/a	FR1	0	R1337E
1975.563	1.63	1976094	WORD	n/a	n/a	TRAIN	11	16	[0, 0, 0]	n/a	FR1	0	R1337E
1977.193	0.908	1977724	WORD_OFF	n/a	n/a	TRAIN	11	16	[0, 0, 0]	n/a	FR1	0	R1337E
1978.101	1.627	1978632	WORD	n/a	n/a	CORN	12	16	[0, 0, 0]	n/a	FR1	0	R1337E
1979.728	0.0	1980259	DISTRACT_START	n/a	n/a	n/a	-999	16	[0, 0, 0]	n/a	FR1	0	R1337E
1979.728	0.0	1980259	WORD_OFF	n/a	n/a	CORN	12	16	[0, 0, 0]	n/a	FR1	0	R1337E
1979.728	0.0	1980259	ENCODING_END	n/a	n/a	n/a	-999	16	[0, 0, 0]	n/a	FR1	0	R1337E
1979.728	0.016	1980259	START	n/a	n/a	n/a	-999	16	[-999, -999, -999]	n/a	FR1	0	R1337E
1979.744	8.267	1980275	PROB	8.267	n/a	n/a	-999	16	[5, 2, 8]	15	FR1	0	R1337E
1988.011	3.885	1988541	PROB	3.885	n/a	n/a	-999	16	[8, 5, 5]	18	FR1	0	R1337E
1991.896	4.133	1992426	PROB	4.133	n/a	n/a	-999	16	[7, 6, 2]	15	FR1	0	R1337E
1996.029	3.518	1996559	PROB	3.518	n/a	n/a	-999	16	[1, 1, 2]	4	FR1	0	R1337E
1999.547	4.095	2000077	PROB	4.095	n/a	n/a	-999	16	[2, 5, 3]	10	FR1	0	R1337E
2003.642	0.005	2004172	STOP	n/a	n/a	n/a	-999	16	[-999, -999, -999]	n/a	FR1	0	R1337E
2003.647	0.603	2004177	DISTRACT_END	n/a	n/a	n/a	-999	16	[0, 0, 0]	n/a	FR1	0	R1337E
2004.25	1.731	2004780	RETRIEVAL_ORIENT_START	n/a	n/a	n/a	-999	16	[0, 0, 0]	n/a	FR1	0	R1337E
2005.981	0.001	2006511	RETRIEVAL_ORIENT_END	n/a	n/a	n/a	-999	16	[0, 0, 0]	n/a	FR1	0	R1337E
2005.982	0.45	2006512	REC_START	n/a	n/a	n/a	-999	16	[0, 0, 0]	n/a	FR1	0	R1337E
2006.432	0.679	2006962	REC_WORD	0.679	n/a	WEED	6	16	[0, 0, 0]	n/a	FR1	0	R1337E
2007.111	0.74	2007640	REC_WORD	0.74	n/a	PLACE	-999	16	[0, 0, 0]	n/a	FR1	0	R1337E
2007.851	0.925	2008380	REC_WORD	0.925	n/a	FLAG	7	16	[0, 0, 0]	n/a	FR1	0	R1337E
2008.776	2.642	2009305	REC_WORD	2.642	n/a	SKUNK	8	16	[0, 0, 0]	n/a	FR1	0	R1337E
2011.418	2.165	2011947	REC_WORD	2.165	n/a	POND	-999	16	[0, 0, 0]	n/a	FR1	0	R1337E
2013.583	22.413	2014112	REC_WORD	22.413	n/a	SHIP	-999	16	[0, 0, 0]	n/a	FR1	0	R1337E
2035.996	0.001	2036524	REC_END	n/a	n/a	n/a	-999	16	[0, 0, 0]	n/a	FR1	0	R1337E
2035.997	0.017	2036525	TRIAL_END	n/a	n/a	n/a	-999	16	[0, 0, 0]	n/a	FR1	0	R1337E
2036.014	0.0	2036542	TRIAL_START	n/a	n/a	n/a	-999	17	[0, 0, 0]	n/a	FR1	0	R1337E
2036.014	0.0	2036542	TRIAL	n/a	n/a	n/a	-999	17	[0, 0, 0]	n/a	FR1	0	R1337E
2036.014	3.24	2036542	WAITING_START	n/a	n/a	n/a	-999	17	[0, 0, 0]	n/a	FR1	0	R1337E
2039.254	0.0	2039782	COUNTDOWN_START	n/a	n/a	n/a	-999	17	[0, 0, 0]	n/a	FR1	0	R1337E
2039.254	10.428	2039782	WAITING_END	n/a	n/a	n/a	-999	17	[0, 0, 0]	n/a	FR1	0	R1337E
2049.682	0.001	2050210	COUNTDOWN_END	n/a	n/a	n/a	-999	17	[0, 0, 0]	n/a	FR1	0	R1337E
2049.683	1.174	2050211	ORIENT_START	n/a	n/a	n/a	-999	17	[0, 0, 0]	n/a	FR1	0	R1337E
2050.857	0.0	2051385	ORIENT_END	n/a	n/a	n/a	-999	17	[0, 0, 0]	n/a	FR1	0	R1337E
2050.857	1.048	2051385	ENCODING_START	n/a	n/a	n/a	-999	17	[0, 0, 0]	n/a	FR1	0	R1337E
2051.905	1.635	2052433	WORD	n/a	n/a	PEACH	1	17	[0, 0, 0]	n/a	FR1	0	R1337E
2053.54	1.139	2054068	WORD_OFF	n/a	n/a	PEACH	1	17	[0, 0, 0]	n/a	FR1	0	R1337E
2054.679	1.628	2055207	WORD	n/a	n/a	ROPE	2	17	[0, 0, 0]	n/a	FR1	0	R1337E
2056.307	0.774	2056835	WORD_OFF	n/a	n/a	ROPE	2	17	[0, 0, 0]	n/a	FR1	0	R1337E
2057.081	1.627	2057609	WORD	n/a	n/a	TREE	3	17	[0, 0, 0]	n/a	FR1	0	R1337E
2058.708	1.143	2059236	WORD_OFF	n/a	n/a	TREE	3	17	[0, 0, 0]	n/a	FR1	0	R1337E
2059.851	1.623	2060379	WORD	n/a	n/a	TOOL	4	17	[0, 0, 0]	n/a	FR1	0	R1337E
2061.474	0.934	2062001	WORD_OFF	n/a	n/a	TOOL	4	17	[0, 0, 0]	n/a	FR1	0	R1337E
2062.408	1.633	2062935	WORD	n/a	n/a	STORM	5	17	[0, 0, 0]	n/a	FR1	0	R1337E
2064.041	0.857	2064568	WORD_OFF	n/a	n/a	STORM	5	17	[0, 0, 0]	n/a	FR1	0	R1337E
2064.898	1.627	2065425	WORD	n/a	n/a	INK	6	17	[0, 0, 0]	n/a	FR1	0	R1337E
2066.525	1.091	2067052	WORD_OFF	n/a	n/a	INK	6	17	[0, 0, 0]	n/a	FR1	0	R1337E
2067.616	1.626	2068143	WORD	n/a	n/a	CLAY	7	17	[0, 0, 0]	n/a	FR1	0	R1337E
2069.242	1.068	2069769	WORD_OFF	n/a	n/a	CLAY	7	17	[0, 0, 0]	n/a	FR1	0	R1337E
2070.31	1.634	2070837	WORD	n/a	n/a	HAT	8	17	[0, 0, 0]	n/a	FR1	0	R1337E
2071.944	0.993	2072471	WORD_OFF	n/a	n/a	HAT	8	17	[0, 0, 0]	n/a	FR1	0	R1337E
2072.937	1.623	2073464	WORD	n/a	n/a	STEAM	9	17	[0, 0, 0]	n/a	FR1	0	R1337E
2074.56	0.88	2075087	WORD_OFF	n/a	n/a	STEAM	9	17	[0, 0, 0]	n/a	FR1	0	R1337E
2075.44	1.637	2075967	WORD	n/a	n/a	WOOD	10	17	[0, 0, 0]	n/a	FR1	0	R1337E
2077.077	1.138	2077604	WORD_OFF	n/a	n/a	WOOD	10	17	[0, 0, 0]	n/a	FR1	0	R1337E
2078.215	1.613	2078742	WORD	n/a	n/a	PLANT	11	17	[0, 0, 0]	n/a	FR1	0	R1337E
2079.828	1.091	2080355	WORD_OFF	n/a	n/a	PLANT	11	17	[0, 0, 0]	n/a	FR1	0	R1337E
2080.919	1.626	2081446	WORD	n/a	n/a	SEAT	12	17	[0, 0, 0]	n/a	FR1	0	R1337E
2082.545	0.0	2083072	DISTRACT_START	n/a	n/a	n/a	-999	17	[0, 0, 0]	n/a	FR1	0	R1337E
2082.545	0.0	2083072	ENCODING_END	n/a	n/a	n/a	-999	17	[0, 0, 0]	n/a	FR1	0	R1337E
2082.545	0.0	2083072	WORD_OFF	n/a	n/a	SEAT	12	17	[0, 0, 0]	n/a	FR1	0	R1337E
2082.545	0.016	2083072	START	n/a	n/a	n/a	-999	17	[-999, -999, -999]	n/a	FR1	0	R1337E
2082.561	9.519	2083088	PROB	9.519	n/a	n/a	-999	17	[8, 9, 4]	21	FR1	0	R1337E
2092.08	4.785	2092606	PROB	4.785	n/a	n/a	-999	17	[4, 3, 6]	13	FR1	0	R1337E
2096.865	3.984	2097391	PROB	3.984	n/a	n/a	-999	17	[6, 1, 2]	9	FR1	0	R1337E
2100.849	3.536	2101375	PROB	3.536	n/a	n/a	-999	17	[8, 9, 6]	23	FR1	0	R1337E
2104.385	0.013	2104911	STOP	n/a	n/a	n/a	-999	17	[-999, -999, -999]	n/a	FR1	0	R1337E
2104.398	0.67	2104924	DISTRACT_END	n/a	n/a	n/a	-999	17	[0, 0, 0]	n/a	FR1	0	R1337E
2105.068	1.598	2105594	RETRIEVAL_ORIENT_START	n/a	n/a	n/a	-999	17	[0, 0, 0]	n/a	FR1	0	R1337E
2106.666	0.0	2107192	RETRIEVAL_ORIENT_END	n/a	n/a	n/a	-999	17	[0, 0, 0]	n/a	FR1	0	R1337E
2106.666	0.0	2107192	REC_START	n/a	n/a	n/a	-999	17	[0, 0, 0]	n/a	FR1	0	R1337E
2106.666	0.503	2107192	REC_WORD	0.503	n/a	PEACH	1	17	[0, 0, 0]	n/a	FR1	0	R1337E
2107.169	0.969	2107695	REC_WORD	0.969	n/a	WOOL	-999	17	[0, 0, 0]	n/a	FR1	0	R1337E
2108.138	1.0	2108664	REC_WORD	1.0	n/a	STREAM	-999	17	[0, 0, 0]	n/a	FR1	0	R1337E
2109.138	0.581	2109664	REC_WORD_VV	0.581	n/a	<>	-999	17	[0, 0, 0]	n/a	FR1	0	R1337E
2109.719	5.402	2110245	REC_WORD	5.402	n/a	STORM	5	17	[0, 0, 0]	n/a	FR1	0	R1337E
2115.121	21.556	2115646	REC_WORD	21.556	n/a	HAND	-999	17	[0, 0, 0]	n/a	FR1	0	R1337E
2136.677	0.0	2137202	REC_END	n/a	n/a	n/a	-999	17	[0, 0, 0]	n/a	FR1	0	R1337E
2136.677	0.019	2137202	TRIAL_END	n/a	n/a	n/a	-999	17	[0, 0, 0]	n/a	FR1	0	R1337E
2136.696	0.001	2137221	TRIAL_START	n/a	n/a	n/a	-999	18	[0, 0, 0]	n/a	FR1	0	R1337E
2136.697	0.0	2137222	TRIAL	n/a	n/a	n/a	-999	18	[0, 0, 0]	n/a	FR1	0	R1337E
2136.697	4.925	2137222	WAITING_START	n/a	n/a	n/a	-999	18	[0, 0, 0]	n/a	FR1	0	R1337E
2141.622	0.0	2142146	WAITING_END	n/a	n/a	n/a	-999	18	[0, 0, 0]	n/a	FR1	0	R1337E
2141.622	10.429	2142146	COUNTDOWN_START	n/a	n/a	n/a	-999	18	[0, 0, 0]	n/a	FR1	0	R1337E
2152.051	0.0	2152575	ORIENT_START	n/a	n/a	n/a	-999	18	[0, 0, 0]	n/a	FR1	0	R1337E
2152.051	1.089	2152575	COUNTDOWN_END	n/a	n/a	n/a	-999	18	[0, 0, 0]	n/a	FR1	0	R1337E
2153.14	0.001	2153664	ORIENT_END	n/a	n/a	n/a	-999	18	[0, 0, 0]	n/a	FR1	0	R1337E
2153.141	0.874	2153665	ENCODING_START	n/a	n/a	n/a	-999	18	[0, 0, 0]	n/a	FR1	0	R1337E
2154.015	1.626	2154539	WORD	n/a	n/a	YARD	1	18	[0, 0, 0]	n/a	FR1	0	R1337E
2155.641	0.923	2156165	WORD_OFF	n/a	n/a	YARD	1	18	[0, 0, 0]	n/a	FR1	0	R1337E
2156.564	1.627	2157088	WORD	n/a	n/a	FARM	2	18	[0, 0, 0]	n/a	FR1	0	R1337E
2158.191	1.082	2158715	WORD_OFF	n/a	n/a	FARM	2	18	[0, 0, 0]	n/a	FR1	0	R1337E
2159.273	1.636	2159797	WORD	n/a	n/a	OWL	3	18	[0, 0, 0]	n/a	FR1	0	R1337E
2160.909	1.132	2161433	WORD_OFF	n/a	n/a	OWL	3	18	[0, 0, 0]	n/a	FR1	0	R1337E
2162.041	1.635	2162565	WORD	n/a	n/a	SWAMP	4	18	[0, 0, 0]	n/a	FR1	0	R1337E
2163.676	0.797	2164200	WORD_OFF	n/a	n/a	SWAMP	4	18	[0, 0, 0]	n/a	FR1	0	R1337E
2164.473	1.636	2164997	WORD	n/a	n/a	TEETH	5	18	[0, 0, 0]	n/a	FR1	0	R1337E
2166.109	0.843	2166633	WORD_OFF	n/a	n/a	TEETH	5	18	[0, 0, 0]	n/a	FR1	0	R1337E
2166.952	1.624	2167475	WORD	n/a	n/a	WORLD	6	18	[0, 0, 0]	n/a	FR1	0	R1337E
2168.576	0.782	2169099	WORD_OFF	n/a	n/a	WORLD	6	18	[0, 0, 0]	n/a	FR1	0	R1337E
2169.358	1.636	2169881	WORD	n/a	n/a	WOLF	7	18	[0, 0, 0]	n/a	FR1	0	R1337E
2170.994	1.123	2171517	WORD_OFF	n/a	n/a	WOLF	7	18	[0, 0, 0]	n/a	FR1	0	R1337E
2172.117	1.628	2172640	WORD	n/a	n/a	GRAPE	8	18	[0, 0, 0]	n/a	FR1	0	R1337E
2173.745	1.117	2174268	WORD_OFF	n/a	n/a	GRAPE	8	18	[0, 0, 0]	n/a	FR1	0	R1337E
2174.862	1.633	2175385	WORD	n/a	n/a	CLOWN	9	18	[0, 0, 0]	n/a	FR1	0	R1337E
2176.495	1.027	2177018	WORD_OFF	n/a	n/a	CLOWN	9	18	[0, 0, 0]	n/a	FR1	0	R1337E
2177.522	1.623	2178045	WORD	n/a	n/a	FAN	10	18	[0, 0, 0]	n/a	FR1	0	R1337E
2179.145	1.054	2179668	WORD_OFF	n/a	n/a	FAN	10	18	[0, 0, 0]	n/a	FR1	0	R1337E
2180.199	1.631	2180722	WORD	n/a	n/a	JET	11	18	[0, 0, 0]	n/a	FR1	0	R1337E
2181.83	0.752	2182353	WORD_OFF	n/a	n/a	JET	11	18	[0, 0, 0]	n/a	FR1	0	R1337E
2182.582	1.631	2183105	WORD	n/a	n/a	CROWN	12	18	[0, 0, 0]	n/a	FR1	0	R1337E
2184.213	0.0	2184736	DISTRACT_START	n/a	n/a	n/a	-999	18	[0, 0, 0]	n/a	FR1	0	R1337E
2184.213	0.0	2184736	ENCODING_END	n/a	n/a	n/a	-999	18	[0, 0, 0]	n/a	FR1	0	R1337E
2184.213	0.0	2184736	WORD_OFF	n/a	n/a	CROWN	12	18	[0, 0, 0]	n/a	FR1	0	R1337E
2184.213	0.016	2184736	START	n/a	n/a	n/a	-999	18	[-999, -999, -999]	n/a	FR1	0	R1337E
2184.229	9.252	2184752	PROB	9.252	n/a	n/a	-999	18	[2, 8, 3]	13	FR1	0	R1337E
2193.481	5.235	2194003	PROB	5.235	n/a	n/a	-999	18	[5, 7, 7]	19	FR1	0	R1337E
2198.716	5.184	2199238	PROB	5.184	n/a	n/a	-999	18	[5, 6, 9]	20	FR1	0	R1337E
2203.9	6.095	2204422	PROB	6.095	n/a	n/a	-999	18	[5, 6, 7]	18	FR1	0	R1337E
2209.995	0.005	2210517	STOP	n/a	n/a	n/a	-999	18	[-999, -999, -999]	n/a	FR1	0	R1337E
2210.0	0.675	2210522	DISTRACT_END	n/a	n/a	n/a	-999	18	[0, 0, 0]	n/a	FR1	0	R1337E
2210.675	1.676	2211197	RETRIEVAL_ORIENT_START	n/a	n/a	n/a	-999	18	[0, 0, 0]	n/a	FR1	0	R1337E
2212.351	0.0	2212873	RETRIEVAL_ORIENT_END	n/a	n/a	n/a	-999	18	[0, 0, 0]	n/a	FR1	0	R1337E
2212.351	2.022	2212873	REC_START	n/a	n/a	n/a	-999	18	[0, 0, 0]	n/a	FR1	0	R1337E
2214.373	0.702	2214895	REC_WORD	0.702	n/a	YARD	1	18	[0, 0, 0]	n/a	FR1	0	R1337E
2215.075	1.183	2215597	REC_WORD	1.183	n/a	FARM	2	18	[0, 0, 0]	n/a	FR1	0	R1337E
2216.258	1.145	2216780	REC_WORD	1.145	n/a	GRAPE	8	18	[0, 0, 0]	n/a	FR1	0	R1337E
2217.403	1.985	2217925	REC_WORD	1.985	n/a	SWAMP	4	18	[0, 0, 0]	n/a	FR1	0	R1337E
2219.388	22.975	2219910	REC_WORD	22.975	n/a	TEETH	5	18	[0, 0, 0]	n/a	FR1	0	R1337E
2242.363	0.001	2242884	REC_END	n/a	n/a	n/a	-999	18	[0, 0, 0]	n/a	FR1	0	R1337E
2242.364	0.017	2242885	TRIAL_END	n/a	n/a	n/a	-999	18	[0, 0, 0]	n/a	FR1	0	R1337E
2242.381	0.0	2242902	TRIAL_START	n/a	n/a	n/a	-999	19	[0, 0, 0]	n/a	FR1	0	R1337E
2242.381	0.0	2242902	TRIAL	n/a	n/a	n/a	-999	19	[0, 0, 0]	n/a	FR1	0	R1337E
2242.381	4.026	2242902	WAITING_START	n/a	n/a	n/a	-999	19	[0, 0, 0]	n/a	FR1	0	R1337E
2246.407	0.0	2246928	WAITING_END	n/a	n/a	n/a	-999	19	[0, 0, 0]	n/a	FR1	0	R1337E
2246.407	10.428	2246928	COUNTDOWN_START	n/a	n/a	n/a	-999	19	[0, 0, 0]	n/a	FR1	0	R1337E
2256.835	0.0	2257355	ORIENT_START	n/a	n/a	n/a	-999	19	[0, 0, 0]	n/a	FR1	0	R1337E
2256.835	1.224	2257355	COUNTDOWN_END	n/a	n/a	n/a	-999	19	[0, 0, 0]	n/a	FR1	0	R1337E
2258.059	0.0	2258579	ORIENT_END	n/a	n/a	n/a	-999	19	[0, 0, 0]	n/a	FR1	0	R1337E
2258.059	0.862	2258579	ENCODING_START	n/a	n/a	n/a	-999	19	[0, 0, 0]	n/a	FR1	0	R1337E
2258.921	1.622	2259441	WORD	n/a	n/a	STOOL	1	19	[0, 0, 0]	n/a	FR1	0	R1337E
2260.543	0.988	2261063	WORD_OFF	n/a	n/a	STOOL	1	19	[0, 0, 0]	n/a	FR1	0	R1337E
2261.531	1.629	2262051	WORD	n/a	n/a	VASE	2	19	[0, 0, 0]	n/a	FR1	0	R1337E
2263.16	1.148	2263680	WORD_OFF	n/a	n/a	VASE	2	19	[0, 0, 0]	n/a	FR1	0	R1337E
2264.308	1.637	2264828	WORD	n/a	n/a	GATE	3	19	[0, 0, 0]	n/a	FR1	0	R1337E
2265.945	1.088	2266465	WORD_OFF	n/a	n/a	GATE	3	19	[0, 0, 0]	n/a	FR1	0	R1337E
2267.033	1.628	2267553	WORD	n/a	n/a	TRUCK	4	19	[0, 0, 0]	n/a	FR1	0	R1337E
2268.661	1.13	2269181	WORD_OFF	n/a	n/a	TRUCK	4	19	[0, 0, 0]	n/a	FR1	0	R1337E
2269.791	1.62	2270311	WORD	n/a	n/a	PIN	5	19	[0, 0, 0]	n/a	FR1	0	R1337E
2271.411	0.861	2271931	WORD_OFF	n/a	n/a	PIN	5	19	[0, 0, 0]	n/a	FR1	0	R1337E
2272.272	1.624	2272792	WORD	n/a	n/a	DEER	6	19	[0, 0, 0]	n/a	FR1	0	R1337E
2273.896	0.937	2274415	WORD_OFF	n/a	n/a	DEER	6	19	[0, 0, 0]	n/a	FR1	0	R1337E
2274.833	1.629	2275352	WORD	n/a	n/a	FUR	7	19	[0, 0, 0]	n/a	FR1	0	R1337E
2276.462	0.971	2276981	WORD_OFF	n/a	n/a	FUR	7	19	[0, 0, 0]	n/a	FR1	0	R1337E
2277.433	1.63	2277952	WORD	n/a	n/a	ICE	8	19	[0, 0, 0]	n/a	FR1	0	R1337E
2279.063	0.969	2279582	WORD_OFF	n/a	n/a	ICE	8	19	[0, 0, 0]	n/a	FR1	0	R1337E
2280.032	1.631	2280551	WORD	n/a	n/a	BATH	9	19	[0, 0, 0]	n/a	FR1	0	R1337E
2281.663	0.921	2282182	WORD_OFF	n/a	n/a	BATH	9	19	[0, 0, 0]	n/a	FR1	0	R1337E
2282.584	1.629	2283103	WORD	n/a	n/a	SNOW	10	19	[0, 0, 0]	n/a	FR1	0	R1337E
2284.213	0.877	2284732	WORD_OFF	n/a	n/a	SNOW	10	19	[0, 0, 0]	n/a	FR1	0	R1337E
2285.09	1.625	2285609	WORD	n/a	n/a	STEM	11	19	[0, 0, 0]	n/a	FR1	0	R1337E
2286.715	0.886	2287234	WORD_OFF	n/a	n/a	STEM	11	19	[0, 0, 0]	n/a	FR1	0	R1337E
2287.601	1.63	2288120	WORD	n/a	n/a	FACE	12	19	[0, 0, 0]	n/a	FR1	0	R1337E
2289.231	0.0	2289750	WORD_OFF	n/a	n/a	FACE	12	19	[0, 0, 0]	n/a	FR1	0	R1337E
2289.231	0.001	2289750	ENCODING_END	n/a	n/a	n/a	-999	19	[0, 0, 0]	n/a	FR1	0	R1337E
2289.232	0.0	2289751	DISTRACT_START	n/a	n/a	n/a	-999	19	[0, 0, 0]	n/a	FR1	0	R1337E
2289.232	0.015	2289751	START	n/a	n/a	n/a	-999	19	[-999, -999, -999]	n/a	FR1	0	R1337E
2289.247	9.369	2289766	PROB	9.369	n/a	n/a	-999	19	[7, 1, 7]	15	FR1	0	R1337E
2298.616	6.618	2299135	PROB	6.618	n/a	n/a	-999	19	[7, 4, 2]	13	FR1	0	R1337E
2305.234	16.897	2305752	PROB	16.897	n/a	n/a	-999	19	[4, 9, 6]	19	FR1	0	R1337E
2322.131	0.022	2322649	STOP	n/a	n/a	n/a	-999	19	[-999, -999, -999]	n/a	FR1	0	R1337E
2322.153	0.545	2322671	DISTRACT_END	n/a	n/a	n/a	-999	19	[0, 0, 0]	n/a	FR1	0	R1337E
2322.698	1.572	2323216	RETRIEVAL_ORIENT_START	n/a	n/a	n/a	-999	19	[0, 0, 0]	n/a	FR1	0	R1337E
2324.27	0.001	2324788	RETRIEVAL_ORIENT_END	n/a	n/a	n/a	-999	19	[0, 0, 0]	n/a	FR1	0	R1337E
2324.271	0.8	2324789	REC_START	n/a	n/a	n/a	-999	19	[0, 0, 0]	n/a	FR1	0	R1337E
2325.071	1.394	2325589	REC_WORD	1.394	n/a	STOOL	1	19	[0, 0, 0]	n/a	FR1	0	R1337E
2326.465	1.361	2326982	REC_WORD	1.361	n/a	VASE	2	19	[0, 0, 0]	n/a	FR1	0	R1337E
2327.826	1.174	2328343	REC_WORD	1.174	n/a	GATE	3	19	[0, 0, 0]	n/a	FR1	0	R1337E
2329.0	1.213	2329517	REC_WORD	1.213	n/a	TRUCK	4	19	[0, 0, 0]	n/a	FR1	0	R1337E
2330.213	1.568	2330730	REC_WORD	1.568	n/a	FACE	12	19	[0, 0, 0]	n/a	FR1	0	R1337E
2331.781	22.501	2332298	REC_WORD	22.501	n/a	HAND	-999	19	[0, 0, 0]	n/a	FR1	0	R1337E
2354.282	0.0	2354798	TRIAL_END	n/a	n/a	n/a	-999	19	[0, 0, 0]	n/a	FR1	0	R1337E
2354.282	0.017	2354798	REC_END	n/a	n/a	n/a	-999	19	[0, 0, 0]	n/a	FR1	0	R1337E
2354.299	0.001	2354815	TRIAL_START	n/a	n/a	n/a	-999	20	[0, 0, 0]	n/a	FR1	0	R1337E
2354.3	0.0	2354816	TRIAL	n/a	n/a	n/a	-999	20	[0, 0, 0]	n/a	FR1	0	R1337E
2354.3	3.477	2354816	WAITING_START	n/a	n/a	n/a	-999	20	[0, 0, 0]	n/a	FR1	0	R1337E
2357.777	0.001	2358293	WAITING_END	n/a	n/a	n/a	-999	20	[0, 0, 0]	n/a	FR1	0	R1337E
2357.778	10.429	2358294	COUNTDOWN_START	n/a	n/a	n/a	-999	20	[0, 0, 0]	n/a	FR1	0	R1337E
2368.207	0.0	2368723	COUNTDOWN_END	n/a	n/a	n/a	-999	20	[0, 0, 0]	n/a	FR1	0	R1337E
2368.207	1.205	2368723	ORIENT_START	n/a	n/a	n/a	-999	20	[0, 0, 0]	n/a	FR1	0	R1337E
2369.412	0.0	2369928	ORIENT_END	n/a	n/a	n/a	-999	20	[0, 0, 0]	n/a	FR1	0	R1337E
2369.412	0.78	2369928	ENCODING_START	n/a	n/a	n/a	-999	20	[0, 0, 0]	n/a	FR1	0	R1337E
2370.192	1.638	2370708	WORD	n/a	n/a	BOX	1	20	[0, 0, 0]	n/a	FR1	0	R1337E
2371.83	0.754	2372346	WORD_OFF	n/a	n/a	BOX	1	20	[0, 0, 0]	n/a	FR1	0	R1337E
2372.584	1.629	2373100	WORD	n/a	n/a	SEAL	2	20	[0, 0, 0]	n/a	FR1	0	R1337E
2374.213	0.92	2374729	WORD_OFF	n/a	n/a	SEAL	2	20	[0, 0, 0]	n/a	FR1	0	R1337E
2375.133	1.631	2375649	WORD	n/a	n/a	STONE	3	20	[0, 0, 0]	n/a	FR1	0	R1337E
2376.764	0.899	2377280	WORD_OFF	n/a	n/a	STONE	3	20	[0, 0, 0]	n/a	FR1	0	R1337E
2377.663	1.634	2378179	WORD	n/a	n/a	PIG	4	20	[0, 0, 0]	n/a	FR1	0	R1337E
2379.297	0.981	2379813	WORD_OFF	n/a	n/a	PIG	4	20	[0, 0, 0]	n/a	FR1	0	R1337E
2380.278	1.637	2380793	WORD	n/a	n/a	MUD	5	20	[0, 0, 0]	n/a	FR1	0	R1337E
2381.915	1.01	2382430	WORD_OFF	n/a	n/a	MUD	5	20	[0, 0, 0]	n/a	FR1	0	R1337E
2382.925	1.623	2383440	WORD	n/a	n/a	TANK	6	20	[0, 0, 0]	n/a	FR1	0	R1337E
2384.548	0.884	2385063	WORD_OFF	n/a	n/a	TANK	6	20	[0, 0, 0]	n/a	FR1	0	R1337E
2385.432	1.633	2385947	WORD	n/a	n/a	BEACH	7	20	[0, 0, 0]	n/a	FR1	0	R1337E
2387.065	0.834	2387580	WORD_OFF	n/a	n/a	BEACH	7	20	[0, 0, 0]	n/a	FR1	0	R1337E
2387.899	1.633	2388414	WORD	n/a	n/a	FENCE	8	20	[0, 0, 0]	n/a	FR1	0	R1337E
2389.532	0.812	2390047	WORD_OFF	n/a	n/a	FENCE	8	20	[0, 0, 0]	n/a	FR1	0	R1337E
2390.344	1.623	2390859	WORD	n/a	n/a	LOCK	9	20	[0, 0, 0]	n/a	FR1	0	R1337E
2391.967	1.011	2392482	WORD_OFF	n/a	n/a	LOCK	9	20	[0, 0, 0]	n/a	FR1	0	R1337E
2392.978	1.622	2393493	WORD	n/a	n/a	MOON	10	20	[0, 0, 0]	n/a	FR1	0	R1337E
2394.6	1.076	2395115	WORD_OFF	n/a	n/a	MOON	10	20	[0, 0, 0]	n/a	FR1	0	R1337E
2395.676	1.624	2396191	WORD	n/a	n/a	SNAKE	11	20	[0, 0, 0]	n/a	FR1	0	R1337E
2397.3	0.817	2397815	WORD_OFF	n/a	n/a	SNAKE	11	20	[0, 0, 0]	n/a	FR1	0	R1337E
2398.117	1.618	2398632	WORD	n/a	n/a	BUSH	12	20	[0, 0, 0]	n/a	FR1	0	R1337E
2399.735	0.0	2400250	WORD_OFF	n/a	n/a	BUSH	12	20	[0, 0, 0]	n/a	FR1	0	R1337E
2399.735	0.0	2400250	ENCODING_END	n/a	n/a	n/a	-999	20	[0, 0, 0]	n/a	FR1	0	R1337E
2399.735	0.0	2400250	DISTRACT_START	n/a	n/a	n/a	-999	20	[0, 0, 0]	n/a	FR1	0	R1337E
2399.735	0.016	2400250	START	n/a	n/a	n/a	-999	20	[-999, -999, -999]	n/a	FR1	0	R1337E
2399.751	11.434	2400266	PROB	11.434	n/a	n/a	-999	20	[5, 5, 2]	12	FR1	0	R1337E
2411.185	9.865	2411699	PROB	9.865	n/a	n/a	-999	20	[3, 9, 2]	14	FR1	0	R1337E
2421.05	0.021	2421564	STOP	n/a	n/a	n/a	-999	20	[-999, -999, -999]	n/a	FR1	0	R1337E
2421.071	0.606	2421585	DISTRACT_END	n/a	n/a	n/a	-999	20	[0, 0, 0]	n/a	FR1	0	R1337E
2421.677	1.578	2422191	RETRIEVAL_ORIENT_START	n/a	n/a	n/a	-999	20	[0, 0, 0]	n/a	FR1	0	R1337E
2423.255	0.0	2423769	REC_START	n/a	n/a	n/a	-999	20	[0, 0, 0]	n/a	FR1	0	R1337E
2423.255	0.98	2423769	RETRIEVAL_ORIENT_END	n/a	n/a	n/a	-999	20	[0, 0, 0]	n/a	FR1	0	R1337E
2424.235	0.628	2424749	REC_WORD	0.628	n/a	BEACH	7	20	[0, 0, 0]	n/a	FR1	0	R1337E
2424.863	0.95	2425377	REC_WORD	0.95	n/a	FENCE	8	20	[0, 0, 0]	n/a	FR1	0	R1337E
2425.813	1.094	2426327	REC_WORD	1.094	n/a	LOCK	9	20	[0, 0, 0]	n/a	FR1	0	R1337E
2426.907	1.305	2427421	REC_WORD	1.305	n/a	MOON	10	20	[0, 0, 0]	n/a	FR1	0	R1337E
2428.212	2.083	2428726	REC_WORD	2.083	n/a	BUSH	12	20	[0, 0, 0]	n/a	FR1	0	R1337E
2430.295	22.971	2430809	REC_WORD	22.971	n/a	SNAKE	11	20	[0, 0, 0]	n/a	FR1	0	R1337E
2453.266	0.001	2453779	REC_END	n/a	n/a	n/a	-999	20	[0, 0, 0]	n/a	FR1	0	R1337E
2453.267	0.017	2453780	TRIAL_END	n/a	n/a	n/a	-999	20	[0, 0, 0]	n/a	FR1	0	R1337E
2453.284	0.0	2453797	WAITING_START	n/a	n/a	n/a	-999	21	[0, 0, 0]	n/a	FR1	0	R1337E
2453.284	0.0	2453797	TRIAL_START	n/a	n/a	n/a	-999	21	[0, 0, 0]	n/a	FR1	0	R1337E
2453.284	10.311	2453797	TRIAL	n/a	n/a	n/a	-999	21	[0, 0, 0]	n/a	FR1	0	R1337E
2463.595	0.0	2464107	WAITING_END	n/a	n/a	n/a	-999	21	[0, 0, 0]	n/a	FR1	0	R1337E
2463.595	10.429	2464107	COUNTDOWN_START	n/a	n/a	n/a	-999	21	[0, 0, 0]	n/a	FR1	0	R1337E
2474.024	0.0	2474536	COUNTDOWN_END	n/a	n/a	n/a	-999	21	[0, 0, 0]	n/a	FR1	0	R1337E
2474.024	1.073	2474536	ORIENT_START	n/a	n/a	n/a	-999	21	[0, 0, 0]	n/a	FR1	0	R1337E
2475.097	0.0	2475609	ORIENT_END	n/a	n/a	n/a	-999	21	[0, 0, 0]	n/a	FR1	0	R1337E
2475.097	0.979	2475609	ENCODING_START	n/a	n/a	n/a	-999	21	[0, 0, 0]	n/a	FR1	0	R1337E
2476.076	1.621	2476588	WORD	n/a	n/a	SLIME	1	21	[0, 0, 0]	n/a	FR1	0	R1337E
2477.697	0.877	2478209	WORD_OFF	n/a	n/a	SLIME	1	21	[0, 0, 0]	n/a	FR1	0	R1337E
2478.574	1.624	2479086	WORD	n/a	n/a	BAG	2	21	[0, 0, 0]	n/a	FR1	0	R1337E
2480.198	0.941	2480710	WORD_OFF	n/a	n/a	BAG	2	21	[0, 0, 0]	n/a	FR1	0	R1337E
2481.139	1.627	2481651	WORD	n/a	n/a	DESK	3	21	[0, 0, 0]	n/a	FR1	0	R1337E
2482.766	1.132	2483278	WORD_OFF	n/a	n/a	DESK	3	21	[0, 0, 0]	n/a	FR1	0	R1337E
2483.898	1.634	2484410	WORD	n/a	n/a	BRANCH	4	21	[0, 0, 0]	n/a	FR1	0	R1337E
2485.532	0.85	2486044	WORD_OFF	n/a	n/a	BRANCH	4	21	[0, 0, 0]	n/a	FR1	0	R1337E
2486.382	1.634	2486893	WORD	n/a	n/a	JEEP	5	21	[0, 0, 0]	n/a	FR1	0	R1337E
2488.016	0.914	2488527	WORD_OFF	n/a	n/a	JEEP	5	21	[0, 0, 0]	n/a	FR1	0	R1337E
2488.93	1.62	2489441	WORD	n/a	n/a	SKY	6	21	[0, 0, 0]	n/a	FR1	0	R1337E
2490.55	0.886	2491061	WORD_OFF	n/a	n/a	SKY	6	21	[0, 0, 0]	n/a	FR1	0	R1337E
2491.436	1.631	2491947	WORD	n/a	n/a	CAVE	7	21	[0, 0, 0]	n/a	FR1	0	R1337E
2493.067	0.857	2493578	WORD_OFF	n/a	n/a	CAVE	7	21	[0, 0, 0]	n/a	FR1	0	R1337E
2493.924	1.626	2494435	WORD	n/a	n/a	FLAME	8	21	[0, 0, 0]	n/a	FR1	0	R1337E
2495.55	0.972	2496061	WORD_OFF	n/a	n/a	FLAME	8	21	[0, 0, 0]	n/a	FR1	0	R1337E
2496.522	1.629	2497033	WORD	n/a	n/a	TAIL	9	21	[0, 0, 0]	n/a	FR1	0	R1337E
2498.151	0.803	2498662	WORD_OFF	n/a	n/a	TAIL	9	21	[0, 0, 0]	n/a	FR1	0	R1337E
2498.954	1.631	2499465	WORD	n/a	n/a	CASH	10	21	[0, 0, 0]	n/a	FR1	0	R1337E
2500.585	0.903	2501096	WORD_OFF	n/a	n/a	CASH	10	21	[0, 0, 0]	n/a	FR1	0	R1337E
2501.488	1.63	2501999	WORD	n/a	n/a	SLUSH	11	21	[0, 0, 0]	n/a	FR1	0	R1337E
2503.118	0.935	2503629	WORD_OFF	n/a	n/a	SLUSH	11	21	[0, 0, 0]	n/a	FR1	0	R1337E
2504.053	1.633	2504564	WORD	n/a	n/a	MUG	12	21	[0, 0, 0]	n/a	FR1	0	R1337E
2505.686	0.0	2506197	WORD_OFF	n/a	n/a	MUG	12	21	[0, 0, 0]	n/a	FR1	0	R1337E
2505.686	0.0	2506197	ENCODING_END	n/a	n/a	n/a	-999	21	[0, 0, 0]	n/a	FR1	0	R1337E
2505.686	0.0	2506197	DISTRACT_START	n/a	n/a	n/a	-999	21	[0, 0, 0]	n/a	FR1	0	R1337E
2505.686	0.016	2506197	START	n/a	n/a	n/a	-999	21	[-999, -999, -999]	n/a	FR1	0	R1337E
2505.702	12.203	2506213	PROB	12.203	n/a	n/a	-999	21	[2, 8, 6]	18	FR1	0	R1337E
2517.905	6.367	2518415	PROB	6.367	n/a	n/a	-999	21	[2, 2, 3]	7	FR1	0	R1337E
2524.272	15.33	2524782	PROB	15.33	n/a	n/a	-999	21	[7, 8, 8]	23	FR1	0	R1337E
2539.602	0.006	2540111	STOP	n/a	n/a	n/a	-999	21	[-999, -999, -999]	n/a	FR1	0	R1337E
2539.608	0.579	2540117	DISTRACT_END	n/a	n/a	n/a	-999	21	[0, 0, 0]	n/a	FR1	0	R1337E
2540.187	1.639	2540696	RETRIEVAL_ORIENT_START	n/a	n/a	n/a	-999	21	[0, 0, 0]	n/a	FR1	0	R1337E
2541.826	0.001	2542335	RETRIEVAL_ORIENT_END	n/a	n/a	n/a	-999	21	[0, 0, 0]	n/a	FR1	0	R1337E
2541.827	0.63	2542336	REC_START	n/a	n/a	n/a	-999	21	[0, 0, 0]	n/a	FR1	0	R1337E
2542.457	0.865	2542966	REC_WORD	0.865	n/a	BAG	2	21	[0, 0, 0]	n/a	FR1	0	R1337E
2543.322	0.958	2543831	REC_WORD	0.958	n/a	DESK	3	21	[0, 0, 0]	n/a	FR1	0	R1337E
2544.28	0.944	2544789	REC_WORD	0.944	n/a	JEEP	5	21	[0, 0, 0]	n/a	FR1	0	R1337E
2545.224	26.614	2545733	REC_WORD	26.614	n/a	SKY	6	21	[0, 0, 0]	n/a	FR1	0	R1337E
2571.838	0.0	2572346	REC_END	n/a	n/a	n/a	-999	21	[0, 0, 0]	n/a	FR1	0	R1337E
2571.838	0.017	2572346	TRIAL_END	n/a	n/a	n/a	-999	21	[0, 0, 0]	n/a	FR1	0	R1337E
2571.855	0.0	2572363	TRIAL_START	n/a	n/a	n/a	-999	22	[0, 0, 0]	n/a	FR1	0	R1337E
2571.855	0.0	2572363	TRIAL	n/a	n/a	n/a	-999	22	[0, 0, 0]	n/a	FR1	0	R1337E
2571.855	3.693	2572363	WAITING_START	n/a	n/a	n/a	-999	22	[0, 0, 0]	n/a	FR1	0	R1337E
2575.548	0.0	2576056	COUNTDOWN_START	n/a	n/a	n/a	-999	22	[0, 0, 0]	n/a	FR1	0	R1337E
2575.548	10.428	2576056	WAITING_END	n/a	n/a	n/a	-999	22	[0, 0, 0]	n/a	FR1	0	R1337E
2585.976	0.001	2586484	COUNTDOWN_END	n/a	n/a	n/a	-999	22	[0, 0, 0]	n/a	FR1	0	R1337E
2585.977	1.223	2586485	ORIENT_START	n/a	n/a	n/a	-999	22	[0, 0, 0]	n/a	FR1	0	R1337E
2587.2	0.0	2587708	ORIENT_END	n/a	n/a	n/a	-999	22	[0, 0, 0]	n/a	FR1	0	R1337E
2587.2	1.108	2587708	ENCODING_START	n/a	n/a	n/a	-999	22	[0, 0, 0]	n/a	FR1	0	R1337E
2588.308	1.627	2588816	WORD	n/a	n/a	ARM	1	22	[0, 0, 0]	n/a	FR1	0	R1337E
2589.935	1.116	2590443	WORD_OFF	n/a	n/a	ARM	1	22	[0, 0, 0]	n/a	FR1	0	R1337E
2591.051	1.633	2591559	WORD	n/a	n/a	LEAF	2	22	[0, 0, 0]	n/a	FR1	0	R1337E
2592.684	1.136	2593192	WORD_OFF	n/a	n/a	LEAF	2	22	[0, 0, 0]	n/a	FR1	0	R1337E
2593.82	1.631	2594327	WORD	n/a	n/a	PET	3	22	[0, 0, 0]	n/a	FR1	0	R1337E
2595.451	1.076	2595958	WORD_OFF	n/a	n/a	PET	3	22	[0, 0, 0]	n/a	FR1	0	R1337E
2596.527	1.625	2597034	WORD	n/a	n/a	PLANE	4	22	[0, 0, 0]	n/a	FR1	0	R1337E
2598.152	0.883	2598659	WORD_OFF	n/a	n/a	PLANE	4	22	[0, 0, 0]	n/a	FR1	0	R1337E
2599.035	1.634	2599542	WORD	n/a	n/a	LEG	5	22	[0, 0, 0]	n/a	FR1	0	R1337E
2600.669	0.815	2601176	WORD_OFF	n/a	n/a	LEG	5	22	[0, 0, 0]	n/a	FR1	0	R1337E
2601.484	1.635	2601991	WORD	n/a	n/a	HORSE	6	22	[0, 0, 0]	n/a	FR1	0	R1337E
2603.119	1.006	2603626	WORD_OFF	n/a	n/a	HORSE	6	22	[0, 0, 0]	n/a	FR1	0	R1337E
2604.125	1.629	2604632	WORD	n/a	n/a	RAT	7	22	[0, 0, 0]	n/a	FR1	0	R1337E
2605.754	0.864	2606261	WORD_OFF	n/a	n/a	RAT	7	22	[0, 0, 0]	n/a	FR1	0	R1337E
2606.618	1.636	2607125	WORD	n/a	n/a	WHALE	8	22	[0, 0, 0]	n/a	FR1	0	R1337E
2608.254	0.763	2608761	WORD_OFF	n/a	n/a	WHALE	8	22	[0, 0, 0]	n/a	FR1	0	R1337E
2609.017	1.637	2609524	WORD	n/a	n/a	BRICK	9	22	[0, 0, 0]	n/a	FR1	0	R1337E
2610.654	1.097	2611161	WORD_OFF	n/a	n/a	BRICK	9	22	[0, 0, 0]	n/a	FR1	0	R1337E
2611.751	1.62	2612258	WORD	n/a	n/a	THREAD	10	22	[0, 0, 0]	n/a	FR1	0	R1337E
2613.371	0.954	2613878	WORD_OFF	n/a	n/a	THREAD	10	22	[0, 0, 0]	n/a	FR1	0	R1337E
2614.325	1.631	2614832	WORD	n/a	n/a	LAMB	11	22	[0, 0, 0]	n/a	FR1	0	R1337E
2615.956	0.913	2616463	WORD_OFF	n/a	n/a	LAMB	11	22	[0, 0, 0]	n/a	FR1	0	R1337E
2616.869	1.636	2617376	WORD	n/a	n/a	WAVE	12	22	[0, 0, 0]	n/a	FR1	0	R1337E
2618.505	0.001	2619012	WORD_OFF	n/a	n/a	WAVE	12	22	[0, 0, 0]	n/a	FR1	0	R1337E
2618.506	0.0	2619013	ENCODING_END	n/a	n/a	n/a	-999	22	[0, 0, 0]	n/a	FR1	0	R1337E
2618.506	0.0	2619013	DISTRACT_START	n/a	n/a	n/a	-999	22	[0, 0, 0]	n/a	FR1	0	R1337E
2618.506	0.016	2619013	START	n/a	n/a	n/a	-999	22	[-999, -999, -999]	n/a	FR1	0	R1337E
2618.522	10.186	2619029	PROB	10.186	n/a	n/a	-999	22	[7, 4, 8]	19	FR1	0	R1337E
2628.708	6.917	2629214	PROB	6.917	n/a	n/a	-999	22	[7, 1, 8]	16	FR1	0	R1337E
2635.625	5.81	2636131	PROB	5.81	n/a	n/a	-999	22	[3, 3, 9]	17	FR1	0	R1337E
2641.435	0.008	2641941	STOP	n/a	n/a	n/a	-999	22	[-999, -999, -999]	n/a	FR1	0	R1337E
2641.443	0.599	2641949	DISTRACT_END	n/a	n/a	n/a	-999	22	[0, 0, 0]	n/a	FR1	0	R1337E
2642.042	1.535	2642548	RETRIEVAL_ORIENT_START	n/a	n/a	n/a	-999	22	[0, 0, 0]	n/a	FR1	0	R1337E
2643.577	0.0	2644083	RETRIEVAL_ORIENT_END	n/a	n/a	n/a	-999	22	[0, 0, 0]	n/a	FR1	0	R1337E
2643.577	0.518	2644083	REC_START	n/a	n/a	n/a	-999	22	[0, 0, 0]	n/a	FR1	0	R1337E
2644.095	0.662	2644601	REC_WORD	0.662	n/a	BRICK	9	22	[0, 0, 0]	n/a	FR1	0	R1337E
2644.757	0.88	2645263	REC_WORD	0.88	n/a	THREAD	10	22	[0, 0, 0]	n/a	FR1	0	R1337E
2645.637	0.692	2646143	REC_WORD	0.692	n/a	ARM	1	22	[0, 0, 0]	n/a	FR1	0	R1337E
2646.329	2.489	2646834	REC_WORD	2.489	n/a	WAVE	12	22	[0, 0, 0]	n/a	FR1	0	R1337E
2648.818	24.77	2649323	REC_WORD	24.77	n/a	HAND	-999	22	[0, 0, 0]	n/a	FR1	0	R1337E
2673.588	0.0	2674092	REC_END	n/a	n/a	n/a	-999	22	[0, 0, 0]	n/a	FR1	0	R1337E
2673.588	0.017	2674092	TRIAL_END	n/a	n/a	n/a	-999	22	[0, 0, 0]	n/a	FR1	0	R1337E
2673.605	0.001	2674109	TRIAL_START	n/a	n/a	n/a	-999	23	[0, 0, 0]	n/a	FR1	0	R1337E
2673.606	0.0	2674110	TRIAL	n/a	n/a	n/a	-999	23	[0, 0, 0]	n/a	FR1	0	R1337E
2673.606	4.361	2674110	WAITING_START	n/a	n/a	n/a	-999	23	[0, 0, 0]	n/a	FR1	0	R1337E
2677.967	0.0	2678471	WAITING_END	n/a	n/a	n/a	-999	23	[0, 0, 0]	n/a	FR1	0	R1337E
2677.967	10.428	2678471	COUNTDOWN_START	n/a	n/a	n/a	-999	23	[0, 0, 0]	n/a	FR1	0	R1337E
2688.395	0.0	2688899	ORIENT_START	n/a	n/a	n/a	-999	23	[0, 0, 0]	n/a	FR1	0	R1337E
2688.395	1.14	2688899	COUNTDOWN_END	n/a	n/a	n/a	-999	23	[0, 0, 0]	n/a	FR1	0	R1337E
2689.535	0.0	2690039	ORIENT_END	n/a	n/a	n/a	-999	23	[0, 0, 0]	n/a	FR1	0	R1337E
2689.535	1.006	2690039	ENCODING_START	n/a	n/a	n/a	-999	23	[0, 0, 0]	n/a	FR1	0	R1337E
2690.541	1.627	2691045	WORD	n/a	n/a	TRAY	1	23	[0, 0, 0]	n/a	FR1	0	R1337E
2692.168	1.148	2692672	WORD_OFF	n/a	n/a	TRAY	1	23	[0, 0, 0]	n/a	FR1	0	R1337E
2693.316	1.637	2693820	WORD	n/a	n/a	MOUTH	2	23	[0, 0, 0]	n/a	FR1	0	R1337E
2694.953	1.096	2695457	WORD_OFF	n/a	n/a	MOUTH	2	23	[0, 0, 0]	n/a	FR1	0	R1337E
2696.049	1.637	2696553	WORD	n/a	n/a	ELF	3	23	[0, 0, 0]	n/a	FR1	0	R1337E
2697.686	1.149	2698190	WORD_OFF	n/a	n/a	ELF	3	23	[0, 0, 0]	n/a	FR1	0	R1337E
2698.835	1.635	2699339	WORD	n/a	n/a	STAR	4	23	[0, 0, 0]	n/a	FR1	0	R1337E
2700.47	0.928	2700973	WORD_OFF	n/a	n/a	STAR	4	23	[0, 0, 0]	n/a	FR1	0	R1337E
2701.398	1.622	2701901	WORD	n/a	n/a	BOOK	5	23	[0, 0, 0]	n/a	FR1	0	R1337E
2703.02	0.97	2703523	WORD_OFF	n/a	n/a	BOOK	5	23	[0, 0, 0]	n/a	FR1	0	R1337E
2703.99	1.631	2704493	WORD	n/a	n/a	BED	6	23	[0, 0, 0]	n/a	FR1	0	R1337E
2705.621	1.06	2706124	WORD_OFF	n/a	n/a	BED	6	23	[0, 0, 0]	n/a	FR1	0	R1337E
2706.681	1.624	2707184	WORD	n/a	n/a	SHRIMP	7	23	[0, 0, 0]	n/a	FR1	0	R1337E
2708.305	0.768	2708808	WORD_OFF	n/a	n/a	SHRIMP	7	23	[0, 0, 0]	n/a	FR1	0	R1337E
2709.073	1.632	2709576	WORD	n/a	n/a	MILK	8	23	[0, 0, 0]	n/a	FR1	0	R1337E
2710.705	1.005	2711208	WORD_OFF	n/a	n/a	MILK	8	23	[0, 0, 0]	n/a	FR1	0	R1337E
2711.71	1.629	2712213	WORD	n/a	n/a	BOARD	9	23	[0, 0, 0]	n/a	FR1	0	R1337E
2713.339	0.791	2713842	WORD_OFF	n/a	n/a	BOARD	9	23	[0, 0, 0]	n/a	FR1	0	R1337E
2714.13	1.627	2714633	WORD	n/a	n/a	CLOUD	10	23	[0, 0, 0]	n/a	FR1	0	R1337E
2715.757	0.935	2716260	WORD_OFF	n/a	n/a	CLOUD	10	23	[0, 0, 0]	n/a	FR1	0	R1337E
2716.692	1.631	2717195	WORD	n/a	n/a	BEAR	11	23	[0, 0, 0]	n/a	FR1	0	R1337E
2718.323	0.8	2718826	WORD_OFF	n/a	n/a	BEAR	11	23	[0, 0, 0]	n/a	FR1	0	R1337E
2719.123	1.618	2719626	WORD	n/a	n/a	SHIELD	12	23	[0, 0, 0]	n/a	FR1	0	R1337E
2720.741	0.0	2721244	ENCODING_END	n/a	n/a	n/a	-999	23	[0, 0, 0]	n/a	FR1	0	R1337E
2720.741	0.001	2721244	WORD_OFF	n/a	n/a	SHIELD	12	23	[0, 0, 0]	n/a	FR1	0	R1337E
2720.742	0.0	2721245	DISTRACT_START	n/a	n/a	n/a	-999	23	[0, 0, 0]	n/a	FR1	0	R1337E
2720.742	0.016	2721245	START	n/a	n/a	n/a	-999	23	[-999, -999, -999]	n/a	FR1	0	R1337E
2720.758	7.233	2721261	PROB	7.233	n/a	n/a	-999	23	[9, 3, 7]	19	FR1	0	R1337E
2727.991	6.535	2728493	PROB	6.535	n/a	n/a	-999	23	[5, 6, 6]	17	FR1	0	R1337E
2734.526	4.6	2735028	PROB	4.6	n/a	n/a	-999	23	[3, 5, 4]	12	FR1	0	R1337E
2739.126	8.85	2739628	PROB	8.85	n/a	n/a	-999	23	[4, 7, 7]	18	FR1	0	R1337E
2747.976	0.019	2748478	STOP	n/a	n/a	n/a	-999	23	[-999, -999, -999]	n/a	FR1	0	R1337E
2747.995	0.687	2748497	DISTRACT_END	n/a	n/a	n/a	-999	23	[0, 0, 0]	n/a	FR1	0	R1337E
2748.682	1.647	2749184	RETRIEVAL_ORIENT_START	n/a	n/a	n/a	-999	23	[0, 0, 0]	n/a	FR1	0	R1337E
2750.329	0.0	2750831	RETRIEVAL_ORIENT_END	n/a	n/a	n/a	-999	23	[0, 0, 0]	n/a	FR1	0	R1337E
2750.329	0.235	2750831	REC_START	n/a	n/a	n/a	-999	23	[0, 0, 0]	n/a	FR1	0	R1337E
2750.564	0.497	2751066	REC_WORD	0.497	n/a	TREE	-999	23	[0, 0, 0]	n/a	FR1	0	R1337E
2751.061	0.919	2751563	REC_WORD	0.919	n/a	MOUTH	2	23	[0, 0, 0]	n/a	FR1	0	R1337E
2751.98	1.397	2752482	REC_WORD	1.397	n/a	STAR	4	23	[0, 0, 0]	n/a	FR1	0	R1337E
2753.377	5.549	2753878	REC_WORD	5.549	n/a	BOOK	5	23	[0, 0, 0]	n/a	FR1	0	R1337E
2758.926	1.133	2759427	REC_WORD	1.133	n/a	BRANCH	-999	23	[0, 0, 0]	n/a	FR1	0	R1337E
2760.059	20.281	2760560	REC_WORD	20.281	n/a	PLATE	-999	23	[0, 0, 0]	n/a	FR1	0	R1337E
2780.34	0.001	2780840	REC_END	n/a	n/a	n/a	-999	23	[0, 0, 0]	n/a	FR1	0	R1337E
2780.341	0.018	2780841	TRIAL_END	n/a	n/a	n/a	-999	23	[0, 0, 0]	n/a	FR1	0	R1337E
2780.359	0.0	2780859	TRIAL_START	n/a	n/a	n/a	-999	24	[0, 0, 0]	n/a	FR1	0	R1337E
2780.359	0.0	2780859	TRIAL	n/a	n/a	n/a	-999	24	[0, 0, 0]	n/a	FR1	0	R1337E
2780.359	4.759	2780859	WAITING_START	n/a	n/a	n/a	-999	24	[0, 0, 0]	n/a	FR1	0	R1337E
2785.118	0.0	2785618	WAITING_END	n/a	n/a	n/a	-999	24	[0, 0, 0]	n/a	FR1	0	R1337E
2785.118	10.43	2785618	COUNTDOWN_START	n/a	n/a	n/a	-999	24	[0, 0, 0]	n/a	FR1	0	R1337E
2795.548	0.0	2796048	ORIENT_START	n/a	n/a	n/a	-999	24	[0, 0, 0]	n/a	FR1	0	R1337E
2795.548	1.256	2796048	COUNTDOWN_END	n/a	n/a	n/a	-999	24	[0, 0, 0]	n/a	FR1	0	R1337E
2796.804	0.001	2797304	ORIENT_END	n/a	n/a	n/a	-999	24	[0, 0, 0]	n/a	FR1	0	R1337E
2796.805	0.94	2797305	ENCODING_START	n/a	n/a	n/a	-999	24	[0, 0, 0]	n/a	FR1	0	R1337E
2797.745	1.626	2798245	WORD	n/a	n/a	ROAD	1	24	[0, 0, 0]	n/a	FR1	0	R1337E
2799.371	0.819	2799871	WORD_OFF	n/a	n/a	ROAD	1	24	[0, 0, 0]	n/a	FR1	0	R1337E
2800.19	1.632	2800690	WORD	n/a	n/a	HOSE	2	24	[0, 0, 0]	n/a	FR1	0	R1337E
2801.822	1.102	2802322	WORD_OFF	n/a	n/a	HOSE	2	24	[0, 0, 0]	n/a	FR1	0	R1337E
2802.924	1.631	2803424	WORD	n/a	n/a	WHEEL	3	24	[0, 0, 0]	n/a	FR1	0	R1337E
2804.555	1.114	2805055	WORD_OFF	n/a	n/a	WHEEL	3	24	[0, 0, 0]	n/a	FR1	0	R1337E
2805.669	1.636	2806169	WORD	n/a	n/a	SHELL	4	24	[0, 0, 0]	n/a	FR1	0	R1337E
2807.305	1.027	2807804	WORD_OFF	n/a	n/a	SHELL	4	24	[0, 0, 0]	n/a	FR1	0	R1337E
