onset	duration	sample	trial_type	response_time	stim_file	item_name	serialpos	list	test	answer	experiment	session	subject
0.0	1.733	96042	INSTRUCT_START	n/a	n/a	n/a	-999	-999	[0, 0, 0]	n/a	FR1	1	R1374T
1.733	31.667	97774	INSTRUCT_END	n/a	n/a	n/a	-999	-999	[0, 0, 0]	n/a	FR1	1	R1374T
33.4	10.35	129434	COUNTDOWN_START	n/a	n/a	n/a	-999	-999	[0, 0, 0]	n/a	FR1	1	R1374T
43.75	0.001	139788	COUNTDOWN_END	n/a	n/a	n/a	-999	-999	[0, 0, 0]	n/a	FR1	1	R1374T
43.751	2.098	139788	ENCODING_START	n/a	n/a	n/a	-999	-1	[0, 0, 0]	n/a	FR1	1	R1374T
45.849	1.617	141883	WORD	n/a	n/a	RING	1	-1	[0, 0, 0]	n/a	FR1	1	R1374T
47.466	0.899	143504	WORD_OFF	n/a	n/a	RING	1	-1	[0, 0, 0]	n/a	FR1	1	R1374T
48.365	1.6	144398	WORD	n/a	n/a	WATCH	2	-1	[0, 0, 0]	n/a	FR1	1	R1374T
49.965	0.85	145991	WORD_OFF	n/a	n/a	WATCH	2	-1	[0, 0, 0]	n/a	FR1	1	R1374T
50.815	1.601	146843	WORD	n/a	n/a	WAGON	3	-1	[0, 0, 0]	n/a	FR1	1	R1374T
52.416	0.799	148450	WORD_OFF	n/a	n/a	WAGON	3	-1	[0, 0, 0]	n/a	FR1	1	R1374T
53.215	1.601	149246	WORD	n/a	n/a	IMAGE	4	-1	[0, 0, 0]	n/a	FR1	1	R1374T
54.816	0.999	150853	WORD_OFF	n/a	n/a	IMAGE	4	-1	[0, 0, 0]	n/a	FR1	1	R1374T
55.815	1.6	151845	WORD	n/a	n/a	TONGUE	5	-1	[0, 0, 0]	n/a	FR1	1	R1374T
57.415	0.984	153452	WORD_OFF	n/a	n/a	TONGUE	5	-1	[0, 0, 0]	n/a	FR1	1	R1374T
58.399	1.616	154430	WORD	n/a	n/a	COTTON	6	-1	[0, 0, 0]	n/a	FR1	1	R1374T
60.015	0.917	156051	WORD_OFF	n/a	n/a	COTTON	6	-1	[0, 0, 0]	n/a	FR1	1	R1374T
60.932	1.617	156959	WORD	n/a	n/a	FLOOD	7	-1	[0, 0, 0]	n/a	FR1	1	R1374T
62.549	0.933	158580	WORD_OFF	n/a	n/a	FLOOD	7	-1	[0, 0, 0]	n/a	FR1	1	R1374T
63.482	1.6	159516	WORD	n/a	n/a	CAMEL	8	-1	[0, 0, 0]	n/a	FR1	1	R1374T
65.082	0.783	161109	WORD_OFF	n/a	n/a	CAMEL	8	-1	[0, 0, 0]	n/a	FR1	1	R1374T
65.865	1.617	161891	WORD	n/a	n/a	BEAM	9	-1	[0, 0, 0]	n/a	FR1	1	R1374T
67.482	0.967	163512	WORD_OFF	n/a	n/a	BEAM	9	-1	[0, 0, 0]	n/a	FR1	1	R1374T
68.449	1.616	164476	WORD	n/a	n/a	CHEST	10	-1	[0, 0, 0]	n/a	FR1	1	R1374T
70.065	0.8	166097	WORD_OFF	n/a	n/a	CHEST	10	-1	[0, 0, 0]	n/a	FR1	1	R1374T
70.865	1.617	166893	WORD	n/a	n/a	BABY	11	-1	[0, 0, 0]	n/a	FR1	1	R1374T
72.482	0.816	168514	WORD_OFF	n/a	n/a	BABY	11	-1	[0, 0, 0]	n/a	FR1	1	R1374T
73.298	1.617	169324	WORD	n/a	n/a	RHINO	12	-1	[0, 0, 0]	n/a	FR1	1	R1374T
74.915	0.002	170945	WORD_OFF	n/a	n/a	RHINO	12	-1	[0, 0, 0]	n/a	FR1	1	R1374T
74.917	0.001	170945	ENCODING_END	n/a	n/a	n/a	-999	-1	[0, 0, 0]	n/a	FR1	1	R1374T
74.918	0.0	170945	DISTRACT_START	n/a	n/a	n/a	-999	-1	[0, 0, 0]	n/a	FR1	1	R1374T
74.917	0.001	170946	PROB	0.001	n/a	n/a	-999	-1	[8, 5, 7]	20	FR1	1	R1374T
74.918	12.199	170947	START	n/a	n/a	n/a	-999	-1	[-999, -999, -999]	n/a	FR1	1	R1374T
87.117	16.498	183145	PROB	16.498	n/a	n/a	-999	-1	[7, 6, 1]	14	FR1	1	R1374T
103.615	0.0	199643	DISTRACT_END	n/a	n/a	n/a	-999	-1	[0, 0, 0]	n/a	FR1	1	R1374T
103.615	1.268	199643	STOP	n/a	n/a	n/a	-999	-1	[-999, -999, -999]	n/a	FR1	1	R1374T
104.883	5.343	200914	REC_START	n/a	n/a	n/a	-999	-1	[0, 0, 0]	n/a	FR1	1	R1374T
110.226	24.926	206253	REC_WORD_VV	24.926	n/a	<>	-999	-1	[0, 0, 0]	n/a	FR1	1	R1374T
135.152	34.563	231177	REC_END	n/a	n/a	n/a	-999	-1	[0, 0, 0]	n/a	FR1	1	R1374T
169.715	10.35	265744	COUNTDOWN_START	n/a	n/a	n/a	-999	1	[0, 0, 0]	n/a	FR1	1	R1374T
180.065	0.0	276083	COUNTDOWN_END	n/a	n/a	n/a	-999	1	[0, 0, 0]	n/a	FR1	1	R1374T
180.065	2.066	276097	ENCODING_START	n/a	n/a	n/a	-999	1	[0, 0, 0]	n/a	FR1	1	R1374T
182.131	1.617	278150	WORD	n/a	n/a	SEA	1	1	[0, 0, 0]	n/a	FR1	1	R1374T
183.748	0.967	279771	WORD_OFF	n/a	n/a	SEA	1	1	[0, 0, 0]	n/a	FR1	1	R1374T
184.715	1.618	280735	WORD	n/a	n/a	BRUSH	2	1	[0, 0, 0]	n/a	FR1	1	R1374T
186.333	0.916	282370	WORD_OFF	n/a	n/a	BRUSH	2	1	[0, 0, 0]	n/a	FR1	1	R1374T
187.249	1.6	283278	WORD	n/a	n/a	RAT	3	1	[0, 0, 0]	n/a	FR1	1	R1374T
188.849	0.817	284871	WORD_OFF	n/a	n/a	RAT	3	1	[0, 0, 0]	n/a	FR1	1	R1374T
189.666	1.601	285695	WORD	n/a	n/a	CAMP	4	1	[0, 0, 0]	n/a	FR1	1	R1374T
191.267	0.798	287288	WORD_OFF	n/a	n/a	CAMP	4	1	[0, 0, 0]	n/a	FR1	1	R1374T
192.065	1.601	288084	WORD	n/a	n/a	CREAM	5	1	[0, 0, 0]	n/a	FR1	1	R1374T
193.666	0.966	289691	WORD_OFF	n/a	n/a	CREAM	5	1	[0, 0, 0]	n/a	FR1	1	R1374T
194.632	1.617	290655	WORD	n/a	n/a	PRINCE	6	1	[0, 0, 0]	n/a	FR1	1	R1374T
196.249	0.95	292276	WORD_OFF	n/a	n/a	PRINCE	6	1	[0, 0, 0]	n/a	FR1	1	R1374T
197.199	1.616	293226	WORD	n/a	n/a	PIPE	7	1	[0, 0, 0]	n/a	FR1	1	R1374T
198.815	0.834	294833	WORD_OFF	n/a	n/a	PIPE	7	1	[0, 0, 0]	n/a	FR1	1	R1374T
199.649	1.6	295671	WORD	n/a	n/a	OIL	8	1	[0, 0, 0]	n/a	FR1	1	R1374T
201.249	0.9	297278	WORD_OFF	n/a	n/a	OIL	8	1	[0, 0, 0]	n/a	FR1	1	R1374T
202.149	1.6	298172	WORD	n/a	n/a	RICE	9	1	[0, 0, 0]	n/a	FR1	1	R1374T
203.749	0.833	299765	WORD_OFF	n/a	n/a	RICE	9	1	[0, 0, 0]	n/a	FR1	1	R1374T
204.582	1.617	300603	WORD	n/a	n/a	PALM	10	1	[0, 0, 0]	n/a	FR1	1	R1374T
206.199	0.983	302224	WORD_OFF	n/a	n/a	PALM	10	1	[0, 0, 0]	n/a	FR1	1	R1374T
207.182	1.6	303202	WORD	n/a	n/a	CAGE	11	1	[0, 0, 0]	n/a	FR1	1	R1374T
208.782	0.867	304809	WORD_OFF	n/a	n/a	CAGE	11	1	[0, 0, 0]	n/a	FR1	1	R1374T
209.649	1.6	305675	WORD	n/a	n/a	MINK	12	1	[0, 0, 0]	n/a	FR1	1	R1374T
211.249	0.001	307268	WORD_OFF	n/a	n/a	MINK	12	1	[0, 0, 0]	n/a	FR1	1	R1374T
211.25	0.0	307268	ENCODING_END	n/a	n/a	n/a	-999	1	[0, 0, 0]	n/a	FR1	1	R1374T
211.25	0.0	307272	START	n/a	n/a	n/a	-999	1	[-999, -999, -999]	n/a	FR1	1	R1374T
211.25	0.0	307272	PROB	0.0	n/a	n/a	-999	1	[4, 2, 5]	11	FR1	1	R1374T
211.25	11.833	307282	DISTRACT_START	n/a	n/a	n/a	-999	1	[0, 0, 0]	n/a	FR1	1	R1374T
223.083	12.199	319104	PROB	12.199	n/a	n/a	-999	1	[5, 1, 3]	9	FR1	1	R1374T
235.282	0.0	331299	DISTRACT_END	n/a	n/a	n/a	-999	1	[0, 0, 0]	n/a	FR1	1	R1374T
235.282	1.233	331303	STOP	n/a	n/a	n/a	-999	1	[-999, -999, -999]	n/a	FR1	1	R1374T
236.515	3.044	332543	REC_START	n/a	n/a	n/a	-999	1	[0, 0, 0]	n/a	FR1	1	R1374T
239.559	0.696	335580	REC_WORD	0.696	n/a	SEA	1	1	[0, 0, 0]	n/a	FR1	1	R1374T
240.255	0.799	336276	REC_WORD	0.799	n/a	BRUSH	2	1	[0, 0, 0]	n/a	FR1	1	R1374T
241.054	6.989	337075	REC_WORD	6.989	n/a	RAT	3	1	[0, 0, 0]	n/a	FR1	1	R1374T
248.043	12.265	344063	REC_WORD	12.265	n/a	CREAM	5	1	[0, 0, 0]	n/a	FR1	1	R1374T
260.308	2.522	356328	REC_WORD	2.522	n/a	BRUSH	2	1	[0, 0, 0]	n/a	FR1	1	R1374T
262.83	3.938	358849	REC_WORD	3.938	n/a	SEA	1	1	[0, 0, 0]	n/a	FR1	1	R1374T
266.768	5.664	362792	REC_END	n/a	n/a	n/a	-999	1	[0, 0, 0]	n/a	FR1	1	R1374T
272.432	10.351	368450	COUNTDOWN_START	n/a	n/a	n/a	-999	2	[0, 0, 0]	n/a	FR1	1	R1374T
282.783	0.0	378803	COUNTDOWN_END	n/a	n/a	n/a	-999	2	[0, 0, 0]	n/a	FR1	1	R1374T
282.783	1.949	378803	ENCODING_START	n/a	n/a	n/a	-999	2	[0, 0, 0]	n/a	FR1	1	R1374T
284.732	1.6	380746	WORD	n/a	n/a	STOOL	1	2	[0, 0, 0]	n/a	FR1	1	R1374T
286.332	0.767	382352	WORD_OFF	n/a	n/a	STOOL	1	2	[0, 0, 0]	n/a	FR1	1	R1374T
287.099	1.617	383121	WORD	n/a	n/a	TRAY	2	2	[0, 0, 0]	n/a	FR1	1	R1374T
288.716	0.933	384741	WORD_OFF	n/a	n/a	TRAY	2	2	[0, 0, 0]	n/a	FR1	1	R1374T
289.649	1.617	385664	WORD	n/a	n/a	BLUSH	3	2	[0, 0, 0]	n/a	FR1	1	R1374T
291.266	0.8	387284	WORD_OFF	n/a	n/a	BLUSH	3	2	[0, 0, 0]	n/a	FR1	1	R1374T
292.066	1.615	388081	WORD	n/a	n/a	GOLD	4	2	[0, 0, 0]	n/a	FR1	1	R1374T
293.681	0.785	389701	WORD_OFF	n/a	n/a	GOLD	4	2	[0, 0, 0]	n/a	FR1	1	R1374T
294.466	1.6	390484	WORD	n/a	n/a	HAY	5	2	[0, 0, 0]	n/a	FR1	1	R1374T
296.066	0.932	392091	WORD_OFF	n/a	n/a	HAY	5	2	[0, 0, 0]	n/a	FR1	1	R1374T
296.998	1.601	393013	WORD	n/a	n/a	EARTH	6	2	[0, 0, 0]	n/a	FR1	1	R1374T
298.599	0.783	394620	WORD_OFF	n/a	n/a	EARTH	6	2	[0, 0, 0]	n/a	FR1	1	R1374T
299.382	1.6	395402	WORD	n/a	n/a	STAR	7	2	[0, 0, 0]	n/a	FR1	1	R1374T
300.982	0.784	396995	WORD_OFF	n/a	n/a	STAR	7	2	[0, 0, 0]	n/a	FR1	1	R1374T
301.766	1.6	397778	WORD	n/a	n/a	CRANE	8	2	[0, 0, 0]	n/a	FR1	1	R1374T
303.366	0.866	399384	WORD_OFF	n/a	n/a	CRANE	8	2	[0, 0, 0]	n/a	FR1	1	R1374T
304.232	1.617	400250	WORD	n/a	n/a	LIP	9	2	[0, 0, 0]	n/a	FR1	1	R1374T
305.849	0.916	401871	WORD_OFF	n/a	n/a	LIP	9	2	[0, 0, 0]	n/a	FR1	1	R1374T
306.765	1.601	402779	WORD	n/a	n/a	SUIT	10	2	[0, 0, 0]	n/a	FR1	1	R1374T
308.366	0.9	404386	WORD_OFF	n/a	n/a	SUIT	10	2	[0, 0, 0]	n/a	FR1	1	R1374T
309.266	1.6	405280	WORD	n/a	n/a	ZOO	11	2	[0, 0, 0]	n/a	FR1	1	R1374T
310.866	0.815	406887	WORD_OFF	n/a	n/a	ZOO	11	2	[0, 0, 0]	n/a	FR1	1	R1374T
311.681	1.602	407697	WORD	n/a	n/a	WING	12	2	[0, 0, 0]	n/a	FR1	1	R1374T
313.283	0.001	409300	PROB	0.001	n/a	n/a	-999	2	[1, 8, 4]	13	FR1	1	R1374T
313.284	0.0	409301	START	n/a	n/a	n/a	-999	2	[-999, -999, -999]	n/a	FR1	1	R1374T
313.282	0.002	409304	WORD_OFF	n/a	n/a	WING	12	2	[0, 0, 0]	n/a	FR1	1	R1374T
313.284	0.0	409304	ENCODING_END	n/a	n/a	n/a	-999	2	[0, 0, 0]	n/a	FR1	1	R1374T
313.284	14.831	409304	DISTRACT_START	n/a	n/a	n/a	-999	2	[0, 0, 0]	n/a	FR1	1	R1374T
328.115	5.667	424131	PROB	5.667	n/a	n/a	-999	2	[6, 3, 3]	12	FR1	1	R1374T
333.782	0.0	429798	STOP	n/a	n/a	n/a	-999	2	[-999, -999, -999]	n/a	FR1	1	R1374T
333.782	1.2	429801	DISTRACT_END	n/a	n/a	n/a	-999	2	[0, 0, 0]	n/a	FR1	1	R1374T
334.982	2.241	431002	REC_START	n/a	n/a	n/a	-999	2	[0, 0, 0]	n/a	FR1	1	R1374T
337.223	0.726	433239	REC_WORD	0.726	n/a	SEA	-999	2	[0, 0, 0]	n/a	FR1	1	R1374T
337.949	0.573	433965	REC_WORD	0.573	n/a	BRUSH	-999	2	[0, 0, 0]	n/a	FR1	1	R1374T
338.522	10.687	434538	REC_WORD	10.687	n/a	RAT	-999	2	[0, 0, 0]	n/a	FR1	1	R1374T
349.209	15.322	445224	REC_WORD	15.322	n/a	STOOL	1	2	[0, 0, 0]	n/a	FR1	1	R1374T
364.531	0.718	460545	REC_WORD_VV	0.718	n/a	<>	-999	2	[0, 0, 0]	n/a	FR1	1	R1374T
365.249	6.133	461265	REC_END	n/a	n/a	n/a	-999	2	[0, 0, 0]	n/a	FR1	1	R1374T
371.382	10.351	467399	COUNTDOWN_START	n/a	n/a	n/a	-999	3	[0, 0, 0]	n/a	FR1	1	R1374T
381.733	0.0	477752	COUNTDOWN_END	n/a	n/a	n/a	-999	3	[0, 0, 0]	n/a	FR1	1	R1374T
381.733	2.299	477752	ENCODING_START	n/a	n/a	n/a	-999	3	[0, 0, 0]	n/a	FR1	1	R1374T
384.032	1.6	480043	WORD	n/a	n/a	WIG	1	3	[0, 0, 0]	n/a	FR1	1	R1374T
385.632	0.767	481650	WORD_OFF	n/a	n/a	WIG	1	3	[0, 0, 0]	n/a	FR1	1	R1374T
386.399	1.6	482418	WORD	n/a	n/a	SMILE	2	3	[0, 0, 0]	n/a	FR1	1	R1374T
387.999	0.883	484011	WORD_OFF	n/a	n/a	SMILE	2	3	[0, 0, 0]	n/a	FR1	1	R1374T
388.882	1.6	484891	WORD	n/a	n/a	SQUARE	3	3	[0, 0, 0]	n/a	FR1	1	R1374T
390.482	0.917	486498	WORD_OFF	n/a	n/a	SQUARE	3	3	[0, 0, 0]	n/a	FR1	1	R1374T
391.399	1.6	487406	WORD	n/a	n/a	DITCH	4	3	[0, 0, 0]	n/a	FR1	1	R1374T
392.999	0.917	489013	WORD_OFF	n/a	n/a	DITCH	4	3	[0, 0, 0]	n/a	FR1	1	R1374T
393.916	1.616	489935	WORD	n/a	n/a	GUN	5	3	[0, 0, 0]	n/a	FR1	1	R1374T
395.532	0.9	491542	WORD_OFF	n/a	n/a	GUN	5	3	[0, 0, 0]	n/a	FR1	1	R1374T
396.432	1.6	492450	WORD	n/a	n/a	CLAY	6	3	[0, 0, 0]	n/a	FR1	1	R1374T
398.032	0.85	494043	WORD_OFF	n/a	n/a	CLAY	6	3	[0, 0, 0]	n/a	FR1	1	R1374T
398.882	1.6	494895	WORD	n/a	n/a	SOAP	7	3	[0, 0, 0]	n/a	FR1	1	R1374T
400.482	0.834	496502	WORD_OFF	n/a	n/a	SOAP	7	3	[0, 0, 0]	n/a	FR1	1	R1374T
401.316	1.616	497326	WORD	n/a	n/a	THORN	8	3	[0, 0, 0]	n/a	FR1	1	R1374T
402.932	0.867	498947	WORD_OFF	n/a	n/a	THORN	8	3	[0, 0, 0]	n/a	FR1	1	R1374T
403.799	1.6	499813	WORD	n/a	n/a	EEL	9	3	[0, 0, 0]	n/a	FR1	1	R1374T
405.399	0.983	501406	WORD_OFF	n/a	n/a	EEL	9	3	[0, 0, 0]	n/a	FR1	1	R1374T
406.382	1.6	502398	WORD	n/a	n/a	SHELL	10	3	[0, 0, 0]	n/a	FR1	1	R1374T
407.982	0.967	503991	WORD_OFF	n/a	n/a	SHELL	10	3	[0, 0, 0]	n/a	FR1	1	R1374T
408.949	1.6	504955	WORD	n/a	n/a	BOWL	11	3	[0, 0, 0]	n/a	FR1	1	R1374T
410.549	0.816	506562	WORD_OFF	n/a	n/a	BOWL	11	3	[0, 0, 0]	n/a	FR1	1	R1374T
411.365	1.601	507372	WORD	n/a	n/a	STORM	12	3	[0, 0, 0]	n/a	FR1	1	R1374T
412.966	0.001	508979	WORD_OFF	n/a	n/a	STORM	12	3	[0, 0, 0]	n/a	FR1	1	R1374T
412.967	0.0	508979	ENCODING_END	n/a	n/a	n/a	-999	3	[0, 0, 0]	n/a	FR1	1	R1374T
412.967	0.0	508979	DISTRACT_START	n/a	n/a	n/a	-999	3	[0, 0, 0]	n/a	FR1	1	R1374T
412.967	0.0	508979	PROB	0.0	n/a	n/a	-999	3	[5, 8, 6]	19	FR1	1	R1374T
412.967	15.649	508979	START	n/a	n/a	n/a	-999	3	[-999, -999, -999]	n/a	FR1	1	R1374T
428.616	7.348	524627	PROB	7.348	n/a	n/a	-999	3	[6, 8, 1]	15	FR1	1	R1374T
435.964	0.0	531975	STOP	n/a	n/a	n/a	-999	3	[-999, -999, -999]	n/a	FR1	1	R1374T
435.964	1.051	531977	DISTRACT_END	n/a	n/a	n/a	-999	3	[0, 0, 0]	n/a	FR1	1	R1374T
437.015	29.999	533024	REC_START	n/a	n/a	n/a	-999	3	[0, 0, 0]	n/a	FR1	1	R1374T
467.014	0.249	563023	REC_WORD_VV	0.249	n/a	<>	-999	3	[0, 0, 0]	n/a	FR1	1	R1374T
467.263	14.719	563273	REC_END	n/a	n/a	n/a	-999	3	[0, 0, 0]	n/a	FR1	1	R1374T
481.982	10.351	577986	COUNTDOWN_START	n/a	n/a	n/a	-999	4	[0, 0, 0]	n/a	FR1	1	R1374T
492.333	0.0	588339	COUNTDOWN_END	n/a	n/a	n/a	-999	4	[0, 0, 0]	n/a	FR1	1	R1374T
492.333	1.849	588339	ENCODING_START	n/a	n/a	n/a	-999	4	[0, 0, 0]	n/a	FR1	1	R1374T
494.182	1.6	590197	WORD	n/a	n/a	ASH	1	4	[0, 0, 0]	n/a	FR1	1	R1374T
495.782	0.916	591790	WORD_OFF	n/a	n/a	ASH	1	4	[0, 0, 0]	n/a	FR1	1	R1374T
496.698	1.601	592712	WORD	n/a	n/a	NURSE	2	4	[0, 0, 0]	n/a	FR1	1	R1374T
498.299	0.95	594305	WORD_OFF	n/a	n/a	NURSE	2	4	[0, 0, 0]	n/a	FR1	1	R1374T
499.249	1.6	595255	WORD	n/a	n/a	JET	3	4	[0, 0, 0]	n/a	FR1	1	R1374T
500.849	0.983	596862	WORD_OFF	n/a	n/a	JET	3	4	[0, 0, 0]	n/a	FR1	1	R1374T
501.832	1.6	597840	WORD	n/a	n/a	RAKE	4	4	[0, 0, 0]	n/a	FR1	1	R1374T
503.432	1.0	599446	WORD_OFF	n/a	n/a	RAKE	4	4	[0, 0, 0]	n/a	FR1	1	R1374T
504.432	1.6	600438	WORD	n/a	n/a	PIN	5	4	[0, 0, 0]	n/a	FR1	1	R1374T
506.032	0.799	602045	WORD_OFF	n/a	n/a	PIN	5	4	[0, 0, 0]	n/a	FR1	1	R1374T
506.831	1.601	602842	WORD	n/a	n/a	FLAME	6	4	[0, 0, 0]	n/a	FR1	1	R1374T
508.432	0.833	604434	WORD_OFF	n/a	n/a	FLAME	6	4	[0, 0, 0]	n/a	FR1	1	R1374T
509.265	1.617	605273	WORD	n/a	n/a	BROOM	7	4	[0, 0, 0]	n/a	FR1	1	R1374T
510.882	0.967	606893	WORD_OFF	n/a	n/a	BROOM	7	4	[0, 0, 0]	n/a	FR1	1	R1374T
511.849	1.616	607857	WORD	n/a	n/a	SHIELD	8	4	[0, 0, 0]	n/a	FR1	1	R1374T
513.465	0.85	609478	WORD_OFF	n/a	n/a	SHIELD	8	4	[0, 0, 0]	n/a	FR1	1	R1374T
514.315	1.617	610316	WORD	n/a	n/a	KITE	9	4	[0, 0, 0]	n/a	FR1	1	R1374T
515.932	0.783	611937	WORD_OFF	n/a	n/a	KITE	9	4	[0, 0, 0]	n/a	FR1	1	R1374T
516.715	1.6	612720	WORD	n/a	n/a	VEST	10	4	[0, 0, 0]	n/a	FR1	1	R1374T
518.315	0.934	614326	WORD_OFF	n/a	n/a	VEST	10	4	[0, 0, 0]	n/a	FR1	1	R1374T
519.249	1.616	615262	WORD	n/a	n/a	NEST	11	4	[0, 0, 0]	n/a	FR1	1	R1374T
520.865	0.917	616869	WORD_OFF	n/a	n/a	NEST	11	4	[0, 0, 0]	n/a	FR1	1	R1374T
521.782	1.617	617791	WORD	n/a	n/a	NIGHT	12	4	[0, 0, 0]	n/a	FR1	1	R1374T
523.399	0.001	619405	PROB	0.001	n/a	n/a	-999	4	[7, 4, 5]	16	FR1	1	R1374T
523.4	0.0	619406	START	n/a	n/a	n/a	-999	4	[-999, -999, -999]	n/a	FR1	1	R1374T
523.399	0.001	619412	WORD_OFF	n/a	n/a	NIGHT	12	4	[0, 0, 0]	n/a	FR1	1	R1374T
523.4	0.0	619412	ENCODING_END	n/a	n/a	n/a	-999	4	[0, 0, 0]	n/a	FR1	1	R1374T
523.4	10.816	619412	DISTRACT_START	n/a	n/a	n/a	-999	4	[0, 0, 0]	n/a	FR1	1	R1374T
534.216	6.999	630222	PROB	6.999	n/a	n/a	-999	4	[3, 6, 6]	15	FR1	1	R1374T
541.215	9.017	637220	PROB	9.017	n/a	n/a	-999	4	[1, 6, 2]	9	FR1	1	R1374T
550.232	0.0	646237	STOP	n/a	n/a	n/a	-999	4	[-999, -999, -999]	n/a	FR1	1	R1374T
550.232	1.034	646238	DISTRACT_END	n/a	n/a	n/a	-999	4	[0, 0, 0]	n/a	FR1	1	R1374T
551.266	11.182	647272	REC_START	n/a	n/a	n/a	-999	4	[0, 0, 0]	n/a	FR1	1	R1374T
562.448	3.173	658452	REC_WORD	3.173	n/a	WIG	-999	4	[0, 0, 0]	n/a	FR1	1	R1374T
565.621	7.023	661625	REC_WORD	7.023	n/a	ASH	1	4	[0, 0, 0]	n/a	FR1	1	R1374T
572.644	8.873	668648	REC_WORD	8.873	n/a	JET	3	4	[0, 0, 0]	n/a	FR1	1	R1374T
581.517	5.249	677521	REC_END	n/a	n/a	n/a	-999	4	[0, 0, 0]	n/a	FR1	1	R1374T
586.766	10.35	682774	COUNTDOWN_START	n/a	n/a	n/a	-999	5	[0, 0, 0]	n/a	FR1	1	R1374T
597.116	0.001	693113	COUNTDOWN_END	n/a	n/a	n/a	-999	5	[0, 0, 0]	n/a	FR1	1	R1374T
597.117	2.099	693127	ENCODING_START	n/a	n/a	n/a	-999	5	[0, 0, 0]	n/a	FR1	1	R1374T
599.216	1.615	695223	WORD	n/a	n/a	ROCK	1	5	[0, 0, 0]	n/a	FR1	1	R1374T
600.831	0.785	696830	WORD_OFF	n/a	n/a	ROCK	1	5	[0, 0, 0]	n/a	FR1	1	R1374T
601.616	1.616	697612	WORD	n/a	n/a	BEEF	2	5	[0, 0, 0]	n/a	FR1	1	R1374T
603.232	0.783	699233	WORD_OFF	n/a	n/a	BEEF	2	5	[0, 0, 0]	n/a	FR1	1	R1374T
604.015	1.601	700016	WORD	n/a	n/a	CORK	3	5	[0, 0, 0]	n/a	FR1	1	R1374T
605.616	0.766	701622	WORD_OFF	n/a	n/a	CORK	3	5	[0, 0, 0]	n/a	FR1	1	R1374T
606.382	1.617	702391	WORD	n/a	n/a	HEART	4	5	[0, 0, 0]	n/a	FR1	1	R1374T
607.999	0.85	703998	WORD_OFF	n/a	n/a	HEART	4	5	[0, 0, 0]	n/a	FR1	1	R1374T
608.849	1.6	704850	WORD	n/a	n/a	MOON	5	5	[0, 0, 0]	n/a	FR1	1	R1374T
610.449	0.766	706457	WORD_OFF	n/a	n/a	MOON	5	5	[0, 0, 0]	n/a	FR1	1	R1374T
611.215	1.6	707211	WORD	n/a	n/a	SNAIL	6	5	[0, 0, 0]	n/a	FR1	1	R1374T
612.815	0.767	708818	WORD_OFF	n/a	n/a	SNAIL	6	5	[0, 0, 0]	n/a	FR1	1	R1374T
613.582	1.6	709586	WORD	n/a	n/a	GATE	7	5	[0, 0, 0]	n/a	FR1	1	R1374T
615.182	0.966	711179	WORD_OFF	n/a	n/a	GATE	7	5	[0, 0, 0]	n/a	FR1	1	R1374T
616.148	1.617	712157	WORD	n/a	n/a	HOLE	8	5	[0, 0, 0]	n/a	FR1	1	R1374T
617.765	0.933	713764	WORD_OFF	n/a	n/a	HOLE	8	5	[0, 0, 0]	n/a	FR1	1	R1374T
618.698	1.6	714700	WORD	n/a	n/a	ROAD	9	5	[0, 0, 0]	n/a	FR1	1	R1374T
620.298	0.817	716307	WORD_OFF	n/a	n/a	ROAD	9	5	[0, 0, 0]	n/a	FR1	1	R1374T
621.115	1.617	717117	WORD	n/a	n/a	FOX	10	5	[0, 0, 0]	n/a	FR1	1	R1374T
622.732	0.866	718738	WORD_OFF	n/a	n/a	FOX	10	5	[0, 0, 0]	n/a	FR1	1	R1374T
623.598	1.6	719604	WORD	n/a	n/a	BEAK	11	5	[0, 0, 0]	n/a	FR1	1	R1374T
625.198	0.85	721197	WORD_OFF	n/a	n/a	BEAK	11	5	[0, 0, 0]	n/a	FR1	1	R1374T
626.048	1.6	722049	WORD	n/a	n/a	SKY	12	5	[0, 0, 0]	n/a	FR1	1	R1374T
627.648	0.002	723649	PROB	0.002	n/a	n/a	-999	5	[4, 1, 2]	7	FR1	1	R1374T
627.65	0.0	723651	START	n/a	n/a	n/a	-999	5	[-999, -999, -999]	n/a	FR1	1	R1374T
627.648	0.002	723656	WORD_OFF	n/a	n/a	SKY	12	5	[0, 0, 0]	n/a	FR1	1	R1374T
627.65	0.0	723656	ENCODING_END	n/a	n/a	n/a	-999	5	[0, 0, 0]	n/a	FR1	1	R1374T
627.65	10.15	723656	DISTRACT_START	n/a	n/a	n/a	-999	5	[0, 0, 0]	n/a	FR1	1	R1374T
637.8	12.066	733800	PROB	12.066	n/a	n/a	-999	5	[4, 2, 1]	7	FR1	1	R1374T
649.866	0.0	745866	STOP	n/a	n/a	n/a	-999	5	[-999, -999, -999]	n/a	FR1	1	R1374T
649.866	1.233	745871	DISTRACT_END	n/a	n/a	n/a	-999	5	[0, 0, 0]	n/a	FR1	1	R1374T
651.099	1.968	747101	REC_START	n/a	n/a	n/a	-999	5	[0, 0, 0]	n/a	FR1	1	R1374T
653.067	0.615	749066	REC_WORD	0.615	n/a	ROCK	1	5	[0, 0, 0]	n/a	FR1	1	R1374T
653.682	3.507	749681	REC_WORD	3.507	n/a	BEEF	2	5	[0, 0, 0]	n/a	FR1	1	R1374T
657.189	1.326	753188	REC_WORD	1.326	n/a	CORK	3	5	[0, 0, 0]	n/a	FR1	1	R1374T
658.515	22.836	754514	REC_WORD	22.836	n/a	ROAD	9	5	[0, 0, 0]	n/a	FR1	1	R1374T
681.351	4.647	777350	REC_END	n/a	n/a	n/a	-999	5	[0, 0, 0]	n/a	FR1	1	R1374T
685.998	10.352	782002	COUNTDOWN_START	n/a	n/a	n/a	-999	6	[0, 0, 0]	n/a	FR1	1	R1374T
696.35	0.0	792355	COUNTDOWN_END	n/a	n/a	n/a	-999	6	[0, 0, 0]	n/a	FR1	1	R1374T
696.35	2.149	792355	ENCODING_START	n/a	n/a	n/a	-999	6	[0, 0, 0]	n/a	FR1	1	R1374T
698.499	1.616	794493	WORD	n/a	n/a	VINE	1	6	[0, 0, 0]	n/a	FR1	1	R1374T
700.115	0.934	796114	WORD_OFF	n/a	n/a	VINE	1	6	[0, 0, 0]	n/a	FR1	1	R1374T
701.049	1.616	797050	WORD	n/a	n/a	MUD	2	6	[0, 0, 0]	n/a	FR1	1	R1374T
702.665	0.984	798657	WORD_OFF	n/a	n/a	MUD	2	6	[0, 0, 0]	n/a	FR1	1	R1374T
703.649	1.617	799649	WORD	n/a	n/a	SINK	3	6	[0, 0, 0]	n/a	FR1	1	R1374T
705.266	0.966	801269	WORD_OFF	n/a	n/a	SINK	3	6	[0, 0, 0]	n/a	FR1	1	R1374T
706.232	1.6	802233	WORD	n/a	n/a	POT	4	6	[0, 0, 0]	n/a	FR1	1	R1374T
707.832	0.784	803826	WORD_OFF	n/a	n/a	POT	4	6	[0, 0, 0]	n/a	FR1	1	R1374T
708.616	1.616	804609	WORD	n/a	n/a	BREAST	5	6	[0, 0, 0]	n/a	FR1	1	R1374T
710.232	0.95	806229	WORD_OFF	n/a	n/a	BREAST	5	6	[0, 0, 0]	n/a	FR1	1	R1374T
711.182	1.6	807179	WORD	n/a	n/a	BATH	6	6	[0, 0, 0]	n/a	FR1	1	R1374T
712.782	0.817	808786	WORD_OFF	n/a	n/a	BATH	6	6	[0, 0, 0]	n/a	FR1	1	R1374T
713.599	1.616	809597	WORD	n/a	n/a	BARN	7	6	[0, 0, 0]	n/a	FR1	1	R1374T
715.215	0.851	811217	WORD_OFF	n/a	n/a	BARN	7	6	[0, 0, 0]	n/a	FR1	1	R1374T
716.066	1.616	812056	WORD	n/a	n/a	RAMP	8	6	[0, 0, 0]	n/a	FR1	1	R1374T
717.682	0.934	813676	WORD_OFF	n/a	n/a	RAMP	8	6	[0, 0, 0]	n/a	FR1	1	R1374T
718.616	1.6	814612	WORD	n/a	n/a	MIST	9	6	[0, 0, 0]	n/a	FR1	1	R1374T
720.216	0.766	816219	WORD_OFF	n/a	n/a	MIST	9	6	[0, 0, 0]	n/a	FR1	1	R1374T
720.982	1.617	816974	WORD	n/a	n/a	JUDGE	10	6	[0, 0, 0]	n/a	FR1	1	R1374T
722.599	0.767	818594	WORD_OFF	n/a	n/a	JUDGE	10	6	[0, 0, 0]	n/a	FR1	1	R1374T
723.366	1.616	819363	WORD	n/a	n/a	FORT	11	6	[0, 0, 0]	n/a	FR1	1	R1374T
724.982	0.883	820984	WORD_OFF	n/a	n/a	FORT	11	6	[0, 0, 0]	n/a	FR1	1	R1374T
725.865	1.618	821864	WORD	n/a	n/a	HOG	12	6	[0, 0, 0]	n/a	FR1	1	R1374T
727.483	0.0	823479	START	n/a	n/a	n/a	-999	6	[-999, -999, -999]	n/a	FR1	1	R1374T
727.483	0.0	823479	PROB	0.0	n/a	n/a	-999	6	[1, 7, 4]	12	FR1	1	R1374T
727.481	0.002	823485	WORD_OFF	n/a	n/a	HOG	12	6	[0, 0, 0]	n/a	FR1	1	R1374T
727.483	0.0	823485	ENCODING_END	n/a	n/a	n/a	-999	6	[0, 0, 0]	n/a	FR1	1	R1374T
727.483	14.117	823485	DISTRACT_START	n/a	n/a	n/a	-999	6	[0, 0, 0]	n/a	FR1	1	R1374T
741.6	8.182	837595	PROB	8.182	n/a	n/a	-999	6	[4, 8, 3]	15	FR1	1	R1374T
749.782	0.0	845777	STOP	n/a	n/a	n/a	-999	6	[-999, -999, -999]	n/a	FR1	1	R1374T
749.782	1.084	845784	DISTRACT_END	n/a	n/a	n/a	-999	6	[0, 0, 0]	n/a	FR1	1	R1374T
750.866	6.173	846859	REC_START	n/a	n/a	n/a	-999	6	[0, 0, 0]	n/a	FR1	1	R1374T
757.039	5.515	853033	REC_WORD	5.515	n/a	ROCK	-999	6	[0, 0, 0]	n/a	FR1	1	R1374T
762.554	2.222	858548	REC_WORD	2.222	n/a	ROAD	-999	6	[0, 0, 0]	n/a	FR1	1	R1374T
764.776	8.644	860770	REC_WORD	8.644	n/a	BLOOD	-999	6	[0, 0, 0]	n/a	FR1	1	R1374T
773.42	0.764	869413	REC_WORD	0.764	n/a	SKY	-999	6	[0, 0, 0]	n/a	FR1	1	R1374T
774.184	6.948	870177	REC_WORD	6.948	n/a	BEAK	-999	6	[0, 0, 0]	n/a	FR1	1	R1374T
781.132	3.75	877122	REC_END	n/a	n/a	n/a	-999	6	[0, 0, 0]	n/a	FR1	1	R1374T
784.882	10.351	880881	COUNTDOWN_START	n/a	n/a	n/a	-999	7	[0, 0, 0]	n/a	FR1	1	R1374T
795.233	0.0	891220	COUNTDOWN_END	n/a	n/a	n/a	-999	7	[0, 0, 0]	n/a	FR1	1	R1374T
795.233	2.066	891234	ENCODING_START	n/a	n/a	n/a	-999	7	[0, 0, 0]	n/a	FR1	1	R1374T
797.299	1.6	893288	WORD	n/a	n/a	SHIP	1	7	[0, 0, 0]	n/a	FR1	1	R1374T
798.899	0.983	894894	WORD_OFF	n/a	n/a	SHIP	1	7	[0, 0, 0]	n/a	FR1	1	R1374T
799.882	1.6	895873	WORD	n/a	n/a	DART	2	7	[0, 0, 0]	n/a	FR1	1	R1374T
801.482	0.867	897479	WORD_OFF	n/a	n/a	DART	2	7	[0, 0, 0]	n/a	FR1	1	R1374T
802.349	1.6	898346	WORD	n/a	n/a	STREET	3	7	[0, 0, 0]	n/a	FR1	1	R1374T
803.949	0.983	899938	WORD_OFF	n/a	n/a	STREET	3	7	[0, 0, 0]	n/a	FR1	1	R1374T
804.932	1.617	900930	WORD	n/a	n/a	CONE	4	7	[0, 0, 0]	n/a	FR1	1	R1374T
806.549	0.833	902551	WORD_OFF	n/a	n/a	CONE	4	7	[0, 0, 0]	n/a	FR1	1	R1374T
807.382	1.617	903375	WORD	n/a	n/a	PRIZE	5	7	[0, 0, 0]	n/a	FR1	1	R1374T
808.999	0.899	904996	WORD_OFF	n/a	n/a	PRIZE	5	7	[0, 0, 0]	n/a	FR1	1	R1374T
809.898	1.601	905890	WORD	n/a	n/a	SEED	6	7	[0, 0, 0]	n/a	FR1	1	R1374T
811.499	0.933	907497	WORD_OFF	n/a	n/a	SEED	6	7	[0, 0, 0]	n/a	FR1	1	R1374T
812.432	1.617	908419	WORD	n/a	n/a	LOCK	7	7	[0, 0, 0]	n/a	FR1	1	R1374T
814.049	0.782	910040	WORD_OFF	n/a	n/a	LOCK	7	7	[0, 0, 0]	n/a	FR1	1	R1374T
814.831	1.601	910822	WORD	n/a	n/a	MOOSE	8	7	[0, 0, 0]	n/a	FR1	1	R1374T
816.432	0.966	912429	WORD_OFF	n/a	n/a	MOOSE	8	7	[0, 0, 0]	n/a	FR1	1	R1374T
817.398	1.6	913393	WORD	n/a	n/a	TANK	9	7	[0, 0, 0]	n/a	FR1	1	R1374T
818.998	0.934	914986	WORD_OFF	n/a	n/a	TANK	9	7	[0, 0, 0]	n/a	FR1	1	R1374T
819.932	1.616	915922	WORD	n/a	n/a	PET	10	7	[0, 0, 0]	n/a	FR1	1	R1374T
821.548	0.934	917543	WORD_OFF	n/a	n/a	PET	10	7	[0, 0, 0]	n/a	FR1	1	R1374T
822.482	1.6	918479	WORD	n/a	n/a	STONE	11	7	[0, 0, 0]	n/a	FR1	1	R1374T
824.082	0.984	920072	WORD_OFF	n/a	n/a	STONE	11	7	[0, 0, 0]	n/a	FR1	1	R1374T
825.066	1.616	921064	WORD	n/a	n/a	SPEAR	12	7	[0, 0, 0]	n/a	FR1	1	R1374T
826.682	0.002	922670	WORD_OFF	n/a	n/a	SPEAR	12	7	[0, 0, 0]	n/a	FR1	1	R1374T
826.684	0.0	922670	ENCODING_END	n/a	n/a	n/a	-999	7	[0, 0, 0]	n/a	FR1	1	R1374T
826.682	0.002	922673	PROB	0.002	n/a	n/a	-999	7	[4, 6, 3]	13	FR1	1	R1374T
826.684	0.0	922675	START	n/a	n/a	n/a	-999	7	[-999, -999, -999]	n/a	FR1	1	R1374T
826.684	16.365	922684	DISTRACT_START	n/a	n/a	n/a	-999	7	[0, 0, 0]	n/a	FR1	1	R1374T
843.049	4.9	939039	PROB	4.9	n/a	n/a	-999	7	[5, 5, 8]	18	FR1	1	R1374T
847.949	0.0	943936	DISTRACT_END	n/a	n/a	n/a	-999	7	[0, 0, 0]	n/a	FR1	1	R1374T
847.949	1.35	943939	STOP	n/a	n/a	n/a	-999	7	[-999, -999, -999]	n/a	FR1	1	R1374T
849.299	4.167	945291	REC_START	n/a	n/a	n/a	-999	7	[0, 0, 0]	n/a	FR1	1	R1374T
853.466	6.663	949455	REC_WORD	6.663	n/a	SHIP	1	7	[0, 0, 0]	n/a	FR1	1	R1374T
860.129	1.279	956118	REC_WORD	1.279	n/a	MOOSE	8	7	[0, 0, 0]	n/a	FR1	1	R1374T
861.408	2.765	957397	REC_WORD	2.765	n/a	STONE	11	7	[0, 0, 0]	n/a	FR1	1	R1374T
864.173	15.393	960162	REC_WORD	15.393	n/a	ROCK	-999	7	[0, 0, 0]	n/a	FR1	1	R1374T
879.566	4.683	975554	REC_END	n/a	n/a	n/a	-999	7	[0, 0, 0]	n/a	FR1	1	R1374T
884.249	10.351	980234	COUNTDOWN_START	n/a	n/a	n/a	-999	8	[0, 0, 0]	n/a	FR1	1	R1374T
894.6	0.0	990587	COUNTDOWN_END	n/a	n/a	n/a	-999	8	[0, 0, 0]	n/a	FR1	1	R1374T
894.6	2.016	990587	ENCODING_START	n/a	n/a	n/a	-999	8	[0, 0, 0]	n/a	FR1	1	R1374T
896.616	1.616	992599	WORD	n/a	n/a	ARK	1	8	[0, 0, 0]	n/a	FR1	1	R1374T
898.232	0.817	994220	WORD_OFF	n/a	n/a	ARK	1	8	[0, 0, 0]	n/a	FR1	1	R1374T
899.049	1.616	995030	WORD	n/a	n/a	MOLE	2	8	[0, 0, 0]	n/a	FR1	1	R1374T
900.665	0.817	996651	WORD_OFF	n/a	n/a	MOLE	2	8	[0, 0, 0]	n/a	FR1	1	R1374T
901.482	1.6	997476	WORD	n/a	n/a	SEAL	3	8	[0, 0, 0]	n/a	FR1	1	R1374T
903.082	0.8	999068	WORD_OFF	n/a	n/a	SEAL	3	8	[0, 0, 0]	n/a	FR1	1	R1374T
903.882	1.6	999865	WORD	n/a	n/a	CHEEK	4	8	[0, 0, 0]	n/a	FR1	1	R1374T
905.482	0.834	1001472	WORD_OFF	n/a	n/a	CHEEK	4	8	[0, 0, 0]	n/a	FR1	1	R1374T
906.316	1.616	1002310	WORD	n/a	n/a	LEAF	5	8	[0, 0, 0]	n/a	FR1	1	R1374T
907.932	0.966	1003917	WORD_OFF	n/a	n/a	LEAF	5	8	[0, 0, 0]	n/a	FR1	1	R1374T
908.898	1.601	1004881	WORD	n/a	n/a	FLAG	6	8	[0, 0, 0]	n/a	FR1	1	R1374T
910.499	0.849	1006487	WORD_OFF	n/a	n/a	FLAG	6	8	[0, 0, 0]	n/a	FR1	1	R1374T
911.348	1.617	1007340	WORD	n/a	n/a	FRUIT	7	8	[0, 0, 0]	n/a	FR1	1	R1374T
912.965	0.85	1008946	WORD_OFF	n/a	n/a	FRUIT	7	8	[0, 0, 0]	n/a	FR1	1	R1374T
913.815	1.601	1009799	WORD	n/a	n/a	SAIL	8	8	[0, 0, 0]	n/a	FR1	1	R1374T
915.416	0.783	1011405	WORD_OFF	n/a	n/a	SAIL	8	8	[0, 0, 0]	n/a	FR1	1	R1374T
916.199	1.616	1012188	WORD	n/a	n/a	BUSH	9	8	[0, 0, 0]	n/a	FR1	1	R1374T
917.815	0.785	1013795	WORD_OFF	n/a	n/a	BUSH	9	8	[0, 0, 0]	n/a	FR1	1	R1374T
918.6	1.616	1014591	WORD	n/a	n/a	STEW	10	8	[0, 0, 0]	n/a	FR1	1	R1374T
920.216	0.999	1016198	WORD_OFF	n/a	n/a	STEW	10	8	[0, 0, 0]	n/a	FR1	1	R1374T
921.215	1.601	1017204	WORD	n/a	n/a	BLOOM	11	8	[0, 0, 0]	n/a	FR1	1	R1374T
922.816	0.915	1018797	WORD_OFF	n/a	n/a	BLOOM	11	8	[0, 0, 0]	n/a	FR1	1	R1374T
923.731	1.602	1019719	WORD	n/a	n/a	GLOBE	12	8	[0, 0, 0]	n/a	FR1	1	R1374T
925.333	0.001	1021319	PROB	0.001	n/a	n/a	-999	8	[1, 5, 4]	10	FR1	1	R1374T
925.334	0.0	1021320	START	n/a	n/a	n/a	-999	8	[-999, -999, -999]	n/a	FR1	1	R1374T
925.332	0.002	1021325	WORD_OFF	n/a	n/a	GLOBE	12	8	[0, 0, 0]	n/a	FR1	1	R1374T
925.334	0.0	1021325	ENCODING_END	n/a	n/a	n/a	-999	8	[0, 0, 0]	n/a	FR1	1	R1374T
925.334	14.698	1021325	DISTRACT_START	n/a	n/a	n/a	-999	8	[0, 0, 0]	n/a	FR1	1	R1374T
940.032	10.167	1036017	PROB	10.167	n/a	n/a	-999	8	[7, 5, 8]	20	FR1	1	R1374T
950.199	0.0	1046181	DISTRACT_END	n/a	n/a	n/a	-999	8	[0, 0, 0]	n/a	FR1	1	R1374T
950.199	1.4	1046183	STOP	n/a	n/a	n/a	-999	8	[-999, -999, -999]	n/a	FR1	1	R1374T
951.599	6.552	1047578	REC_START	n/a	n/a	n/a	-999	8	[0, 0, 0]	n/a	FR1	1	R1374T
958.151	0.454	1054135	REC_WORD	0.454	n/a	ARK	1	8	[0, 0, 0]	n/a	FR1	1	R1374T
958.605	0.741	1054589	REC_WORD	0.741	n/a	MOLE	2	8	[0, 0, 0]	n/a	FR1	1	R1374T
959.346	2.57	1055330	REC_WORD	2.57	n/a	SAIL	8	8	[0, 0, 0]	n/a	FR1	1	R1374T
961.916	4.509	1057900	REC_WORD	4.509	n/a	SAIL	8	8	[0, 0, 0]	n/a	FR1	1	R1374T
966.425	5.259	1062408	REC_WORD	5.259	n/a	MOOSE	-999	8	[0, 0, 0]	n/a	FR1	1	R1374T
971.684	10.159	1067667	REC_WORD	10.159	n/a	GLOW	-999	8	[0, 0, 0]	n/a	FR1	1	R1374T
981.843	5.755	1077828	REC_END	n/a	n/a	n/a	-999	8	[0, 0, 0]	n/a	FR1	1	R1374T
987.598	10.351	1083584	COUNTDOWN_START	n/a	n/a	n/a	-999	9	[0, 0, 0]	n/a	FR1	1	R1374T
997.949	0.0	1093937	COUNTDOWN_END	n/a	n/a	n/a	-999	9	[0, 0, 0]	n/a	FR1	1	R1374T
997.949	2.167	1093937	ENCODING_START	n/a	n/a	n/a	-999	9	[0, 0, 0]	n/a	FR1	1	R1374T
1000.116	1.617	1096103	WORD	n/a	n/a	CURB	1	9	[0, 0, 0]	n/a	FR1	1	R1374T
1001.733	0.85	1097709	WORD_OFF	n/a	n/a	CURB	1	9	[0, 0, 0]	n/a	FR1	1	R1374T
1002.583	1.6	1098562	WORD	n/a	n/a	FACE	2	9	[0, 0, 0]	n/a	FR1	1	R1374T
1004.183	0.783	1100168	WORD_OFF	n/a	n/a	FACE	2	9	[0, 0, 0]	n/a	FR1	1	R1374T
1004.966	1.616	1100951	WORD	n/a	n/a	BLADE	3	9	[0, 0, 0]	n/a	FR1	1	R1374T
1006.582	0.85	1102558	WORD_OFF	n/a	n/a	BLADE	3	9	[0, 0, 0]	n/a	FR1	1	R1374T
1007.432	1.6	1103410	WORD	n/a	n/a	ICE	4	9	[0, 0, 0]	n/a	FR1	1	R1374T
1009.032	0.883	1105017	WORD_OFF	n/a	n/a	ICE	4	9	[0, 0, 0]	n/a	FR1	1	R1374T
1009.915	1.601	1105897	WORD	n/a	n/a	THROAT	5	9	[0, 0, 0]	n/a	FR1	1	R1374T
1011.516	0.8	1107504	WORD_OFF	n/a	n/a	THROAT	5	9	[0, 0, 0]	n/a	FR1	1	R1374T
1012.316	1.6	1108300	WORD	n/a	n/a	RUG	6	9	[0, 0, 0]	n/a	FR1	1	R1374T
1013.916	0.782	1109893	WORD_OFF	n/a	n/a	RUG	6	9	[0, 0, 0]	n/a	FR1	1	R1374T
1014.698	1.601	1110675	WORD	n/a	n/a	EGG	7	9	[0, 0, 0]	n/a	FR1	1	R1374T
1016.299	0.832	1112282	WORD_OFF	n/a	n/a	EGG	7	9	[0, 0, 0]	n/a	FR1	1	R1374T
1017.131	1.601	1113120	WORD	n/a	n/a	ROOT	8	9	[0, 0, 0]	n/a	FR1	1	R1374T
1018.732	0.85	1114713	WORD_OFF	n/a	n/a	ROOT	8	9	[0, 0, 0]	n/a	FR1	1	R1374T
1019.582	1.6	1115565	WORD	n/a	n/a	POOL	9	9	[0, 0, 0]	n/a	FR1	1	R1374T
1021.182	0.834	1117158	WORD_OFF	n/a	n/a	POOL	9	9	[0, 0, 0]	n/a	FR1	1	R1374T
1022.016	1.616	1117996	WORD	n/a	n/a	THREAD	10	9	[0, 0, 0]	n/a	FR1	1	R1374T
1023.632	0.967	1119617	WORD_OFF	n/a	n/a	THREAD	10	9	[0, 0, 0]	n/a	FR1	1	R1374T
1024.599	1.6	1120581	WORD	n/a	n/a	FOOD	11	9	[0, 0, 0]	n/a	FR1	1	R1374T
1026.199	0.817	1122174	WORD_OFF	n/a	n/a	FOOD	11	9	[0, 0, 0]	n/a	FR1	1	R1374T
1027.016	1.616	1122998	WORD	n/a	n/a	KNOB	12	9	[0, 0, 0]	n/a	FR1	1	R1374T
1028.632	0.002	1124612	PROB	0.002	n/a	n/a	-999	9	[2, 7, 6]	15	FR1	1	R1374T
1028.634	0.0	1124614	START	n/a	n/a	n/a	-999	9	[-999, -999, -999]	n/a	FR1	1	R1374T
1028.632	0.002	1124619	WORD_OFF	n/a	n/a	KNOB	12	9	[0, 0, 0]	n/a	FR1	1	R1374T
1028.634	0.0	1124619	ENCODING_END	n/a	n/a	n/a	-999	9	[0, 0, 0]	n/a	FR1	1	R1374T
1028.634	17.265	1124619	DISTRACT_START	n/a	n/a	n/a	-999	9	[0, 0, 0]	n/a	FR1	1	R1374T
1045.899	6.7	1141878	PROB	6.7	n/a	n/a	-999	9	[4, 3, 7]	14	FR1	1	R1374T
1052.599	0.0	1148578	STOP	n/a	n/a	n/a	-999	9	[-999, -999, -999]	n/a	FR1	1	R1374T
1052.599	1.132	1148581	DISTRACT_END	n/a	n/a	n/a	-999	9	[0, 0, 0]	n/a	FR1	1	R1374T
1053.731	22.704	1149712	REC_START	n/a	n/a	n/a	-999	9	[0, 0, 0]	n/a	FR1	1	R1374T
1076.435	1.864	1172413	REC_WORD	1.864	n/a	CURB	1	9	[0, 0, 0]	n/a	FR1	1	R1374T
1078.299	0.901	1174277	REC_WORD	0.901	n/a	FACE	2	9	[0, 0, 0]	n/a	FR1	1	R1374T
1079.2	4.799	1175178	REC_WORD	4.799	n/a	CURB	1	9	[0, 0, 0]	n/a	FR1	1	R1374T
1083.999	5.917	1179975	REC_END	n/a	n/a	n/a	-999	9	[0, 0, 0]	n/a	FR1	1	R1374T
1089.916	10.35	1185900	COUNTDOWN_START	n/a	n/a	n/a	-999	10	[0, 0, 0]	n/a	FR1	1	R1374T
1100.266	0.0	1196239	COUNTDOWN_END	n/a	n/a	n/a	-999	10	[0, 0, 0]	n/a	FR1	1	R1374T
1100.266	1.949	1196239	ENCODING_START	n/a	n/a	n/a	-999	10	[0, 0, 0]	n/a	FR1	1	R1374T
1102.215	1.601	1198195	WORD	n/a	n/a	BOOK	1	10	[0, 0, 0]	n/a	FR1	1	R1374T
1103.816	0.865	1199788	WORD_OFF	n/a	n/a	BOOK	1	10	[0, 0, 0]	n/a	FR1	1	R1374T
1104.681	1.601	1200654	WORD	n/a	n/a	SPARK	2	10	[0, 0, 0]	n/a	FR1	1	R1374T
1106.282	0.884	1202260	WORD_OFF	n/a	n/a	SPARK	2	10	[0, 0, 0]	n/a	FR1	1	R1374T
1107.166	1.599	1203141	WORD	n/a	n/a	TAIL	3	10	[0, 0, 0]	n/a	FR1	1	R1374T
1108.765	0.934	1204747	WORD_OFF	n/a	n/a	TAIL	3	10	[0, 0, 0]	n/a	FR1	1	R1374T
1109.699	1.6	1205670	WORD	n/a	n/a	SLEEVE	4	10	[0, 0, 0]	n/a	FR1	1	R1374T
1111.299	0.85	1207276	WORD_OFF	n/a	n/a	SLEEVE	4	10	[0, 0, 0]	n/a	FR1	1	R1374T
1112.149	1.6	1208129	WORD	n/a	n/a	APE	5	10	[0, 0, 0]	n/a	FR1	1	R1374T
1113.749	0.9	1209721	WORD_OFF	n/a	n/a	APE	5	10	[0, 0, 0]	n/a	FR1	1	R1374T
1114.649	1.616	1210630	WORD	n/a	n/a	CAT	6	10	[0, 0, 0]	n/a	FR1	1	R1374T
1116.265	0.95	1212236	WORD_OFF	n/a	n/a	CAT	6	10	[0, 0, 0]	n/a	FR1	1	R1374T
1117.215	1.601	1213186	WORD	n/a	n/a	SALT	7	10	[0, 0, 0]	n/a	FR1	1	R1374T
1118.816	0.9	1214793	WORD_OFF	n/a	n/a	SALT	7	10	[0, 0, 0]	n/a	FR1	1	R1374T
1119.716	1.616	1215687	WORD	n/a	n/a	DOCK	8	10	[0, 0, 0]	n/a	FR1	1	R1374T
1121.332	0.817	1217308	WORD_OFF	n/a	n/a	DOCK	8	10	[0, 0, 0]	n/a	FR1	1	R1374T
1122.149	1.6	1218132	WORD	n/a	n/a	BOLT	9	10	[0, 0, 0]	n/a	FR1	1	R1374T
1123.749	0.949	1219725	WORD_OFF	n/a	n/a	BOLT	9	10	[0, 0, 0]	n/a	FR1	1	R1374T
1124.698	1.601	1220675	WORD	n/a	n/a	FARM	10	10	[0, 0, 0]	n/a	FR1	1	R1374T
1126.299	1.0	1222282	WORD_OFF	n/a	n/a	FARM	10	10	[0, 0, 0]	n/a	FR1	1	R1374T
1127.299	1.617	1223274	WORD	n/a	n/a	STEAM	11	10	[0, 0, 0]	n/a	FR1	1	R1374T
1128.916	0.95	1224895	WORD_OFF	n/a	n/a	STEAM	11	10	[0, 0, 0]	n/a	FR1	1	R1374T
1129.866	1.616	1225845	WORD	n/a	n/a	HOOK	12	10	[0, 0, 0]	n/a	FR1	1	R1374T
1131.482	0.001	1227452	WORD_OFF	n/a	n/a	HOOK	12	10	[0, 0, 0]	n/a	FR1	1	R1374T
1131.483	0.001	1227458	PROB	0.001	n/a	n/a	-999	10	[1, 5, 1]	7	FR1	1	R1374T
1131.484	0.0	1227459	START	n/a	n/a	n/a	-999	10	[-999, -999, -999]	n/a	FR1	1	R1374T
1131.484	0.0	1227466	ENCODING_END	n/a	n/a	n/a	-999	10	[0, 0, 0]	n/a	FR1	1	R1374T
1131.484	12.599	1227466	DISTRACT_START	n/a	n/a	n/a	-999	10	[0, 0, 0]	n/a	FR1	1	R1374T
1144.083	6.533	1240057	PROB	6.533	n/a	n/a	-999	10	[1, 2, 3]	6	FR1	1	R1374T
1150.616	17.899	1246590	PROB	17.899	n/a	n/a	-999	10	[7, 3, 7]	17	FR1	1	R1374T
1168.515	0.0	1264488	STOP	n/a	n/a	n/a	-999	10	[-999, -999, -999]	n/a	FR1	1	R1374T
1168.515	1.133	1264491	DISTRACT_END	n/a	n/a	n/a	-999	10	[0, 0, 0]	n/a	FR1	1	R1374T
1169.648	7.961	1265623	REC_START	n/a	n/a	n/a	-999	10	[0, 0, 0]	n/a	FR1	1	R1374T
1177.609	8.308	1273582	REC_WORD	8.308	n/a	BOOK	1	10	[0, 0, 0]	n/a	FR1	1	R1374T
1185.917	13.975	1281889	REC_WORD	13.975	n/a	BAR	-999	10	[0, 0, 0]	n/a	FR1	1	R1374T
1199.892	5.64	1295858	REC_END	n/a	n/a	n/a	-999	10	[0, 0, 0]	n/a	FR1	1	R1374T
1205.532	10.351	1301502	COUNTDOWN_START	n/a	n/a	n/a	-999	11	[0, 0, 0]	n/a	FR1	1	R1374T
1215.883	0.0	1311855	COUNTDOWN_END	n/a	n/a	n/a	-999	11	[0, 0, 0]	n/a	FR1	1	R1374T
1215.883	2.083	1311855	ENCODING_START	n/a	n/a	n/a	-999	11	[0, 0, 0]	n/a	FR1	1	R1374T
1217.966	1.6	1313937	WORD	n/a	n/a	YARD	1	11	[0, 0, 0]	n/a	FR1	1	R1374T
1219.566	0.866	1315544	WORD_OFF	n/a	n/a	YARD	1	11	[0, 0, 0]	n/a	FR1	1	R1374T
1220.432	1.617	1316410	WORD	n/a	n/a	POLE	2	11	[0, 0, 0]	n/a	FR1	1	R1374T
1222.049	0.917	1318017	WORD_OFF	n/a	n/a	POLE	2	11	[0, 0, 0]	n/a	FR1	1	R1374T
1222.966	1.6	1318939	WORD	n/a	n/a	CASH	3	11	[0, 0, 0]	n/a	FR1	1	R1374T
1224.566	0.765	1320532	WORD_OFF	n/a	n/a	CASH	3	11	[0, 0, 0]	n/a	FR1	1	R1374T
1225.331	1.601	1321300	WORD	n/a	n/a	MUG	4	11	[0, 0, 0]	n/a	FR1	1	R1374T
1226.932	0.783	1322907	WORD_OFF	n/a	n/a	MUG	4	11	[0, 0, 0]	n/a	FR1	1	R1374T
1227.715	1.6	1323690	WORD	n/a	n/a	BRICK	5	11	[0, 0, 0]	n/a	FR1	1	R1374T
1229.315	0.766	1325282	WORD_OFF	n/a	n/a	BRICK	5	11	[0, 0, 0]	n/a	FR1	1	R1374T
1230.081	1.601	1326051	WORD	n/a	n/a	PILL	6	11	[0, 0, 0]	n/a	FR1	1	R1374T
1231.682	0.8	1327658	WORD_OFF	n/a	n/a	PILL	6	11	[0, 0, 0]	n/a	FR1	1	R1374T
1232.482	1.6	1328454	WORD	n/a	n/a	HILL	7	11	[0, 0, 0]	n/a	FR1	1	R1374T
1234.082	0.817	1330047	WORD_OFF	n/a	n/a	HILL	7	11	[0, 0, 0]	n/a	FR1	1	R1374T
1234.899	1.616	1330871	WORD	n/a	n/a	TENT	8	11	[0, 0, 0]	n/a	FR1	1	R1374T
1236.515	0.784	1332492	WORD_OFF	n/a	n/a	TENT	8	11	[0, 0, 0]	n/a	FR1	1	R1374T
1237.299	1.6	1333274	WORD	n/a	n/a	SHOE	9	11	[0, 0, 0]	n/a	FR1	1	R1374T
1238.899	0.833	1334867	WORD_OFF	n/a	n/a	SHOE	9	11	[0, 0, 0]	n/a	FR1	1	R1374T
1239.732	1.6	1335705	WORD	n/a	n/a	TOOTH	10	11	[0, 0, 0]	n/a	FR1	1	R1374T
1241.332	0.9	1337298	WORD_OFF	n/a	n/a	TOOTH	10	11	[0, 0, 0]	n/a	FR1	1	R1374T
1242.232	1.616	1338206	WORD	n/a	n/a	BONE	11	11	[0, 0, 0]	n/a	FR1	1	R1374T
1243.848	0.784	1339813	WORD_OFF	n/a	n/a	BONE	11	11	[0, 0, 0]	n/a	FR1	1	R1374T
1244.632	1.616	1340609	WORD	n/a	n/a	PIT	12	11	[0, 0, 0]	n/a	FR1	1	R1374T
1246.248	0.001	1342216	WORD_OFF	n/a	n/a	PIT	12	11	[0, 0, 0]	n/a	FR1	1	R1374T
1246.249	0.0	1342216	ENCODING_END	n/a	n/a	n/a	-999	11	[0, 0, 0]	n/a	FR1	1	R1374T
1246.249	0.0	1342216	DISTRACT_START	n/a	n/a	n/a	-999	11	[0, 0, 0]	n/a	FR1	1	R1374T
1246.249	0.0	1342218	START	n/a	n/a	n/a	-999	11	[-999, -999, -999]	n/a	FR1	1	R1374T
1246.249	17.632	1342218	PROB	17.632	n/a	n/a	-999	11	[3, 4, 8]	15	FR1	1	R1374T
1263.881	7.301	1359849	PROB	7.301	n/a	n/a	-999	11	[7, 2, 7]	16	FR1	1	R1374T
1271.182	0.0	1367150	STOP	n/a	n/a	n/a	-999	11	[-999, -999, -999]	n/a	FR1	1	R1374T
1271.182	1.234	1367156	DISTRACT_END	n/a	n/a	n/a	-999	11	[0, 0, 0]	n/a	FR1	1	R1374T
1272.416	2.52	1368385	REC_START	n/a	n/a	n/a	-999	11	[0, 0, 0]	n/a	FR1	1	R1374T
1274.936	0.972	1370904	REC_WORD	0.972	n/a	YARD	1	11	[0, 0, 0]	n/a	FR1	1	R1374T
1275.908	0.961	1371876	REC_WORD	0.961	n/a	CASH	3	11	[0, 0, 0]	n/a	FR1	1	R1374T
1276.869	0.855	1372837	REC_WORD	0.855	n/a	BRICK	5	11	[0, 0, 0]	n/a	FR1	1	R1374T
1277.724	24.94	1373692	REC_WORD	24.94	n/a	TENT	8	11	[0, 0, 0]	n/a	FR1	1	R1374T
1302.664	4.701	1398634	REC_END	n/a	n/a	n/a	-999	11	[0, 0, 0]	n/a	FR1	1	R1374T
1307.365	10.351	1403329	COUNTDOWN_START	n/a	n/a	n/a	-999	12	[0, 0, 0]	n/a	FR1	1	R1374T
1317.716	0.0	1413682	COUNTDOWN_END	n/a	n/a	n/a	-999	12	[0, 0, 0]	n/a	FR1	1	R1374T
1317.716	1.982	1413682	ENCODING_START	n/a	n/a	n/a	-999	12	[0, 0, 0]	n/a	FR1	1	R1374T
1319.698	1.601	1415666	WORD	n/a	n/a	SHEET	1	12	[0, 0, 0]	n/a	FR1	1	R1374T
1321.299	0.9	1417259	WORD_OFF	n/a	n/a	SHEET	1	12	[0, 0, 0]	n/a	FR1	1	R1374T
1322.199	1.615	1418167	WORD	n/a	n/a	TOAD	2	12	[0, 0, 0]	n/a	FR1	1	R1374T
1323.814	0.968	1419774	WORD_OFF	n/a	n/a	TOAD	2	12	[0, 0, 0]	n/a	FR1	1	R1374T
1324.782	1.617	1420752	WORD	n/a	n/a	CUP	3	12	[0, 0, 0]	n/a	FR1	1	R1374T
1326.399	0.832	1422373	WORD_OFF	n/a	n/a	CUP	3	12	[0, 0, 0]	n/a	FR1	1	R1374T
1327.231	1.601	1423197	WORD	n/a	n/a	BOX	4	12	[0, 0, 0]	n/a	FR1	1	R1374T
1328.832	0.984	1424804	WORD_OFF	n/a	n/a	BOX	4	12	[0, 0, 0]	n/a	FR1	1	R1374T
1329.816	1.616	1425782	WORD	n/a	n/a	SUN	5	12	[0, 0, 0]	n/a	FR1	1	R1374T
1331.432	0.95	1427402	WORD_OFF	n/a	n/a	SUN	5	12	[0, 0, 0]	n/a	FR1	1	R1374T
1332.382	1.6	1428352	WORD	n/a	n/a	HOSE	6	12	[0, 0, 0]	n/a	FR1	1	R1374T
1333.982	0.866	1429945	WORD_OFF	n/a	n/a	HOSE	6	12	[0, 0, 0]	n/a	FR1	1	R1374T
1334.848	1.617	1430812	WORD	n/a	n/a	FUR	7	12	[0, 0, 0]	n/a	FR1	1	R1374T
1336.465	0.9	1432432	WORD_OFF	n/a	n/a	FUR	7	12	[0, 0, 0]	n/a	FR1	1	R1374T
1337.365	1.617	1433326	WORD	n/a	n/a	CHIEF	8	12	[0, 0, 0]	n/a	FR1	1	R1374T
1338.982	0.9	1434947	WORD_OFF	n/a	n/a	CHIEF	8	12	[0, 0, 0]	n/a	FR1	1	R1374T
1339.882	1.6	1435841	WORD	n/a	n/a	CORD	9	12	[0, 0, 0]	n/a	FR1	1	R1374T
1341.482	0.849	1437448	WORD_OFF	n/a	n/a	CORD	9	12	[0, 0, 0]	n/a	FR1	1	R1374T
1342.331	1.601	1438300	WORD	n/a	n/a	GRASS	10	12	[0, 0, 0]	n/a	FR1	1	R1374T
1343.932	1.0	1439893	WORD_OFF	n/a	n/a	GRASS	10	12	[0, 0, 0]	n/a	FR1	1	R1374T
1344.932	1.6	1440899	WORD	n/a	n/a	DRAIN	11	12	[0, 0, 0]	n/a	FR1	1	R1374T
1346.532	0.9	1442492	WORD_OFF	n/a	n/a	DRAIN	11	12	[0, 0, 0]	n/a	FR1	1	R1374T
1347.432	1.6	1443400	WORD	n/a	n/a	SWORD	12	12	[0, 0, 0]	n/a	FR1	1	R1374T
1349.032	0.001	1444993	WORD_OFF	n/a	n/a	SWORD	12	12	[0, 0, 0]	n/a	FR1	1	R1374T
1349.033	0.0	1444993	ENCODING_END	n/a	n/a	n/a	-999	12	[0, 0, 0]	n/a	FR1	1	R1374T
1349.033	0.0	1444997	START	n/a	n/a	n/a	-999	12	[-999, -999, -999]	n/a	FR1	1	R1374T
1349.033	0.0	1444997	PROB	0.0	n/a	n/a	-999	12	[3, 3, 6]	12	FR1	1	R1374T
1349.033	9.532	1445007	DISTRACT_START	n/a	n/a	n/a	-999	12	[0, 0, 0]	n/a	FR1	1	R1374T
1358.565	9.052	1454528	PROB	9.052	n/a	n/a	-999	12	[5, 4, 1]	10	FR1	1	R1374T
1367.617	5.832	1463580	PROB	5.832	n/a	n/a	-999	12	[6, 7, 1]	14	FR1	1	R1374T
1373.449	0.0	1469412	STOP	n/a	n/a	n/a	-999	12	[-999, -999, -999]	n/a	FR1	1	R1374T
1373.449	1.066	1469416	DISTRACT_END	n/a	n/a	n/a	-999	12	[0, 0, 0]	n/a	FR1	1	R1374T
1374.515	9.222	1470477	REC_START	n/a	n/a	n/a	-999	12	[0, 0, 0]	n/a	FR1	1	R1374T
1383.737	0.607	1479699	REC_WORD	0.607	n/a	SHEET	1	12	[0, 0, 0]	n/a	FR1	1	R1374T
1384.344	5.903	1480306	REC_WORD	5.903	n/a	BLOCK	-999	12	[0, 0, 0]	n/a	FR1	1	R1374T
1390.247	0.417	1486209	REC_WORD	0.417	n/a	BOOK	-999	12	[0, 0, 0]	n/a	FR1	1	R1374T
1390.664	14.107	1486626	REC_WORD	14.107	n/a	CURB	-999	12	[0, 0, 0]	n/a	FR1	1	R1374T
1404.771	0.0	1500726	REC_END	n/a	n/a	n/a	-999	12	[0, 0, 0]	n/a	FR1	1	R1374T
