onset	duration	sample	trial_type	response_time	stim_file	item_name	serialpos	list	test	answer	experiment	session	subject
0.0	1.865	6731	INSTRUCT_START	n/a	n/a	n/a	-999	-999	[0, 0, 0]	n/a	FR1	2	R1391T
1.865	22.683	8602	INSTRUCT_END	n/a	n/a	n/a	-999	-999	[0, 0, 0]	n/a	FR1	2	R1391T
24.548	10.35	31276	COUNTDOWN_START	n/a	n/a	n/a	-999	-999	[0, 0, 0]	n/a	FR1	2	R1391T
34.898	0.001	41621	COUNTDOWN_END	n/a	n/a	n/a	-999	-999	[0, 0, 0]	n/a	FR1	2	R1391T
34.899	2.015	41621	ENCODING_START	n/a	n/a	n/a	-999	-1	[0, 0, 0]	n/a	FR1	2	R1391T
36.914	1.6	43648	WORD	n/a	n/a	WAGON	1	-1	[0, 0, 0]	n/a	FR1	2	R1391T
38.514	0.833	45249	WORD_OFF	n/a	n/a	WAGON	1	-1	[0, 0, 0]	n/a	FR1	2	R1391T
39.347	1.6	46071	WORD	n/a	n/a	BEAM	2	-1	[0, 0, 0]	n/a	FR1	2	R1391T
40.947	1.0	47672	WORD_OFF	n/a	n/a	BEAM	2	-1	[0, 0, 0]	n/a	FR1	2	R1391T
41.947	1.6	48678	WORD	n/a	n/a	BABY	3	-1	[0, 0, 0]	n/a	FR1	2	R1391T
43.547	0.817	50280	WORD_OFF	n/a	n/a	BABY	3	-1	[0, 0, 0]	n/a	FR1	2	R1391T
44.364	1.6	51088	WORD	n/a	n/a	CHEST	4	-1	[0, 0, 0]	n/a	FR1	2	R1391T
45.964	0.784	52689	WORD_OFF	n/a	n/a	CHEST	4	-1	[0, 0, 0]	n/a	FR1	2	R1391T
46.748	1.616	53482	WORD	n/a	n/a	RHINO	5	-1	[0, 0, 0]	n/a	FR1	2	R1391T
48.364	0.95	55098	WORD_OFF	n/a	n/a	RHINO	5	-1	[0, 0, 0]	n/a	FR1	2	R1391T
49.314	1.6	56048	WORD	n/a	n/a	CAMEL	6	-1	[0, 0, 0]	n/a	FR1	2	R1391T
50.914	0.767	57635	WORD_OFF	n/a	n/a	CAMEL	6	-1	[0, 0, 0]	n/a	FR1	2	R1391T
51.681	1.6	58414	WORD	n/a	n/a	WATCH	7	-1	[0, 0, 0]	n/a	FR1	2	R1391T
53.281	0.867	60002	WORD_OFF	n/a	n/a	WATCH	7	-1	[0, 0, 0]	n/a	FR1	2	R1391T
54.148	1.616	60880	WORD	n/a	n/a	FLOOD	8	-1	[0, 0, 0]	n/a	FR1	2	R1391T
55.764	0.834	62495	WORD_OFF	n/a	n/a	FLOOD	8	-1	[0, 0, 0]	n/a	FR1	2	R1391T
56.598	1.6	63317	WORD	n/a	n/a	IMAGE	9	-1	[0, 0, 0]	n/a	FR1	2	R1391T
58.198	0.95	64919	WORD_OFF	n/a	n/a	IMAGE	9	-1	[0, 0, 0]	n/a	FR1	2	R1391T
59.148	1.616	65868	WORD	n/a	n/a	RING	10	-1	[0, 0, 0]	n/a	FR1	2	R1391T
60.764	0.817	67484	WORD_OFF	n/a	n/a	RING	10	-1	[0, 0, 0]	n/a	FR1	2	R1391T
61.581	1.6	68306	WORD	n/a	n/a	COTTON	11	-1	[0, 0, 0]	n/a	FR1	2	R1391T
63.181	0.767	69907	WORD_OFF	n/a	n/a	COTTON	11	-1	[0, 0, 0]	n/a	FR1	2	R1391T
63.948	1.616	70672	WORD	n/a	n/a	TONGUE	12	-1	[0, 0, 0]	n/a	FR1	2	R1391T
65.564	0.002	72288	WORD_OFF	n/a	n/a	TONGUE	12	-1	[0, 0, 0]	n/a	FR1	2	R1391T
65.566	0.001	72288	ENCODING_END	n/a	n/a	n/a	-999	-1	[0, 0, 0]	n/a	FR1	2	R1391T
65.567	0.0	72288	DISTRACT_START	n/a	n/a	n/a	-999	-1	[0, 0, 0]	n/a	FR1	2	R1391T
65.566	0.001	72291	PROB	0.001	n/a	n/a	-999	-1	[5, 7, 8]	20	FR1	2	R1391T
65.567	9.364	72292	START	n/a	n/a	n/a	-999	-1	[-999, -999, -999]	n/a	FR1	2	R1391T
74.931	7.15	81656	PROB	7.15	n/a	n/a	-999	-1	[4, 5, 3]	12	FR1	2	R1391T
82.081	2.767	88805	PROB	2.767	n/a	n/a	-999	-1	[5, 5, 4]	14	FR1	2	R1391T
84.848	7.8	91572	PROB	7.8	n/a	n/a	-999	-1	[5, 6, 7]	18	FR1	2	R1391T
92.648	0.0	99370	DISTRACT_END	n/a	n/a	n/a	-999	-1	[0, 0, 0]	n/a	FR1	2	R1391T
92.648	1.034	99372	STOP	n/a	n/a	n/a	-999	-1	[-999, -999, -999]	n/a	FR1	2	R1391T
93.682	1.857	100404	REC_START	n/a	n/a	n/a	-999	-1	[0, 0, 0]	n/a	FR1	2	R1391T
95.539	28.418	102263	REC_WORD_VV	28.418	n/a	<>	-999	-1	[0, 0, 0]	n/a	FR1	2	R1391T
123.957	20.957	130674	REC_END	n/a	n/a	n/a	-999	-1	[0, 0, 0]	n/a	FR1	2	R1391T
144.914	10.351	151634	COUNTDOWN_START	n/a	n/a	n/a	-999	1	[0, 0, 0]	n/a	FR1	2	R1391T
155.265	0.0	161993	COUNTDOWN_END	n/a	n/a	n/a	-999	1	[0, 0, 0]	n/a	FR1	2	R1391T
155.265	2.283	161993	ENCODING_START	n/a	n/a	n/a	-999	1	[0, 0, 0]	n/a	FR1	2	R1391T
157.548	1.616	164275	WORD	n/a	n/a	SINK	1	1	[0, 0, 0]	n/a	FR1	2	R1391T
159.164	0.867	165890	WORD_OFF	n/a	n/a	SINK	1	1	[0, 0, 0]	n/a	FR1	2	R1391T
160.031	1.617	166755	WORD	n/a	n/a	RAMP	2	1	[0, 0, 0]	n/a	FR1	2	R1391T
161.648	1.0	168370	WORD_OFF	n/a	n/a	RAMP	2	1	[0, 0, 0]	n/a	FR1	2	R1391T
162.648	1.6	169376	WORD	n/a	n/a	MUG	3	1	[0, 0, 0]	n/a	FR1	2	R1391T
164.248	0.9	170964	WORD_OFF	n/a	n/a	MUG	3	1	[0, 0, 0]	n/a	FR1	2	R1391T
165.148	1.6	171870	WORD	n/a	n/a	CAVE	4	1	[0, 0, 0]	n/a	FR1	2	R1391T
166.748	0.916	173472	WORD_OFF	n/a	n/a	CAVE	4	1	[0, 0, 0]	n/a	FR1	2	R1391T
167.664	1.6	174379	WORD	n/a	n/a	BLUSH	5	1	[0, 0, 0]	n/a	FR1	2	R1391T
169.264	0.884	175980	WORD_OFF	n/a	n/a	BLUSH	5	1	[0, 0, 0]	n/a	FR1	2	R1391T
170.148	1.6	176873	WORD	n/a	n/a	PALM	6	1	[0, 0, 0]	n/a	FR1	2	R1391T
171.748	0.95	178474	WORD_OFF	n/a	n/a	PALM	6	1	[0, 0, 0]	n/a	FR1	2	R1391T
172.698	1.616	179424	WORD	n/a	n/a	THUMB	7	1	[0, 0, 0]	n/a	FR1	2	R1391T
174.314	0.767	181039	WORD_OFF	n/a	n/a	THUMB	7	1	[0, 0, 0]	n/a	FR1	2	R1391T
175.081	1.616	181805	WORD	n/a	n/a	CROWN	8	1	[0, 0, 0]	n/a	FR1	2	R1391T
176.697	0.884	183420	WORD_OFF	n/a	n/a	CROWN	8	1	[0, 0, 0]	n/a	FR1	2	R1391T
177.581	1.6	184299	WORD	n/a	n/a	SLEEVE	9	1	[0, 0, 0]	n/a	FR1	2	R1391T
179.181	0.9	185900	WORD_OFF	n/a	n/a	SLEEVE	9	1	[0, 0, 0]	n/a	FR1	2	R1391T
180.081	1.6	186807	WORD	n/a	n/a	JAR	10	1	[0, 0, 0]	n/a	FR1	2	R1391T
181.681	0.883	188408	WORD_OFF	n/a	n/a	JAR	10	1	[0, 0, 0]	n/a	FR1	2	R1391T
182.564	1.616	189287	WORD	n/a	n/a	PAGE	11	1	[0, 0, 0]	n/a	FR1	2	R1391T
184.18	0.984	190903	WORD_OFF	n/a	n/a	PAGE	11	1	[0, 0, 0]	n/a	FR1	2	R1391T
185.164	1.617	191880	WORD	n/a	n/a	STONE	12	1	[0, 0, 0]	n/a	FR1	2	R1391T
186.781	0.001	193496	WORD_OFF	n/a	n/a	STONE	12	1	[0, 0, 0]	n/a	FR1	2	R1391T
186.782	0.001	193501	PROB	0.001	n/a	n/a	-999	1	[3, 4, 1]	8	FR1	2	R1391T
186.783	0.0	193502	START	n/a	n/a	n/a	-999	1	[-999, -999, -999]	n/a	FR1	2	R1391T
186.783	0.0	193510	ENCODING_END	n/a	n/a	n/a	-999	1	[0, 0, 0]	n/a	FR1	2	R1391T
186.783	5.665	193510	DISTRACT_START	n/a	n/a	n/a	-999	1	[0, 0, 0]	n/a	FR1	2	R1391T
192.448	2.401	199167	PROB	2.401	n/a	n/a	-999	1	[7, 4, 3]	14	FR1	2	R1391T
194.849	3.266	201567	PROB	3.266	n/a	n/a	-999	1	[3, 7, 8]	18	FR1	2	R1391T
198.115	2.517	204833	PROB	2.517	n/a	n/a	-999	1	[1, 5, 2]	8	FR1	2	R1391T
200.632	2.185	207350	PROB	2.185	n/a	n/a	-999	1	[2, 4, 3]	9	FR1	2	R1391T
202.817	4.48	209535	PROB	4.48	n/a	n/a	-999	1	[8, 8, 8]	24	FR1	2	R1391T
207.297	0.0	214015	STOP	n/a	n/a	n/a	-999	1	[-999, -999, -999]	n/a	FR1	2	R1391T
207.297	1.234	214016	DISTRACT_END	n/a	n/a	n/a	-999	1	[0, 0, 0]	n/a	FR1	2	R1391T
208.531	1.645	215249	REC_START	n/a	n/a	n/a	-999	1	[0, 0, 0]	n/a	FR1	2	R1391T
210.176	1.572	216894	REC_WORD	1.572	n/a	RAMP	2	1	[0, 0, 0]	n/a	FR1	2	R1391T
211.748	1.412	218466	REC_WORD	1.412	n/a	MUG	3	1	[0, 0, 0]	n/a	FR1	2	R1391T
213.16	1.729	219878	REC_WORD	1.729	n/a	CAVE	4	1	[0, 0, 0]	n/a	FR1	2	R1391T
214.889	23.92	221606	REC_WORD	23.92	n/a	BLUSH	5	1	[0, 0, 0]	n/a	FR1	2	R1391T
238.809	1.721	245533	REC_END	n/a	n/a	n/a	-999	1	[0, 0, 0]	n/a	FR1	2	R1391T
240.53	10.352	247248	COUNTDOWN_START	n/a	n/a	n/a	-999	2	[0, 0, 0]	n/a	FR1	2	R1391T
250.882	0.0	257593	COUNTDOWN_END	n/a	n/a	n/a	-999	2	[0, 0, 0]	n/a	FR1	2	R1391T
250.882	1.95	257608	ENCODING_START	n/a	n/a	n/a	-999	2	[0, 0, 0]	n/a	FR1	2	R1391T
252.832	1.6	259549	WORD	n/a	n/a	JET	1	2	[0, 0, 0]	n/a	FR1	2	R1391T
254.432	0.95	261150	WORD_OFF	n/a	n/a	JET	1	2	[0, 0, 0]	n/a	FR1	2	R1391T
255.382	1.616	262100	WORD	n/a	n/a	DART	2	2	[0, 0, 0]	n/a	FR1	2	R1391T
256.998	0.833	263715	WORD_OFF	n/a	n/a	DART	2	2	[0, 0, 0]	n/a	FR1	2	R1391T
257.831	1.617	264552	WORD	n/a	n/a	HOSE	3	2	[0, 0, 0]	n/a	FR1	2	R1391T
259.448	0.782	266167	WORD_OFF	n/a	n/a	HOSE	3	2	[0, 0, 0]	n/a	FR1	2	R1391T
260.23	1.6	266946	WORD	n/a	n/a	SACK	4	2	[0, 0, 0]	n/a	FR1	2	R1391T
261.83	0.834	268548	WORD_OFF	n/a	n/a	SACK	4	2	[0, 0, 0]	n/a	FR1	2	R1391T
262.664	1.6	269384	WORD	n/a	n/a	NEST	5	2	[0, 0, 0]	n/a	FR1	2	R1391T
264.264	0.8	270985	WORD_OFF	n/a	n/a	NEST	5	2	[0, 0, 0]	n/a	FR1	2	R1391T
265.064	1.6	271779	WORD	n/a	n/a	GOWN	6	2	[0, 0, 0]	n/a	FR1	2	R1391T
266.664	0.867	273380	WORD_OFF	n/a	n/a	GOWN	6	2	[0, 0, 0]	n/a	FR1	2	R1391T
267.531	1.617	274245	WORD	n/a	n/a	ICE	7	2	[0, 0, 0]	n/a	FR1	2	R1391T
269.148	0.916	275860	WORD_OFF	n/a	n/a	ICE	7	2	[0, 0, 0]	n/a	FR1	2	R1391T
270.064	1.617	276781	WORD	n/a	n/a	BADGE	8	2	[0, 0, 0]	n/a	FR1	2	R1391T
271.681	0.983	278397	WORD_OFF	n/a	n/a	BADGE	8	2	[0, 0, 0]	n/a	FR1	2	R1391T
272.664	1.617	279375	WORD	n/a	n/a	VEST	9	2	[0, 0, 0]	n/a	FR1	2	R1391T
274.281	0.933	280990	WORD_OFF	n/a	n/a	VEST	9	2	[0, 0, 0]	n/a	FR1	2	R1391T
275.214	1.6	281926	WORD	n/a	n/a	SLUSH	10	2	[0, 0, 0]	n/a	FR1	2	R1391T
276.814	0.834	283527	WORD_OFF	n/a	n/a	SLUSH	10	2	[0, 0, 0]	n/a	FR1	2	R1391T
277.648	1.6	284363	WORD	n/a	n/a	SCHOOL	11	2	[0, 0, 0]	n/a	FR1	2	R1391T
279.248	0.9	285965	WORD_OFF	n/a	n/a	SCHOOL	11	2	[0, 0, 0]	n/a	FR1	2	R1391T
280.148	1.616	286857	WORD	n/a	n/a	INK	12	2	[0, 0, 0]	n/a	FR1	2	R1391T
281.764	0.001	288473	WORD_OFF	n/a	n/a	INK	12	2	[0, 0, 0]	n/a	FR1	2	R1391T
281.765	0.001	288479	PROB	0.001	n/a	n/a	-999	2	[8, 2, 2]	12	FR1	2	R1391T
281.766	0.0	288480	START	n/a	n/a	n/a	-999	2	[-999, -999, -999]	n/a	FR1	2	R1391T
281.766	0.0	288487	ENCODING_END	n/a	n/a	n/a	-999	2	[0, 0, 0]	n/a	FR1	2	R1391T
281.766	4.116	288487	DISTRACT_START	n/a	n/a	n/a	-999	2	[0, 0, 0]	n/a	FR1	2	R1391T
285.882	2.782	292596	PROB	2.782	n/a	n/a	-999	2	[5, 2, 1]	8	FR1	2	R1391T
288.664	2.818	295378	PROB	2.818	n/a	n/a	-999	2	[4, 8, 1]	13	FR1	2	R1391T
291.482	3.733	298195	PROB	3.733	n/a	n/a	-999	2	[5, 6, 6]	17	FR1	2	R1391T
295.215	2.4	301928	PROB	2.4	n/a	n/a	-999	2	[4, 6, 6]	16	FR1	2	R1391T
297.615	2.398	304328	PROB	2.398	n/a	n/a	-999	2	[5, 1, 6]	12	FR1	2	R1391T
300.013	2.418	306726	PROB	2.418	n/a	n/a	-999	2	[8, 1, 7]	16	FR1	2	R1391T
302.431	0.0	309144	STOP	n/a	n/a	n/a	-999	2	[-999, -999, -999]	n/a	FR1	2	R1391T
302.431	1.066	309149	DISTRACT_END	n/a	n/a	n/a	-999	2	[0, 0, 0]	n/a	FR1	2	R1391T
303.497	1.68	310212	REC_START	n/a	n/a	n/a	-999	2	[0, 0, 0]	n/a	FR1	2	R1391T
305.177	1.542	311890	REC_WORD	1.542	n/a	JET	1	2	[0, 0, 0]	n/a	FR1	2	R1391T
306.719	1.8	313432	REC_WORD	1.8	n/a	HOSE	3	2	[0, 0, 0]	n/a	FR1	2	R1391T
308.519	1.895	315232	REC_WORD	1.895	n/a	GOWN	6	2	[0, 0, 0]	n/a	FR1	2	R1391T
310.414	23.351	317126	REC_WORD	23.351	n/a	ICE	7	2	[0, 0, 0]	n/a	FR1	2	R1391T
333.765	1.432	340482	REC_END	n/a	n/a	n/a	-999	2	[0, 0, 0]	n/a	FR1	2	R1391T
335.197	10.35	341913	COUNTDOWN_START	n/a	n/a	n/a	-999	3	[0, 0, 0]	n/a	FR1	2	R1391T
345.547	0.0	352258	COUNTDOWN_END	n/a	n/a	n/a	-999	3	[0, 0, 0]	n/a	FR1	2	R1391T
345.547	2.117	352258	ENCODING_START	n/a	n/a	n/a	-999	3	[0, 0, 0]	n/a	FR1	2	R1391T
347.664	1.6	354370	WORD	n/a	n/a	STOOL	1	3	[0, 0, 0]	n/a	FR1	2	R1391T
349.264	0.966	355971	WORD_OFF	n/a	n/a	STOOL	1	3	[0, 0, 0]	n/a	FR1	2	R1391T
350.23	1.6	356949	WORD	n/a	n/a	HARP	2	3	[0, 0, 0]	n/a	FR1	2	R1391T
351.83	0.851	358536	WORD_OFF	n/a	n/a	HARP	2	3	[0, 0, 0]	n/a	FR1	2	R1391T
352.681	1.6	359387	WORD	n/a	n/a	PIT	3	3	[0, 0, 0]	n/a	FR1	2	R1391T
354.281	0.8	360988	WORD_OFF	n/a	n/a	PIT	3	3	[0, 0, 0]	n/a	FR1	2	R1391T
355.081	1.616	361796	WORD	n/a	n/a	HILL	4	3	[0, 0, 0]	n/a	FR1	2	R1391T
356.697	0.883	363411	WORD_OFF	n/a	n/a	HILL	4	3	[0, 0, 0]	n/a	FR1	2	R1391T
357.58	1.601	364290	WORD	n/a	n/a	AISLE	5	3	[0, 0, 0]	n/a	FR1	2	R1391T
359.181	0.983	365891	WORD_OFF	n/a	n/a	AISLE	5	3	[0, 0, 0]	n/a	FR1	2	R1391T
360.164	1.616	366869	WORD	n/a	n/a	TAIL	6	3	[0, 0, 0]	n/a	FR1	2	R1391T
361.78	0.868	368485	WORD_OFF	n/a	n/a	TAIL	6	3	[0, 0, 0]	n/a	FR1	2	R1391T
362.648	1.617	369363	WORD	n/a	n/a	LIP	7	3	[0, 0, 0]	n/a	FR1	2	R1391T
364.265	0.916	370979	WORD_OFF	n/a	n/a	LIP	7	3	[0, 0, 0]	n/a	FR1	2	R1391T
365.181	1.617	371886	WORD	n/a	n/a	PIN	8	3	[0, 0, 0]	n/a	FR1	2	R1391T
366.798	0.983	373516	WORD_OFF	n/a	n/a	PIN	8	3	[0, 0, 0]	n/a	FR1	2	R1391T
367.781	1.6	374493	WORD	n/a	n/a	CHIEF	9	3	[0, 0, 0]	n/a	FR1	2	R1391T
369.381	0.933	376095	WORD_OFF	n/a	n/a	CHIEF	9	3	[0, 0, 0]	n/a	FR1	2	R1391T
370.314	1.6	377030	WORD	n/a	n/a	MEN	10	3	[0, 0, 0]	n/a	FR1	2	R1391T
371.914	0.967	378631	WORD_OFF	n/a	n/a	MEN	10	3	[0, 0, 0]	n/a	FR1	2	R1391T
372.881	1.617	379595	WORD	n/a	n/a	ELF	11	3	[0, 0, 0]	n/a	FR1	2	R1391T
374.498	0.933	381211	WORD_OFF	n/a	n/a	ELF	11	3	[0, 0, 0]	n/a	FR1	2	R1391T
375.431	1.617	382146	WORD	n/a	n/a	FLEA	12	3	[0, 0, 0]	n/a	FR1	2	R1391T
377.048	0.001	383757	PROB	0.001	n/a	n/a	-999	3	[6, 1, 8]	15	FR1	2	R1391T
377.049	0.0	383758	START	n/a	n/a	n/a	-999	3	[-999, -999, -999]	n/a	FR1	2	R1391T
377.048	0.001	383761	WORD_OFF	n/a	n/a	FLEA	12	3	[0, 0, 0]	n/a	FR1	2	R1391T
377.049	0.0	383761	ENCODING_END	n/a	n/a	n/a	-999	3	[0, 0, 0]	n/a	FR1	2	R1391T
377.049	5.85	383761	DISTRACT_START	n/a	n/a	n/a	-999	3	[0, 0, 0]	n/a	FR1	2	R1391T
382.899	3.316	389608	PROB	3.316	n/a	n/a	-999	3	[2, 6, 2]	10	FR1	2	R1391T
386.215	2.017	392924	PROB	2.017	n/a	n/a	-999	3	[6, 3, 2]	11	FR1	2	R1391T
388.232	3.133	394940	PROB	3.133	n/a	n/a	-999	3	[6, 6, 5]	17	FR1	2	R1391T
391.365	1.683	398073	PROB	1.683	n/a	n/a	-999	3	[4, 1, 6]	11	FR1	2	R1391T
393.048	3.566	399756	PROB	3.566	n/a	n/a	-999	3	[6, 5, 7]	18	FR1	2	R1391T
396.614	3.134	403322	PROB	3.134	n/a	n/a	-999	3	[7, 2, 6]	15	FR1	2	R1391T
399.748	0.0	406450	DISTRACT_END	n/a	n/a	n/a	-999	3	[0, 0, 0]	n/a	FR1	2	R1391T
399.748	1.083	406456	STOP	n/a	n/a	n/a	-999	3	[-999, -999, -999]	n/a	FR1	2	R1391T
400.831	1.67	407541	REC_START	n/a	n/a	n/a	-999	3	[0, 0, 0]	n/a	FR1	2	R1391T
402.501	1.984	409209	REC_WORD	1.984	n/a	STOOL	1	3	[0, 0, 0]	n/a	FR1	2	R1391T
404.485	2.148	411193	REC_WORD	2.148	n/a	HARP	2	3	[0, 0, 0]	n/a	FR1	2	R1391T
406.633	2.074	413341	REC_WORD	2.074	n/a	PIT	3	3	[0, 0, 0]	n/a	FR1	2	R1391T
408.707	22.412	415414	REC_WORD	22.412	n/a	HILL	4	3	[0, 0, 0]	n/a	FR1	2	R1391T
431.119	1.829	437825	REC_END	n/a	n/a	n/a	-999	3	[0, 0, 0]	n/a	FR1	2	R1391T
432.948	10.35	439654	COUNTDOWN_START	n/a	n/a	n/a	-999	4	[0, 0, 0]	n/a	FR1	2	R1391T
443.298	0.001	449999	COUNTDOWN_END	n/a	n/a	n/a	-999	4	[0, 0, 0]	n/a	FR1	2	R1391T
443.299	2.065	450013	ENCODING_START	n/a	n/a	n/a	-999	4	[0, 0, 0]	n/a	FR1	2	R1391T
445.364	1.6	452068	WORD	n/a	n/a	SUN	1	4	[0, 0, 0]	n/a	FR1	2	R1391T
446.964	0.967	453669	WORD_OFF	n/a	n/a	SUN	1	4	[0, 0, 0]	n/a	FR1	2	R1391T
447.931	1.616	454633	WORD	n/a	n/a	EGG	2	4	[0, 0, 0]	n/a	FR1	2	R1391T
449.547	0.866	456248	WORD_OFF	n/a	n/a	EGG	2	4	[0, 0, 0]	n/a	FR1	2	R1391T
450.413	1.601	457113	WORD	n/a	n/a	JUDGE	3	4	[0, 0, 0]	n/a	FR1	2	R1391T
452.014	0.883	458714	WORD_OFF	n/a	n/a	JUDGE	3	4	[0, 0, 0]	n/a	FR1	2	R1391T
452.897	1.6	459607	WORD	n/a	n/a	DEER	4	4	[0, 0, 0]	n/a	FR1	2	R1391T
454.497	0.766	461208	WORD_OFF	n/a	n/a	DEER	4	4	[0, 0, 0]	n/a	FR1	2	R1391T
455.263	1.601	461974	WORD	n/a	n/a	JAIL	5	4	[0, 0, 0]	n/a	FR1	2	R1391T
456.864	0.817	463575	WORD_OFF	n/a	n/a	JAIL	5	4	[0, 0, 0]	n/a	FR1	2	R1391T
457.681	1.616	464383	WORD	n/a	n/a	WOOD	6	4	[0, 0, 0]	n/a	FR1	2	R1391T
459.297	0.834	465998	WORD_OFF	n/a	n/a	WOOD	6	4	[0, 0, 0]	n/a	FR1	2	R1391T
460.131	1.616	466834	WORD	n/a	n/a	GUN	7	4	[0, 0, 0]	n/a	FR1	2	R1391T
461.747	0.967	468450	WORD_OFF	n/a	n/a	GUN	7	4	[0, 0, 0]	n/a	FR1	2	R1391T
462.714	1.6	469414	WORD	n/a	n/a	NIGHT	8	4	[0, 0, 0]	n/a	FR1	2	R1391T
464.314	0.85	471015	WORD_OFF	n/a	n/a	NIGHT	8	4	[0, 0, 0]	n/a	FR1	2	R1391T
465.164	1.617	471865	WORD	n/a	n/a	HOG	9	4	[0, 0, 0]	n/a	FR1	2	R1391T
466.781	0.966	473481	WORD_OFF	n/a	n/a	HOG	9	4	[0, 0, 0]	n/a	FR1	2	R1391T
467.747	1.6	474459	WORD	n/a	n/a	RUG	10	4	[0, 0, 0]	n/a	FR1	2	R1391T
469.347	0.934	476046	WORD_OFF	n/a	n/a	RUG	10	4	[0, 0, 0]	n/a	FR1	2	R1391T
470.281	1.617	476981	WORD	n/a	n/a	MAZE	11	4	[0, 0, 0]	n/a	FR1	2	R1391T
471.898	0.85	478597	WORD_OFF	n/a	n/a	MAZE	11	4	[0, 0, 0]	n/a	FR1	2	R1391T
472.748	1.6	479447	WORD	n/a	n/a	KITE	12	4	[0, 0, 0]	n/a	FR1	2	R1391T
474.348	0.001	481048	WORD_OFF	n/a	n/a	KITE	12	4	[0, 0, 0]	n/a	FR1	2	R1391T
474.349	0.0	481048	ENCODING_END	n/a	n/a	n/a	-999	4	[0, 0, 0]	n/a	FR1	2	R1391T
474.348	0.001	481052	PROB	0.001	n/a	n/a	-999	4	[3, 1, 7]	11	FR1	2	R1391T
474.349	0.0	481053	START	n/a	n/a	n/a	-999	4	[-999, -999, -999]	n/a	FR1	2	R1391T
474.349	2.732	481062	DISTRACT_START	n/a	n/a	n/a	-999	4	[0, 0, 0]	n/a	FR1	2	R1391T
477.081	2.417	483785	PROB	2.417	n/a	n/a	-999	4	[5, 4, 5]	14	FR1	2	R1391T
479.498	3.216	486202	PROB	3.216	n/a	n/a	-999	4	[4, 3, 4]	11	FR1	2	R1391T
482.714	3.601	489418	PROB	3.601	n/a	n/a	-999	4	[3, 8, 4]	15	FR1	2	R1391T
486.315	1.949	493018	PROB	1.949	n/a	n/a	-999	4	[1, 2, 1]	4	FR1	2	R1391T
488.264	2.717	494967	PROB	2.717	n/a	n/a	-999	4	[2, 7, 5]	14	FR1	2	R1391T
490.981	2.65	497684	PROB	2.65	n/a	n/a	-999	4	[4, 6, 6]	16	FR1	2	R1391T
493.631	2.717	500334	PROB	2.717	n/a	n/a	-999	4	[5, 8, 2]	15	FR1	2	R1391T
496.348	0.0	503051	STOP	n/a	n/a	n/a	-999	4	[-999, -999, -999]	n/a	FR1	2	R1391T
496.348	1.266	503056	DISTRACT_END	n/a	n/a	n/a	-999	4	[0, 0, 0]	n/a	FR1	2	R1391T
497.614	1.844	504318	REC_START	n/a	n/a	n/a	-999	4	[0, 0, 0]	n/a	FR1	2	R1391T
499.458	1.866	506161	REC_WORD	1.866	n/a	SUN	1	4	[0, 0, 0]	n/a	FR1	2	R1391T
501.324	1.735	508027	REC_WORD	1.735	n/a	EGG	2	4	[0, 0, 0]	n/a	FR1	2	R1391T
503.059	1.876	509762	REC_WORD	1.876	n/a	JUDGE	3	4	[0, 0, 0]	n/a	FR1	2	R1391T
504.935	22.963	511637	REC_WORD	22.963	n/a	DEER	4	4	[0, 0, 0]	n/a	FR1	2	R1391T
527.898	1.8	534602	REC_END	n/a	n/a	n/a	-999	4	[0, 0, 0]	n/a	FR1	2	R1391T
529.698	10.35	536402	COUNTDOWN_START	n/a	n/a	n/a	-999	5	[0, 0, 0]	n/a	FR1	2	R1391T
540.048	0.0	546747	COUNTDOWN_END	n/a	n/a	n/a	-999	5	[0, 0, 0]	n/a	FR1	2	R1391T
540.048	2.066	546747	ENCODING_START	n/a	n/a	n/a	-999	5	[0, 0, 0]	n/a	FR1	2	R1391T
542.114	1.6	548816	WORD	n/a	n/a	STREET	1	5	[0, 0, 0]	n/a	FR1	2	R1391T
543.714	0.949	550417	WORD_OFF	n/a	n/a	STREET	1	5	[0, 0, 0]	n/a	FR1	2	R1391T
544.663	1.602	551367	WORD	n/a	n/a	COIN	2	5	[0, 0, 0]	n/a	FR1	2	R1391T
546.265	0.999	552968	WORD_OFF	n/a	n/a	COIN	2	5	[0, 0, 0]	n/a	FR1	2	R1391T
547.264	1.6	553960	WORD	n/a	n/a	PEARL	3	5	[0, 0, 0]	n/a	FR1	2	R1391T
548.864	0.884	555562	WORD_OFF	n/a	n/a	PEARL	3	5	[0, 0, 0]	n/a	FR1	2	R1391T
549.748	1.6	556454	WORD	n/a	n/a	FENCE	4	5	[0, 0, 0]	n/a	FR1	2	R1391T
551.348	0.849	558042	WORD_OFF	n/a	n/a	FENCE	4	5	[0, 0, 0]	n/a	FR1	2	R1391T
552.197	1.6	558892	WORD	n/a	n/a	GRASS	5	5	[0, 0, 0]	n/a	FR1	2	R1391T
553.797	0.766	560493	WORD_OFF	n/a	n/a	GRASS	5	5	[0, 0, 0]	n/a	FR1	2	R1391T
554.563	1.601	561258	WORD	n/a	n/a	TIE	6	5	[0, 0, 0]	n/a	FR1	2	R1391T
556.164	0.833	562860	WORD_OFF	n/a	n/a	TIE	6	5	[0, 0, 0]	n/a	FR1	2	R1391T
556.997	1.6	563696	WORD	n/a	n/a	CORD	7	5	[0, 0, 0]	n/a	FR1	2	R1391T
558.597	0.767	565297	WORD_OFF	n/a	n/a	CORD	7	5	[0, 0, 0]	n/a	FR1	2	R1391T
559.364	1.6	566063	WORD	n/a	n/a	GLOVE	8	5	[0, 0, 0]	n/a	FR1	2	R1391T
560.964	1.0	567664	WORD_OFF	n/a	n/a	GLOVE	8	5	[0, 0, 0]	n/a	FR1	2	R1391T
561.964	1.6	568670	WORD	n/a	n/a	BUSH	9	5	[0, 0, 0]	n/a	FR1	2	R1391T
563.564	0.784	570271	WORD_OFF	n/a	n/a	BUSH	9	5	[0, 0, 0]	n/a	FR1	2	R1391T
564.348	1.616	571051	WORD	n/a	n/a	WORLD	10	5	[0, 0, 0]	n/a	FR1	2	R1391T
565.964	0.934	572666	WORD_OFF	n/a	n/a	WORLD	10	5	[0, 0, 0]	n/a	FR1	2	R1391T
566.898	1.6	573602	WORD	n/a	n/a	PRINCE	11	5	[0, 0, 0]	n/a	FR1	2	R1391T
568.498	0.983	575203	WORD_OFF	n/a	n/a	PRINCE	11	5	[0, 0, 0]	n/a	FR1	2	R1391T
569.481	1.6	576181	WORD	n/a	n/a	SHELL	12	5	[0, 0, 0]	n/a	FR1	2	R1391T
571.081	0.0	577780	PROB	0.0	n/a	n/a	-999	5	[5, 2, 6]	13	FR1	2	R1391T
571.081	0.002	577782	WORD_OFF	n/a	n/a	SHELL	12	5	[0, 0, 0]	n/a	FR1	2	R1391T
571.083	0.0	577782	ENCODING_END	n/a	n/a	n/a	-999	5	[0, 0, 0]	n/a	FR1	2	R1391T
571.083	0.0	577782	DISTRACT_START	n/a	n/a	n/a	-999	5	[0, 0, 0]	n/a	FR1	2	R1391T
571.083	4.948	577782	START	n/a	n/a	n/a	-999	5	[-999, -999, -999]	n/a	FR1	2	R1391T
576.031	2.766	582730	PROB	2.766	n/a	n/a	-999	5	[2, 7, 2]	11	FR1	2	R1391T
578.797	3.051	585496	PROB	3.051	n/a	n/a	-999	5	[4, 8, 3]	15	FR1	2	R1391T
581.848	3.333	588547	PROB	3.333	n/a	n/a	-999	5	[1, 4, 7]	12	FR1	2	R1391T
585.181	3.217	591879	PROB	3.217	n/a	n/a	-999	5	[7, 7, 2]	16	FR1	2	R1391T
588.398	4.099	595096	PROB	4.099	n/a	n/a	-999	5	[6, 8, 2]	16	FR1	2	R1391T
592.497	0.0	599195	DISTRACT_END	n/a	n/a	n/a	-999	5	[0, 0, 0]	n/a	FR1	2	R1391T
592.497	1.251	599195	STOP	n/a	n/a	n/a	-999	5	[-999, -999, -999]	n/a	FR1	2	R1391T
593.748	1.541	600442	REC_START	n/a	n/a	n/a	-999	5	[0, 0, 0]	n/a	FR1	2	R1391T
595.289	2.096	601987	REC_WORD	2.096	n/a	STREET	1	5	[0, 0, 0]	n/a	FR1	2	R1391T
597.385	1.6	604083	REC_WORD	1.6	n/a	PEARL	3	5	[0, 0, 0]	n/a	FR1	2	R1391T
598.985	3.327	605683	REC_WORD	3.327	n/a	FENCE	4	5	[0, 0, 0]	n/a	FR1	2	R1391T
602.312	21.703	609009	REC_WORD	21.703	n/a	GLASS	-999	5	[0, 0, 0]	n/a	FR1	2	R1391T
624.015	1.666	630713	REC_END	n/a	n/a	n/a	-999	5	[0, 0, 0]	n/a	FR1	2	R1391T
625.681	10.35	632385	COUNTDOWN_START	n/a	n/a	n/a	-999	6	[0, 0, 0]	n/a	FR1	2	R1391T
636.031	0.0	642730	COUNTDOWN_END	n/a	n/a	n/a	-999	6	[0, 0, 0]	n/a	FR1	2	R1391T
636.031	2.149	642730	ENCODING_START	n/a	n/a	n/a	-999	6	[0, 0, 0]	n/a	FR1	2	R1391T
638.18	1.601	644884	WORD	n/a	n/a	TRAIL	1	6	[0, 0, 0]	n/a	FR1	2	R1391T
639.781	0.95	646471	WORD_OFF	n/a	n/a	TRAIL	1	6	[0, 0, 0]	n/a	FR1	2	R1391T
640.731	1.6	647421	WORD	n/a	n/a	CHAIN	2	6	[0, 0, 0]	n/a	FR1	2	R1391T
642.331	0.816	649022	WORD_OFF	n/a	n/a	CHAIN	2	6	[0, 0, 0]	n/a	FR1	2	R1391T
643.147	1.601	649844	WORD	n/a	n/a	BLOOM	3	6	[0, 0, 0]	n/a	FR1	2	R1391T
644.748	0.816	651445	WORD_OFF	n/a	n/a	BLOOM	3	6	[0, 0, 0]	n/a	FR1	2	R1391T
645.564	1.6	652267	WORD	n/a	n/a	KNOB	4	6	[0, 0, 0]	n/a	FR1	2	R1391T
647.164	0.9	653854	WORD_OFF	n/a	n/a	KNOB	4	6	[0, 0, 0]	n/a	FR1	2	R1391T
648.064	1.617	654761	WORD	n/a	n/a	FARM	5	6	[0, 0, 0]	n/a	FR1	2	R1391T
649.681	0.783	656377	WORD_OFF	n/a	n/a	FARM	5	6	[0, 0, 0]	n/a	FR1	2	R1391T
650.464	1.6	657156	WORD	n/a	n/a	STICK	6	6	[0, 0, 0]	n/a	FR1	2	R1391T
652.064	0.85	658758	WORD_OFF	n/a	n/a	STICK	6	6	[0, 0, 0]	n/a	FR1	2	R1391T
652.914	1.617	659608	WORD	n/a	n/a	SOAP	7	6	[0, 0, 0]	n/a	FR1	2	R1391T
654.531	0.767	661224	WORD_OFF	n/a	n/a	SOAP	7	6	[0, 0, 0]	n/a	FR1	2	R1391T
655.298	1.616	661989	WORD	n/a	n/a	EEL	8	6	[0, 0, 0]	n/a	FR1	2	R1391T
656.914	1.0	663604	WORD_OFF	n/a	n/a	EEL	8	6	[0, 0, 0]	n/a	FR1	2	R1391T
657.914	1.616	664611	WORD	n/a	n/a	TOAD	9	6	[0, 0, 0]	n/a	FR1	2	R1391T
659.53	0.917	666226	WORD_OFF	n/a	n/a	TOAD	9	6	[0, 0, 0]	n/a	FR1	2	R1391T
660.447	1.6	667147	WORD	n/a	n/a	MOLE	10	6	[0, 0, 0]	n/a	FR1	2	R1391T
662.047	0.9	668749	WORD_OFF	n/a	n/a	MOLE	10	6	[0, 0, 0]	n/a	FR1	2	R1391T
662.947	1.601	669641	WORD	n/a	n/a	BONE	11	6	[0, 0, 0]	n/a	FR1	2	R1391T
664.548	0.783	671243	WORD_OFF	n/a	n/a	BONE	11	6	[0, 0, 0]	n/a	FR1	2	R1391T
665.331	1.6	672022	WORD	n/a	n/a	SMOKE	12	6	[0, 0, 0]	n/a	FR1	2	R1391T
666.931	0.004	673624	WORD_OFF	n/a	n/a	SMOKE	12	6	[0, 0, 0]	n/a	FR1	2	R1391T
666.935	0.0	673624	ENCODING_END	n/a	n/a	n/a	-999	6	[0, 0, 0]	n/a	FR1	2	R1391T
666.932	0.003	673626	PROB	0.003	n/a	n/a	-999	6	[3, 5, 7]	15	FR1	2	R1391T
666.935	0.0	673629	START	n/a	n/a	n/a	-999	6	[-999, -999, -999]	n/a	FR1	2	R1391T
666.935	5.763	673638	DISTRACT_START	n/a	n/a	n/a	-999	6	[0, 0, 0]	n/a	FR1	2	R1391T
672.698	2.734	679392	PROB	2.734	n/a	n/a	-999	6	[8, 5, 3]	16	FR1	2	R1391T
675.432	3.616	682126	PROB	3.616	n/a	n/a	-999	6	[3, 2, 4]	9	FR1	2	R1391T
679.048	2.917	685742	PROB	2.917	n/a	n/a	-999	6	[2, 5, 5]	12	FR1	2	R1391T
681.965	4.049	688658	PROB	4.049	n/a	n/a	-999	6	[5, 8, 3]	16	FR1	2	R1391T
686.014	1.667	692707	PROB	1.667	n/a	n/a	-999	6	[1, 6, 4]	11	FR1	2	R1391T
687.681	0.0	694371	DISTRACT_END	n/a	n/a	n/a	-999	6	[0, 0, 0]	n/a	FR1	2	R1391T
687.681	1.267	694374	STOP	n/a	n/a	n/a	-999	6	[-999, -999, -999]	n/a	FR1	2	R1391T
688.948	1.897	695646	REC_START	n/a	n/a	n/a	-999	6	[0, 0, 0]	n/a	FR1	2	R1391T
690.845	1.942	697538	REC_WORD	1.942	n/a	TRAIL	1	6	[0, 0, 0]	n/a	FR1	2	R1391T
692.787	2.705	699480	REC_WORD	2.705	n/a	CHAIN	2	6	[0, 0, 0]	n/a	FR1	2	R1391T
695.492	2.147	702185	REC_WORD	2.147	n/a	BLOOM	3	6	[0, 0, 0]	n/a	FR1	2	R1391T
697.639	21.594	704332	REC_WORD	21.594	n/a	KNOB	4	6	[0, 0, 0]	n/a	FR1	2	R1391T
719.233	6.681	725930	REC_END	n/a	n/a	n/a	-999	6	[0, 0, 0]	n/a	FR1	2	R1391T
725.914	10.351	732605	COUNTDOWN_START	n/a	n/a	n/a	-999	7	[0, 0, 0]	n/a	FR1	2	R1391T
736.265	0.0	742964	COUNTDOWN_END	n/a	n/a	n/a	-999	7	[0, 0, 0]	n/a	FR1	2	R1391T
736.265	2.182	742964	ENCODING_START	n/a	n/a	n/a	-999	7	[0, 0, 0]	n/a	FR1	2	R1391T
738.447	1.617	745133	WORD	n/a	n/a	SEAT	1	7	[0, 0, 0]	n/a	FR1	2	R1391T
740.064	0.85	746762	WORD_OFF	n/a	n/a	SEAT	1	7	[0, 0, 0]	n/a	FR1	2	R1391T
740.914	1.6	747613	WORD	n/a	n/a	FACE	2	7	[0, 0, 0]	n/a	FR1	2	R1391T
742.514	0.95	749200	WORD_OFF	n/a	n/a	FACE	2	7	[0, 0, 0]	n/a	FR1	2	R1391T
743.464	1.617	750149	WORD	n/a	n/a	SPARK	3	7	[0, 0, 0]	n/a	FR1	2	R1391T
745.081	0.899	751779	WORD_OFF	n/a	n/a	SPARK	3	7	[0, 0, 0]	n/a	FR1	2	R1391T
745.98	1.601	752672	WORD	n/a	n/a	STRAW	4	7	[0, 0, 0]	n/a	FR1	2	R1391T
747.581	0.867	754273	WORD_OFF	n/a	n/a	STRAW	4	7	[0, 0, 0]	n/a	FR1	2	R1391T
748.448	1.6	755138	WORD	n/a	n/a	FORT	5	7	[0, 0, 0]	n/a	FR1	2	R1391T
750.048	0.95	756739	WORD_OFF	n/a	n/a	FORT	5	7	[0, 0, 0]	n/a	FR1	2	R1391T
750.998	1.6	757688	WORD	n/a	n/a	MUD	6	7	[0, 0, 0]	n/a	FR1	2	R1391T
752.598	0.982	759290	WORD_OFF	n/a	n/a	MUD	6	7	[0, 0, 0]	n/a	FR1	2	R1391T
753.58	1.601	760268	WORD	n/a	n/a	HEART	7	7	[0, 0, 0]	n/a	FR1	2	R1391T
755.181	0.799	761869	WORD_OFF	n/a	n/a	HEART	7	7	[0, 0, 0]	n/a	FR1	2	R1391T
755.98	1.618	762677	WORD	n/a	n/a	CLOCK	8	7	[0, 0, 0]	n/a	FR1	2	R1391T
757.598	0.882	764292	WORD_OFF	n/a	n/a	CLOCK	8	7	[0, 0, 0]	n/a	FR1	2	R1391T
758.48	1.601	765171	WORD	n/a	n/a	BRICK	9	7	[0, 0, 0]	n/a	FR1	2	R1391T
760.081	0.816	766772	WORD_OFF	n/a	n/a	BRICK	9	7	[0, 0, 0]	n/a	FR1	2	R1391T
760.897	1.6	767594	WORD	n/a	n/a	CORK	10	7	[0, 0, 0]	n/a	FR1	2	R1391T
762.497	0.817	769181	WORD_OFF	n/a	n/a	CORK	10	7	[0, 0, 0]	n/a	FR1	2	R1391T
763.314	1.6	770003	WORD	n/a	n/a	BOMB	11	7	[0, 0, 0]	n/a	FR1	2	R1391T
764.914	0.766	771605	WORD_OFF	n/a	n/a	BOMB	11	7	[0, 0, 0]	n/a	FR1	2	R1391T
765.68	1.601	772370	WORD	n/a	n/a	BAT	12	7	[0, 0, 0]	n/a	FR1	2	R1391T
767.281	0.0	773970	PROB	0.0	n/a	n/a	-999	7	[2, 3, 4]	9	FR1	2	R1391T
767.281	0.001	773971	WORD_OFF	n/a	n/a	BAT	12	7	[0, 0, 0]	n/a	FR1	2	R1391T
767.282	0.0	773971	ENCODING_END	n/a	n/a	n/a	-999	7	[0, 0, 0]	n/a	FR1	2	R1391T
767.282	0.0	773971	DISTRACT_START	n/a	n/a	n/a	-999	7	[0, 0, 0]	n/a	FR1	2	R1391T
767.282	9.8	773971	START	n/a	n/a	n/a	-999	7	[-999, -999, -999]	n/a	FR1	2	R1391T
777.082	2.917	783770	PROB	2.917	n/a	n/a	-999	7	[1, 2, 3]	6	FR1	2	R1391T
779.999	4.266	786687	PROB	4.266	n/a	n/a	-999	7	[6, 8, 5]	19	FR1	2	R1391T
784.265	2.467	790953	PROB	2.467	n/a	n/a	-999	7	[6, 8, 2]	16	FR1	2	R1391T
786.732	3.366	793420	PROB	3.366	n/a	n/a	-999	7	[6, 2, 6]	14	FR1	2	R1391T
790.098	0.0	796786	STOP	n/a	n/a	n/a	-999	7	[-999, -999, -999]	n/a	FR1	2	R1391T
790.098	1.167	796787	DISTRACT_END	n/a	n/a	n/a	-999	7	[0, 0, 0]	n/a	FR1	2	R1391T
791.265	1.576	797949	REC_START	n/a	n/a	n/a	-999	7	[0, 0, 0]	n/a	FR1	2	R1391T
792.841	1.738	799529	REC_WORD	1.738	n/a	HEART	7	7	[0, 0, 0]	n/a	FR1	2	R1391T
794.579	1.82	801267	REC_WORD	1.82	n/a	CLOCK	8	7	[0, 0, 0]	n/a	FR1	2	R1391T
796.399	1.85	803086	REC_WORD	1.85	n/a	BRICK	9	7	[0, 0, 0]	n/a	FR1	2	R1391T
798.249	23.303	804936	REC_WORD	23.303	n/a	COURT	-999	7	[0, 0, 0]	n/a	FR1	2	R1391T
821.552	5.846	828234	REC_END	n/a	n/a	n/a	-999	7	[0, 0, 0]	n/a	FR1	2	R1391T
827.398	10.35	834087	COUNTDOWN_START	n/a	n/a	n/a	-999	8	[0, 0, 0]	n/a	FR1	2	R1391T
837.748	0.0	844432	COUNTDOWN_END	n/a	n/a	n/a	-999	8	[0, 0, 0]	n/a	FR1	2	R1391T
837.748	2.233	844432	ENCODING_START	n/a	n/a	n/a	-999	8	[0, 0, 0]	n/a	FR1	2	R1391T
839.981	1.617	846671	WORD	n/a	n/a	SQUARE	1	8	[0, 0, 0]	n/a	FR1	2	R1391T
841.598	0.95	848286	WORD_OFF	n/a	n/a	SQUARE	1	8	[0, 0, 0]	n/a	FR1	2	R1391T
842.548	1.616	849236	WORD	n/a	n/a	BOOK	2	8	[0, 0, 0]	n/a	FR1	2	R1391T
844.164	0.817	850851	WORD_OFF	n/a	n/a	BOOK	2	8	[0, 0, 0]	n/a	FR1	2	R1391T
844.981	1.6	851673	WORD	n/a	n/a	SKIN	3	8	[0, 0, 0]	n/a	FR1	2	R1391T
846.581	0.783	853260	WORD_OFF	n/a	n/a	SKIN	3	8	[0, 0, 0]	n/a	FR1	2	R1391T
847.364	1.6	854054	WORD	n/a	n/a	PASTE	4	8	[0, 0, 0]	n/a	FR1	2	R1391T
848.964	0.9	855655	WORD_OFF	n/a	n/a	PASTE	4	8	[0, 0, 0]	n/a	FR1	2	R1391T
849.864	1.6	856548	WORD	n/a	n/a	BEAK	5	8	[0, 0, 0]	n/a	FR1	2	R1391T
851.464	0.767	858150	WORD_OFF	n/a	n/a	BEAK	5	8	[0, 0, 0]	n/a	FR1	2	R1391T
852.231	1.6	858915	WORD	n/a	n/a	BREAST	6	8	[0, 0, 0]	n/a	FR1	2	R1391T
853.831	0.95	860516	WORD_OFF	n/a	n/a	BREAST	6	8	[0, 0, 0]	n/a	FR1	2	R1391T
854.781	1.6	861466	WORD	n/a	n/a	TRASH	7	8	[0, 0, 0]	n/a	FR1	2	R1391T
856.381	0.817	863067	WORD_OFF	n/a	n/a	TRASH	7	8	[0, 0, 0]	n/a	FR1	2	R1391T
857.198	1.6	863889	WORD	n/a	n/a	GLOBE	8	8	[0, 0, 0]	n/a	FR1	2	R1391T
858.798	0.882	865490	WORD_OFF	n/a	n/a	GLOBE	8	8	[0, 0, 0]	n/a	FR1	2	R1391T
859.68	1.6	866369	WORD	n/a	n/a	PHONE	9	8	[0, 0, 0]	n/a	FR1	2	R1391T
861.28	0.967	867970	WORD_OFF	n/a	n/a	PHONE	9	8	[0, 0, 0]	n/a	FR1	2	R1391T
862.247	1.617	868934	WORD	n/a	n/a	SHORE	10	8	[0, 0, 0]	n/a	FR1	2	R1391T
863.864	0.95	870550	WORD_OFF	n/a	n/a	SHORE	10	8	[0, 0, 0]	n/a	FR1	2	R1391T
864.814	1.616	871499	WORD	n/a	n/a	SHARK	11	8	[0, 0, 0]	n/a	FR1	2	R1391T
866.43	0.984	873115	WORD_OFF	n/a	n/a	SHARK	11	8	[0, 0, 0]	n/a	FR1	2	R1391T
867.414	1.6	874092	WORD	n/a	n/a	BARN	12	8	[0, 0, 0]	n/a	FR1	2	R1391T
869.014	0.001	875694	WORD_OFF	n/a	n/a	BARN	12	8	[0, 0, 0]	n/a	FR1	2	R1391T
869.015	0.001	875699	PROB	0.001	n/a	n/a	-999	8	[7, 5, 7]	19	FR1	2	R1391T
869.016	0.0	875700	START	n/a	n/a	n/a	-999	8	[-999, -999, -999]	n/a	FR1	2	R1391T
869.016	0.0	875708	ENCODING_END	n/a	n/a	n/a	-999	8	[0, 0, 0]	n/a	FR1	2	R1391T
869.016	6.616	875708	DISTRACT_START	n/a	n/a	n/a	-999	8	[0, 0, 0]	n/a	FR1	2	R1391T
875.632	3.119	882315	PROB	3.119	n/a	n/a	-999	8	[2, 6, 7]	15	FR1	2	R1391T
878.751	1.781	885434	PROB	1.781	n/a	n/a	-999	8	[8, 2, 1]	11	FR1	2	R1391T
880.532	2.533	887215	PROB	2.533	n/a	n/a	-999	8	[3, 8, 3]	14	FR1	2	R1391T
883.065	1.85	889748	PROB	1.85	n/a	n/a	-999	8	[6, 2, 4]	12	FR1	2	R1391T
884.915	2.333	891598	PROB	2.333	n/a	n/a	-999	8	[8, 1, 7]	16	FR1	2	R1391T
887.248	2.15	893931	PROB	2.15	n/a	n/a	-999	8	[8, 4, 4]	16	FR1	2	R1391T
889.398	0.0	896081	STOP	n/a	n/a	n/a	-999	8	[-999, -999, -999]	n/a	FR1	2	R1391T
889.398	1.083	896086	DISTRACT_END	n/a	n/a	n/a	-999	8	[0, 0, 0]	n/a	FR1	2	R1391T
890.481	1.558	897164	REC_START	n/a	n/a	n/a	-999	8	[0, 0, 0]	n/a	FR1	2	R1391T
892.039	2.855	898722	REC_WORD	2.855	n/a	SQUARE	1	8	[0, 0, 0]	n/a	FR1	2	R1391T
894.894	1.535	901576	REC_WORD	1.535	n/a	BOOK	2	8	[0, 0, 0]	n/a	FR1	2	R1391T
896.429	2.283	903111	REC_WORD	2.283	n/a	SKIN	3	8	[0, 0, 0]	n/a	FR1	2	R1391T
898.712	22.051	905394	REC_WORD	22.051	n/a	CASE	-999	8	[0, 0, 0]	n/a	FR1	2	R1391T
920.763	1.601	927448	REC_END	n/a	n/a	n/a	-999	8	[0, 0, 0]	n/a	FR1	2	R1391T
922.364	10.351	929049	COUNTDOWN_START	n/a	n/a	n/a	-999	9	[0, 0, 0]	n/a	FR1	2	R1391T
932.715	0.0	939394	COUNTDOWN_END	n/a	n/a	n/a	-999	9	[0, 0, 0]	n/a	FR1	2	R1391T
932.715	2.083	939394	ENCODING_START	n/a	n/a	n/a	-999	9	[0, 0, 0]	n/a	FR1	2	R1391T
934.798	1.616	941478	WORD	n/a	n/a	ROCK	1	9	[0, 0, 0]	n/a	FR1	2	R1391T
936.414	0.851	943093	WORD_OFF	n/a	n/a	ROCK	1	9	[0, 0, 0]	n/a	FR1	2	R1391T
937.265	1.599	943943	WORD	n/a	n/a	LAWN	2	9	[0, 0, 0]	n/a	FR1	2	R1391T
938.864	0.934	945545	WORD_OFF	n/a	n/a	LAWN	2	9	[0, 0, 0]	n/a	FR1	2	R1391T
939.798	1.6	946480	WORD	n/a	n/a	CAPE	3	9	[0, 0, 0]	n/a	FR1	2	R1391T
941.398	0.867	948081	WORD_OFF	n/a	n/a	CAPE	3	9	[0, 0, 0]	n/a	FR1	2	R1391T
942.265	1.616	948946	WORD	n/a	n/a	MEAL	4	9	[0, 0, 0]	n/a	FR1	2	R1391T
943.881	0.833	950561	WORD_OFF	n/a	n/a	MEAL	4	9	[0, 0, 0]	n/a	FR1	2	R1391T
944.714	1.6	951398	WORD	n/a	n/a	TIN	5	9	[0, 0, 0]	n/a	FR1	2	R1391T
946.314	0.8	952999	WORD_OFF	n/a	n/a	TIN	5	9	[0, 0, 0]	n/a	FR1	2	R1391T
947.114	1.617	953792	WORD	n/a	n/a	WAVE	6	9	[0, 0, 0]	n/a	FR1	2	R1391T
948.731	0.8	955408	WORD_OFF	n/a	n/a	WAVE	6	9	[0, 0, 0]	n/a	FR1	2	R1391T
949.531	1.6	956216	WORD	n/a	n/a	WING	7	9	[0, 0, 0]	n/a	FR1	2	R1391T
951.131	0.983	957817	WORD_OFF	n/a	n/a	WING	7	9	[0, 0, 0]	n/a	FR1	2	R1391T
952.114	1.6	958795	WORD	n/a	n/a	PILL	8	9	[0, 0, 0]	n/a	FR1	2	R1391T
953.714	0.866	960396	WORD_OFF	n/a	n/a	PILL	8	9	[0, 0, 0]	n/a	FR1	2	R1391T
954.58	1.601	961261	WORD	n/a	n/a	DRAIN	9	9	[0, 0, 0]	n/a	FR1	2	R1391T
956.181	0.783	962862	WORD_OFF	n/a	n/a	DRAIN	9	9	[0, 0, 0]	n/a	FR1	2	R1391T
956.964	1.6	963642	WORD	n/a	n/a	PAINT	10	9	[0, 0, 0]	n/a	FR1	2	R1391T
958.564	0.85	965243	WORD_OFF	n/a	n/a	PAINT	10	9	[0, 0, 0]	n/a	FR1	2	R1391T
959.414	1.6	966093	WORD	n/a	n/a	WEB	11	9	[0, 0, 0]	n/a	FR1	2	R1391T
961.014	0.967	967695	WORD_OFF	n/a	n/a	WEB	11	9	[0, 0, 0]	n/a	FR1	2	R1391T
961.981	1.6	968658	WORD	n/a	n/a	SPRING	12	9	[0, 0, 0]	n/a	FR1	2	R1391T
963.581	0.001	970260	WORD_OFF	n/a	n/a	SPRING	12	9	[0, 0, 0]	n/a	FR1	2	R1391T
963.582	0.0	970260	ENCODING_END	n/a	n/a	n/a	-999	9	[0, 0, 0]	n/a	FR1	2	R1391T
963.582	0.0	970260	DISTRACT_START	n/a	n/a	n/a	-999	9	[0, 0, 0]	n/a	FR1	2	R1391T
963.582	0.0	970261	START	n/a	n/a	n/a	-999	9	[-999, -999, -999]	n/a	FR1	2	R1391T
963.582	9.682	970261	PROB	9.682	n/a	n/a	-999	9	[3, 2, 8]	13	FR1	2	R1391T
973.264	3.834	979942	PROB	3.834	n/a	n/a	-999	9	[3, 2, 5]	10	FR1	2	R1391T
977.098	2.917	983776	PROB	2.917	n/a	n/a	-999	9	[5, 8, 1]	14	FR1	2	R1391T
980.015	2.316	986693	PROB	2.316	n/a	n/a	-999	9	[4, 2, 3]	9	FR1	2	R1391T
982.331	2.1	989009	PROB	2.1	n/a	n/a	-999	9	[3, 2, 2]	7	FR1	2	R1391T
984.431	0.0	991106	DISTRACT_END	n/a	n/a	n/a	-999	9	[0, 0, 0]	n/a	FR1	2	R1391T
984.431	1.382	991109	STOP	n/a	n/a	n/a	-999	9	[-999, -999, -999]	n/a	FR1	2	R1391T
985.813	1.644	992495	REC_START	n/a	n/a	n/a	-999	9	[0, 0, 0]	n/a	FR1	2	R1391T
987.457	1.55	994135	REC_WORD	1.55	n/a	ROCK	1	9	[0, 0, 0]	n/a	FR1	2	R1391T
989.007	1.824	995685	REC_WORD	1.824	n/a	LAWN	2	9	[0, 0, 0]	n/a	FR1	2	R1391T
990.831	2.627	997508	REC_WORD	2.627	n/a	CAPE	3	9	[0, 0, 0]	n/a	FR1	2	R1391T
993.458	22.623	1000135	REC_WORD	22.623	n/a	MEAL	4	9	[0, 0, 0]	n/a	FR1	2	R1391T
1016.081	2.333	1022765	REC_END	n/a	n/a	n/a	-999	9	[0, 0, 0]	n/a	FR1	2	R1391T
1018.414	10.351	1025089	COUNTDOWN_START	n/a	n/a	n/a	-999	10	[0, 0, 0]	n/a	FR1	2	R1391T
1028.765	0.0	1035448	COUNTDOWN_END	n/a	n/a	n/a	-999	10	[0, 0, 0]	n/a	FR1	2	R1391T
1028.765	2.099	1035448	ENCODING_START	n/a	n/a	n/a	-999	10	[0, 0, 0]	n/a	FR1	2	R1391T
1030.864	1.6	1037546	WORD	n/a	n/a	LIMB	1	10	[0, 0, 0]	n/a	FR1	2	R1391T
1032.464	0.967	1039147	WORD_OFF	n/a	n/a	LIMB	1	10	[0, 0, 0]	n/a	FR1	2	R1391T
1033.431	1.6	1040111	WORD	n/a	n/a	JAW	2	10	[0, 0, 0]	n/a	FR1	2	R1391T
1035.031	0.8	1041712	WORD_OFF	n/a	n/a	JAW	2	10	[0, 0, 0]	n/a	FR1	2	R1391T
1035.831	1.616	1042506	WORD	n/a	n/a	SKY	3	10	[0, 0, 0]	n/a	FR1	2	R1391T
1037.447	0.967	1044121	WORD_OFF	n/a	n/a	SKY	3	10	[0, 0, 0]	n/a	FR1	2	R1391T
1038.414	1.6	1045085	WORD	n/a	n/a	BOLT	4	10	[0, 0, 0]	n/a	FR1	2	R1391T
1040.014	0.966	1046686	WORD_OFF	n/a	n/a	BOLT	4	10	[0, 0, 0]	n/a	FR1	2	R1391T
1040.98	1.6	1047650	WORD	n/a	n/a	THORN	5	10	[0, 0, 0]	n/a	FR1	2	R1391T
1042.58	0.817	1049251	WORD_OFF	n/a	n/a	THORN	5	10	[0, 0, 0]	n/a	FR1	2	R1391T
1043.397	1.617	1050073	WORD	n/a	n/a	STEAK	6	10	[0, 0, 0]	n/a	FR1	2	R1391T
1045.014	1.0	1051689	WORD_OFF	n/a	n/a	STEAK	6	10	[0, 0, 0]	n/a	FR1	2	R1391T
1046.014	1.616	1052695	WORD	n/a	n/a	DOCK	7	10	[0, 0, 0]	n/a	FR1	2	R1391T
1047.63	0.9	1054310	WORD_OFF	n/a	n/a	DOCK	7	10	[0, 0, 0]	n/a	FR1	2	R1391T
1048.53	1.617	1055203	WORD	n/a	n/a	SHIELD	8	10	[0, 0, 0]	n/a	FR1	2	R1391T
1050.147	0.967	1056819	WORD_OFF	n/a	n/a	SHIELD	8	10	[0, 0, 0]	n/a	FR1	2	R1391T
1051.114	1.6	1057789	WORD	n/a	n/a	ROAD	9	10	[0, 0, 0]	n/a	FR1	2	R1391T
1052.714	0.866	1059384	WORD_OFF	n/a	n/a	ROAD	9	10	[0, 0, 0]	n/a	FR1	2	R1391T
1053.58	1.6	1060262	WORD	n/a	n/a	OAR	10	10	[0, 0, 0]	n/a	FR1	2	R1391T
1055.18	0.867	1061850	WORD_OFF	n/a	n/a	OAR	10	10	[0, 0, 0]	n/a	FR1	2	R1391T
1056.047	1.6	1062728	WORD	n/a	n/a	SNAIL	11	10	[0, 0, 0]	n/a	FR1	2	R1391T
1057.647	0.85	1064330	WORD_OFF	n/a	n/a	SNAIL	11	10	[0, 0, 0]	n/a	FR1	2	R1391T
1058.497	1.6	1065166	WORD	n/a	n/a	BOX	12	10	[0, 0, 0]	n/a	FR1	2	R1391T
1060.097	0.001	1066767	WORD_OFF	n/a	n/a	BOX	12	10	[0, 0, 0]	n/a	FR1	2	R1391T
1060.098	0.0	1066772	START	n/a	n/a	n/a	-999	10	[-999, -999, -999]	n/a	FR1	2	R1391T
1060.098	0.0	1066772	PROB	0.0	n/a	n/a	-999	10	[3, 3, 4]	10	FR1	2	R1391T
1060.098	0.0	1066781	ENCODING_END	n/a	n/a	n/a	-999	10	[0, 0, 0]	n/a	FR1	2	R1391T
1060.098	9.199	1066781	DISTRACT_START	n/a	n/a	n/a	-999	10	[0, 0, 0]	n/a	FR1	2	R1391T
1069.297	3.418	1075970	PROB	3.418	n/a	n/a	-999	10	[7, 8, 2]	17	FR1	2	R1391T
1072.715	2.45	1079388	PROB	2.45	n/a	n/a	-999	10	[5, 2, 2]	9	FR1	2	R1391T
1075.165	2.084	1081838	PROB	2.084	n/a	n/a	-999	10	[1, 7, 3]	11	FR1	2	R1391T
1077.249	2.032	1083922	PROB	2.032	n/a	n/a	-999	10	[1, 3, 1]	5	FR1	2	R1391T
1079.281	1.883	1085954	PROB	1.883	n/a	n/a	-999	10	[2, 8, 2]	12	FR1	2	R1391T
1081.164	0.0	1087837	STOP	n/a	n/a	n/a	-999	10	[-999, -999, -999]	n/a	FR1	2	R1391T
1081.164	1.334	1087840	DISTRACT_END	n/a	n/a	n/a	-999	10	[0, 0, 0]	n/a	FR1	2	R1391T
1082.498	1.586	1089172	REC_START	n/a	n/a	n/a	-999	10	[0, 0, 0]	n/a	FR1	2	R1391T
1084.084	2.447	1090757	REC_WORD	2.447	n/a	LIMB	1	10	[0, 0, 0]	n/a	FR1	2	R1391T
1086.531	4.988	1093204	REC_WORD	4.988	n/a	JAW	2	10	[0, 0, 0]	n/a	FR1	2	R1391T
1091.519	2.709	1098191	REC_WORD	2.709	n/a	SKY	3	10	[0, 0, 0]	n/a	FR1	2	R1391T
1094.228	18.53	1100900	REC_WORD	18.53	n/a	BOLT	4	10	[0, 0, 0]	n/a	FR1	2	R1391T
1112.758	1.856	1119428	REC_END	n/a	n/a	n/a	-999	10	[0, 0, 0]	n/a	FR1	2	R1391T
1114.614	10.351	1121284	COUNTDOWN_START	n/a	n/a	n/a	-999	11	[0, 0, 0]	n/a	FR1	2	R1391T
1124.965	0.0	1131630	COUNTDOWN_END	n/a	n/a	n/a	-999	11	[0, 0, 0]	n/a	FR1	2	R1391T
1124.965	2.116	1131644	ENCODING_START	n/a	n/a	n/a	-999	11	[0, 0, 0]	n/a	FR1	2	R1391T
1127.081	1.617	1133755	WORD	n/a	n/a	MULE	1	11	[0, 0, 0]	n/a	FR1	2	R1391T
1128.698	0.966	1135371	WORD_OFF	n/a	n/a	MULE	1	11	[0, 0, 0]	n/a	FR1	2	R1391T
1129.664	1.617	1136334	WORD	n/a	n/a	WIG	2	11	[0, 0, 0]	n/a	FR1	2	R1391T
1131.281	0.833	1137950	WORD_OFF	n/a	n/a	WIG	2	11	[0, 0, 0]	n/a	FR1	2	R1391T
1132.114	1.616	1138786	WORD	n/a	n/a	WAND	3	11	[0, 0, 0]	n/a	FR1	2	R1391T
1133.73	0.901	1140402	WORD_OFF	n/a	n/a	WAND	3	11	[0, 0, 0]	n/a	FR1	2	R1391T
1134.631	1.6	1141309	WORD	n/a	n/a	WHEAT	4	11	[0, 0, 0]	n/a	FR1	2	R1391T
1136.231	0.95	1142896	WORD_OFF	n/a	n/a	WHEAT	4	11	[0, 0, 0]	n/a	FR1	2	R1391T
1137.181	1.6	1143845	WORD	n/a	n/a	TOOTH	5	11	[0, 0, 0]	n/a	FR1	2	R1391T
1138.781	0.9	1145447	WORD_OFF	n/a	n/a	TOOTH	5	11	[0, 0, 0]	n/a	FR1	2	R1391T
1139.681	1.6	1146354	WORD	n/a	n/a	COURT	6	11	[0, 0, 0]	n/a	FR1	2	R1391T
1141.281	0.8	1147955	WORD_OFF	n/a	n/a	COURT	6	11	[0, 0, 0]	n/a	FR1	2	R1391T
1142.081	1.616	1148749	WORD	n/a	n/a	FOOD	7	11	[0, 0, 0]	n/a	FR1	2	R1391T
1143.697	0.8	1150364	WORD_OFF	n/a	n/a	FOOD	7	11	[0, 0, 0]	n/a	FR1	2	R1391T
1144.497	1.6	1151172	WORD	n/a	n/a	CREAM	8	11	[0, 0, 0]	n/a	FR1	2	R1391T
1146.097	0.85	1152773	WORD_OFF	n/a	n/a	CREAM	8	11	[0, 0, 0]	n/a	FR1	2	R1391T
1146.947	1.6	1153624	WORD	n/a	n/a	BRUSH	9	11	[0, 0, 0]	n/a	FR1	2	R1391T
1148.547	0.917	1155211	WORD_OFF	n/a	n/a	BRUSH	9	11	[0, 0, 0]	n/a	FR1	2	R1391T
1149.464	1.616	1156132	WORD	n/a	n/a	ROOT	10	11	[0, 0, 0]	n/a	FR1	2	R1391T
1151.08	0.767	1157747	WORD_OFF	n/a	n/a	ROOT	10	11	[0, 0, 0]	n/a	FR1	2	R1391T
1151.847	1.6	1158513	WORD	n/a	n/a	BIN	11	11	[0, 0, 0]	n/a	FR1	2	R1391T
1153.447	0.85	1160114	WORD_OFF	n/a	n/a	BIN	11	11	[0, 0, 0]	n/a	FR1	2	R1391T
1154.297	1.6	1160964	WORD	n/a	n/a	CAMP	12	11	[0, 0, 0]	n/a	FR1	2	R1391T
1155.897	0.001	1162566	WORD_OFF	n/a	n/a	CAMP	12	11	[0, 0, 0]	n/a	FR1	2	R1391T
1155.898	0.0	1162566	ENCODING_END	n/a	n/a	n/a	-999	11	[0, 0, 0]	n/a	FR1	2	R1391T
1155.898	0.0	1162566	DISTRACT_START	n/a	n/a	n/a	-999	11	[0, 0, 0]	n/a	FR1	2	R1391T
1155.897	0.001	1162566	PROB	0.001	n/a	n/a	-999	11	[6, 5, 6]	17	FR1	2	R1391T
1155.898	7.299	1162567	START	n/a	n/a	n/a	-999	11	[-999, -999, -999]	n/a	FR1	2	R1391T
1163.197	2.367	1169866	PROB	2.367	n/a	n/a	-999	11	[6, 6, 2]	14	FR1	2	R1391T
1165.564	3.034	1172233	PROB	3.034	n/a	n/a	-999	11	[6, 5, 8]	19	FR1	2	R1391T
1168.598	3.983	1175266	PROB	3.983	n/a	n/a	-999	11	[8, 8, 6]	22	FR1	2	R1391T
1172.581	3.334	1179249	PROB	3.334	n/a	n/a	-999	11	[5, 7, 6]	18	FR1	2	R1391T
1175.915	0.0	1182583	STOP	n/a	n/a	n/a	-999	11	[-999, -999, -999]	n/a	FR1	2	R1391T
1175.915	1.033	1182590	DISTRACT_END	n/a	n/a	n/a	-999	11	[0, 0, 0]	n/a	FR1	2	R1391T
1176.948	1.928	1183624	REC_START	n/a	n/a	n/a	-999	11	[0, 0, 0]	n/a	FR1	2	R1391T
1178.876	1.556	1185544	REC_WORD	1.556	n/a	MULE	1	11	[0, 0, 0]	n/a	FR1	2	R1391T
1180.432	1.546	1187100	REC_WORD	1.546	n/a	WIG	2	11	[0, 0, 0]	n/a	FR1	2	R1391T
1181.978	1.791	1188646	REC_WORD	1.791	n/a	WAND	3	11	[0, 0, 0]	n/a	FR1	2	R1391T
1183.769	23.451	1190437	REC_WORD	23.451	n/a	WHEAT	4	11	[0, 0, 0]	n/a	FR1	2	R1391T
1207.22	2.778	1213880	REC_END	n/a	n/a	n/a	-999	11	[0, 0, 0]	n/a	FR1	2	R1391T
1209.998	10.35	1216672	COUNTDOWN_START	n/a	n/a	n/a	-999	12	[0, 0, 0]	n/a	FR1	2	R1391T
1220.348	0.001	1227017	COUNTDOWN_END	n/a	n/a	n/a	-999	12	[0, 0, 0]	n/a	FR1	2	R1391T
1220.349	2.381	1227017	ENCODING_START	n/a	n/a	n/a	-999	12	[0, 0, 0]	n/a	FR1	2	R1391T
1222.73	1.618	1229398	WORD	n/a	n/a	SKI	1	12	[0, 0, 0]	n/a	FR1	2	R1391T
1224.348	0.816	1231014	WORD_OFF	n/a	n/a	SKI	1	12	[0, 0, 0]	n/a	FR1	2	R1391T
1225.164	1.6	1231836	WORD	n/a	n/a	RIB	2	12	[0, 0, 0]	n/a	FR1	2	R1391T
1226.764	0.8	1233437	WORD_OFF	n/a	n/a	RIB	2	12	[0, 0, 0]	n/a	FR1	2	R1391T
1227.564	1.6	1234231	WORD	n/a	n/a	HOUSE	3	12	[0, 0, 0]	n/a	FR1	2	R1391T
1229.164	0.834	1235832	WORD_OFF	n/a	n/a	HOUSE	3	12	[0, 0, 0]	n/a	FR1	2	R1391T
1229.998	1.616	1236668	WORD	n/a	n/a	CONE	4	12	[0, 0, 0]	n/a	FR1	2	R1391T
1231.614	0.867	1238284	WORD_OFF	n/a	n/a	CONE	4	12	[0, 0, 0]	n/a	FR1	2	R1391T
1232.481	1.617	1239148	WORD	n/a	n/a	STEW	5	12	[0, 0, 0]	n/a	FR1	2	R1391T
1234.098	0.766	1240764	WORD_OFF	n/a	n/a	STEW	5	12	[0, 0, 0]	n/a	FR1	2	R1391T
1234.864	1.6	1241529	WORD	n/a	n/a	DITCH	6	12	[0, 0, 0]	n/a	FR1	2	R1391T
1236.464	0.917	1243130	WORD_OFF	n/a	n/a	DITCH	6	12	[0, 0, 0]	n/a	FR1	2	R1391T
1237.381	1.617	1244051	WORD	n/a	n/a	LAND	7	12	[0, 0, 0]	n/a	FR1	2	R1391T
1238.998	0.866	1245667	WORD_OFF	n/a	n/a	LAND	7	12	[0, 0, 0]	n/a	FR1	2	R1391T
1239.864	1.617	1246531	WORD	n/a	n/a	COAL	8	12	[0, 0, 0]	n/a	FR1	2	R1391T
1241.481	0.783	1248147	WORD_OFF	n/a	n/a	COAL	8	12	[0, 0, 0]	n/a	FR1	2	R1391T
1242.264	1.617	1248926	WORD	n/a	n/a	FROST	9	12	[0, 0, 0]	n/a	FR1	2	R1391T
1243.881	0.916	1250542	WORD_OFF	n/a	n/a	FROST	9	12	[0, 0, 0]	n/a	FR1	2	R1391T
1244.797	1.6	1251463	WORD	n/a	n/a	STAIR	10	12	[0, 0, 0]	n/a	FR1	2	R1391T
1246.397	0.917	1253064	WORD_OFF	n/a	n/a	STAIR	10	12	[0, 0, 0]	n/a	FR1	2	R1391T
1247.314	1.6	1253986	WORD	n/a	n/a	CHILD	11	12	[0, 0, 0]	n/a	FR1	2	R1391T
1248.914	1.0	1255573	WORD_OFF	n/a	n/a	CHILD	11	12	[0, 0, 0]	n/a	FR1	2	R1391T
1249.914	1.616	1256579	WORD	n/a	n/a	OWL	12	12	[0, 0, 0]	n/a	FR1	2	R1391T
1251.53	0.002	1258194	WORD_OFF	n/a	n/a	OWL	12	12	[0, 0, 0]	n/a	FR1	2	R1391T
1251.532	0.0	1258194	ENCODING_END	n/a	n/a	n/a	-999	12	[0, 0, 0]	n/a	FR1	2	R1391T
1251.532	0.0	1258194	DISTRACT_START	n/a	n/a	n/a	-999	12	[0, 0, 0]	n/a	FR1	2	R1391T
1251.531	0.001	1258195	PROB	0.001	n/a	n/a	-999	12	[8, 2, 7]	17	FR1	2	R1391T
1251.532	4.849	1258196	START	n/a	n/a	n/a	-999	12	[-999, -999, -999]	n/a	FR1	2	R1391T
1256.381	1.983	1263045	PROB	1.983	n/a	n/a	-999	12	[3, 7, 4]	14	FR1	2	R1391T
1258.364	2.1	1265028	PROB	2.1	n/a	n/a	-999	12	[4, 4, 1]	9	FR1	2	R1391T
1260.464	1.633	1267128	PROB	1.633	n/a	n/a	-999	12	[6, 1, 4]	11	FR1	2	R1391T
1262.097	1.934	1268761	PROB	1.934	n/a	n/a	-999	12	[1, 7, 1]	9	FR1	2	R1391T
1264.031	2.5	1270694	PROB	2.5	n/a	n/a	-999	12	[3, 3, 4]	10	FR1	2	R1391T
1266.531	1.999	1273194	PROB	1.999	n/a	n/a	-999	12	[4, 2, 6]	12	FR1	2	R1391T
1268.53	1.8	1275193	PROB	1.8	n/a	n/a	-999	12	[1, 4, 1]	6	FR1	2	R1391T
1270.33	5.217	1276993	PROB	5.217	n/a	n/a	-999	12	[7, 6, 6]	19	FR1	2	R1391T
1275.547	0.0	1282210	STOP	n/a	n/a	n/a	-999	12	[-999, -999, -999]	n/a	FR1	2	R1391T
1275.547	1.367	1282215	DISTRACT_END	n/a	n/a	n/a	-999	12	[0, 0, 0]	n/a	FR1	2	R1391T
1276.914	1.464	1283575	REC_START	n/a	n/a	n/a	-999	12	[0, 0, 0]	n/a	FR1	2	R1391T
1278.378	1.437	1285041	REC_WORD	1.437	n/a	SKI	1	12	[0, 0, 0]	n/a	FR1	2	R1391T
1279.815	1.469	1286478	REC_WORD	1.469	n/a	RIB	2	12	[0, 0, 0]	n/a	FR1	2	R1391T
1281.284	1.357	1287947	REC_WORD	1.357	n/a	HOUSE	3	12	[0, 0, 0]	n/a	FR1	2	R1391T
1282.641	24.561	1289303	REC_WORD	24.561	n/a	CONE	4	12	[0, 0, 0]	n/a	FR1	2	R1391T
1307.202	0.0	1313860	REC_END	n/a	n/a	n/a	-999	12	[0, 0, 0]	n/a	FR1	2	R1391T
