onset	duration	sample	trial_type	response_time	stim_file	item_name	serialpos	list	test	answer	experiment	session	subject
0.0	0.0	8090	INSTRUCT_START	n/a	n/a	n/a	-999	-999	[0, 0, 0]	n/a	FR1	1	R1156D
0.0	11.246	8090	INSTRUCT_END	n/a	n/a	n/a	-999	-999	[0, 0, 0]	n/a	FR1	1	R1156D
11.246	0.0	19336	SESS_START	n/a	n/a	n/a	-999	-999	[0, 0, 0]	n/a	FR1	1	R1156D
11.246	25.0	19336	MIC_TEST	n/a	n/a	n/a	-999	-999	[0, 0, 0]	n/a	FR1	1	R1156D
36.246	2.743	44334	PRACTICE_TRIAL	n/a	n/a	n/a	-999	-1	[0, 0, 0]	n/a	FR1	1	R1156D
38.989	10.428	47077	COUNTDOWN_START	n/a	n/a	n/a	-999	-1	[0, 0, 0]	n/a	FR1	1	R1156D
49.417	0.007	57505	COUNTDOWN_END	n/a	n/a	n/a	-999	-1	[0, 0, 0]	n/a	FR1	1	R1156D
49.424	1.618	57512	PRACTICE_ORIENT	n/a	n/a	n/a	-999	-1	[0, 0, 0]	n/a	FR1	1	R1156D
51.042	1.851	59130	PRACTICE_ORIENT_OFF	n/a	n/a	n/a	-999	-1	[0, 0, 0]	n/a	FR1	1	R1156D
52.893	1.616	60981	PRACTICE_WORD	n/a	n/a	RHINO	1	-1	[0, 0, 0]	n/a	FR1	1	R1156D
54.509	0.95	62596	PRACTICE_WORD_OFF	n/a	n/a	RHINO	-999	-1	[0, 0, 0]	n/a	FR1	1	R1156D
55.459	1.618	63546	PRACTICE_WORD	n/a	n/a	CHEST	2	-1	[0, 0, 0]	n/a	FR1	1	R1156D
57.077	0.883	65164	PRACTICE_WORD_OFF	n/a	n/a	CHEST	-999	-1	[0, 0, 0]	n/a	FR1	1	R1156D
57.96	1.616	66047	PRACTICE_WORD	n/a	n/a	COTTON	3	-1	[0, 0, 0]	n/a	FR1	1	R1156D
59.576	0.867	67663	PRACTICE_WORD_OFF	n/a	n/a	COTTON	-999	-1	[0, 0, 0]	n/a	FR1	1	R1156D
60.443	1.618	68530	PRACTICE_WORD	n/a	n/a	CAMEL	4	-1	[0, 0, 0]	n/a	FR1	1	R1156D
62.061	0.9	70148	PRACTICE_WORD_OFF	n/a	n/a	CAMEL	-999	-1	[0, 0, 0]	n/a	FR1	1	R1156D
62.961	1.616	71048	PRACTICE_WORD	n/a	n/a	IRON	5	-1	[0, 0, 0]	n/a	FR1	1	R1156D
64.577	0.817	72664	PRACTICE_WORD_OFF	n/a	n/a	IRON	-999	-1	[0, 0, 0]	n/a	FR1	1	R1156D
65.394	1.618	73481	PRACTICE_WORD	n/a	n/a	WATCH	6	-1	[0, 0, 0]	n/a	FR1	1	R1156D
67.012	0.766	75099	PRACTICE_WORD_OFF	n/a	n/a	WATCH	-999	-1	[0, 0, 0]	n/a	FR1	1	R1156D
67.778	1.617	75865	PRACTICE_WORD	n/a	n/a	BEAM	7	-1	[0, 0, 0]	n/a	FR1	1	R1156D
69.395	0.817	77482	PRACTICE_WORD_OFF	n/a	n/a	BEAM	-999	-1	[0, 0, 0]	n/a	FR1	1	R1156D
70.212	1.616	78299	PRACTICE_WORD	n/a	n/a	ATTIC	8	-1	[0, 0, 0]	n/a	FR1	1	R1156D
71.828	0.817	79915	PRACTICE_WORD_OFF	n/a	n/a	ATTIC	-999	-1	[0, 0, 0]	n/a	FR1	1	R1156D
72.645	1.601	80731	PRACTICE_WORD	n/a	n/a	FLOOD	9	-1	[0, 0, 0]	n/a	FR1	1	R1156D
74.246	0.967	82332	PRACTICE_WORD_OFF	n/a	n/a	FLOOD	-999	-1	[0, 0, 0]	n/a	FR1	1	R1156D
75.213	1.616	83299	PRACTICE_WORD	n/a	n/a	WAGON	10	-1	[0, 0, 0]	n/a	FR1	1	R1156D
76.829	0.884	84915	PRACTICE_WORD_OFF	n/a	n/a	WAGON	-999	-1	[0, 0, 0]	n/a	FR1	1	R1156D
77.713	1.617	85799	PRACTICE_WORD	n/a	n/a	TONGUE	11	-1	[0, 0, 0]	n/a	FR1	1	R1156D
79.33	0.801	87416	PRACTICE_WORD_OFF	n/a	n/a	TONGUE	-999	-1	[0, 0, 0]	n/a	FR1	1	R1156D
80.131	1.616	88217	PRACTICE_WORD	n/a	n/a	RING	12	-1	[0, 0, 0]	n/a	FR1	1	R1156D
81.747	0.0	89833	PRACTICE_WORD_OFF	n/a	n/a	RING	-999	-1	[0, 0, 0]	n/a	FR1	1	R1156D
81.747	0.0	89833	DISTRACT_START	n/a	n/a	n/a	-999	-1	[0, 0, 0]	n/a	FR1	1	R1156D
81.747	0.017	89833	START	n/a	n/a	n/a	-999	-1	[-999, -999, -999]	n/a	FR1	1	R1156D
81.764	8.185	89850	PROB	8.185	n/a	n/a	-999	-1	[4, 4, 9]	17	FR1	1	R1156D
89.949	3.833	98035	PROB	3.833	n/a	n/a	-999	-1	[8, 6, 6]	20	FR1	1	R1156D
93.782	4.152	101867	PROB	4.152	n/a	n/a	-999	-1	[6, 3, 1]	10	FR1	1	R1156D
97.934	6.948	106019	PROB	6.948	n/a	n/a	-999	-1	[9, 8, 1]	18	FR1	1	R1156D
104.882	0.02	112967	STOP	n/a	n/a	n/a	-999	-1	[-999, -999, -999]	n/a	FR1	1	R1156D
104.902	0.616	112987	DISTRACT_END	n/a	n/a	n/a	-999	-1	[0, 0, 0]	n/a	FR1	1	R1156D
105.518	0.519	113603	RETRIEVAL_ORIENT	n/a	n/a	n/a	-999	-1	[0, 0, 0]	n/a	FR1	1	R1156D
106.037	30.01	114122	PRACTICE_REC_START	n/a	n/a	n/a	-999	-1	[0, 0, 0]	n/a	FR1	1	R1156D
136.047	90.911	144130	PRACTICE_REC_END	n/a	n/a	n/a	-999	-1	[0, 0, 0]	n/a	FR1	1	R1156D
226.958	0.5	235036	TRIAL	n/a	n/a	n/a	-999	1	[0, 0, 0]	n/a	FR1	1	R1156D
227.458	10.428	235536	COUNTDOWN_START	n/a	n/a	n/a	-999	1	[0, 0, 0]	n/a	FR1	1	R1156D
237.886	0.007	245964	COUNTDOWN_END	n/a	n/a	n/a	-999	1	[0, 0, 0]	n/a	FR1	1	R1156D
237.893	1.616	245971	ORIENT	n/a	n/a	n/a	-999	1	[0, 0, 0]	n/a	FR1	1	R1156D
239.509	2.234	247587	ORIENT_OFF	n/a	n/a	n/a	-999	1	[0, 0, 0]	n/a	FR1	1	R1156D
241.743	1.617	249820	WORD	n/a	wordpools/wordpool_EN.txt	FILM	1	1	[0, 0, 0]	n/a	FR1	1	R1156D
243.36	0.901	251437	WORD_OFF	n/a	n/a	FILM	1	1	[0, 0, 0]	n/a	FR1	1	R1156D
244.261	1.617	252338	WORD	n/a	wordpools/wordpool_EN.txt	PLANE	2	1	[0, 0, 0]	n/a	FR1	1	R1156D
245.878	0.949	253955	WORD_OFF	n/a	n/a	PLANE	2	1	[0, 0, 0]	n/a	FR1	1	R1156D
246.827	1.617	254904	WORD	n/a	wordpools/wordpool_EN.txt	MAP	3	1	[0, 0, 0]	n/a	FR1	1	R1156D
248.444	0.883	256521	WORD_OFF	n/a	n/a	MAP	3	1	[0, 0, 0]	n/a	FR1	1	R1156D
249.327	1.618	257404	WORD	n/a	wordpools/wordpool_EN.txt	BRIDGE	4	1	[0, 0, 0]	n/a	FR1	1	R1156D
250.945	0.8	259022	WORD_OFF	n/a	n/a	BRIDGE	4	1	[0, 0, 0]	n/a	FR1	1	R1156D
251.745	1.617	259822	WORD	n/a	wordpools/wordpool_EN.txt	PRINCE	5	1	[0, 0, 0]	n/a	FR1	1	R1156D
253.362	0.901	261439	WORD_OFF	n/a	n/a	PRINCE	5	1	[0, 0, 0]	n/a	FR1	1	R1156D
254.263	1.617	262340	WORD	n/a	wordpools/wordpool_EN.txt	HEART	6	1	[0, 0, 0]	n/a	FR1	1	R1156D
255.88	0.832	263957	WORD_OFF	n/a	n/a	HEART	6	1	[0, 0, 0]	n/a	FR1	1	R1156D
256.712	1.617	264789	WORD	n/a	wordpools/wordpool_EN.txt	BEAR	7	1	[0, 0, 0]	n/a	FR1	1	R1156D
258.329	0.885	266405	WORD_OFF	n/a	n/a	BEAR	7	1	[0, 0, 0]	n/a	FR1	1	R1156D
259.214	1.616	267290	WORD	n/a	wordpools/wordpool_EN.txt	CASH	8	1	[0, 0, 0]	n/a	FR1	1	R1156D
260.83	1.0	268906	WORD_OFF	n/a	n/a	CASH	8	1	[0, 0, 0]	n/a	FR1	1	R1156D
261.83	1.617	269906	WORD	n/a	wordpools/wordpool_EN.txt	JET	9	1	[0, 0, 0]	n/a	FR1	1	R1156D
263.447	0.95	271523	WORD_OFF	n/a	n/a	JET	9	1	[0, 0, 0]	n/a	FR1	1	R1156D
264.397	1.618	272473	WORD	n/a	wordpools/wordpool_EN.txt	SCHOOL	10	1	[0, 0, 0]	n/a	FR1	1	R1156D
266.015	0.883	274091	WORD_OFF	n/a	n/a	SCHOOL	10	1	[0, 0, 0]	n/a	FR1	1	R1156D
266.898	1.616	274974	WORD	n/a	wordpools/wordpool_EN.txt	BLUSH	11	1	[0, 0, 0]	n/a	FR1	1	R1156D
268.514	0.867	276590	WORD_OFF	n/a	n/a	BLUSH	11	1	[0, 0, 0]	n/a	FR1	1	R1156D
269.381	1.618	277457	WORD	n/a	wordpools/wordpool_EN.txt	SMOKE	12	1	[0, 0, 0]	n/a	FR1	1	R1156D
270.999	0.0	279075	WORD_OFF	n/a	n/a	SMOKE	12	1	[0, 0, 0]	n/a	FR1	1	R1156D
270.999	0.001	279075	DISTRACT_START	n/a	n/a	n/a	-999	1	[0, 0, 0]	n/a	FR1	1	R1156D
271.0	0.016	279076	START	n/a	n/a	n/a	-999	1	[-999, -999, -999]	n/a	FR1	1	R1156D
271.016	5.433	279092	PROB	5.433	n/a	n/a	-999	1	[2, 7, 4]	13	FR1	1	R1156D
276.449	4.034	284525	PROB	4.034	n/a	n/a	-999	1	[4, 7, 5]	16	FR1	1	R1156D
280.483	5.935	288558	PROB	5.935	n/a	n/a	-999	1	[8, 7, 9]	24	FR1	1	R1156D
286.418	4.647	294493	PROB	4.647	n/a	n/a	-999	1	[8, 8, 9]	25	FR1	1	R1156D
291.065	0.021	299140	STOP	n/a	n/a	n/a	-999	1	[-999, -999, -999]	n/a	FR1	1	R1156D
291.086	0.583	299161	DISTRACT_END	n/a	n/a	n/a	-999	1	[0, 0, 0]	n/a	FR1	1	R1156D
291.669	0.518	299744	RETRIEVAL_ORIENT	n/a	n/a	n/a	-999	1	[0, 0, 0]	n/a	FR1	1	R1156D
292.187	1.27	300262	REC_START	n/a	n/a	n/a	-999	1	[0, 0, 0]	n/a	FR1	1	R1156D
293.457	0.835	301532	REC_WORD_VV	0.835	n/a	<>	-999	1	[0, 0, 0]	n/a	FR1	1	R1156D
294.292	3.085	302367	REC_WORD	3.085	n/a	CASH	8	1	[0, 0, 0]	n/a	FR1	1	R1156D
297.377	5.141	305451	REC_WORD	5.141	n/a	SMOKE	12	1	[0, 0, 0]	n/a	FR1	1	R1156D
302.518	0.934	310592	REC_WORD_VV	0.934	n/a	<>	-999	1	[0, 0, 0]	n/a	FR1	1	R1156D
303.452	3.256	311526	REC_WORD	3.256	n/a	PLANE	2	1	[0, 0, 0]	n/a	FR1	1	R1156D
306.708	1.0	314782	REC_WORD_VV	1.0	n/a	<>	-999	1	[0, 0, 0]	n/a	FR1	1	R1156D
307.708	4.441	315782	REC_WORD_VV	4.441	n/a	<>	-999	1	[0, 0, 0]	n/a	FR1	1	R1156D
312.149	1.684	320223	REC_WORD	1.684	n/a	PRINCE	5	1	[0, 0, 0]	n/a	FR1	1	R1156D
313.833	8.365	321906	REC_WORD	8.365	n/a	BEAR	7	1	[0, 0, 0]	n/a	FR1	1	R1156D
322.198	6.627	330271	REC_END	n/a	n/a	n/a	-999	1	[0, 0, 0]	n/a	FR1	1	R1156D
328.825	0.5	336898	TRIAL	n/a	n/a	n/a	-999	2	[0, 0, 0]	n/a	FR1	1	R1156D
329.325	10.428	337398	COUNTDOWN_START	n/a	n/a	n/a	-999	2	[0, 0, 0]	n/a	FR1	1	R1156D
339.753	0.008	347825	COUNTDOWN_END	n/a	n/a	n/a	-999	2	[0, 0, 0]	n/a	FR1	1	R1156D
339.761	1.617	347833	ORIENT	n/a	n/a	n/a	-999	2	[0, 0, 0]	n/a	FR1	1	R1156D
341.378	2.05	349450	ORIENT_OFF	n/a	n/a	n/a	-999	2	[0, 0, 0]	n/a	FR1	1	R1156D
343.428	1.618	351500	WORD	n/a	wordpools/wordpool_EN.txt	SEED	1	2	[0, 0, 0]	n/a	FR1	1	R1156D
345.046	0.867	353118	WORD_OFF	n/a	n/a	SEED	1	2	[0, 0, 0]	n/a	FR1	1	R1156D
345.913	1.616	353985	WORD	n/a	wordpools/wordpool_EN.txt	CORD	2	2	[0, 0, 0]	n/a	FR1	1	R1156D
347.529	0.833	355601	WORD_OFF	n/a	n/a	CORD	2	2	[0, 0, 0]	n/a	FR1	1	R1156D
348.362	1.618	356434	WORD	n/a	wordpools/wordpool_EN.txt	BEE	3	2	[0, 0, 0]	n/a	FR1	1	R1156D
349.98	0.783	358052	WORD_OFF	n/a	n/a	BEE	3	2	[0, 0, 0]	n/a	FR1	1	R1156D
350.763	1.617	358835	WORD	n/a	wordpools/wordpool_EN.txt	TOOL	4	2	[0, 0, 0]	n/a	FR1	1	R1156D
352.38	0.834	360451	WORD_OFF	n/a	n/a	TOOL	4	2	[0, 0, 0]	n/a	FR1	1	R1156D
353.214	1.616	361285	WORD	n/a	wordpools/wordpool_EN.txt	CAT	5	2	[0, 0, 0]	n/a	FR1	1	R1156D
354.83	1.0	362901	WORD_OFF	n/a	n/a	CAT	5	2	[0, 0, 0]	n/a	FR1	1	R1156D
355.83	1.617	363901	WORD	n/a	wordpools/wordpool_EN.txt	MOTH	6	2	[0, 0, 0]	n/a	FR1	1	R1156D
357.447	0.818	365518	WORD_OFF	n/a	n/a	MOTH	6	2	[0, 0, 0]	n/a	FR1	1	R1156D
358.265	1.617	366336	WORD	n/a	wordpools/wordpool_EN.txt	WORM	7	2	[0, 0, 0]	n/a	FR1	1	R1156D
359.882	0.849	367953	WORD_OFF	n/a	n/a	WORM	7	2	[0, 0, 0]	n/a	FR1	1	R1156D
360.731	1.617	368802	WORD	n/a	wordpools/wordpool_EN.txt	TRASH	8	2	[0, 0, 0]	n/a	FR1	1	R1156D
362.348	0.768	370419	WORD_OFF	n/a	n/a	TRASH	8	2	[0, 0, 0]	n/a	FR1	1	R1156D
363.116	1.616	371187	WORD	n/a	wordpools/wordpool_EN.txt	GLOVE	9	2	[0, 0, 0]	n/a	FR1	1	R1156D
364.732	0.983	372803	WORD_OFF	n/a	n/a	GLOVE	9	2	[0, 0, 0]	n/a	FR1	1	R1156D
365.715	1.617	373786	WORD	n/a	wordpools/wordpool_EN.txt	EGG	10	2	[0, 0, 0]	n/a	FR1	1	R1156D
367.332	0.785	375403	WORD_OFF	n/a	n/a	EGG	10	2	[0, 0, 0]	n/a	FR1	1	R1156D
368.117	1.616	376188	WORD	n/a	wordpools/wordpool_EN.txt	WEB	11	2	[0, 0, 0]	n/a	FR1	1	R1156D
369.733	0.95	377803	WORD_OFF	n/a	n/a	WEB	11	2	[0, 0, 0]	n/a	FR1	1	R1156D
370.683	1.617	378753	WORD	n/a	wordpools/wordpool_EN.txt	FLUTE	12	2	[0, 0, 0]	n/a	FR1	1	R1156D
372.3	0.0	380370	WORD_OFF	n/a	n/a	FLUTE	12	2	[0, 0, 0]	n/a	FR1	1	R1156D
372.3	0.0	380370	DISTRACT_START	n/a	n/a	n/a	-999	2	[0, 0, 0]	n/a	FR1	1	R1156D
372.3	0.017	380370	START	n/a	n/a	n/a	-999	2	[-999, -999, -999]	n/a	FR1	1	R1156D
372.317	5.735	380387	PROB	5.735	n/a	n/a	-999	2	[6, 5, 4]	15	FR1	1	R1156D
378.052	3.233	386122	PROB	3.233	n/a	n/a	-999	2	[5, 4, 6]	15	FR1	1	R1156D
381.285	4.017	389355	PROB	4.017	n/a	n/a	-999	2	[9, 6, 6]	21	FR1	1	R1156D
385.302	5.852	393372	PROB	5.852	n/a	n/a	-999	2	[8, 7, 5]	20	FR1	1	R1156D
391.154	5.318	399223	PROB	5.318	n/a	n/a	-999	2	[7, 6, 6]	19	FR1	1	R1156D
396.472	0.016	404541	STOP	n/a	n/a	n/a	-999	2	[-999, -999, -999]	n/a	FR1	1	R1156D
396.488	0.584	404557	DISTRACT_END	n/a	n/a	n/a	-999	2	[0, 0, 0]	n/a	FR1	1	R1156D
397.072	0.517	405141	RETRIEVAL_ORIENT	n/a	n/a	n/a	-999	2	[0, 0, 0]	n/a	FR1	1	R1156D
397.589	1.046	405658	REC_START	n/a	n/a	n/a	-999	2	[0, 0, 0]	n/a	FR1	1	R1156D
398.635	7.834	406704	REC_WORD_VV	7.834	n/a	<>	-999	2	[0, 0, 0]	n/a	FR1	1	R1156D
406.469	1.0	414538	REC_WORD_VV	1.0	n/a	<>	-999	2	[0, 0, 0]	n/a	FR1	1	R1156D
407.469	3.872	415537	REC_WORD_VV	3.872	n/a	<>	-999	2	[0, 0, 0]	n/a	FR1	1	R1156D
411.341	5.236	419409	REC_WORD	5.236	n/a	CAT	5	2	[0, 0, 0]	n/a	FR1	1	R1156D
416.577	11.02	424645	REC_WORD	11.02	n/a	TOOL	4	2	[0, 0, 0]	n/a	FR1	1	R1156D
427.597	5.897	435664	REC_END	n/a	n/a	n/a	-999	2	[0, 0, 0]	n/a	FR1	1	R1156D
433.494	0.5	441561	TRIAL	n/a	n/a	n/a	-999	3	[0, 0, 0]	n/a	FR1	1	R1156D
433.994	10.428	442061	COUNTDOWN_START	n/a	n/a	n/a	-999	3	[0, 0, 0]	n/a	FR1	1	R1156D
444.422	0.008	452488	COUNTDOWN_END	n/a	n/a	n/a	-999	3	[0, 0, 0]	n/a	FR1	1	R1156D
444.43	1.618	452496	ORIENT	n/a	n/a	n/a	-999	3	[0, 0, 0]	n/a	FR1	1	R1156D
446.048	1.983	454114	ORIENT_OFF	n/a	n/a	n/a	-999	3	[0, 0, 0]	n/a	FR1	1	R1156D
448.031	1.616	456097	WORD	n/a	wordpools/wordpool_EN.txt	BROOM	1	3	[0, 0, 0]	n/a	FR1	1	R1156D
449.647	0.934	457713	WORD_OFF	n/a	n/a	BROOM	1	3	[0, 0, 0]	n/a	FR1	1	R1156D
450.581	1.618	458647	WORD	n/a	wordpools/wordpool_EN.txt	BED	2	3	[0, 0, 0]	n/a	FR1	1	R1156D
452.199	0.867	460265	WORD_OFF	n/a	n/a	BED	2	3	[0, 0, 0]	n/a	FR1	1	R1156D
453.066	1.616	461132	WORD	n/a	wordpools/wordpool_EN.txt	BAG	3	3	[0, 0, 0]	n/a	FR1	1	R1156D
454.682	0.916	462748	WORD_OFF	n/a	n/a	BAG	3	3	[0, 0, 0]	n/a	FR1	1	R1156D
455.598	1.618	463664	WORD	n/a	wordpools/wordpool_EN.txt	HAND	4	3	[0, 0, 0]	n/a	FR1	1	R1156D
457.216	0.984	465282	WORD_OFF	n/a	n/a	HAND	4	3	[0, 0, 0]	n/a	FR1	1	R1156D
458.2	1.616	466266	WORD	n/a	wordpools/wordpool_EN.txt	COUCH	5	3	[0, 0, 0]	n/a	FR1	1	R1156D
459.816	0.85	467882	WORD_OFF	n/a	n/a	COUCH	5	3	[0, 0, 0]	n/a	FR1	1	R1156D
460.666	1.617	468732	WORD	n/a	wordpools/wordpool_EN.txt	LOCK	6	3	[0, 0, 0]	n/a	FR1	1	R1156D
462.283	0.901	470349	WORD_OFF	n/a	n/a	LOCK	6	3	[0, 0, 0]	n/a	FR1	1	R1156D
463.184	1.616	471249	WORD	n/a	wordpools/wordpool_EN.txt	PIE	7	3	[0, 0, 0]	n/a	FR1	1	R1156D
464.8	0.967	472865	WORD_OFF	n/a	n/a	PIE	7	3	[0, 0, 0]	n/a	FR1	1	R1156D
465.767	1.617	473832	WORD	n/a	wordpools/wordpool_EN.txt	FAN	8	3	[0, 0, 0]	n/a	FR1	1	R1156D
467.384	0.851	475449	WORD_OFF	n/a	n/a	FAN	8	3	[0, 0, 0]	n/a	FR1	1	R1156D
468.235	1.616	476300	WORD	n/a	wordpools/wordpool_EN.txt	CAGE	9	3	[0, 0, 0]	n/a	FR1	1	R1156D
469.851	0.934	477916	WORD_OFF	n/a	n/a	CAGE	9	3	[0, 0, 0]	n/a	FR1	1	R1156D
470.785	1.617	478850	WORD	n/a	wordpools/wordpool_EN.txt	CAKE	10	3	[0, 0, 0]	n/a	FR1	1	R1156D
472.402	0.801	480467	WORD_OFF	n/a	n/a	CAKE	10	3	[0, 0, 0]	n/a	FR1	1	R1156D
473.203	1.616	481268	WORD	n/a	wordpools/wordpool_EN.txt	FLOOR	11	3	[0, 0, 0]	n/a	FR1	1	R1156D
474.819	0.933	482884	WORD_OFF	n/a	n/a	FLOOR	11	3	[0, 0, 0]	n/a	FR1	1	R1156D
475.752	1.617	483817	WORD	n/a	wordpools/wordpool_EN.txt	ARK	12	3	[0, 0, 0]	n/a	FR1	1	R1156D
477.369	0.0	485434	WORD_OFF	n/a	n/a	ARK	12	3	[0, 0, 0]	n/a	FR1	1	R1156D
477.369	0.001	485434	DISTRACT_START	n/a	n/a	n/a	-999	3	[0, 0, 0]	n/a	FR1	1	R1156D
477.37	0.016	485435	START	n/a	n/a	n/a	-999	3	[-999, -999, -999]	n/a	FR1	1	R1156D
477.386	4.818	485451	PROB	4.818	n/a	n/a	-999	3	[2, 9, 2]	13	FR1	1	R1156D
482.204	3.851	490268	PROB	3.851	n/a	n/a	-999	3	[6, 6, 6]	18	FR1	1	R1156D
486.055	7.367	494119	PROB	7.367	n/a	n/a	-999	3	[8, 9, 8]	25	FR1	1	R1156D
493.422	4.147	501486	PROB	4.147	n/a	n/a	-999	3	[7, 2, 4]	13	FR1	1	R1156D
497.569	0.021	505633	STOP	n/a	n/a	n/a	-999	3	[-999, -999, -999]	n/a	FR1	1	R1156D
497.59	0.567	505654	DISTRACT_END	n/a	n/a	n/a	-999	3	[0, 0, 0]	n/a	FR1	1	R1156D
498.157	0.517	506221	RETRIEVAL_ORIENT	n/a	n/a	n/a	-999	3	[0, 0, 0]	n/a	FR1	1	R1156D
498.674	2.668	506738	REC_START	n/a	n/a	n/a	-999	3	[0, 0, 0]	n/a	FR1	1	R1156D
501.342	2.148	509405	REC_WORD	2.148	n/a	BAG	3	3	[0, 0, 0]	n/a	FR1	1	R1156D
503.49	1.248	511553	REC_WORD	1.248	n/a	CAGE	9	3	[0, 0, 0]	n/a	FR1	1	R1156D
504.738	2.28	512801	REC_WORD	2.28	n/a	CAKE	10	3	[0, 0, 0]	n/a	FR1	1	R1156D
507.018	1.091	515081	REC_WORD	1.091	n/a	HAND	4	3	[0, 0, 0]	n/a	FR1	1	R1156D
508.109	16.55	516172	REC_WORD	16.55	n/a	FAN	8	3	[0, 0, 0]	n/a	FR1	1	R1156D
524.659	4.027	532721	REC_WORD	4.027	n/a	ARK	12	3	[0, 0, 0]	n/a	FR1	1	R1156D
528.686	6.378	536748	REC_END	n/a	n/a	n/a	-999	3	[0, 0, 0]	n/a	FR1	1	R1156D
535.064	0.5	543126	TRIAL	n/a	n/a	n/a	-999	4	[0, 0, 0]	n/a	FR1	1	R1156D
535.564	10.428	543626	COUNTDOWN_START	n/a	n/a	n/a	-999	4	[0, 0, 0]	n/a	FR1	1	R1156D
545.992	0.007	554053	COUNTDOWN_END	n/a	n/a	n/a	-999	4	[0, 0, 0]	n/a	FR1	1	R1156D
545.999	1.616	554060	ORIENT	n/a	n/a	n/a	-999	4	[0, 0, 0]	n/a	FR1	1	R1156D
547.615	2.001	555676	ORIENT_OFF	n/a	n/a	n/a	-999	4	[0, 0, 0]	n/a	FR1	1	R1156D
549.616	1.618	557677	WORD	n/a	wordpools/wordpool_EN.txt	ICE	1	4	[0, 0, 0]	n/a	FR1	1	R1156D
551.234	0.766	559295	WORD_OFF	n/a	n/a	ICE	1	4	[0, 0, 0]	n/a	FR1	1	R1156D
552.0	1.616	560061	WORD	n/a	wordpools/wordpool_EN.txt	STEAM	2	4	[0, 0, 0]	n/a	FR1	1	R1156D
553.616	0.834	561677	WORD_OFF	n/a	n/a	STEAM	2	4	[0, 0, 0]	n/a	FR1	1	R1156D
554.45	1.618	562511	WORD	n/a	wordpools/wordpool_EN.txt	SHELL	3	4	[0, 0, 0]	n/a	FR1	1	R1156D
556.068	0.917	564128	WORD_OFF	n/a	n/a	SHELL	3	4	[0, 0, 0]	n/a	FR1	1	R1156D
556.985	1.616	565045	WORD	n/a	wordpools/wordpool_EN.txt	STONE	4	4	[0, 0, 0]	n/a	FR1	1	R1156D
558.601	0.866	566661	WORD_OFF	n/a	n/a	STONE	4	4	[0, 0, 0]	n/a	FR1	1	R1156D
559.467	1.618	567527	WORD	n/a	wordpools/wordpool_EN.txt	BRICK	5	4	[0, 0, 0]	n/a	FR1	1	R1156D
561.085	0.951	569145	WORD_OFF	n/a	n/a	BRICK	5	4	[0, 0, 0]	n/a	FR1	1	R1156D
562.036	1.616	570096	WORD	n/a	wordpools/wordpool_EN.txt	DIME	6	4	[0, 0, 0]	n/a	FR1	1	R1156D
563.652	0.883	571712	WORD_OFF	n/a	n/a	DIME	6	4	[0, 0, 0]	n/a	FR1	1	R1156D
564.535	1.618	572595	WORD	n/a	wordpools/wordpool_EN.txt	FORT	7	4	[0, 0, 0]	n/a	FR1	1	R1156D
566.153	0.817	574213	WORD_OFF	n/a	n/a	FORT	7	4	[0, 0, 0]	n/a	FR1	1	R1156D
566.97	1.616	575030	WORD	n/a	wordpools/wordpool_EN.txt	FROG	8	4	[0, 0, 0]	n/a	FR1	1	R1156D
568.586	1.0	576646	WORD_OFF	n/a	n/a	FROG	8	4	[0, 0, 0]	n/a	FR1	1	R1156D
569.586	1.618	577646	WORD	n/a	wordpools/wordpool_EN.txt	CONE	9	4	[0, 0, 0]	n/a	FR1	1	R1156D
571.204	0.833	579264	WORD_OFF	n/a	n/a	CONE	9	4	[0, 0, 0]	n/a	FR1	1	R1156D
572.037	1.616	580097	WORD	n/a	wordpools/wordpool_EN.txt	CHIEF	10	4	[0, 0, 0]	n/a	FR1	1	R1156D
573.653	1.001	581713	WORD_OFF	n/a	n/a	CHIEF	10	4	[0, 0, 0]	n/a	FR1	1	R1156D
574.654	1.618	582713	WORD	n/a	wordpools/wordpool_EN.txt	SPARK	11	4	[0, 0, 0]	n/a	FR1	1	R1156D
576.272	0.85	584331	WORD_OFF	n/a	n/a	SPARK	11	4	[0, 0, 0]	n/a	FR1	1	R1156D
577.122	1.616	585181	WORD	n/a	wordpools/wordpool_EN.txt	SALT	12	4	[0, 0, 0]	n/a	FR1	1	R1156D
578.738	0.0	586797	WORD_OFF	n/a	n/a	SALT	12	4	[0, 0, 0]	n/a	FR1	1	R1156D
578.738	0.0	586797	DISTRACT_START	n/a	n/a	n/a	-999	4	[0, 0, 0]	n/a	FR1	1	R1156D
578.738	0.016	586797	START	n/a	n/a	n/a	-999	4	[-999, -999, -999]	n/a	FR1	1	R1156D
578.754	6.568	586813	PROB	6.568	n/a	n/a	-999	4	[9, 3, 1]	13	FR1	1	R1156D
585.322	3.334	593381	PROB	3.334	n/a	n/a	-999	4	[9, 7, 3]	19	FR1	1	R1156D
588.656	4.968	596715	PROB	4.968	n/a	n/a	-999	4	[8, 3, 5]	16	FR1	1	R1156D
593.624	2.167	601682	PROB	2.167	n/a	n/a	-999	4	[7, 3, 1]	11	FR1	1	R1156D
595.791	2.017	603849	PROB	2.017	n/a	n/a	-999	4	[2, 6, 6]	13	FR1	1	R1156D
597.808	6.472	605866	PROB	6.472	n/a	n/a	-999	4	[9, 4, 9]	22	FR1	1	R1156D
604.28	0.012	612338	STOP	n/a	n/a	n/a	-999	4	[-999, -999, -999]	n/a	FR1	1	R1156D
604.292	0.701	612350	DISTRACT_END	n/a	n/a	n/a	-999	4	[0, 0, 0]	n/a	FR1	1	R1156D
604.993	0.517	613051	RETRIEVAL_ORIENT	n/a	n/a	n/a	-999	4	[0, 0, 0]	n/a	FR1	1	R1156D
605.51	1.897	613568	REC_START	n/a	n/a	n/a	-999	4	[0, 0, 0]	n/a	FR1	1	R1156D
607.407	3.856	615465	REC_WORD	3.856	n/a	CONE	9	4	[0, 0, 0]	n/a	FR1	1	R1156D
611.263	1.605	619320	REC_WORD	1.605	n/a	ICE	1	4	[0, 0, 0]	n/a	FR1	1	R1156D
612.868	9.658	620925	REC_WORD	9.658	n/a	STEAM	2	4	[0, 0, 0]	n/a	FR1	1	R1156D
622.526	12.995	630583	REC_WORD	12.995	n/a	FORT	7	4	[0, 0, 0]	n/a	FR1	1	R1156D
635.521	5.878	643577	REC_END	n/a	n/a	n/a	-999	4	[0, 0, 0]	n/a	FR1	1	R1156D
641.399	0.5	649455	TRIAL	n/a	n/a	n/a	-999	5	[0, 0, 0]	n/a	FR1	1	R1156D
641.899	10.428	649955	COUNTDOWN_START	n/a	n/a	n/a	-999	5	[0, 0, 0]	n/a	FR1	1	R1156D
652.327	0.007	660382	COUNTDOWN_END	n/a	n/a	n/a	-999	5	[0, 0, 0]	n/a	FR1	1	R1156D
652.334	1.602	660389	ORIENT	n/a	n/a	n/a	-999	5	[0, 0, 0]	n/a	FR1	1	R1156D
653.936	2.1	661991	ORIENT_OFF	n/a	n/a	n/a	-999	5	[0, 0, 0]	n/a	FR1	1	R1156D
656.036	1.616	664091	WORD	n/a	wordpools/wordpool_EN.txt	CALF	1	5	[0, 0, 0]	n/a	FR1	1	R1156D
657.652	0.884	665707	WORD_OFF	n/a	n/a	CALF	1	5	[0, 0, 0]	n/a	FR1	1	R1156D
658.536	1.617	666591	WORD	n/a	wordpools/wordpool_EN.txt	DITCH	2	5	[0, 0, 0]	n/a	FR1	1	R1156D
660.153	0.767	668208	WORD_OFF	n/a	n/a	DITCH	2	5	[0, 0, 0]	n/a	FR1	1	R1156D
660.92	1.616	668975	WORD	n/a	wordpools/wordpool_EN.txt	VINE	3	5	[0, 0, 0]	n/a	FR1	1	R1156D
662.536	0.801	670591	WORD_OFF	n/a	n/a	VINE	3	5	[0, 0, 0]	n/a	FR1	1	R1156D
663.337	1.617	671392	WORD	n/a	wordpools/wordpool_EN.txt	SUN	4	5	[0, 0, 0]	n/a	FR1	1	R1156D
664.954	1.017	673009	WORD_OFF	n/a	n/a	SUN	4	5	[0, 0, 0]	n/a	FR1	1	R1156D
665.971	1.616	674026	WORD	n/a	wordpools/wordpool_EN.txt	PEA	5	5	[0, 0, 0]	n/a	FR1	1	R1156D
667.587	0.867	675641	WORD_OFF	n/a	n/a	PEA	5	5	[0, 0, 0]	n/a	FR1	1	R1156D
668.454	1.618	676508	WORD	n/a	wordpools/wordpool_EN.txt	HILL	6	5	[0, 0, 0]	n/a	FR1	1	R1156D
670.072	0.884	678126	WORD_OFF	n/a	n/a	HILL	6	5	[0, 0, 0]	n/a	FR1	1	R1156D
670.956	1.615	679010	WORD	n/a	wordpools/wordpool_EN.txt	PIN	7	5	[0, 0, 0]	n/a	FR1	1	R1156D
672.571	0.901	680625	WORD_OFF	n/a	n/a	PIN	7	5	[0, 0, 0]	n/a	FR1	1	R1156D
673.472	1.618	681526	WORD	n/a	wordpools/wordpool_EN.txt	HOLE	8	5	[0, 0, 0]	n/a	FR1	1	R1156D
675.09	0.816	683144	WORD_OFF	n/a	n/a	HOLE	8	5	[0, 0, 0]	n/a	FR1	1	R1156D
675.906	1.616	683960	WORD	n/a	wordpools/wordpool_EN.txt	HOOK	9	5	[0, 0, 0]	n/a	FR1	1	R1156D
677.522	1.001	685576	WORD_OFF	n/a	n/a	HOOK	9	5	[0, 0, 0]	n/a	FR1	1	R1156D
678.523	1.618	686577	WORD	n/a	wordpools/wordpool_EN.txt	BRUSH	10	5	[0, 0, 0]	n/a	FR1	1	R1156D
680.141	0.816	688195	WORD_OFF	n/a	n/a	BRUSH	10	5	[0, 0, 0]	n/a	FR1	1	R1156D
680.957	1.616	689011	WORD	n/a	wordpools/wordpool_EN.txt	FOX	11	5	[0, 0, 0]	n/a	FR1	1	R1156D
682.573	0.917	690627	WORD_OFF	n/a	n/a	FOX	11	5	[0, 0, 0]	n/a	FR1	1	R1156D
683.49	1.618	691544	WORD	n/a	wordpools/wordpool_EN.txt	PALM	12	5	[0, 0, 0]	n/a	FR1	1	R1156D
685.108	0.0	693162	WORD_OFF	n/a	n/a	PALM	12	5	[0, 0, 0]	n/a	FR1	1	R1156D
685.108	0.001	693162	DISTRACT_START	n/a	n/a	n/a	-999	5	[0, 0, 0]	n/a	FR1	1	R1156D
685.109	0.016	693163	START	n/a	n/a	n/a	-999	5	[-999, -999, -999]	n/a	FR1	1	R1156D
685.125	4.101	693179	PROB	4.101	n/a	n/a	-999	5	[2, 4, 6]	12	FR1	1	R1156D
689.226	3.599	697279	PROB	3.599	n/a	n/a	-999	5	[9, 7, 5]	21	FR1	1	R1156D
692.825	4.219	700878	PROB	4.219	n/a	n/a	-999	5	[4, 9, 8]	21	FR1	1	R1156D
697.044	5.333	705097	PROB	5.333	n/a	n/a	-999	5	[3, 2, 4]	9	FR1	1	R1156D
702.377	2.3	710430	PROB	2.3	n/a	n/a	-999	5	[1, 1, 1]	3	FR1	1	R1156D
704.677	3.253	712729	PROB	3.253	n/a	n/a	-999	5	[5, 5, 7]	17	FR1	1	R1156D
707.93	0.016	715982	STOP	n/a	n/a	n/a	-999	5	[-999, -999, -999]	n/a	FR1	1	R1156D
707.946	0.515	715998	DISTRACT_END	n/a	n/a	n/a	-999	5	[0, 0, 0]	n/a	FR1	1	R1156D
708.461	0.519	716513	RETRIEVAL_ORIENT	n/a	n/a	n/a	-999	5	[0, 0, 0]	n/a	FR1	1	R1156D
708.98	1.524	717032	REC_START	n/a	n/a	n/a	-999	5	[0, 0, 0]	n/a	FR1	1	R1156D
710.504	1.0	718556	REC_WORD_VV	1.0	n/a	<>	-999	5	[0, 0, 0]	n/a	FR1	1	R1156D
711.504	7.006	719556	REC_WORD_VV	7.006	n/a	<>	-999	5	[0, 0, 0]	n/a	FR1	1	R1156D
718.51	1.0	726562	REC_WORD_VV	1.0	n/a	<>	-999	5	[0, 0, 0]	n/a	FR1	1	R1156D
719.51	10.801	727562	REC_WORD_VV	10.801	n/a	<>	-999	5	[0, 0, 0]	n/a	FR1	1	R1156D
730.311	0.929	738362	REC_WORD	0.929	n/a	COIN	-999	5	[0, 0, 0]	n/a	FR1	1	R1156D
731.24	7.751	739291	REC_WORD_VV	7.751	n/a	<>	-999	5	[0, 0, 0]	n/a	FR1	1	R1156D
738.991	9.678	747042	REC_END	n/a	n/a	n/a	-999	5	[0, 0, 0]	n/a	FR1	1	R1156D
748.669	0.5	756719	TRIAL	n/a	n/a	n/a	-999	6	[0, 0, 0]	n/a	FR1	1	R1156D
749.169	10.428	757219	COUNTDOWN_START	n/a	n/a	n/a	-999	6	[0, 0, 0]	n/a	FR1	1	R1156D
759.597	0.007	767646	COUNTDOWN_END	n/a	n/a	n/a	-999	6	[0, 0, 0]	n/a	FR1	1	R1156D
759.604	1.618	767653	ORIENT	n/a	n/a	n/a	-999	6	[0, 0, 0]	n/a	FR1	1	R1156D
761.222	2.116	769271	ORIENT_OFF	n/a	n/a	n/a	-999	6	[0, 0, 0]	n/a	FR1	1	R1156D
763.338	1.601	771387	WORD	n/a	wordpools/wordpool_EN.txt	HOUSE	1	6	[0, 0, 0]	n/a	FR1	1	R1156D
764.939	1.001	772988	WORD_OFF	n/a	n/a	HOUSE	1	6	[0, 0, 0]	n/a	FR1	1	R1156D
765.94	1.616	773989	WORD	n/a	wordpools/wordpool_EN.txt	MOLE	2	6	[0, 0, 0]	n/a	FR1	1	R1156D
767.556	1.016	775605	WORD_OFF	n/a	n/a	MOLE	2	6	[0, 0, 0]	n/a	FR1	1	R1156D
768.572	1.601	776621	WORD	n/a	wordpools/wordpool_EN.txt	TOAD	3	6	[0, 0, 0]	n/a	FR1	1	R1156D
770.173	0.868	778222	WORD_OFF	n/a	n/a	TOAD	3	6	[0, 0, 0]	n/a	FR1	1	R1156D
771.041	1.615	779090	WORD	n/a	wordpools/wordpool_EN.txt	EAR	4	6	[0, 0, 0]	n/a	FR1	1	R1156D
772.656	0.817	780705	WORD_OFF	n/a	n/a	EAR	4	6	[0, 0, 0]	n/a	FR1	1	R1156D
773.473	1.601	781522	WORD	n/a	wordpools/wordpool_EN.txt	MUG	5	6	[0, 0, 0]	n/a	FR1	1	R1156D
775.074	0.917	783123	WORD_OFF	n/a	n/a	MUG	5	6	[0, 0, 0]	n/a	FR1	1	R1156D
775.991	1.616	784040	WORD	n/a	wordpools/wordpool_EN.txt	DRUM	6	6	[0, 0, 0]	n/a	FR1	1	R1156D
777.607	0.867	785656	WORD_OFF	n/a	n/a	DRUM	6	6	[0, 0, 0]	n/a	FR1	1	R1156D
778.474	1.601	786522	WORD	n/a	wordpools/wordpool_EN.txt	HAWK	7	6	[0, 0, 0]	n/a	FR1	1	R1156D
780.075	0.784	788123	WORD_OFF	n/a	n/a	HAWK	7	6	[0, 0, 0]	n/a	FR1	1	R1156D
780.859	1.616	788907	WORD	n/a	wordpools/wordpool_EN.txt	WAND	8	6	[0, 0, 0]	n/a	FR1	1	R1156D
782.475	0.867	790523	WORD_OFF	n/a	n/a	WAND	8	6	[0, 0, 0]	n/a	FR1	1	R1156D
783.342	1.618	791390	WORD	n/a	wordpools/wordpool_EN.txt	PIG	9	6	[0, 0, 0]	n/a	FR1	1	R1156D
784.96	0.9	793008	WORD_OFF	n/a	n/a	PIG	9	6	[0, 0, 0]	n/a	FR1	1	R1156D
785.86	1.616	793908	WORD	n/a	wordpools/wordpool_EN.txt	STRING	10	6	[0, 0, 0]	n/a	FR1	1	R1156D
787.476	0.917	795524	WORD_OFF	n/a	n/a	STRING	10	6	[0, 0, 0]	n/a	FR1	1	R1156D
788.393	1.618	796441	WORD	n/a	wordpools/wordpool_EN.txt	SMILE	11	6	[0, 0, 0]	n/a	FR1	1	R1156D
790.011	1.0	798059	WORD_OFF	n/a	n/a	SMILE	11	6	[0, 0, 0]	n/a	FR1	1	R1156D
791.011	1.616	799059	WORD	n/a	wordpools/wordpool_EN.txt	BUSH	12	6	[0, 0, 0]	n/a	FR1	1	R1156D
792.627	0.0	800675	WORD_OFF	n/a	n/a	BUSH	12	6	[0, 0, 0]	n/a	FR1	1	R1156D
792.627	0.0	800675	DISTRACT_START	n/a	n/a	n/a	-999	6	[0, 0, 0]	n/a	FR1	1	R1156D
792.627	0.016	800675	START	n/a	n/a	n/a	-999	6	[-999, -999, -999]	n/a	FR1	1	R1156D
792.643	4.135	800691	PROB	4.135	n/a	n/a	-999	6	[1, 8, 4]	13	FR1	1	R1156D
796.778	3.8	804825	PROB	3.8	n/a	n/a	-999	6	[2, 7, 8]	17	FR1	1	R1156D
800.578	6.286	808625	PROB	6.286	n/a	n/a	-999	6	[8, 5, 7]	20	FR1	1	R1156D
806.864	4.583	814911	PROB	4.583	n/a	n/a	-999	6	[4, 7, 8]	19	FR1	1	R1156D
811.447	3.914	819494	PROB	3.914	n/a	n/a	-999	6	[6, 2, 9]	17	FR1	1	R1156D
815.361	0.02	823407	STOP	n/a	n/a	n/a	-999	6	[-999, -999, -999]	n/a	FR1	1	R1156D
815.381	0.701	823427	DISTRACT_END	n/a	n/a	n/a	-999	6	[0, 0, 0]	n/a	FR1	1	R1156D
816.082	0.516	824128	RETRIEVAL_ORIENT	n/a	n/a	n/a	-999	6	[0, 0, 0]	n/a	FR1	1	R1156D
816.598	2.404	824644	REC_START	n/a	n/a	n/a	-999	6	[0, 0, 0]	n/a	FR1	1	R1156D
819.002	8.572	827048	REC_WORD_VV	8.572	n/a	<>	-999	6	[0, 0, 0]	n/a	FR1	1	R1156D
827.574	2.762	835620	REC_WORD_VV	2.762	n/a	<>	-999	6	[0, 0, 0]	n/a	FR1	1	R1156D
830.336	4.155	838382	REC_WORD_VV	4.155	n/a	<>	-999	6	[0, 0, 0]	n/a	FR1	1	R1156D
834.491	3.772	842536	REC_WORD	3.772	n/a	BRUSH	-999	6	[0, 0, 0]	n/a	FR1	1	R1156D
838.263	8.346	846308	REC_WORD_VV	8.346	n/a	<>	-999	6	[0, 0, 0]	n/a	FR1	1	R1156D
846.609	19.616	854654	REC_END	n/a	n/a	n/a	-999	6	[0, 0, 0]	n/a	FR1	1	R1156D
866.225	0.5	874269	TRIAL	n/a	n/a	n/a	-999	7	[0, 0, 0]	n/a	FR1	1	R1156D
866.725	10.428	874769	COUNTDOWN_START	n/a	n/a	n/a	-999	7	[0, 0, 0]	n/a	FR1	1	R1156D
877.153	0.007	885196	COUNTDOWN_END	n/a	n/a	n/a	-999	7	[0, 0, 0]	n/a	FR1	1	R1156D
877.16	1.616	885203	ORIENT	n/a	n/a	n/a	-999	7	[0, 0, 0]	n/a	FR1	1	R1156D
878.776	2.318	886819	ORIENT_OFF	n/a	n/a	n/a	-999	7	[0, 0, 0]	n/a	FR1	1	R1156D
881.094	1.616	889137	WORD	n/a	wordpools/wordpool_EN.txt	FLAME	1	7	[0, 0, 0]	n/a	FR1	1	R1156D
882.71	0.767	890753	WORD_OFF	n/a	n/a	FLAME	1	7	[0, 0, 0]	n/a	FR1	1	R1156D
883.477	1.618	891520	WORD	n/a	wordpools/wordpool_EN.txt	HOSE	2	7	[0, 0, 0]	n/a	FR1	1	R1156D
885.095	0.867	893138	WORD_OFF	n/a	n/a	HOSE	2	7	[0, 0, 0]	n/a	FR1	1	R1156D
885.962	1.616	894005	WORD	n/a	wordpools/wordpool_EN.txt	SOAP	3	7	[0, 0, 0]	n/a	FR1	1	R1156D
887.578	0.783	895621	WORD_OFF	n/a	n/a	SOAP	3	7	[0, 0, 0]	n/a	FR1	1	R1156D
888.361	1.618	896404	WORD	n/a	wordpools/wordpool_EN.txt	LAMP	4	7	[0, 0, 0]	n/a	FR1	1	R1156D
889.979	0.849	898021	WORD_OFF	n/a	n/a	LAMP	4	7	[0, 0, 0]	n/a	FR1	1	R1156D
890.828	1.617	898870	WORD	n/a	wordpools/wordpool_EN.txt	SLUSH	5	7	[0, 0, 0]	n/a	FR1	1	R1156D
892.445	0.917	900487	WORD_OFF	n/a	n/a	SLUSH	5	7	[0, 0, 0]	n/a	FR1	1	R1156D
893.362	1.601	901404	WORD	n/a	wordpools/wordpool_EN.txt	STAIR	6	7	[0, 0, 0]	n/a	FR1	1	R1156D
894.963	0.917	903005	WORD_OFF	n/a	n/a	STAIR	6	7	[0, 0, 0]	n/a	FR1	1	R1156D
895.88	1.616	903922	WORD	n/a	wordpools/wordpool_EN.txt	ROPE	7	7	[0, 0, 0]	n/a	FR1	1	R1156D
897.496	0.967	905538	WORD_OFF	n/a	n/a	ROPE	7	7	[0, 0, 0]	n/a	FR1	1	R1156D
898.463	1.618	906505	WORD	n/a	wordpools/wordpool_EN.txt	STOVE	8	7	[0, 0, 0]	n/a	FR1	1	R1156D
900.081	0.766	908123	WORD_OFF	n/a	n/a	STOVE	8	7	[0, 0, 0]	n/a	FR1	1	R1156D
900.847	1.617	908889	WORD	n/a	wordpools/wordpool_EN.txt	SINK	9	7	[0, 0, 0]	n/a	FR1	1	R1156D
902.464	0.95	910506	WORD_OFF	n/a	n/a	SINK	9	7	[0, 0, 0]	n/a	FR1	1	R1156D
903.414	1.618	911456	WORD	n/a	wordpools/wordpool_EN.txt	VEST	10	7	[0, 0, 0]	n/a	FR1	1	R1156D
905.032	0.799	913074	WORD_OFF	n/a	n/a	VEST	10	7	[0, 0, 0]	n/a	FR1	1	R1156D
905.831	1.617	913873	WORD	n/a	wordpools/wordpool_EN.txt	CHAIR	11	7	[0, 0, 0]	n/a	FR1	1	R1156D
907.448	0.784	915490	WORD_OFF	n/a	n/a	CHAIR	11	7	[0, 0, 0]	n/a	FR1	1	R1156D
908.232	1.616	916273	WORD	n/a	wordpools/wordpool_EN.txt	CLOTH	12	7	[0, 0, 0]	n/a	FR1	1	R1156D
909.848	0.0	917889	WORD_OFF	n/a	n/a	CLOTH	12	7	[0, 0, 0]	n/a	FR1	1	R1156D
909.848	0.001	917889	DISTRACT_START	n/a	n/a	n/a	-999	7	[0, 0, 0]	n/a	FR1	1	R1156D
909.849	0.017	917890	START	n/a	n/a	n/a	-999	7	[-999, -999, -999]	n/a	FR1	1	R1156D
909.866	5.717	917907	PROB	5.717	n/a	n/a	-999	7	[1, 9, 6]	16	FR1	1	R1156D
915.583	4.184	923624	PROB	4.184	n/a	n/a	-999	7	[3, 5, 8]	16	FR1	1	R1156D
919.767	3.285	927808	PROB	3.285	n/a	n/a	-999	7	[9, 7, 6]	22	FR1	1	R1156D
923.052	4.516	931093	PROB	4.516	n/a	n/a	-999	7	[2, 9, 2]	13	FR1	1	R1156D
927.568	4.291	935608	PROB	4.291	n/a	n/a	-999	7	[7, 6, 5]	18	FR1	1	R1156D
931.859	0.011	939899	STOP	n/a	n/a	n/a	-999	7	[-999, -999, -999]	n/a	FR1	1	R1156D
931.87	0.682	939910	DISTRACT_END	n/a	n/a	n/a	-999	7	[0, 0, 0]	n/a	FR1	1	R1156D
932.552	0.519	940592	RETRIEVAL_ORIENT	n/a	n/a	n/a	-999	7	[0, 0, 0]	n/a	FR1	1	R1156D
933.071	0.718	941111	REC_START	n/a	n/a	n/a	-999	7	[0, 0, 0]	n/a	FR1	1	R1156D
933.789	1.866	941829	REC_WORD	1.866	n/a	STONE	-999	7	[0, 0, 0]	n/a	FR1	1	R1156D
935.655	1.616	943695	REC_WORD	1.616	n/a	SINK	9	7	[0, 0, 0]	n/a	FR1	1	R1156D
937.271	1.613	945311	REC_WORD	1.613	n/a	CHEST	-999	7	[0, 0, 0]	n/a	FR1	1	R1156D
938.884	5.377	946924	REC_WORD	5.377	n/a	CHAIR	11	7	[0, 0, 0]	n/a	FR1	1	R1156D
944.261	1.41	952301	REC_WORD	1.41	n/a	CASTLE	-999	7	[0, 0, 0]	n/a	FR1	1	R1156D
945.671	1.0	953710	REC_WORD_VV	1.0	n/a	<>	-999	7	[0, 0, 0]	n/a	FR1	1	R1156D
946.671	10.39	954710	REC_WORD_VV	10.39	n/a	<>	-999	7	[0, 0, 0]	n/a	FR1	1	R1156D
957.061	6.021	965100	REC_WORD_VV	6.021	n/a	<>	-999	7	[0, 0, 0]	n/a	FR1	1	R1156D
963.082	5.845	971121	REC_END	n/a	n/a	n/a	-999	7	[0, 0, 0]	n/a	FR1	1	R1156D
968.927	0.5	976965	TRIAL	n/a	n/a	n/a	-999	8	[0, 0, 0]	n/a	FR1	1	R1156D
969.427	10.428	977465	COUNTDOWN_START	n/a	n/a	n/a	-999	8	[0, 0, 0]	n/a	FR1	1	R1156D
979.855	0.007	987893	COUNTDOWN_END	n/a	n/a	n/a	-999	8	[0, 0, 0]	n/a	FR1	1	R1156D
979.862	1.616	987900	ORIENT	n/a	n/a	n/a	-999	8	[0, 0, 0]	n/a	FR1	1	R1156D
981.478	1.934	989516	ORIENT_OFF	n/a	n/a	n/a	-999	8	[0, 0, 0]	n/a	FR1	1	R1156D
983.412	1.618	991449	WORD	n/a	wordpools/wordpool_EN.txt	TRUCK	1	8	[0, 0, 0]	n/a	FR1	1	R1156D
985.03	0.916	993067	WORD_OFF	n/a	n/a	TRUCK	1	8	[0, 0, 0]	n/a	FR1	1	R1156D
985.946	1.616	993983	WORD	n/a	wordpools/wordpool_EN.txt	TRAIN	2	8	[0, 0, 0]	n/a	FR1	1	R1156D
987.562	0.984	995599	WORD_OFF	n/a	n/a	TRAIN	2	8	[0, 0, 0]	n/a	FR1	1	R1156D
988.546	1.618	996583	WORD	n/a	wordpools/wordpool_EN.txt	SPEAR	3	8	[0, 0, 0]	n/a	FR1	1	R1156D
990.164	0.783	998201	WORD_OFF	n/a	n/a	SPEAR	3	8	[0, 0, 0]	n/a	FR1	1	R1156D
990.947	1.616	998984	WORD	n/a	wordpools/wordpool_EN.txt	SHEEP	4	8	[0, 0, 0]	n/a	FR1	1	R1156D
992.563	0.984	1000600	WORD_OFF	n/a	n/a	SHEEP	4	8	[0, 0, 0]	n/a	FR1	1	R1156D
993.547	1.618	1001584	WORD	n/a	wordpools/wordpool_EN.txt	GUARD	5	8	[0, 0, 0]	n/a	FR1	1	R1156D
995.165	0.8	1003202	WORD_OFF	n/a	n/a	GUARD	5	8	[0, 0, 0]	n/a	FR1	1	R1156D
995.965	1.616	1004002	WORD	n/a	wordpools/wordpool_EN.txt	FACE	6	8	[0, 0, 0]	n/a	FR1	1	R1156D
997.581	0.983	1005618	WORD_OFF	n/a	n/a	FACE	6	8	[0, 0, 0]	n/a	FR1	1	R1156D
998.564	1.618	1006601	WORD	n/a	wordpools/wordpool_EN.txt	MOOSE	7	8	[0, 0, 0]	n/a	FR1	1	R1156D
1000.182	0.901	1008219	WORD_OFF	n/a	n/a	MOOSE	7	8	[0, 0, 0]	n/a	FR1	1	R1156D
1001.083	1.616	1009119	WORD	n/a	wordpools/wordpool_EN.txt	FOOT	8	8	[0, 0, 0]	n/a	FR1	1	R1156D
1002.699	0.9	1010735	WORD_OFF	n/a	n/a	FOOT	8	8	[0, 0, 0]	n/a	FR1	1	R1156D
1003.599	1.618	1011635	WORD	n/a	wordpools/wordpool_EN.txt	SPRING	9	8	[0, 0, 0]	n/a	FR1	1	R1156D
1005.217	0.783	1013253	WORD_OFF	n/a	n/a	SPRING	9	8	[0, 0, 0]	n/a	FR1	1	R1156D
1006.0	1.616	1014036	WORD	n/a	wordpools/wordpool_EN.txt	TENT	10	8	[0, 0, 0]	n/a	FR1	1	R1156D
1007.616	0.984	1015652	WORD_OFF	n/a	n/a	TENT	10	8	[0, 0, 0]	n/a	FR1	1	R1156D
1008.6	1.618	1016636	WORD	n/a	wordpools/wordpool_EN.txt	PLANT	11	8	[0, 0, 0]	n/a	FR1	1	R1156D
1010.218	1.016	1018254	WORD_OFF	n/a	n/a	PLANT	11	8	[0, 0, 0]	n/a	FR1	1	R1156D
1011.234	1.616	1019270	WORD	n/a	wordpools/wordpool_EN.txt	FARM	12	8	[0, 0, 0]	n/a	FR1	1	R1156D
1012.85	0.0	1020886	WORD_OFF	n/a	n/a	FARM	12	8	[0, 0, 0]	n/a	FR1	1	R1156D
1012.85	0.001	1020886	DISTRACT_START	n/a	n/a	n/a	-999	8	[0, 0, 0]	n/a	FR1	1	R1156D
1012.851	0.017	1020887	START	n/a	n/a	n/a	-999	8	[-999, -999, -999]	n/a	FR1	1	R1156D
1012.868	5.001	1020904	PROB	5.001	n/a	n/a	-999	8	[5, 6, 2]	13	FR1	1	R1156D
1017.869	3.301	1025905	PROB	3.301	n/a	n/a	-999	8	[7, 4, 3]	14	FR1	1	R1156D
1021.17	5.116	1029205	PROB	5.116	n/a	n/a	-999	8	[9, 3, 4]	16	FR1	1	R1156D
1026.286	3.234	1034321	PROB	3.234	n/a	n/a	-999	8	[5, 4, 1]	10	FR1	1	R1156D
1029.52	4.953	1037555	PROB	4.953	n/a	n/a	-999	8	[3, 5, 9]	17	FR1	1	R1156D
1034.473	0.015	1042508	STOP	n/a	n/a	n/a	-999	8	[-999, -999, -999]	n/a	FR1	1	R1156D
1034.488	0.567	1042523	DISTRACT_END	n/a	n/a	n/a	-999	8	[0, 0, 0]	n/a	FR1	1	R1156D
1035.055	0.517	1043090	RETRIEVAL_ORIENT	n/a	n/a	n/a	-999	8	[0, 0, 0]	n/a	FR1	1	R1156D
1035.572	1.55	1043607	REC_START	n/a	n/a	n/a	-999	8	[0, 0, 0]	n/a	FR1	1	R1156D
1037.122	0.925	1045157	REC_WORD_VV	0.925	n/a	<>	-999	8	[0, 0, 0]	n/a	FR1	1	R1156D
1038.047	1.596	1046082	REC_WORD	1.596	n/a	TRAIN	2	8	[0, 0, 0]	n/a	FR1	1	R1156D
1039.643	5.162	1047677	REC_WORD	5.162	n/a	TRUCK	1	8	[0, 0, 0]	n/a	FR1	1	R1156D
1044.805	18.046	1052839	REC_WORD	18.046	n/a	TRUCK	1	8	[0, 0, 0]	n/a	FR1	1	R1156D
1062.851	2.731	1070884	REC_WORD	2.731	n/a	TRUCK	1	8	[0, 0, 0]	n/a	FR1	1	R1156D
1065.582	8.846	1073615	REC_END	n/a	n/a	n/a	-999	8	[0, 0, 0]	n/a	FR1	1	R1156D
1074.428	0.5	1082461	TRIAL	n/a	n/a	n/a	-999	9	[0, 0, 0]	n/a	FR1	1	R1156D
1074.928	10.428	1082961	COUNTDOWN_START	n/a	n/a	n/a	-999	9	[0, 0, 0]	n/a	FR1	1	R1156D
1085.356	0.008	1093388	COUNTDOWN_END	n/a	n/a	n/a	-999	9	[0, 0, 0]	n/a	FR1	1	R1156D
1085.364	1.618	1093396	ORIENT	n/a	n/a	n/a	-999	9	[0, 0, 0]	n/a	FR1	1	R1156D
1086.982	1.983	1095014	ORIENT_OFF	n/a	n/a	n/a	-999	9	[0, 0, 0]	n/a	FR1	1	R1156D
1088.965	1.616	1096997	WORD	n/a	wordpools/wordpool_EN.txt	PEN	1	9	[0, 0, 0]	n/a	FR1	1	R1156D
1090.581	1.017	1098613	WORD_OFF	n/a	n/a	PEN	1	9	[0, 0, 0]	n/a	FR1	1	R1156D
1091.598	1.618	1099630	WORD	n/a	wordpools/wordpool_EN.txt	VAN	2	9	[0, 0, 0]	n/a	FR1	1	R1156D
1093.216	0.9	1101248	WORD_OFF	n/a	n/a	VAN	2	9	[0, 0, 0]	n/a	FR1	1	R1156D
1094.116	1.616	1102147	WORD	n/a	wordpools/wordpool_EN.txt	SKUNK	3	9	[0, 0, 0]	n/a	FR1	1	R1156D
1095.732	0.784	1103763	WORD_OFF	n/a	n/a	SKUNK	3	9	[0, 0, 0]	n/a	FR1	1	R1156D
1096.516	1.618	1104547	WORD	n/a	wordpools/wordpool_EN.txt	PASTE	4	9	[0, 0, 0]	n/a	FR1	1	R1156D
1098.134	0.833	1106165	WORD_OFF	n/a	n/a	PASTE	4	9	[0, 0, 0]	n/a	FR1	1	R1156D
1098.967	1.616	1106998	WORD	n/a	wordpools/wordpool_EN.txt	PEACH	5	9	[0, 0, 0]	n/a	FR1	1	R1156D
1100.583	0.834	1108614	WORD_OFF	n/a	n/a	PEACH	5	9	[0, 0, 0]	n/a	FR1	1	R1156D
1101.417	1.618	1109448	WORD	n/a	wordpools/wordpool_EN.txt	PLATE	6	9	[0, 0, 0]	n/a	FR1	1	R1156D
1103.035	0.799	1111066	WORD_OFF	n/a	n/a	PLATE	6	9	[0, 0, 0]	n/a	FR1	1	R1156D
1103.834	1.617	1111865	WORD	n/a	wordpools/wordpool_EN.txt	WOOD	7	9	[0, 0, 0]	n/a	FR1	1	R1156D
1105.451	0.866	1113482	WORD_OFF	n/a	n/a	WOOD	7	9	[0, 0, 0]	n/a	FR1	1	R1156D
1106.317	1.618	1114348	WORD	n/a	wordpools/wordpool_EN.txt	PEAR	8	9	[0, 0, 0]	n/a	FR1	1	R1156D
1107.935	0.833	1115966	WORD_OFF	n/a	n/a	PEAR	8	9	[0, 0, 0]	n/a	FR1	1	R1156D
1108.768	1.617	1116799	WORD	n/a	wordpools/wordpool_EN.txt	HOOF	9	9	[0, 0, 0]	n/a	FR1	1	R1156D
1110.385	0.95	1118416	WORD_OFF	n/a	n/a	HOOF	9	9	[0, 0, 0]	n/a	FR1	1	R1156D
1111.335	1.618	1119366	WORD	n/a	wordpools/wordpool_EN.txt	STEAK	10	9	[0, 0, 0]	n/a	FR1	1	R1156D
1112.953	0.95	1120983	WORD_OFF	n/a	n/a	STEAK	10	9	[0, 0, 0]	n/a	FR1	1	R1156D
1113.903	1.616	1121933	WORD	n/a	wordpools/wordpool_EN.txt	MAT	11	9	[0, 0, 0]	n/a	FR1	1	R1156D
1115.519	0.784	1123549	WORD_OFF	n/a	n/a	MAT	11	9	[0, 0, 0]	n/a	FR1	1	R1156D
1116.303	1.618	1124333	WORD	n/a	wordpools/wordpool_EN.txt	BOX	12	9	[0, 0, 0]	n/a	FR1	1	R1156D
1117.921	0.0	1125951	WORD_OFF	n/a	n/a	BOX	12	9	[0, 0, 0]	n/a	FR1	1	R1156D
1117.921	0.0	1125951	DISTRACT_START	n/a	n/a	n/a	-999	9	[0, 0, 0]	n/a	FR1	1	R1156D
1117.921	0.016	1125951	START	n/a	n/a	n/a	-999	9	[-999, -999, -999]	n/a	FR1	1	R1156D
1117.937	4.084	1125967	PROB	4.084	n/a	n/a	-999	9	[6, 6, 8]	20	FR1	1	R1156D
1122.021	3.383	1130051	PROB	3.383	n/a	n/a	-999	9	[2, 6, 8]	16	FR1	1	R1156D
1125.404	3.017	1133434	PROB	3.017	n/a	n/a	-999	9	[2, 4, 7]	13	FR1	1	R1156D
1128.421	4.118	1136451	PROB	4.118	n/a	n/a	-999	9	[7, 9, 9]	25	FR1	1	R1156D
1132.539	3.668	1140568	PROB	3.668	n/a	n/a	-999	9	[1, 8, 8]	17	FR1	1	R1156D
1136.207	3.346	1144236	PROB	3.346	n/a	n/a	-999	9	[3, 6, 1]	10	FR1	1	R1156D
1139.553	0.021	1147582	STOP	n/a	n/a	n/a	-999	9	[-999, -999, -999]	n/a	FR1	1	R1156D
1139.574	0.517	1147603	DISTRACT_END	n/a	n/a	n/a	-999	9	[0, 0, 0]	n/a	FR1	1	R1156D
1140.091	0.517	1148120	RETRIEVAL_ORIENT	n/a	n/a	n/a	-999	9	[0, 0, 0]	n/a	FR1	1	R1156D
1140.608	5.626	1148637	REC_START	n/a	n/a	n/a	-999	9	[0, 0, 0]	n/a	FR1	1	R1156D
1146.234	1.606	1154263	REC_WORD	1.606	n/a	STEAK	10	9	[0, 0, 0]	n/a	FR1	1	R1156D
1147.84	2.29	1155869	REC_WORD	2.29	n/a	MAT	11	9	[0, 0, 0]	n/a	FR1	1	R1156D
1150.13	2.478	1158158	REC_WORD_VV	2.478	n/a	<>	-999	9	[0, 0, 0]	n/a	FR1	1	R1156D
1152.608	5.815	1160636	REC_WORD	5.815	n/a	COW	-999	9	[0, 0, 0]	n/a	FR1	1	R1156D
1158.423	12.196	1166451	REC_WORD_VV	12.196	n/a	<>	-999	9	[0, 0, 0]	n/a	FR1	1	R1156D
1170.619	21.599	1178646	REC_END	n/a	n/a	n/a	-999	9	[0, 0, 0]	n/a	FR1	1	R1156D
1192.218	0.5	1200244	TRIAL	n/a	n/a	n/a	-999	10	[0, 0, 0]	n/a	FR1	1	R1156D
1192.718	10.428	1200744	COUNTDOWN_START	n/a	n/a	n/a	-999	10	[0, 0, 0]	n/a	FR1	1	R1156D
1203.146	0.007	1211172	COUNTDOWN_END	n/a	n/a	n/a	-999	10	[0, 0, 0]	n/a	FR1	1	R1156D
1203.153	1.616	1211179	ORIENT	n/a	n/a	n/a	-999	10	[0, 0, 0]	n/a	FR1	1	R1156D
1204.769	1.85	1212795	ORIENT_OFF	n/a	n/a	n/a	-999	10	[0, 0, 0]	n/a	FR1	1	R1156D
1206.619	1.601	1214644	WORD	n/a	wordpools/wordpool_EN.txt	STICK	1	10	[0, 0, 0]	n/a	FR1	1	R1156D
1208.22	0.801	1216245	WORD_OFF	n/a	n/a	STICK	1	10	[0, 0, 0]	n/a	FR1	1	R1156D
1209.021	1.616	1217046	WORD	n/a	wordpools/wordpool_EN.txt	DOOR	2	10	[0, 0, 0]	n/a	FR1	1	R1156D
1210.637	0.983	1218662	WORD_OFF	n/a	n/a	DOOR	2	10	[0, 0, 0]	n/a	FR1	1	R1156D
1211.62	1.601	1219645	WORD	n/a	wordpools/wordpool_EN.txt	TOY	3	10	[0, 0, 0]	n/a	FR1	1	R1156D
1213.221	0.767	1221246	WORD_OFF	n/a	n/a	TOY	3	10	[0, 0, 0]	n/a	FR1	1	R1156D
1213.988	1.616	1222013	WORD	n/a	wordpools/wordpool_EN.txt	CHEEK	4	10	[0, 0, 0]	n/a	FR1	1	R1156D
1215.604	0.834	1223629	WORD_OFF	n/a	n/a	CHEEK	4	10	[0, 0, 0]	n/a	FR1	1	R1156D
1216.438	1.618	1224463	WORD	n/a	wordpools/wordpool_EN.txt	TRAY	5	10	[0, 0, 0]	n/a	FR1	1	R1156D
1218.056	0.983	1226081	WORD_OFF	n/a	n/a	TRAY	5	10	[0, 0, 0]	n/a	FR1	1	R1156D
1219.039	1.616	1227064	WORD	n/a	wordpools/wordpool_EN.txt	POOL	6	10	[0, 0, 0]	n/a	FR1	1	R1156D
1220.655	0.85	1228680	WORD_OFF	n/a	n/a	POOL	6	10	[0, 0, 0]	n/a	FR1	1	R1156D
1221.505	1.618	1229530	WORD	n/a	wordpools/wordpool_EN.txt	PIPE	7	10	[0, 0, 0]	n/a	FR1	1	R1156D
1223.123	0.767	1231148	WORD_OFF	n/a	n/a	PIPE	7	10	[0, 0, 0]	n/a	FR1	1	R1156D
1223.89	1.616	1231914	WORD	n/a	wordpools/wordpool_EN.txt	GATE	8	10	[0, 0, 0]	n/a	FR1	1	R1156D
1225.506	0.767	1233530	WORD_OFF	n/a	n/a	GATE	8	10	[0, 0, 0]	n/a	FR1	1	R1156D
1226.273	1.601	1234297	WORD	n/a	wordpools/wordpool_EN.txt	ROSE	9	10	[0, 0, 0]	n/a	FR1	1	R1156D
1227.874	0.899	1235898	WORD_OFF	n/a	n/a	ROSE	9	10	[0, 0, 0]	n/a	FR1	1	R1156D
1228.773	1.617	1236797	WORD	n/a	wordpools/wordpool_EN.txt	LEG	10	10	[0, 0, 0]	n/a	FR1	1	R1156D
1230.39	0.95	1238414	WORD_OFF	n/a	n/a	LEG	10	10	[0, 0, 0]	n/a	FR1	1	R1156D
1231.34	1.618	1239364	WORD	n/a	wordpools/wordpool_EN.txt	CUP	11	10	[0, 0, 0]	n/a	FR1	1	R1156D
1232.958	0.866	1240982	WORD_OFF	n/a	n/a	CUP	11	10	[0, 0, 0]	n/a	FR1	1	R1156D
1233.824	1.617	1241848	WORD	n/a	wordpools/wordpool_EN.txt	YARD	12	10	[0, 0, 0]	n/a	FR1	1	R1156D
1235.441	0.0	1243465	DISTRACT_START	n/a	n/a	n/a	-999	10	[0, 0, 0]	n/a	FR1	1	R1156D
1235.441	0.001	1243465	WORD_OFF	n/a	n/a	YARD	12	10	[0, 0, 0]	n/a	FR1	1	R1156D
1235.442	0.016	1243466	START	n/a	n/a	n/a	-999	10	[-999, -999, -999]	n/a	FR1	1	R1156D
1235.458	7.685	1243482	PROB	7.685	n/a	n/a	-999	10	[7, 9, 8]	24	FR1	1	R1156D
1243.143	4.134	1251166	PROB	4.134	n/a	n/a	-999	10	[8, 6, 5]	19	FR1	1	R1156D
1247.277	3.35	1255300	PROB	3.35	n/a	n/a	-999	10	[1, 1, 7]	9	FR1	1	R1156D
1250.627	5.294	1258650	PROB	5.294	n/a	n/a	-999	10	[6, 9, 9]	24	FR1	1	R1156D
1255.921	0.008	1263944	STOP	n/a	n/a	n/a	-999	10	[-999, -999, -999]	n/a	FR1	1	R1156D
1255.929	0.549	1263952	DISTRACT_END	n/a	n/a	n/a	-999	10	[0, 0, 0]	n/a	FR1	1	R1156D
1256.478	0.519	1264501	RETRIEVAL_ORIENT	n/a	n/a	n/a	-999	10	[0, 0, 0]	n/a	FR1	1	R1156D
1256.997	1.398	1265020	REC_START	n/a	n/a	n/a	-999	10	[0, 0, 0]	n/a	FR1	1	R1156D
1258.395	5.841	1266418	REC_WORD	5.841	n/a	SKUNK	-999	10	[0, 0, 0]	n/a	FR1	1	R1156D
1264.236	4.642	1272258	REC_WORD	4.642	n/a	TRAIN	-999	10	[0, 0, 0]	n/a	FR1	1	R1156D
1268.878	3.187	1276900	REC_WORD	3.187	n/a	POOL	6	10	[0, 0, 0]	n/a	FR1	1	R1156D
1272.065	5.55	1280087	REC_WORD	5.55	n/a	BUSH	-999	10	[0, 0, 0]	n/a	FR1	1	R1156D
1277.615	9.394	1285637	REC_WORD	9.394	n/a	CUP	11	10	[0, 0, 0]	n/a	FR1	1	R1156D
1287.009	5.844	1295030	REC_END	n/a	n/a	n/a	-999	10	[0, 0, 0]	n/a	FR1	1	R1156D
1292.853	0.5	1300874	TRIAL	n/a	n/a	n/a	-999	11	[0, 0, 0]	n/a	FR1	1	R1156D
1293.353	10.428	1301374	COUNTDOWN_START	n/a	n/a	n/a	-999	11	[0, 0, 0]	n/a	FR1	1	R1156D
1303.781	0.006	1311801	COUNTDOWN_END	n/a	n/a	n/a	-999	11	[0, 0, 0]	n/a	FR1	1	R1156D
1303.787	1.617	1311807	ORIENT	n/a	n/a	n/a	-999	11	[0, 0, 0]	n/a	FR1	1	R1156D
1305.404	1.95	1313424	ORIENT_OFF	n/a	n/a	n/a	-999	11	[0, 0, 0]	n/a	FR1	1	R1156D
1307.354	1.601	1315374	WORD	n/a	wordpools/wordpool_EN.txt	GOLD	1	11	[0, 0, 0]	n/a	FR1	1	R1156D
1308.955	0.95	1316975	WORD_OFF	n/a	n/a	GOLD	1	11	[0, 0, 0]	n/a	FR1	1	R1156D
1309.905	1.617	1317925	WORD	n/a	wordpools/wordpool_EN.txt	GEESE	2	11	[0, 0, 0]	n/a	FR1	1	R1156D
1311.522	0.767	1319542	WORD_OFF	n/a	n/a	GEESE	2	11	[0, 0, 0]	n/a	FR1	1	R1156D
1312.289	1.617	1320309	WORD	n/a	wordpools/wordpool_EN.txt	THREAD	3	11	[0, 0, 0]	n/a	FR1	1	R1156D
1313.906	0.816	1321926	WORD_OFF	n/a	n/a	THREAD	3	11	[0, 0, 0]	n/a	FR1	1	R1156D
1314.722	1.617	1322742	WORD	n/a	wordpools/wordpool_EN.txt	STOOL	4	11	[0, 0, 0]	n/a	FR1	1	R1156D
1316.339	0.95	1324359	WORD_OFF	n/a	n/a	STOOL	4	11	[0, 0, 0]	n/a	FR1	1	R1156D
1317.289	1.601	1325308	WORD	n/a	wordpools/wordpool_EN.txt	STREET	5	11	[0, 0, 0]	n/a	FR1	1	R1156D
1318.89	0.833	1326909	WORD_OFF	n/a	n/a	STREET	5	11	[0, 0, 0]	n/a	FR1	1	R1156D
1319.723	1.617	1327742	WORD	n/a	wordpools/wordpool_EN.txt	SEAT	6	11	[0, 0, 0]	n/a	FR1	1	R1156D
1321.34	0.785	1329359	WORD_OFF	n/a	n/a	SEAT	6	11	[0, 0, 0]	n/a	FR1	1	R1156D
1322.125	1.616	1330144	WORD	n/a	wordpools/wordpool_EN.txt	SLIME	7	11	[0, 0, 0]	n/a	FR1	1	R1156D
1323.741	1.0	1331760	WORD_OFF	n/a	n/a	SLIME	7	11	[0, 0, 0]	n/a	FR1	1	R1156D
1324.741	1.617	1332760	WORD	n/a	wordpools/wordpool_EN.txt	BENCH	8	11	[0, 0, 0]	n/a	FR1	1	R1156D
1326.358	0.933	1334377	WORD_OFF	n/a	n/a	BENCH	8	11	[0, 0, 0]	n/a	FR1	1	R1156D
1327.291	1.618	1335310	WORD	n/a	wordpools/wordpool_EN.txt	DESK	9	11	[0, 0, 0]	n/a	FR1	1	R1156D
1328.909	0.916	1336928	WORD_OFF	n/a	n/a	DESK	9	11	[0, 0, 0]	n/a	FR1	1	R1156D
1329.825	1.617	1337844	WORD	n/a	wordpools/wordpool_EN.txt	DOLL	10	11	[0, 0, 0]	n/a	FR1	1	R1156D
1331.442	0.818	1339461	WORD_OFF	n/a	n/a	DOLL	10	11	[0, 0, 0]	n/a	FR1	1	R1156D
1332.26	1.617	1340279	WORD	n/a	wordpools/wordpool_EN.txt	HAT	11	11	[0, 0, 0]	n/a	FR1	1	R1156D
1333.877	0.899	1341896	WORD_OFF	n/a	n/a	HAT	11	11	[0, 0, 0]	n/a	FR1	1	R1156D
1334.776	1.617	1342795	WORD	n/a	wordpools/wordpool_EN.txt	SHOE	12	11	[0, 0, 0]	n/a	FR1	1	R1156D
1336.393	0.0	1344411	WORD_OFF	n/a	n/a	SHOE	12	11	[0, 0, 0]	n/a	FR1	1	R1156D
1336.393	0.0	1344411	DISTRACT_START	n/a	n/a	n/a	-999	11	[0, 0, 0]	n/a	FR1	1	R1156D
1336.393	0.017	1344411	START	n/a	n/a	n/a	-999	11	[-999, -999, -999]	n/a	FR1	1	R1156D
1336.41	5.167	1344428	PROB	5.167	n/a	n/a	-999	11	[9, 7, 4]	20	FR1	1	R1156D
1341.577	3.884	1349595	PROB	3.884	n/a	n/a	-999	11	[7, 6, 1]	14	FR1	1	R1156D
1345.461	3.769	1353479	PROB	3.769	n/a	n/a	-999	11	[5, 7, 3]	15	FR1	1	R1156D
1349.23	2.833	1357248	PROB	2.833	n/a	n/a	-999	11	[2, 1, 3]	6	FR1	1	R1156D
1352.063	3.467	1360081	PROB	3.467	n/a	n/a	-999	11	[9, 7, 1]	17	FR1	1	R1156D
1355.53	6.352	1363547	PROB	6.352	n/a	n/a	-999	11	[6, 6, 7]	19	FR1	1	R1156D
1361.882	0.017	1369899	STOP	n/a	n/a	n/a	-999	11	[-999, -999, -999]	n/a	FR1	1	R1156D
1361.899	0.665	1369916	DISTRACT_END	n/a	n/a	n/a	-999	11	[0, 0, 0]	n/a	FR1	1	R1156D
1362.564	0.519	1370581	RETRIEVAL_ORIENT	n/a	n/a	n/a	-999	11	[0, 0, 0]	n/a	FR1	1	R1156D
1363.083	1.66	1371100	REC_START	n/a	n/a	n/a	-999	11	[0, 0, 0]	n/a	FR1	1	R1156D
1364.743	3.457	1372760	REC_WORD_VV	3.457	n/a	<>	-999	11	[0, 0, 0]	n/a	FR1	1	R1156D
1368.2	0.847	1376217	REC_WORD	0.847	n/a	DESK	9	11	[0, 0, 0]	n/a	FR1	1	R1156D
1369.047	3.84	1377064	REC_WORD	3.84	n/a	SIT	-999	11	[0, 0, 0]	n/a	FR1	1	R1156D
1372.887	1.834	1380903	REC_WORD	1.834	n/a	DOLL	10	11	[0, 0, 0]	n/a	FR1	1	R1156D
1374.721	1.592	1382737	REC_WORD	1.592	n/a	CAP	-999	11	[0, 0, 0]	n/a	FR1	1	R1156D
1376.313	4.706	1384329	REC_WORD	4.706	n/a	SHOE	12	11	[0, 0, 0]	n/a	FR1	1	R1156D
1381.019	1.0	1389035	REC_WORD_VV	1.0	n/a	<>	-999	11	[0, 0, 0]	n/a	FR1	1	R1156D
1382.019	5.43	1390035	REC_WORD_VV	5.43	n/a	<>	-999	11	[0, 0, 0]	n/a	FR1	1	R1156D
1387.449	1.0	1395465	REC_WORD_VV	1.0	n/a	<>	-999	11	[0, 0, 0]	n/a	FR1	1	R1156D
1388.449	1.0	1396465	REC_WORD_VV	1.0	n/a	<>	-999	11	[0, 0, 0]	n/a	FR1	1	R1156D
1389.449	3.645	1397465	REC_WORD_VV	3.645	n/a	<>	-999	11	[0, 0, 0]	n/a	FR1	1	R1156D
1393.094	7.611	1401109	REC_END	n/a	n/a	n/a	-999	11	[0, 0, 0]	n/a	FR1	1	R1156D
1400.705	0.5	1408720	TRIAL	n/a	n/a	n/a	-999	12	[0, 0, 0]	n/a	FR1	1	R1156D
1401.205	10.428	1409220	COUNTDOWN_START	n/a	n/a	n/a	-999	12	[0, 0, 0]	n/a	FR1	1	R1156D
1411.633	0.007	1419647	COUNTDOWN_END	n/a	n/a	n/a	-999	12	[0, 0, 0]	n/a	FR1	1	R1156D
1411.64	1.601	1419654	ORIENT	n/a	n/a	n/a	-999	12	[0, 0, 0]	n/a	FR1	1	R1156D
1413.241	1.984	1421255	ORIENT_OFF	n/a	n/a	n/a	-999	12	[0, 0, 0]	n/a	FR1	1	R1156D
1415.225	1.616	1423239	WORD	n/a	wordpools/wordpool_EN.txt	ANT	1	12	[0, 0, 0]	n/a	FR1	1	R1156D
1416.841	0.767	1424855	WORD_OFF	n/a	n/a	ANT	1	12	[0, 0, 0]	n/a	FR1	1	R1156D
1417.608	1.601	1425622	WORD	n/a	wordpools/wordpool_EN.txt	CROW	2	12	[0, 0, 0]	n/a	FR1	1	R1156D
1419.209	0.817	1427223	WORD_OFF	n/a	n/a	CROW	2	12	[0, 0, 0]	n/a	FR1	1	R1156D
1420.026	1.616	1428040	WORD	n/a	wordpools/wordpool_EN.txt	LAWN	3	12	[0, 0, 0]	n/a	FR1	1	R1156D
1421.642	0.933	1429656	WORD_OFF	n/a	n/a	LAWN	3	12	[0, 0, 0]	n/a	FR1	1	R1156D
1422.575	1.618	1430589	WORD	n/a	wordpools/wordpool_EN.txt	HEN	4	12	[0, 0, 0]	n/a	FR1	1	R1156D
1424.193	0.85	1432207	WORD_OFF	n/a	n/a	HEN	4	12	[0, 0, 0]	n/a	FR1	1	R1156D
1425.043	1.616	1433057	WORD	n/a	wordpools/wordpool_EN.txt	BATH	5	12	[0, 0, 0]	n/a	FR1	1	R1156D
1426.659	0.817	1434673	WORD_OFF	n/a	n/a	BATH	5	12	[0, 0, 0]	n/a	FR1	1	R1156D
1427.476	1.601	1435490	WORD	n/a	wordpools/wordpool_EN.txt	CRANE	6	12	[0, 0, 0]	n/a	FR1	1	R1156D
1429.077	0.801	1437090	WORD_OFF	n/a	n/a	CRANE	6	12	[0, 0, 0]	n/a	FR1	1	R1156D
1429.878	1.616	1437891	WORD	n/a	wordpools/wordpool_EN.txt	TEA	7	12	[0, 0, 0]	n/a	FR1	1	R1156D
1431.494	0.966	1439507	WORD_OFF	n/a	n/a	TEA	7	12	[0, 0, 0]	n/a	FR1	1	R1156D
1432.46	1.618	1440473	WORD	n/a	wordpools/wordpool_EN.txt	DART	8	12	[0, 0, 0]	n/a	FR1	1	R1156D
1434.078	0.784	1442091	WORD_OFF	n/a	n/a	DART	8	12	[0, 0, 0]	n/a	FR1	1	R1156D
1434.862	1.616	1442875	WORD	n/a	wordpools/wordpool_EN.txt	ROOM	9	12	[0, 0, 0]	n/a	FR1	1	R1156D
1436.478	0.817	1444491	WORD_OFF	n/a	n/a	ROOM	9	12	[0, 0, 0]	n/a	FR1	1	R1156D
1437.295	1.618	1445308	WORD	n/a	wordpools/wordpool_EN.txt	TOAST	10	12	[0, 0, 0]	n/a	FR1	1	R1156D
1438.913	0.849	1446926	WORD_OFF	n/a	n/a	TOAST	10	12	[0, 0, 0]	n/a	FR1	1	R1156D
1439.762	1.617	1447775	WORD	n/a	wordpools/wordpool_EN.txt	NEST	11	12	[0, 0, 0]	n/a	FR1	1	R1156D
1441.379	0.9	1449392	WORD_OFF	n/a	n/a	NEST	11	12	[0, 0, 0]	n/a	FR1	1	R1156D
1442.279	1.618	1450292	WORD	n/a	wordpools/wordpool_EN.txt	ROOF	12	12	[0, 0, 0]	n/a	FR1	1	R1156D
1443.897	0.0	1451910	WORD_OFF	n/a	n/a	ROOF	12	12	[0, 0, 0]	n/a	FR1	1	R1156D
1443.897	0.001	1451910	DISTRACT_START	n/a	n/a	n/a	-999	12	[0, 0, 0]	n/a	FR1	1	R1156D
1443.898	0.016	1451911	START	n/a	n/a	n/a	-999	12	[-999, -999, -999]	n/a	FR1	1	R1156D
1443.914	3.883	1451927	PROB	3.883	n/a	n/a	-999	12	[4, 5, 2]	11	FR1	1	R1156D
1447.797	3.65	1455809	PROB	3.65	n/a	n/a	-999	12	[8, 9, 2]	19	FR1	1	R1156D
1451.447	3.068	1459459	PROB	3.068	n/a	n/a	-999	12	[2, 8, 5]	15	FR1	1	R1156D
1454.515	2.651	1462527	PROB	2.651	n/a	n/a	-999	12	[6, 6, 1]	13	FR1	1	R1156D
1457.166	3.116	1465178	PROB	3.116	n/a	n/a	-999	12	[8, 2, 9]	19	FR1	1	R1156D
1460.282	4.383	1468294	PROB	4.383	n/a	n/a	-999	12	[2, 7, 6]	15	FR1	1	R1156D
1464.665	0.018	1472677	STOP	n/a	n/a	n/a	-999	12	[-999, -999, -999]	n/a	FR1	1	R1156D
1464.683	0.534	1472695	DISTRACT_END	n/a	n/a	n/a	-999	12	[0, 0, 0]	n/a	FR1	1	R1156D
1465.217	0.517	1473228	RETRIEVAL_ORIENT	n/a	n/a	n/a	-999	12	[0, 0, 0]	n/a	FR1	1	R1156D
1465.734	5.384	1473745	REC_START	n/a	n/a	n/a	-999	12	[0, 0, 0]	n/a	FR1	1	R1156D
1471.118	1.855	1479129	REC_WORD	1.855	n/a	TOAST	10	12	[0, 0, 0]	n/a	FR1	1	R1156D
1472.973	7.771	1480984	REC_WORD	7.771	n/a	CRANE	6	12	[0, 0, 0]	n/a	FR1	1	R1156D
1480.744	3.815	1488755	REC_WORD	3.815	n/a	CROW	2	12	[0, 0, 0]	n/a	FR1	1	R1156D
1484.559	5.48	1492569	REC_WORD	5.48	n/a	BIRD	-999	12	[0, 0, 0]	n/a	FR1	1	R1156D
1490.039	5.705	1498049	REC_WORD	5.705	n/a	NEST	11	12	[0, 0, 0]	n/a	FR1	1	R1156D
1495.744	5.596	1503754	REC_END	n/a	n/a	n/a	-999	12	[0, 0, 0]	n/a	FR1	1	R1156D
1501.34	0.5	1509350	TRIAL	n/a	n/a	n/a	-999	13	[0, 0, 0]	n/a	FR1	1	R1156D
1501.84	10.428	1509850	COUNTDOWN_START	n/a	n/a	n/a	-999	13	[0, 0, 0]	n/a	FR1	1	R1156D
1512.268	0.007	1520277	COUNTDOWN_END	n/a	n/a	n/a	-999	13	[0, 0, 0]	n/a	FR1	1	R1156D
1512.275	1.618	1520284	ORIENT	n/a	n/a	n/a	-999	13	[0, 0, 0]	n/a	FR1	1	R1156D
1513.893	1.933	1521902	ORIENT_OFF	n/a	n/a	n/a	-999	13	[0, 0, 0]	n/a	FR1	1	R1156D
1515.826	1.617	1523835	WORD	n/a	wordpools/wordpool_EN.txt	LAMB	1	13	[0, 0, 0]	n/a	FR1	1	R1156D
1517.443	0.95	1525452	WORD_OFF	n/a	n/a	LAMB	1	13	[0, 0, 0]	n/a	FR1	1	R1156D
1518.393	1.618	1526402	WORD	n/a	wordpools/wordpool_EN.txt	CORN	2	13	[0, 0, 0]	n/a	FR1	1	R1156D
1520.011	0.799	1528020	WORD_OFF	n/a	n/a	CORN	2	13	[0, 0, 0]	n/a	FR1	1	R1156D
1520.81	1.617	1528819	WORD	n/a	wordpools/wordpool_EN.txt	TAIL	3	13	[0, 0, 0]	n/a	FR1	1	R1156D
1522.427	0.967	1530435	WORD_OFF	n/a	n/a	TAIL	3	13	[0, 0, 0]	n/a	FR1	1	R1156D
1523.394	1.618	1531402	WORD	n/a	wordpools/wordpool_EN.txt	COW	4	13	[0, 0, 0]	n/a	FR1	1	R1156D
1525.012	0.95	1533020	WORD_OFF	n/a	n/a	COW	4	13	[0, 0, 0]	n/a	FR1	1	R1156D
1525.962	1.616	1533970	WORD	n/a	wordpools/wordpool_EN.txt	DOG	5	13	[0, 0, 0]	n/a	FR1	1	R1156D
1527.578	0.8	1535586	WORD_OFF	n/a	n/a	DOG	5	13	[0, 0, 0]	n/a	FR1	1	R1156D
1528.378	1.601	1536386	WORD	n/a	wordpools/wordpool_EN.txt	WEED	6	13	[0, 0, 0]	n/a	FR1	1	R1156D
1529.979	0.849	1537987	WORD_OFF	n/a	n/a	WEED	6	13	[0, 0, 0]	n/a	FR1	1	R1156D
1530.828	1.617	1538836	WORD	n/a	wordpools/wordpool_EN.txt	GOAT	7	13	[0, 0, 0]	n/a	FR1	1	R1156D
1532.445	0.818	1540453	WORD_OFF	n/a	n/a	GOAT	7	13	[0, 0, 0]	n/a	FR1	1	R1156D
1533.263	1.617	1541271	WORD	n/a	wordpools/wordpool_EN.txt	MUD	8	13	[0, 0, 0]	n/a	FR1	1	R1156D
1534.88	0.816	1542888	WORD_OFF	n/a	n/a	MUD	8	13	[0, 0, 0]	n/a	FR1	1	R1156D
1535.696	1.617	1543704	WORD	n/a	wordpools/wordpool_EN.txt	FUR	9	13	[0, 0, 0]	n/a	FR1	1	R1156D
1537.313	0.834	1545321	WORD_OFF	n/a	n/a	FUR	9	13	[0, 0, 0]	n/a	FR1	1	R1156D
1538.147	1.616	1546155	WORD	n/a	wordpools/wordpool_EN.txt	CAVE	10	13	[0, 0, 0]	n/a	FR1	1	R1156D
1539.763	0.784	1547770	WORD_OFF	n/a	n/a	CAVE	10	13	[0, 0, 0]	n/a	FR1	1	R1156D
1540.547	1.618	1548554	WORD	n/a	wordpools/wordpool_EN.txt	STRAW	11	13	[0, 0, 0]	n/a	FR1	1	R1156D
1542.165	0.95	1550172	WORD_OFF	n/a	n/a	STRAW	11	13	[0, 0, 0]	n/a	FR1	1	R1156D
1543.115	1.616	1551122	WORD	n/a	wordpools/wordpool_EN.txt	CLIFF	12	13	[0, 0, 0]	n/a	FR1	1	R1156D
1544.731	0.0	1552738	WORD_OFF	n/a	n/a	CLIFF	12	13	[0, 0, 0]	n/a	FR1	1	R1156D
1544.731	0.001	1552738	DISTRACT_START	n/a	n/a	n/a	-999	13	[0, 0, 0]	n/a	FR1	1	R1156D
1544.732	0.016	1552739	START	n/a	n/a	n/a	-999	13	[-999, -999, -999]	n/a	FR1	1	R1156D
1544.748	5.418	1552755	PROB	5.418	n/a	n/a	-999	13	[5, 6, 2]	13	FR1	1	R1156D
1550.166	4.068	1558173	PROB	4.068	n/a	n/a	-999	13	[4, 7, 9]	20	FR1	1	R1156D
1554.234	3.433	1562241	PROB	3.433	n/a	n/a	-999	13	[2, 1, 4]	7	FR1	1	R1156D
1557.667	3.218	1565674	PROB	3.218	n/a	n/a	-999	13	[3, 7, 4]	14	FR1	1	R1156D
1560.885	3.201	1568891	PROB	3.201	n/a	n/a	-999	13	[7, 2, 2]	11	FR1	1	R1156D
1564.086	5.084	1572092	PROB	5.084	n/a	n/a	-999	13	[4, 9, 2]	15	FR1	1	R1156D
1569.17	0.017	1577176	STOP	n/a	n/a	n/a	-999	13	[-999, -999, -999]	n/a	FR1	1	R1156D
1569.187	0.599	1577193	DISTRACT_END	n/a	n/a	n/a	-999	13	[0, 0, 0]	n/a	FR1	1	R1156D
1569.786	0.517	1577792	RETRIEVAL_ORIENT	n/a	n/a	n/a	-999	13	[0, 0, 0]	n/a	FR1	1	R1156D
1570.303	2.667	1578309	REC_START	n/a	n/a	n/a	-999	13	[0, 0, 0]	n/a	FR1	1	R1156D
1572.97	0.965	1580976	REC_WORD_VV	0.965	n/a	<>	-999	13	[0, 0, 0]	n/a	FR1	1	R1156D
1573.935	1.213	1581941	REC_WORD	1.213	n/a	GOAT	7	13	[0, 0, 0]	n/a	FR1	1	R1156D
1575.148	1.37	1583154	REC_WORD	1.37	n/a	LAMB	1	13	[0, 0, 0]	n/a	FR1	1	R1156D
1576.518	1.319	1584524	REC_WORD	1.319	n/a	CLIFF	12	13	[0, 0, 0]	n/a	FR1	1	R1156D
1577.837	10.944	1585842	REC_WORD	10.944	n/a	STRAW	11	13	[0, 0, 0]	n/a	FR1	1	R1156D
1588.781	2.381	1596786	REC_WORD	2.381	n/a	CORN	2	13	[0, 0, 0]	n/a	FR1	1	R1156D
1591.162	6.92	1599167	REC_WORD	6.92	n/a	WEED	6	13	[0, 0, 0]	n/a	FR1	1	R1156D
1598.082	2.233	1606086	REC_WORD	2.233	n/a	TAIL	3	13	[0, 0, 0]	n/a	FR1	1	R1156D
1600.315	5.845	1608319	REC_END	n/a	n/a	n/a	-999	13	[0, 0, 0]	n/a	FR1	1	R1156D
1606.16	0.5	1614164	TRIAL	n/a	n/a	n/a	-999	14	[0, 0, 0]	n/a	FR1	1	R1156D
1606.66	10.428	1614664	COUNTDOWN_START	n/a	n/a	n/a	-999	14	[0, 0, 0]	n/a	FR1	1	R1156D
1617.088	0.007	1625091	COUNTDOWN_END	n/a	n/a	n/a	-999	14	[0, 0, 0]	n/a	FR1	1	R1156D
1617.095	1.616	1625098	ORIENT	n/a	n/a	n/a	-999	14	[0, 0, 0]	n/a	FR1	1	R1156D
1618.711	2.101	1626714	ORIENT_OFF	n/a	n/a	n/a	-999	14	[0, 0, 0]	n/a	FR1	1	R1156D
1620.812	1.617	1628815	WORD	n/a	wordpools/wordpool_EN.txt	PARK	1	14	[0, 0, 0]	n/a	FR1	1	R1156D
1622.429	0.983	1630432	WORD_OFF	n/a	n/a	PARK	1	14	[0, 0, 0]	n/a	FR1	1	R1156D
1623.412	1.601	1631415	WORD	n/a	wordpools/wordpool_EN.txt	POND	2	14	[0, 0, 0]	n/a	FR1	1	R1156D
1625.013	0.851	1633016	WORD_OFF	n/a	n/a	POND	2	14	[0, 0, 0]	n/a	FR1	1	R1156D
1625.864	1.615	1633867	WORD	n/a	wordpools/wordpool_EN.txt	SKI	3	14	[0, 0, 0]	n/a	FR1	1	R1156D
1627.479	0.917	1635482	WORD_OFF	n/a	n/a	SKI	3	14	[0, 0, 0]	n/a	FR1	1	R1156D
1628.396	1.618	1636399	WORD	n/a	wordpools/wordpool_EN.txt	CHALK	4	14	[0, 0, 0]	n/a	FR1	1	R1156D
1630.014	0.984	1638017	WORD_OFF	n/a	n/a	CHALK	4	14	[0, 0, 0]	n/a	FR1	1	R1156D
1630.998	1.616	1639001	WORD	n/a	wordpools/wordpool_EN.txt	WOLF	5	14	[0, 0, 0]	n/a	FR1	1	R1156D
1632.614	0.833	1640616	WORD_OFF	n/a	n/a	WOLF	5	14	[0, 0, 0]	n/a	FR1	1	R1156D
1633.447	1.601	1641449	WORD	n/a	wordpools/wordpool_EN.txt	HORN	6	14	[0, 0, 0]	n/a	FR1	1	R1156D
1635.048	0.934	1643050	WORD_OFF	n/a	n/a	HORN	6	14	[0, 0, 0]	n/a	FR1	1	R1156D
1635.982	1.616	1643984	WORD	n/a	wordpools/wordpool_EN.txt	BADGE	7	14	[0, 0, 0]	n/a	FR1	1	R1156D
1637.598	0.8	1645600	WORD_OFF	n/a	n/a	BADGE	7	14	[0, 0, 0]	n/a	FR1	1	R1156D
1638.398	1.601	1646400	WORD	n/a	wordpools/wordpool_EN.txt	ZOO	8	14	[0, 0, 0]	n/a	FR1	1	R1156D
1639.999	0.833	1648001	WORD_OFF	n/a	n/a	ZOO	8	14	[0, 0, 0]	n/a	FR1	1	R1156D
1640.832	1.617	1648834	WORD	n/a	wordpools/wordpool_EN.txt	OWL	9	14	[0, 0, 0]	n/a	FR1	1	R1156D
1642.449	0.917	1650451	WORD_OFF	n/a	n/a	OWL	9	14	[0, 0, 0]	n/a	FR1	1	R1156D
1643.366	1.618	1651368	WORD	n/a	wordpools/wordpool_EN.txt	DEER	10	14	[0, 0, 0]	n/a	FR1	1	R1156D
1644.984	0.967	1652986	WORD_OFF	n/a	n/a	DEER	10	14	[0, 0, 0]	n/a	FR1	1	R1156D
1645.951	1.616	1653953	WORD	n/a	wordpools/wordpool_EN.txt	DUCK	11	14	[0, 0, 0]	n/a	FR1	1	R1156D
1647.567	0.866	1655569	WORD_OFF	n/a	n/a	DUCK	11	14	[0, 0, 0]	n/a	FR1	1	R1156D
1648.433	1.618	1656435	WORD	n/a	wordpools/wordpool_EN.txt	WHALE	12	14	[0, 0, 0]	n/a	FR1	1	R1156D
1650.051	0.0	1658053	WORD_OFF	n/a	n/a	WHALE	12	14	[0, 0, 0]	n/a	FR1	1	R1156D
1650.051	0.001	1658053	DISTRACT_START	n/a	n/a	n/a	-999	14	[0, 0, 0]	n/a	FR1	1	R1156D
1650.052	0.016	1658054	START	n/a	n/a	n/a	-999	14	[-999, -999, -999]	n/a	FR1	1	R1156D
1650.068	5.118	1658070	PROB	5.118	n/a	n/a	-999	14	[2, 2, 3]	7	FR1	1	R1156D
1655.186	3.199	1663187	PROB	3.199	n/a	n/a	-999	14	[9, 4, 1]	14	FR1	1	R1156D
1658.385	3.785	1666386	PROB	3.785	n/a	n/a	-999	14	[2, 9, 6]	17	FR1	1	R1156D
1662.17	4.55	1670171	PROB	4.55	n/a	n/a	-999	14	[7, 8, 4]	19	FR1	1	R1156D
1666.72	2.734	1674721	PROB	2.734	n/a	n/a	-999	14	[1, 2, 3]	6	FR1	1	R1156D
1669.454	2.748	1677455	PROB	2.748	n/a	n/a	-999	14	[2, 3, 2]	7	FR1	1	R1156D
1672.202	0.02	1680202	STOP	n/a	n/a	n/a	-999	14	[-999, -999, -999]	n/a	FR1	1	R1156D
1672.222	0.583	1680222	DISTRACT_END	n/a	n/a	n/a	-999	14	[0, 0, 0]	n/a	FR1	1	R1156D
1672.805	0.517	1680805	RETRIEVAL_ORIENT	n/a	n/a	n/a	-999	14	[0, 0, 0]	n/a	FR1	1	R1156D
1673.322	1.509	1681322	REC_START	n/a	n/a	n/a	-999	14	[0, 0, 0]	n/a	FR1	1	R1156D
1674.831	2.153	1682831	REC_WORD	2.153	n/a	BADGE	7	14	[0, 0, 0]	n/a	FR1	1	R1156D
1676.984	1.504	1684984	REC_WORD	1.504	n/a	OWL	9	14	[0, 0, 0]	n/a	FR1	1	R1156D
1678.488	1.362	1686488	REC_WORD	1.362	n/a	DUCK	11	14	[0, 0, 0]	n/a	FR1	1	R1156D
1679.85	1.686	1687850	REC_WORD	1.686	n/a	ZOO	8	14	[0, 0, 0]	n/a	FR1	1	R1156D
1681.536	3.323	1689536	REC_WORD	3.323	n/a	DEER	10	14	[0, 0, 0]	n/a	FR1	1	R1156D
1684.859	5.972	1692859	REC_WORD_VV	5.972	n/a	<>	-999	14	[0, 0, 0]	n/a	FR1	1	R1156D
1690.831	11.474	1698830	REC_WORD	11.474	n/a	HORN	6	14	[0, 0, 0]	n/a	FR1	1	R1156D
1702.305	1.027	1710304	REC_WORD_VV	1.027	n/a	<>	-999	14	[0, 0, 0]	n/a	FR1	1	R1156D
1703.332	5.83	1711331	REC_END	n/a	n/a	n/a	-999	14	[0, 0, 0]	n/a	FR1	1	R1156D
1709.162	0.5	1717160	TRIAL	n/a	n/a	n/a	-999	15	[0, 0, 0]	n/a	FR1	1	R1156D
1709.662	10.428	1717660	COUNTDOWN_START	n/a	n/a	n/a	-999	15	[0, 0, 0]	n/a	FR1	1	R1156D
1720.09	0.007	1728088	COUNTDOWN_END	n/a	n/a	n/a	-999	15	[0, 0, 0]	n/a	FR1	1	R1156D
1720.097	1.616	1728095	ORIENT	n/a	n/a	n/a	-999	15	[0, 0, 0]	n/a	FR1	1	R1156D
1721.713	1.984	1729711	ORIENT_OFF	n/a	n/a	n/a	-999	15	[0, 0, 0]	n/a	FR1	1	R1156D
1723.697	1.617	1731695	WORD	n/a	wordpools/wordpool_EN.txt	BAT	1	15	[0, 0, 0]	n/a	FR1	1	R1156D
1725.314	0.918	1733311	WORD_OFF	n/a	n/a	BAT	1	15	[0, 0, 0]	n/a	FR1	1	R1156D
1726.232	1.616	1734229	WORD	n/a	wordpools/wordpool_EN.txt	NET	2	15	[0, 0, 0]	n/a	FR1	1	R1156D
1727.848	0.767	1735845	WORD_OFF	n/a	n/a	NET	2	15	[0, 0, 0]	n/a	FR1	1	R1156D
1728.615	1.618	1736612	WORD	n/a	wordpools/wordpool_EN.txt	SWORD	3	15	[0, 0, 0]	n/a	FR1	1	R1156D
1730.233	0.866	1738230	WORD_OFF	n/a	n/a	SWORD	3	15	[0, 0, 0]	n/a	FR1	1	R1156D
1731.099	1.616	1739096	WORD	n/a	wordpools/wordpool_EN.txt	EEL	4	15	[0, 0, 0]	n/a	FR1	1	R1156D
1732.715	0.951	1740712	WORD_OFF	n/a	n/a	EEL	4	15	[0, 0, 0]	n/a	FR1	1	R1156D
1733.666	1.617	1741663	WORD	n/a	wordpools/wordpool_EN.txt	DOCK	5	15	[0, 0, 0]	n/a	FR1	1	R1156D
1735.283	0.767	1743280	WORD_OFF	n/a	n/a	DOCK	5	15	[0, 0, 0]	n/a	FR1	1	R1156D
1736.05	1.616	1744047	WORD	n/a	wordpools/wordpool_EN.txt	PET	6	15	[0, 0, 0]	n/a	FR1	1	R1156D
1737.666	0.817	1745663	WORD_OFF	n/a	n/a	PET	6	15	[0, 0, 0]	n/a	FR1	1	R1156D
1738.483	1.618	1746480	WORD	n/a	wordpools/wordpool_EN.txt	MAZE	7	15	[0, 0, 0]	n/a	FR1	1	R1156D
1740.101	0.85	1748098	WORD_OFF	n/a	n/a	MAZE	7	15	[0, 0, 0]	n/a	FR1	1	R1156D
1740.951	1.616	1748948	WORD	n/a	wordpools/wordpool_EN.txt	BALL	8	15	[0, 0, 0]	n/a	FR1	1	R1156D
1742.567	0.784	1750564	WORD_OFF	n/a	n/a	BALL	8	15	[0, 0, 0]	n/a	FR1	1	R1156D
1743.351	1.618	1751348	WORD	n/a	wordpools/wordpool_EN.txt	MOUSE	9	15	[0, 0, 0]	n/a	FR1	1	R1156D
1744.969	0.849	1752965	WORD_OFF	n/a	n/a	MOUSE	9	15	[0, 0, 0]	n/a	FR1	1	R1156D
1745.818	1.617	1753814	WORD	n/a	wordpools/wordpool_EN.txt	RAT	10	15	[0, 0, 0]	n/a	FR1	1	R1156D
1747.435	0.834	1755431	WORD_OFF	n/a	n/a	RAT	10	15	[0, 0, 0]	n/a	FR1	1	R1156D
1748.269	1.617	1756265	WORD	n/a	wordpools/wordpool_EN.txt	WALL	11	15	[0, 0, 0]	n/a	FR1	1	R1156D
1749.886	0.899	1757882	WORD_OFF	n/a	n/a	WALL	11	15	[0, 0, 0]	n/a	FR1	1	R1156D
1750.785	1.617	1758781	WORD	n/a	wordpools/wordpool_EN.txt	SHIP	12	15	[0, 0, 0]	n/a	FR1	1	R1156D
1752.402	0.0	1760398	WORD_OFF	n/a	n/a	SHIP	12	15	[0, 0, 0]	n/a	FR1	1	R1156D
1752.402	0.001	1760398	DISTRACT_START	n/a	n/a	n/a	-999	15	[0, 0, 0]	n/a	FR1	1	R1156D
1752.403	0.016	1760399	START	n/a	n/a	n/a	-999	15	[-999, -999, -999]	n/a	FR1	1	R1156D
1752.419	5.368	1760415	PROB	5.368	n/a	n/a	-999	15	[9, 7, 8]	24	FR1	1	R1156D
1757.787	3.784	1765783	PROB	3.784	n/a	n/a	-999	15	[4, 8, 3]	15	FR1	1	R1156D
1761.571	3.318	1769567	PROB	3.318	n/a	n/a	-999	15	[2, 9, 6]	17	FR1	1	R1156D
1764.889	3.234	1772884	PROB	3.234	n/a	n/a	-999	15	[9, 7, 1]	17	FR1	1	R1156D
1768.123	4.101	1776118	PROB	4.101	n/a	n/a	-999	15	[7, 5, 7]	19	FR1	1	R1156D
1772.224	4.281	1780219	PROB	4.281	n/a	n/a	-999	15	[2, 9, 5]	16	FR1	1	R1156D
1776.505	0.018	1784500	STOP	n/a	n/a	n/a	-999	15	[-999, -999, -999]	n/a	FR1	1	R1156D
1776.523	0.602	1784518	DISTRACT_END	n/a	n/a	n/a	-999	15	[0, 0, 0]	n/a	FR1	1	R1156D
1777.125	0.516	1785120	RETRIEVAL_ORIENT	n/a	n/a	n/a	-999	15	[0, 0, 0]	n/a	FR1	1	R1156D
1777.641	4.29	1785636	REC_START	n/a	n/a	n/a	-999	15	[0, 0, 0]	n/a	FR1	1	R1156D
1781.931	2.836	1789925	REC_WORD	2.836	n/a	DOG	-999	15	[0, 0, 0]	n/a	FR1	1	R1156D
1784.767	1.121	1792761	REC_WORD	1.121	n/a	PET	6	15	[0, 0, 0]	n/a	FR1	1	R1156D
1785.888	1.466	1793882	REC_WORD_VV	1.466	n/a	<>	-999	15	[0, 0, 0]	n/a	FR1	1	R1156D
1787.354	5.901	1795348	REC_WORD_VV	5.901	n/a	<>	-999	15	[0, 0, 0]	n/a	FR1	1	R1156D
1793.255	14.396	1801249	REC_WORD_VV	14.396	n/a	<>	-999	15	[0, 0, 0]	n/a	FR1	1	R1156D
1807.651	8.381	1815644	REC_END	n/a	n/a	n/a	-999	15	[0, 0, 0]	n/a	FR1	1	R1156D
1816.032	0.5	1824025	TRIAL	n/a	n/a	n/a	-999	16	[0, 0, 0]	n/a	FR1	1	R1156D
1816.532	10.428	1824525	COUNTDOWN_START	n/a	n/a	n/a	-999	16	[0, 0, 0]	n/a	FR1	1	R1156D
1826.96	0.007	1834952	COUNTDOWN_END	n/a	n/a	n/a	-999	16	[0, 0, 0]	n/a	FR1	1	R1156D
1826.967	1.616	1834959	ORIENT	n/a	n/a	n/a	-999	16	[0, 0, 0]	n/a	FR1	1	R1156D
1828.583	2.234	1836575	ORIENT_OFF	n/a	n/a	n/a	-999	16	[0, 0, 0]	n/a	FR1	1	R1156D
1830.817	1.617	1838809	WORD	n/a	wordpools/wordpool_EN.txt	COIN	1	16	[0, 0, 0]	n/a	FR1	1	R1156D
1832.434	0.9	1840426	WORD_OFF	n/a	n/a	COIN	1	16	[0, 0, 0]	n/a	FR1	1	R1156D
1833.334	1.618	1841326	WORD	n/a	wordpools/wordpool_EN.txt	RAKE	2	16	[0, 0, 0]	n/a	FR1	1	R1156D
1834.952	0.849	1842944	WORD_OFF	n/a	n/a	RAKE	2	16	[0, 0, 0]	n/a	FR1	1	R1156D
1835.801	1.617	1843793	WORD	n/a	wordpools/wordpool_EN.txt	BANK	3	16	[0, 0, 0]	n/a	FR1	1	R1156D
1837.418	0.967	1845409	WORD_OFF	n/a	n/a	BANK	3	16	[0, 0, 0]	n/a	FR1	1	R1156D
1838.385	1.618	1846376	WORD	n/a	wordpools/wordpool_EN.txt	ELF	4	16	[0, 0, 0]	n/a	FR1	1	R1156D
1840.003	0.917	1847994	WORD_OFF	n/a	n/a	ELF	4	16	[0, 0, 0]	n/a	FR1	1	R1156D
1840.92	1.615	1848911	WORD	n/a	wordpools/wordpool_EN.txt	SHEET	5	16	[0, 0, 0]	n/a	FR1	1	R1156D
1842.535	0.867	1850526	WORD_OFF	n/a	n/a	SHEET	5	16	[0, 0, 0]	n/a	FR1	1	R1156D
1843.402	1.618	1851393	WORD	n/a	wordpools/wordpool_EN.txt	STORE	6	16	[0, 0, 0]	n/a	FR1	1	R1156D
1845.02	0.917	1853011	WORD_OFF	n/a	n/a	STORE	6	16	[0, 0, 0]	n/a	FR1	1	R1156D
1845.937	1.616	1853928	WORD	n/a	wordpools/wordpool_EN.txt	JUDGE	7	16	[0, 0, 0]	n/a	FR1	1	R1156D
1847.553	0.8	1855544	WORD_OFF	n/a	n/a	JUDGE	7	16	[0, 0, 0]	n/a	FR1	1	R1156D
1848.353	1.618	1856344	WORD	n/a	wordpools/wordpool_EN.txt	INK	8	16	[0, 0, 0]	n/a	FR1	1	R1156D
1849.971	0.934	1857962	WORD_OFF	n/a	n/a	INK	8	16	[0, 0, 0]	n/a	FR1	1	R1156D
1850.905	1.616	1858896	WORD	n/a	wordpools/wordpool_EN.txt	BOOK	9	16	[0, 0, 0]	n/a	FR1	1	R1156D
1852.521	0.833	1860512	WORD_OFF	n/a	n/a	BOOK	9	16	[0, 0, 0]	n/a	FR1	1	R1156D
1853.354	1.618	1861345	WORD	n/a	wordpools/wordpool_EN.txt	JAIL	10	16	[0, 0, 0]	n/a	FR1	1	R1156D
1854.972	0.934	1862963	WORD_OFF	n/a	n/a	JAIL	10	16	[0, 0, 0]	n/a	FR1	1	R1156D
1855.906	1.616	1863896	WORD	n/a	wordpools/wordpool_EN.txt	MAIL	11	16	[0, 0, 0]	n/a	FR1	1	R1156D
1857.522	0.8	1865512	WORD_OFF	n/a	n/a	MAIL	11	16	[0, 0, 0]	n/a	FR1	1	R1156D
1858.322	1.618	1866312	WORD	n/a	wordpools/wordpool_EN.txt	HORSE	12	16	[0, 0, 0]	n/a	FR1	1	R1156D
1859.94	0.0	1867930	DISTRACT_START	n/a	n/a	n/a	-999	16	[0, 0, 0]	n/a	FR1	1	R1156D
1859.94	0.0	1867930	WORD_OFF	n/a	n/a	HORSE	12	16	[0, 0, 0]	n/a	FR1	1	R1156D
1859.94	0.016	1867930	START	n/a	n/a	n/a	-999	16	[-999, -999, -999]	n/a	FR1	1	R1156D
1859.956	5.467	1867946	PROB	5.467	n/a	n/a	-999	16	[3, 3, 2]	8	FR1	1	R1156D
1865.423	2.818	1873413	PROB	2.818	n/a	n/a	-999	16	[2, 5, 5]	12	FR1	1	R1156D
1868.241	2.934	1876231	PROB	2.934	n/a	n/a	-999	16	[2, 3, 7]	12	FR1	1	R1156D
1871.175	3.2	1879165	PROB	3.2	n/a	n/a	-999	16	[5, 6, 5]	16	FR1	1	R1156D
1874.375	2.584	1882364	PROB	2.584	n/a	n/a	-999	16	[3, 4, 2]	9	FR1	1	R1156D
1876.959	3.562	1884948	PROB	3.562	n/a	n/a	-999	16	[3, 5, 6]	14	FR1	1	R1156D
1880.521	0.005	1888510	STOP	n/a	n/a	n/a	-999	16	[-999, -999, -999]	n/a	FR1	1	R1156D
1880.526	0.651	1888515	DISTRACT_END	n/a	n/a	n/a	-999	16	[0, 0, 0]	n/a	FR1	1	R1156D
1881.177	0.516	1889166	RETRIEVAL_ORIENT	n/a	n/a	n/a	-999	16	[0, 0, 0]	n/a	FR1	1	R1156D
1881.693	1.931	1889682	REC_START	n/a	n/a	n/a	-999	16	[0, 0, 0]	n/a	FR1	1	R1156D
1883.624	0.899	1891613	REC_WORD_VV	0.899	n/a	<>	-999	16	[0, 0, 0]	n/a	FR1	1	R1156D
1884.523	2.13	1892512	REC_WORD	2.13	n/a	JAIL	10	16	[0, 0, 0]	n/a	FR1	1	R1156D
1886.653	1.193	1894642	REC_WORD	1.193	n/a	BOOK	9	16	[0, 0, 0]	n/a	FR1	1	R1156D
1887.846	1.283	1895835	REC_WORD	1.283	n/a	BANK	3	16	[0, 0, 0]	n/a	FR1	1	R1156D
1889.129	3.032	1897118	REC_WORD	3.032	n/a	COIN	1	16	[0, 0, 0]	n/a	FR1	1	R1156D
1892.161	19.544	1900150	REC_WORD	19.544	n/a	SHEET	5	16	[0, 0, 0]	n/a	FR1	1	R1156D
1911.705	7.678	1919692	REC_END	n/a	n/a	n/a	-999	16	[0, 0, 0]	n/a	FR1	1	R1156D
1919.383	0.5	1927370	TRIAL	n/a	n/a	n/a	-999	17	[0, 0, 0]	n/a	FR1	1	R1156D
1919.883	10.428	1927870	COUNTDOWN_START	n/a	n/a	n/a	-999	17	[0, 0, 0]	n/a	FR1	1	R1156D
1930.311	0.007	1938297	COUNTDOWN_END	n/a	n/a	n/a	-999	17	[0, 0, 0]	n/a	FR1	1	R1156D
1930.318	1.618	1938304	ORIENT	n/a	n/a	n/a	-999	17	[0, 0, 0]	n/a	FR1	1	R1156D
1931.936	1.8	1939922	ORIENT_OFF	n/a	n/a	n/a	-999	17	[0, 0, 0]	n/a	FR1	1	R1156D
1933.736	1.617	1941722	WORD	n/a	wordpools/wordpool_EN.txt	SNAKE	1	17	[0, 0, 0]	n/a	FR1	1	R1156D
1935.353	1.0	1943339	WORD_OFF	n/a	n/a	SNAKE	1	17	[0, 0, 0]	n/a	FR1	1	R1156D
1936.353	1.618	1944339	WORD	n/a	wordpools/wordpool_EN.txt	BIRD	2	17	[0, 0, 0]	n/a	FR1	1	R1156D
1937.971	0.832	1945957	WORD_OFF	n/a	n/a	BIRD	2	17	[0, 0, 0]	n/a	FR1	1	R1156D
1938.803	1.617	1946789	WORD	n/a	wordpools/wordpool_EN.txt	TREE	3	17	[0, 0, 0]	n/a	FR1	1	R1156D
1940.42	0.95	1948406	WORD_OFF	n/a	n/a	TREE	3	17	[0, 0, 0]	n/a	FR1	1	R1156D
1941.37	1.618	1949356	WORD	n/a	wordpools/wordpool_EN.txt	FISH	4	17	[0, 0, 0]	n/a	FR1	1	R1156D
1942.988	1.0	1950974	WORD_OFF	n/a	n/a	FISH	4	17	[0, 0, 0]	n/a	FR1	1	R1156D
1943.988	1.616	1951974	WORD	n/a	wordpools/wordpool_EN.txt	LEAF	5	17	[0, 0, 0]	n/a	FR1	1	R1156D
1945.604	0.767	1953590	WORD_OFF	n/a	n/a	LEAF	5	17	[0, 0, 0]	n/a	FR1	1	R1156D
1946.371	1.618	1954357	WORD	n/a	wordpools/wordpool_EN.txt	BEAN	6	17	[0, 0, 0]	n/a	FR1	1	R1156D
1947.989	0.782	1955975	WORD_OFF	n/a	n/a	BEAN	6	17	[0, 0, 0]	n/a	FR1	1	R1156D
1948.771	1.617	1956756	WORD	n/a	wordpools/wordpool_EN.txt	GRASS	7	17	[0, 0, 0]	n/a	FR1	1	R1156D
1950.388	0.984	1958373	WORD_OFF	n/a	n/a	GRASS	7	17	[0, 0, 0]	n/a	FR1	1	R1156D
1951.372	1.601	1959357	WORD	n/a	wordpools/wordpool_EN.txt	WORLD	8	17	[0, 0, 0]	n/a	FR1	1	R1156D
1952.973	0.967	1960958	WORD_OFF	n/a	n/a	WORLD	8	17	[0, 0, 0]	n/a	FR1	1	R1156D
1953.94	1.616	1961925	WORD	n/a	wordpools/wordpool_EN.txt	FRUIT	9	17	[0, 0, 0]	n/a	FR1	1	R1156D
1955.556	0.767	1963541	WORD_OFF	n/a	n/a	FRUIT	9	17	[0, 0, 0]	n/a	FR1	1	R1156D
1956.323	1.618	1964308	WORD	n/a	wordpools/wordpool_EN.txt	PIT	10	17	[0, 0, 0]	n/a	FR1	1	R1156D
1957.941	0.899	1965926	WORD_OFF	n/a	n/a	PIT	10	17	[0, 0, 0]	n/a	FR1	1	R1156D
1958.84	1.617	1966825	WORD	n/a	wordpools/wordpool_EN.txt	CANE	11	17	[0, 0, 0]	n/a	FR1	1	R1156D
1960.457	0.917	1968442	WORD_OFF	n/a	n/a	CANE	11	17	[0, 0, 0]	n/a	FR1	1	R1156D
1961.374	1.618	1969359	WORD	n/a	wordpools/wordpool_EN.txt	RICE	12	17	[0, 0, 0]	n/a	FR1	1	R1156D
1962.992	0.0	1970977	WORD_OFF	n/a	n/a	RICE	12	17	[0, 0, 0]	n/a	FR1	1	R1156D
1962.992	0.0	1970977	DISTRACT_START	n/a	n/a	n/a	-999	17	[0, 0, 0]	n/a	FR1	1	R1156D
1962.992	0.017	1970977	START	n/a	n/a	n/a	-999	17	[-999, -999, -999]	n/a	FR1	1	R1156D
1963.009	4.583	1970994	PROB	4.583	n/a	n/a	-999	17	[8, 1, 2]	11	FR1	1	R1156D
1967.592	3.884	1975576	PROB	3.884	n/a	n/a	-999	17	[6, 7, 1]	14	FR1	1	R1156D
1971.476	3.718	1979460	PROB	3.718	n/a	n/a	-999	17	[5, 3, 6]	14	FR1	1	R1156D
1975.194	3.867	1983178	PROB	3.867	n/a	n/a	-999	17	[8, 5, 3]	16	FR1	1	R1156D
1979.061	3.965	1987045	PROB	3.965	n/a	n/a	-999	17	[6, 9, 9]	25	FR1	1	R1156D
1983.026	0.02	1991010	STOP	n/a	n/a	n/a	-999	17	[-999, -999, -999]	n/a	FR1	1	R1156D
1983.046	0.549	1991030	DISTRACT_END	n/a	n/a	n/a	-999	17	[0, 0, 0]	n/a	FR1	1	R1156D
1983.595	0.518	1991579	RETRIEVAL_ORIENT	n/a	n/a	n/a	-999	17	[0, 0, 0]	n/a	FR1	1	R1156D
1984.113	3.417	1992097	REC_START	n/a	n/a	n/a	-999	17	[0, 0, 0]	n/a	FR1	1	R1156D
1987.53	1.0	1995513	REC_WORD_VV	1.0	n/a	<>	-999	17	[0, 0, 0]	n/a	FR1	1	R1156D
1988.53	1.0	1996513	REC_WORD_VV	1.0	n/a	<>	-999	17	[0, 0, 0]	n/a	FR1	1	R1156D
1989.53	7.655	1997513	REC_WORD_VV	7.655	n/a	<>	-999	17	[0, 0, 0]	n/a	FR1	1	R1156D
1997.185	1.846	2005168	REC_WORD	1.846	n/a	CANE	11	17	[0, 0, 0]	n/a	FR1	1	R1156D
1999.031	4.558	2007014	REC_WORD	4.558	n/a	RICE	12	17	[0, 0, 0]	n/a	FR1	1	R1156D
2003.589	2.262	2011572	REC_WORD	2.262	n/a	TREE	3	17	[0, 0, 0]	n/a	FR1	1	R1156D
2005.851	1.804	2013833	REC_WORD	1.804	n/a	BIRD	2	17	[0, 0, 0]	n/a	FR1	1	R1156D
2007.655	2.063	2015637	REC_WORD	2.063	n/a	SNAKE	1	17	[0, 0, 0]	n/a	FR1	1	R1156D
2009.718	4.407	2017700	REC_WORD	4.407	n/a	FISH	4	17	[0, 0, 0]	n/a	FR1	1	R1156D
2014.125	5.61	2022107	REC_END	n/a	n/a	n/a	-999	17	[0, 0, 0]	n/a	FR1	1	R1156D
2019.735	0.5	2027717	TRIAL	n/a	n/a	n/a	-999	18	[0, 0, 0]	n/a	FR1	1	R1156D
2020.235	10.428	2028217	COUNTDOWN_START	n/a	n/a	n/a	-999	18	[0, 0, 0]	n/a	FR1	1	R1156D
2030.663	0.007	2038644	COUNTDOWN_END	n/a	n/a	n/a	-999	18	[0, 0, 0]	n/a	FR1	1	R1156D
2030.67	1.601	2038651	ORIENT	n/a	n/a	n/a	-999	18	[0, 0, 0]	n/a	FR1	1	R1156D
2032.271	2.25	2040252	ORIENT_OFF	n/a	n/a	n/a	-999	18	[0, 0, 0]	n/a	FR1	1	R1156D
2034.521	1.618	2042502	WORD	n/a	wordpools/wordpool_EN.txt	BOMB	1	18	[0, 0, 0]	n/a	FR1	1	R1156D
2036.139	0.966	2044120	WORD_OFF	n/a	n/a	BOMB	1	18	[0, 0, 0]	n/a	FR1	1	R1156D
2037.105	1.616	2045086	WORD	n/a	wordpools/wordpool_EN.txt	BOARD	2	18	[0, 0, 0]	n/a	FR1	1	R1156D
2038.721	0.85	2046702	WORD_OFF	n/a	n/a	BOARD	2	18	[0, 0, 0]	n/a	FR1	1	R1156D
2039.571	1.619	2047552	WORD	n/a	wordpools/wordpool_EN.txt	LAKE	3	18	[0, 0, 0]	n/a	FR1	1	R1156D
2041.19	0.816	2049170	WORD_OFF	n/a	n/a	LAKE	3	18	[0, 0, 0]	n/a	FR1	1	R1156D
2042.006	1.616	2049986	WORD	n/a	wordpools/wordpool_EN.txt	BOAT	4	18	[0, 0, 0]	n/a	FR1	1	R1156D
2043.622	0.917	2051602	WORD_OFF	n/a	n/a	BOAT	4	18	[0, 0, 0]	n/a	FR1	1	R1156D
2044.539	1.618	2052519	WORD	n/a	wordpools/wordpool_EN.txt	PEARL	5	18	[0, 0, 0]	n/a	FR1	1	R1156D
2046.157	0.884	2054137	WORD_OFF	n/a	n/a	PEARL	5	18	[0, 0, 0]	n/a	FR1	1	R1156D
2047.041	1.616	2055021	WORD	n/a	wordpools/wordpool_EN.txt	KITE	6	18	[0, 0, 0]	n/a	FR1	1	R1156D
2048.657	0.9	2056637	WORD_OFF	n/a	n/a	KITE	6	18	[0, 0, 0]	n/a	FR1	1	R1156D
2049.557	1.618	2057537	WORD	n/a	wordpools/wordpool_EN.txt	SOUP	7	18	[0, 0, 0]	n/a	FR1	1	R1156D
2051.175	1.0	2059155	WORD_OFF	n/a	n/a	SOUP	7	18	[0, 0, 0]	n/a	FR1	1	R1156D
2052.175	1.616	2060155	WORD	n/a	wordpools/wordpool_EN.txt	SWAMP	8	18	[0, 0, 0]	n/a	FR1	1	R1156D
2053.791	0.983	2061771	WORD_OFF	n/a	n/a	SWAMP	8	18	[0, 0, 0]	n/a	FR1	1	R1156D
2054.774	1.617	2062754	WORD	n/a	wordpools/wordpool_EN.txt	CLOUD	9	18	[0, 0, 0]	n/a	FR1	1	R1156D
2056.391	1.017	2064371	WORD_OFF	n/a	n/a	CLOUD	9	18	[0, 0, 0]	n/a	FR1	1	R1156D
2057.408	1.618	2065388	WORD	n/a	wordpools/wordpool_EN.txt	SPONGE	10	18	[0, 0, 0]	n/a	FR1	1	R1156D
2059.026	0.867	2067006	WORD_OFF	n/a	n/a	SPONGE	10	18	[0, 0, 0]	n/a	FR1	1	R1156D
2059.893	1.616	2067872	WORD	n/a	wordpools/wordpool_EN.txt	SHRIMP	11	18	[0, 0, 0]	n/a	FR1	1	R1156D
2061.509	1.0	2069488	WORD_OFF	n/a	n/a	SHRIMP	11	18	[0, 0, 0]	n/a	FR1	1	R1156D
2062.509	1.618	2070488	WORD	n/a	wordpools/wordpool_EN.txt	STAR	12	18	[0, 0, 0]	n/a	FR1	1	R1156D
2064.127	0.0	2072106	DISTRACT_START	n/a	n/a	n/a	-999	18	[0, 0, 0]	n/a	FR1	1	R1156D
2064.127	0.001	2072106	WORD_OFF	n/a	n/a	STAR	12	18	[0, 0, 0]	n/a	FR1	1	R1156D
2064.128	0.016	2072107	START	n/a	n/a	n/a	-999	18	[-999, -999, -999]	n/a	FR1	1	R1156D
2064.144	3.767	2072123	PROB	3.767	n/a	n/a	-999	18	[8, 8, 5]	21	FR1	1	R1156D
2067.911	2.716	2075890	PROB	2.716	n/a	n/a	-999	18	[4, 6, 1]	11	FR1	1	R1156D
2070.627	2.967	2078606	PROB	2.967	n/a	n/a	-999	18	[4, 1, 4]	9	FR1	1	R1156D
2073.594	3.569	2081573	PROB	3.569	n/a	n/a	-999	18	[1, 5, 4]	10	FR1	1	R1156D
2077.163	3.834	2085142	PROB	3.834	n/a	n/a	-999	18	[2, 3, 5]	10	FR1	1	R1156D
2080.997	5.852	2088975	PROB	5.852	n/a	n/a	-999	18	[2, 1, 6]	9	FR1	1	R1156D
2086.849	0.016	2094827	STOP	n/a	n/a	n/a	-999	18	[-999, -999, -999]	n/a	FR1	1	R1156D
2086.865	0.665	2094843	DISTRACT_END	n/a	n/a	n/a	-999	18	[0, 0, 0]	n/a	FR1	1	R1156D
2087.53	0.519	2095508	RETRIEVAL_ORIENT	n/a	n/a	n/a	-999	18	[0, 0, 0]	n/a	FR1	1	R1156D
2088.049	5.914	2096027	REC_START	n/a	n/a	n/a	-999	18	[0, 0, 0]	n/a	FR1	1	R1156D
2093.963	2.645	2101941	REC_WORD	2.645	n/a	BOMB	1	18	[0, 0, 0]	n/a	FR1	1	R1156D
2096.608	1.872	2104585	REC_WORD_VV	1.872	n/a	<>	-999	18	[0, 0, 0]	n/a	FR1	1	R1156D
2098.48	4.93	2106457	REC_WORD	4.93	n/a	SMOKE	-999	18	[0, 0, 0]	n/a	FR1	1	R1156D
2103.41	14.649	2111387	REC_WORD	14.649	n/a	SHELL	-999	18	[0, 0, 0]	n/a	FR1	1	R1156D
2118.059	6.062	2126035	REC_END	n/a	n/a	n/a	-999	18	[0, 0, 0]	n/a	FR1	1	R1156D
2124.121	0.5	2132097	TRIAL	n/a	n/a	n/a	-999	19	[0, 0, 0]	n/a	FR1	1	R1156D
2124.621	10.428	2132597	COUNTDOWN_START	n/a	n/a	n/a	-999	19	[0, 0, 0]	n/a	FR1	1	R1156D
2135.049	0.008	2143024	COUNTDOWN_END	n/a	n/a	n/a	-999	19	[0, 0, 0]	n/a	FR1	1	R1156D
2135.057	1.616	2143032	ORIENT	n/a	n/a	n/a	-999	19	[0, 0, 0]	n/a	FR1	1	R1156D
2136.673	1.9	2144648	ORIENT_OFF	n/a	n/a	n/a	-999	19	[0, 0, 0]	n/a	FR1	1	R1156D
2138.573	1.618	2146548	WORD	n/a	wordpools/wordpool_EN.txt	SIGN	1	19	[0, 0, 0]	n/a	FR1	1	R1156D
2140.191	1.017	2148166	WORD_OFF	n/a	n/a	SIGN	1	19	[0, 0, 0]	n/a	FR1	1	R1156D
2141.208	1.616	2149183	WORD	n/a	wordpools/wordpool_EN.txt	WAVE	2	19	[0, 0, 0]	n/a	FR1	1	R1156D
2142.824	0.867	2150799	WORD_OFF	n/a	n/a	WAVE	2	19	[0, 0, 0]	n/a	FR1	1	R1156D
2143.691	1.617	2151666	WORD	n/a	wordpools/wordpool_EN.txt	GLASS	3	19	[0, 0, 0]	n/a	FR1	1	R1156D
2145.308	0.867	2153283	WORD_OFF	n/a	n/a	GLASS	3	19	[0, 0, 0]	n/a	FR1	1	R1156D
2146.175	1.616	2154150	WORD	n/a	wordpools/wordpool_EN.txt	CLOCK	4	19	[0, 0, 0]	n/a	FR1	1	R1156D
2147.791	0.984	2155766	WORD_OFF	n/a	n/a	CLOCK	4	19	[0, 0, 0]	n/a	FR1	1	R1156D
2148.775	1.617	2156750	WORD	n/a	wordpools/wordpool_EN.txt	SEAL	5	19	[0, 0, 0]	n/a	FR1	1	R1156D
2150.392	0.834	2158367	WORD_OFF	n/a	n/a	SEAL	5	19	[0, 0, 0]	n/a	FR1	1	R1156D
2151.226	1.616	2159201	WORD	n/a	wordpools/wordpool_EN.txt	FORK	6	19	[0, 0, 0]	n/a	FR1	1	R1156D
2152.842	0.984	2160816	WORD_OFF	n/a	n/a	FORK	6	19	[0, 0, 0]	n/a	FR1	1	R1156D
2153.826	1.617	2161800	WORD	n/a	wordpools/wordpool_EN.txt	SNAIL	7	19	[0, 0, 0]	n/a	FR1	1	R1156D
2155.443	0.883	2163417	WORD_OFF	n/a	n/a	SNAIL	7	19	[0, 0, 0]	n/a	FR1	1	R1156D
2156.326	1.618	2164300	WORD	n/a	wordpools/wordpool_EN.txt	DRESS	8	19	[0, 0, 0]	n/a	FR1	1	R1156D
2157.944	0.983	2165918	WORD_OFF	n/a	n/a	DRESS	8	19	[0, 0, 0]	n/a	FR1	1	R1156D
2158.927	1.617	2166901	WORD	n/a	wordpools/wordpool_EN.txt	ROCK	9	19	[0, 0, 0]	n/a	FR1	1	R1156D
2160.544	0.867	2168518	WORD_OFF	n/a	n/a	ROCK	9	19	[0, 0, 0]	n/a	FR1	1	R1156D
2161.411	1.618	2169385	WORD	n/a	wordpools/wordpool_EN.txt	BEACH	10	19	[0, 0, 0]	n/a	FR1	1	R1156D
2163.029	0.815	2171003	WORD_OFF	n/a	n/a	BEACH	10	19	[0, 0, 0]	n/a	FR1	1	R1156D
2163.844	1.617	2171818	WORD	n/a	wordpools/wordpool_EN.txt	PANTS	11	19	[0, 0, 0]	n/a	FR1	1	R1156D
2165.461	0.85	2173435	WORD_OFF	n/a	n/a	PANTS	11	19	[0, 0, 0]	n/a	FR1	1	R1156D
2166.311	1.618	2174285	WORD	n/a	wordpools/wordpool_EN.txt	SHARK	12	19	[0, 0, 0]	n/a	FR1	1	R1156D
2167.929	0.0	2175903	WORD_OFF	n/a	n/a	SHARK	12	19	[0, 0, 0]	n/a	FR1	1	R1156D
2167.929	0.001	2175903	DISTRACT_START	n/a	n/a	n/a	-999	19	[0, 0, 0]	n/a	FR1	1	R1156D
2167.93	0.016	2175904	START	n/a	n/a	n/a	-999	19	[-999, -999, -999]	n/a	FR1	1	R1156D
2167.946	4.867	2175920	PROB	4.867	n/a	n/a	-999	19	[4, 9, 2]	15	FR1	1	R1156D
2172.813	3.75	2180786	PROB	3.75	n/a	n/a	-999	19	[4, 9, 5]	18	FR1	1	R1156D
2176.563	3.984	2184536	PROB	3.984	n/a	n/a	-999	19	[2, 7, 8]	17	FR1	1	R1156D
2180.547	3.918	2188520	PROB	3.918	n/a	n/a	-999	19	[7, 4, 7]	18	FR1	1	R1156D
2184.465	2.967	2192438	PROB	2.967	n/a	n/a	-999	19	[5, 5, 7]	17	FR1	1	R1156D
2187.432	3.057	2195405	PROB	3.057	n/a	n/a	-999	19	[1, 7, 8]	16	FR1	1	R1156D
2190.489	0.01	2198461	STOP	n/a	n/a	n/a	-999	19	[-999, -999, -999]	n/a	FR1	1	R1156D
2190.499	0.685	2198471	DISTRACT_END	n/a	n/a	n/a	-999	19	[0, 0, 0]	n/a	FR1	1	R1156D
2191.184	0.516	2199156	RETRIEVAL_ORIENT	n/a	n/a	n/a	-999	19	[0, 0, 0]	n/a	FR1	1	R1156D
2191.7	0.979	2199672	REC_START	n/a	n/a	n/a	-999	19	[0, 0, 0]	n/a	FR1	1	R1156D
2192.679	0.195	2200651	REC_WORD_VV	0.195	n/a	<>	-999	19	[0, 0, 0]	n/a	FR1	1	R1156D
2192.874	19.873	2200846	REC_WORD	19.873	n/a	SHARK	12	19	[0, 0, 0]	n/a	FR1	1	R1156D
2212.747	1.0	2220718	REC_WORD_VV	1.0	n/a	<>	-999	19	[0, 0, 0]	n/a	FR1	1	R1156D
2213.747	1.0	2221718	REC_WORD_VV	1.0	n/a	<>	-999	19	[0, 0, 0]	n/a	FR1	1	R1156D
2214.747	1.0	2222718	REC_WORD_VV	1.0	n/a	<>	-999	19	[0, 0, 0]	n/a	FR1	1	R1156D
2215.747	1.0	2223718	REC_WORD_VV	1.0	n/a	<>	-999	19	[0, 0, 0]	n/a	FR1	1	R1156D
2216.747	1.0	2224718	REC_WORD_VV	1.0	n/a	<>	-999	19	[0, 0, 0]	n/a	FR1	1	R1156D
2217.747	0.876	2225718	REC_WORD_VV	0.876	n/a	<>	-999	19	[0, 0, 0]	n/a	FR1	1	R1156D
2218.623	2.079	2226594	REC_WORD_VV	2.079	n/a	<>	-999	19	[0, 0, 0]	n/a	FR1	1	R1156D
2220.702	1.008	2228673	REC_WORD_VV	1.008	n/a	<>	-999	19	[0, 0, 0]	n/a	FR1	1	R1156D
2221.71	20.899	2229681	REC_END	n/a	n/a	n/a	-999	19	[0, 0, 0]	n/a	FR1	1	R1156D
2242.609	0.5	2250579	TRIAL	n/a	n/a	n/a	-999	20	[0, 0, 0]	n/a	FR1	1	R1156D
2243.109	10.428	2251079	COUNTDOWN_START	n/a	n/a	n/a	-999	20	[0, 0, 0]	n/a	FR1	1	R1156D
2253.537	0.007	2261506	COUNTDOWN_END	n/a	n/a	n/a	-999	20	[0, 0, 0]	n/a	FR1	1	R1156D
2253.544	1.601	2261513	ORIENT	n/a	n/a	n/a	-999	20	[0, 0, 0]	n/a	FR1	1	R1156D
2255.145	2.283	2263114	ORIENT_OFF	n/a	n/a	n/a	-999	20	[0, 0, 0]	n/a	FR1	1	R1156D
2257.428	1.601	2265397	WORD	n/a	wordpools/wordpool_EN.txt	WING	1	20	[0, 0, 0]	n/a	FR1	1	R1156D
2259.029	0.951	2266998	WORD_OFF	n/a	n/a	WING	1	20	[0, 0, 0]	n/a	FR1	1	R1156D
2259.98	1.616	2267949	WORD	n/a	wordpools/wordpool_EN.txt	MILK	2	20	[0, 0, 0]	n/a	FR1	1	R1156D
2261.596	0.933	2269565	WORD_OFF	n/a	n/a	MILK	2	20	[0, 0, 0]	n/a	FR1	1	R1156D
2262.529	1.618	2270498	WORD	n/a	wordpools/wordpool_EN.txt	MOUTH	3	20	[0, 0, 0]	n/a	FR1	1	R1156D
2264.147	0.817	2272115	WORD_OFF	n/a	n/a	MOUTH	3	20	[0, 0, 0]	n/a	FR1	1	R1156D
2264.964	1.616	2272932	WORD	n/a	wordpools/wordpool_EN.txt	TEETH	4	20	[0, 0, 0]	n/a	FR1	1	R1156D
2266.58	0.85	2274548	WORD_OFF	n/a	n/a	TEETH	4	20	[0, 0, 0]	n/a	FR1	1	R1156D
2267.43	1.618	2275398	WORD	n/a	wordpools/wordpool_EN.txt	ROOT	5	20	[0, 0, 0]	n/a	FR1	1	R1156D
2269.048	0.967	2277016	WORD_OFF	n/a	n/a	ROOT	5	20	[0, 0, 0]	n/a	FR1	1	R1156D
2270.015	1.616	2277983	WORD	n/a	wordpools/wordpool_EN.txt	BRANCH	6	20	[0, 0, 0]	n/a	FR1	1	R1156D
2271.631	0.816	2279599	WORD_OFF	n/a	n/a	BRANCH	6	20	[0, 0, 0]	n/a	FR1	1	R1156D
2272.447	1.619	2280415	WORD	n/a	wordpools/wordpool_EN.txt	STEM	7	20	[0, 0, 0]	n/a	FR1	1	R1156D
2274.066	0.782	2282034	WORD_OFF	n/a	n/a	STEM	7	20	[0, 0, 0]	n/a	FR1	1	R1156D
2274.848	1.617	2282816	WORD	n/a	wordpools/wordpool_EN.txt	BLOOM	8	20	[0, 0, 0]	n/a	FR1	1	R1156D
2276.465	0.983	2284433	WORD_OFF	n/a	n/a	BLOOM	8	20	[0, 0, 0]	n/a	FR1	1	R1156D
2277.448	1.618	2285416	WORD	n/a	wordpools/wordpool_EN.txt	TOOTH	9	20	[0, 0, 0]	n/a	FR1	1	R1156D
2279.066	0.901	2287034	WORD_OFF	n/a	n/a	TOOTH	9	20	[0, 0, 0]	n/a	FR1	1	R1156D
2279.967	1.615	2287935	WORD	n/a	wordpools/wordpool_EN.txt	SEA	10	20	[0, 0, 0]	n/a	FR1	1	R1156D
2281.582	0.784	2289550	WORD_OFF	n/a	n/a	SEA	10	20	[0, 0, 0]	n/a	FR1	1	R1156D
2282.366	1.618	2290333	WORD	n/a	wordpools/wordpool_EN.txt	TANK	11	20	[0, 0, 0]	n/a	FR1	1	R1156D
2283.984	0.766	2291951	WORD_OFF	n/a	n/a	TANK	11	20	[0, 0, 0]	n/a	FR1	1	R1156D
2284.75	1.617	2292717	WORD	n/a	wordpools/wordpool_EN.txt	APE	12	20	[0, 0, 0]	n/a	FR1	1	R1156D
2286.367	0.0	2294334	WORD_OFF	n/a	n/a	APE	12	20	[0, 0, 0]	n/a	FR1	1	R1156D
2286.367	0.0	2294334	DISTRACT_START	n/a	n/a	n/a	-999	20	[0, 0, 0]	n/a	FR1	1	R1156D
2286.367	0.016	2294334	START	n/a	n/a	n/a	-999	20	[-999, -999, -999]	n/a	FR1	1	R1156D
2286.383	4.385	2294350	PROB	4.385	n/a	n/a	-999	20	[8, 6, 4]	18	FR1	1	R1156D
2290.768	4.067	2298735	PROB	4.067	n/a	n/a	-999	20	[4, 7, 6]	17	FR1	1	R1156D
2294.835	4.551	2302802	PROB	4.551	n/a	n/a	-999	20	[9, 4, 8]	21	FR1	1	R1156D
2299.386	5.167	2307353	PROB	5.167	n/a	n/a	-999	20	[2, 5, 9]	16	FR1	1	R1156D
2304.553	2.935	2312519	PROB	2.935	n/a	n/a	-999	20	[8, 8, 5]	21	FR1	1	R1156D
2307.488	0.016	2315454	STOP	n/a	n/a	n/a	-999	20	[-999, -999, -999]	n/a	FR1	1	R1156D
2307.504	0.618	2315470	DISTRACT_END	n/a	n/a	n/a	-999	20	[0, 0, 0]	n/a	FR1	1	R1156D
2308.122	0.516	2316088	RETRIEVAL_ORIENT	n/a	n/a	n/a	-999	20	[0, 0, 0]	n/a	FR1	1	R1156D
2308.638	2.161	2316604	REC_START	n/a	n/a	n/a	-999	20	[0, 0, 0]	n/a	FR1	1	R1156D
2310.799	0.157	2318765	REC_WORD_VV	0.157	n/a	<>	-999	20	[0, 0, 0]	n/a	FR1	1	R1156D
2310.956	0.432	2318922	REC_WORD	0.432	n/a	SEA	10	20	[0, 0, 0]	n/a	FR1	1	R1156D
2311.388	0.372	2319354	REC_WORD	0.372	n/a	TANK	11	20	[0, 0, 0]	n/a	FR1	1	R1156D
2311.76	1.179	2319726	REC_WORD	1.179	n/a	APE	12	20	[0, 0, 0]	n/a	FR1	1	R1156D
2312.939	1.0	2320905	REC_WORD_VV	1.0	n/a	<>	-999	20	[0, 0, 0]	n/a	FR1	1	R1156D
2313.939	2.614	2321905	REC_WORD_VV	2.614	n/a	<>	-999	20	[0, 0, 0]	n/a	FR1	1	R1156D
2316.553	1.297	2324519	REC_WORD	1.297	n/a	MOUTH	3	20	[0, 0, 0]	n/a	FR1	1	R1156D
2317.85	1.463	2325816	REC_WORD	1.463	n/a	TEETH	4	20	[0, 0, 0]	n/a	FR1	1	R1156D
2319.313	1.403	2327279	REC_WORD	1.403	n/a	TOOTH	9	20	[0, 0, 0]	n/a	FR1	1	R1156D
2320.716	16.64	2328681	REC_WORD	16.64	n/a	MILK	2	20	[0, 0, 0]	n/a	FR1	1	R1156D
2337.356	1.027	2345321	REC_WORD	1.027	n/a	SPOON	-999	20	[0, 0, 0]	n/a	FR1	1	R1156D
2338.383	0.267	2346347	REC_WORD_VV	0.267	n/a	<>	-999	20	[0, 0, 0]	n/a	FR1	1	R1156D
2338.65	8.911	2346614	REC_END	n/a	n/a	n/a	-999	20	[0, 0, 0]	n/a	FR1	1	R1156D
2347.561	0.5	2355525	TRIAL	n/a	n/a	n/a	-999	21	[0, 0, 0]	n/a	FR1	1	R1156D
2348.061	10.428	2356025	COUNTDOWN_START	n/a	n/a	n/a	-999	21	[0, 0, 0]	n/a	FR1	1	R1156D
2358.489	0.008	2366452	COUNTDOWN_END	n/a	n/a	n/a	-999	21	[0, 0, 0]	n/a	FR1	1	R1156D
2358.497	1.618	2366460	ORIENT	n/a	n/a	n/a	-999	21	[0, 0, 0]	n/a	FR1	1	R1156D
2360.115	2.299	2368078	ORIENT_OFF	n/a	n/a	n/a	-999	21	[0, 0, 0]	n/a	FR1	1	R1156D
2362.414	1.618	2370377	WORD	n/a	wordpools/wordpool_EN.txt	TOE	1	21	[0, 0, 0]	n/a	FR1	1	R1156D
2364.032	0.85	2371995	WORD_OFF	n/a	n/a	TOE	1	21	[0, 0, 0]	n/a	FR1	1	R1156D
2364.882	1.616	2372845	WORD	n/a	wordpools/wordpool_EN.txt	TIE	2	21	[0, 0, 0]	n/a	FR1	1	R1156D
2366.498	0.95	2374461	WORD_OFF	n/a	n/a	TIE	2	21	[0, 0, 0]	n/a	FR1	1	R1156D
2367.448	1.601	2375411	WORD	n/a	wordpools/wordpool_EN.txt	OAR	3	21	[0, 0, 0]	n/a	FR1	1	R1156D
2369.049	0.851	2377012	WORD_OFF	n/a	n/a	OAR	3	21	[0, 0, 0]	n/a	FR1	1	R1156D
2369.9	1.616	2377863	WORD	n/a	wordpools/wordpool_EN.txt	SUIT	4	21	[0, 0, 0]	n/a	FR1	1	R1156D
2371.516	0.983	2379479	WORD_OFF	n/a	n/a	SUIT	4	21	[0, 0, 0]	n/a	FR1	1	R1156D
2372.499	1.618	2380462	WORD	n/a	wordpools/wordpool_EN.txt	NOSE	5	21	[0, 0, 0]	n/a	FR1	1	R1156D
2374.117	1.0	2382080	WORD_OFF	n/a	n/a	NOSE	5	21	[0, 0, 0]	n/a	FR1	1	R1156D
2375.117	1.616	2383080	WORD	n/a	wordpools/wordpool_EN.txt	SLEEVE	6	21	[0, 0, 0]	n/a	FR1	1	R1156D
2376.733	0.784	2384695	WORD_OFF	n/a	n/a	SLEEVE	6	21	[0, 0, 0]	n/a	FR1	1	R1156D
2377.517	1.618	2385479	WORD	n/a	wordpools/wordpool_EN.txt	FENCE	7	21	[0, 0, 0]	n/a	FR1	1	R1156D
2379.135	0.917	2387097	WORD_OFF	n/a	n/a	FENCE	7	21	[0, 0, 0]	n/a	FR1	1	R1156D
2380.052	1.616	2388014	WORD	n/a	wordpools/wordpool_EN.txt	FOAM	8	21	[0, 0, 0]	n/a	FR1	1	R1156D
2381.668	0.983	2389630	WORD_OFF	n/a	n/a	FOAM	8	21	[0, 0, 0]	n/a	FR1	1	R1156D
2382.651	1.601	2390613	WORD	n/a	wordpools/wordpool_EN.txt	PURSE	9	21	[0, 0, 0]	n/a	FR1	1	R1156D
2384.252	0.967	2392214	WORD_OFF	n/a	n/a	PURSE	9	21	[0, 0, 0]	n/a	FR1	1	R1156D
2385.219	1.616	2393181	WORD	n/a	wordpools/wordpool_EN.txt	BAND	10	21	[0, 0, 0]	n/a	FR1	1	R1156D
2386.835	0.967	2394797	WORD_OFF	n/a	n/a	BAND	10	21	[0, 0, 0]	n/a	FR1	1	R1156D
2387.802	1.617	2395764	WORD	n/a	wordpools/wordpool_EN.txt	LIP	11	21	[0, 0, 0]	n/a	FR1	1	R1156D
2389.419	0.967	2397381	WORD_OFF	n/a	n/a	LIP	11	21	[0, 0, 0]	n/a	FR1	1	R1156D
2390.386	1.618	2398348	WORD	n/a	wordpools/wordpool_EN.txt	ARM	12	21	[0, 0, 0]	n/a	FR1	1	R1156D
2392.004	0.0	2399966	WORD_OFF	n/a	n/a	ARM	12	21	[0, 0, 0]	n/a	FR1	1	R1156D
2392.004	0.0	2399966	DISTRACT_START	n/a	n/a	n/a	-999	21	[0, 0, 0]	n/a	FR1	1	R1156D
2392.004	0.016	2399966	START	n/a	n/a	n/a	-999	21	[-999, -999, -999]	n/a	FR1	1	R1156D
2392.02	6.284	2399982	PROB	6.284	n/a	n/a	-999	21	[2, 9, 5]	16	FR1	1	R1156D
2398.304	3.818	2406265	PROB	3.818	n/a	n/a	-999	21	[2, 6, 4]	12	FR1	1	R1156D
2402.122	4.383	2410083	PROB	4.383	n/a	n/a	-999	21	[8, 9, 6]	23	FR1	1	R1156D
2406.505	4.586	2414466	PROB	4.586	n/a	n/a	-999	21	[6, 5, 3]	14	FR1	1	R1156D
2411.091	2.222	2419052	PROB	2.222	n/a	n/a	-999	21	[2, 2, 4]	8	FR1	1	R1156D
2413.313	0.01	2421273	STOP	n/a	n/a	n/a	-999	21	[-999, -999, -999]	n/a	FR1	1	R1156D
2413.323	0.635	2421283	DISTRACT_END	n/a	n/a	n/a	-999	21	[0, 0, 0]	n/a	FR1	1	R1156D
2413.958	0.516	2421918	RETRIEVAL_ORIENT	n/a	n/a	n/a	-999	21	[0, 0, 0]	n/a	FR1	1	R1156D
2414.474	2.308	2422434	REC_START	n/a	n/a	n/a	-999	21	[0, 0, 0]	n/a	FR1	1	R1156D
2416.782	0.709	2424742	REC_WORD_VV	0.709	n/a	<>	-999	21	[0, 0, 0]	n/a	FR1	1	R1156D
2417.491	8.505	2425451	REC_WORD	8.505	n/a	TOE	1	21	[0, 0, 0]	n/a	FR1	1	R1156D
2425.996	12.833	2433956	REC_WORD	12.833	n/a	SINK	-999	21	[0, 0, 0]	n/a	FR1	1	R1156D
2438.829	5.654	2446788	REC_WORD	5.654	n/a	COIN	-999	21	[0, 0, 0]	n/a	FR1	1	R1156D
2444.483	6.682	2452442	REC_END	n/a	n/a	n/a	-999	21	[0, 0, 0]	n/a	FR1	1	R1156D
2451.165	0.5	2459123	TRIAL	n/a	n/a	n/a	-999	22	[0, 0, 0]	n/a	FR1	1	R1156D
2451.665	10.428	2459623	COUNTDOWN_START	n/a	n/a	n/a	-999	22	[0, 0, 0]	n/a	FR1	1	R1156D
2462.093	0.007	2470051	COUNTDOWN_END	n/a	n/a	n/a	-999	22	[0, 0, 0]	n/a	FR1	1	R1156D
2462.1	1.616	2470058	ORIENT	n/a	n/a	n/a	-999	22	[0, 0, 0]	n/a	FR1	1	R1156D
2463.716	2.235	2471674	ORIENT_OFF	n/a	n/a	n/a	-999	22	[0, 0, 0]	n/a	FR1	1	R1156D
2465.951	1.616	2473909	WORD	n/a	wordpools/wordpool_EN.txt	SKY	1	22	[0, 0, 0]	n/a	FR1	1	R1156D
2467.567	0.816	2475525	WORD_OFF	n/a	n/a	SKY	1	22	[0, 0, 0]	n/a	FR1	1	R1156D
2468.383	1.618	2476340	WORD	n/a	wordpools/wordpool_EN.txt	MULE	2	22	[0, 0, 0]	n/a	FR1	1	R1156D
2470.001	0.9	2477958	WORD_OFF	n/a	n/a	MULE	2	22	[0, 0, 0]	n/a	FR1	1	R1156D
2470.901	1.616	2478858	WORD	n/a	wordpools/wordpool_EN.txt	BOY	3	22	[0, 0, 0]	n/a	FR1	1	R1156D
2472.517	0.951	2480474	WORD_OFF	n/a	n/a	BOY	3	22	[0, 0, 0]	n/a	FR1	1	R1156D
2473.468	1.618	2481425	WORD	n/a	wordpools/wordpool_EN.txt	SHIRT	4	22	[0, 0, 0]	n/a	FR1	1	R1156D
2475.086	0.783	2483043	WORD_OFF	n/a	n/a	SHIRT	4	22	[0, 0, 0]	n/a	FR1	1	R1156D
2475.869	1.616	2483826	WORD	n/a	wordpools/wordpool_EN.txt	BOOT	5	22	[0, 0, 0]	n/a	FR1	1	R1156D
2477.485	0.967	2485442	WORD_OFF	n/a	n/a	BOOT	5	22	[0, 0, 0]	n/a	FR1	1	R1156D
2478.452	1.618	2486409	WORD	n/a	wordpools/wordpool_EN.txt	SNOW	6	22	[0, 0, 0]	n/a	FR1	1	R1156D
2480.07	0.817	2488027	WORD_OFF	n/a	n/a	SNOW	6	22	[0, 0, 0]	n/a	FR1	1	R1156D
2480.887	1.616	2488844	WORD	n/a	wordpools/wordpool_EN.txt	CART	7	22	[0, 0, 0]	n/a	FR1	1	R1156D
2482.503	0.967	2490460	WORD_OFF	n/a	n/a	CART	7	22	[0, 0, 0]	n/a	FR1	1	R1156D
2483.47	1.617	2491427	WORD	n/a	wordpools/wordpool_EN.txt	CHIN	8	22	[0, 0, 0]	n/a	FR1	1	R1156D
2485.087	0.801	2493044	WORD_OFF	n/a	n/a	CHIN	8	22	[0, 0, 0]	n/a	FR1	1	R1156D
2485.888	1.615	2493845	WORD	n/a	wordpools/wordpool_EN.txt	JEEP	9	22	[0, 0, 0]	n/a	FR1	1	R1156D
2487.503	0.901	2495459	WORD_OFF	n/a	n/a	JEEP	9	22	[0, 0, 0]	n/a	FR1	1	R1156D
2488.404	1.618	2496360	WORD	n/a	wordpools/wordpool_EN.txt	RIB	10	22	[0, 0, 0]	n/a	FR1	1	R1156D
2490.022	0.917	2497978	WORD_OFF	n/a	n/a	RIB	10	22	[0, 0, 0]	n/a	FR1	1	R1156D
2490.939	1.616	2498895	WORD	n/a	wordpools/wordpool_EN.txt	FOG	11	22	[0, 0, 0]	n/a	FR1	1	R1156D
2492.555	0.95	2500511	WORD_OFF	n/a	n/a	FOG	11	22	[0, 0, 0]	n/a	FR1	1	R1156D
2493.505	1.618	2501461	WORD	n/a	wordpools/wordpool_EN.txt	BARN	12	22	[0, 0, 0]	n/a	FR1	1	R1156D
2495.123	0.0	2503079	WORD_OFF	n/a	n/a	BARN	12	22	[0, 0, 0]	n/a	FR1	1	R1156D
2495.123	0.0	2503079	DISTRACT_START	n/a	n/a	n/a	-999	22	[0, 0, 0]	n/a	FR1	1	R1156D
2495.123	0.016	2503079	START	n/a	n/a	n/a	-999	22	[-999, -999, -999]	n/a	FR1	1	R1156D
2495.139	4.667	2503095	PROB	4.667	n/a	n/a	-999	22	[4, 2, 4]	10	FR1	1	R1156D
2499.806	4.318	2507762	PROB	4.318	n/a	n/a	-999	22	[8, 6, 3]	17	FR1	1	R1156D
2504.124	1.917	2512080	PROB	1.917	n/a	n/a	-999	22	[3, 3, 3]	9	FR1	1	R1156D
2506.041	3.517	2513996	PROB	3.517	n/a	n/a	-999	22	[5, 6, 5]	16	FR1	1	R1156D
2509.558	3.05	2517513	PROB	3.05	n/a	n/a	-999	22	[8, 1, 2]	11	FR1	1	R1156D
2512.608	2.561	2520563	PROB	2.561	n/a	n/a	-999	22	[1, 3, 4]	8	FR1	1	R1156D
2515.169	0.007	2523124	STOP	n/a	n/a	n/a	-999	22	[-999, -999, -999]	n/a	FR1	1	R1156D
2515.176	0.633	2523131	DISTRACT_END	n/a	n/a	n/a	-999	22	[0, 0, 0]	n/a	FR1	1	R1156D
2515.809	0.517	2523764	RETRIEVAL_ORIENT	n/a	n/a	n/a	-999	22	[0, 0, 0]	n/a	FR1	1	R1156D
2516.326	1.796	2524281	REC_START	n/a	n/a	n/a	-999	22	[0, 0, 0]	n/a	FR1	1	R1156D
2518.122	4.043	2526077	REC_WORD_VV	4.043	n/a	<>	-999	22	[0, 0, 0]	n/a	FR1	1	R1156D
2522.165	1.942	2530120	REC_WORD	1.942	n/a	LIP	-999	22	[0, 0, 0]	n/a	FR1	1	R1156D
2524.107	3.181	2532061	REC_WORD	3.181	n/a	BARN	12	22	[0, 0, 0]	n/a	FR1	1	R1156D
2527.288	2.362	2535242	REC_WORD	2.362	n/a	JEEP	9	22	[0, 0, 0]	n/a	FR1	1	R1156D
2529.65	2.934	2537604	REC_WORD	2.934	n/a	FOG	11	22	[0, 0, 0]	n/a	FR1	1	R1156D
2532.584	1.0	2540538	REC_WORD_VV	1.0	n/a	<>	-999	22	[0, 0, 0]	n/a	FR1	1	R1156D
2533.584	4.288	2541538	REC_WORD_VV	4.288	n/a	<>	-999	22	[0, 0, 0]	n/a	FR1	1	R1156D
2537.872	8.465	2545826	REC_WORD	8.465	n/a	RIB	10	22	[0, 0, 0]	n/a	FR1	1	R1156D
2546.337	73.925	2554290	REC_END	n/a	n/a	n/a	-999	22	[0, 0, 0]	n/a	FR1	1	R1156D
2620.262	0.5	2628211	TRIAL	n/a	n/a	n/a	-999	23	[0, 0, 0]	n/a	FR1	1	R1156D
2620.762	10.428	2628711	COUNTDOWN_START	n/a	n/a	n/a	-999	23	[0, 0, 0]	n/a	FR1	1	R1156D
2631.19	0.007	2639139	COUNTDOWN_END	n/a	n/a	n/a	-999	23	[0, 0, 0]	n/a	FR1	1	R1156D
2631.197	1.616	2639146	ORIENT	n/a	n/a	n/a	-999	23	[0, 0, 0]	n/a	FR1	1	R1156D
2632.813	2.202	2640762	ORIENT_OFF	n/a	n/a	n/a	-999	23	[0, 0, 0]	n/a	FR1	1	R1156D
2635.015	1.616	2642964	WORD	n/a	wordpools/wordpool_EN.txt	WHEEL	1	23	[0, 0, 0]	n/a	FR1	1	R1156D
2636.631	0.967	2644579	WORD_OFF	n/a	n/a	WHEEL	1	23	[0, 0, 0]	n/a	FR1	1	R1156D
2637.598	1.618	2645546	WORD	n/a	wordpools/wordpool_EN.txt	BREAD	2	23	[0, 0, 0]	n/a	FR1	1	R1156D
2639.216	0.816	2647164	WORD_OFF	n/a	n/a	BREAD	2	23	[0, 0, 0]	n/a	FR1	1	R1156D
2640.032	1.616	2647980	WORD	n/a	wordpools/wordpool_EN.txt	FOOD	3	23	[0, 0, 0]	n/a	FR1	1	R1156D
2641.648	0.951	2649596	WORD_OFF	n/a	n/a	FOOD	3	23	[0, 0, 0]	n/a	FR1	1	R1156D
2642.599	1.618	2650547	WORD	n/a	wordpools/wordpool_EN.txt	FUDGE	4	23	[0, 0, 0]	n/a	FR1	1	R1156D
2644.217	0.816	2652165	WORD_OFF	n/a	n/a	FUDGE	4	23	[0, 0, 0]	n/a	FR1	1	R1156D
2645.033	1.616	2652981	WORD	n/a	wordpools/wordpool_EN.txt	KEY	5	23	[0, 0, 0]	n/a	FR1	1	R1156D
2646.649	0.967	2654597	WORD_OFF	n/a	n/a	KEY	5	23	[0, 0, 0]	n/a	FR1	1	R1156D
2647.616	1.618	2655564	WORD	n/a	wordpools/wordpool_EN.txt	CLAY	6	23	[0, 0, 0]	n/a	FR1	1	R1156D
2649.234	0.784	2657182	WORD_OFF	n/a	n/a	CLAY	6	23	[0, 0, 0]	n/a	FR1	1	R1156D
2650.018	1.616	2657966	WORD	n/a	wordpools/wordpool_EN.txt	FLEA	7	23	[0, 0, 0]	n/a	FR1	1	R1156D
2651.634	0.833	2659582	WORD_OFF	n/a	n/a	FLEA	7	23	[0, 0, 0]	n/a	FR1	1	R1156D
2652.467	1.618	2660415	WORD	n/a	wordpools/wordpool_EN.txt	BOWL	8	23	[0, 0, 0]	n/a	FR1	1	R1156D
2654.085	0.8	2662032	WORD_OFF	n/a	n/a	BOWL	8	23	[0, 0, 0]	n/a	FR1	1	R1156D
2654.885	1.616	2662832	WORD	n/a	wordpools/wordpool_EN.txt	CAR	9	23	[0, 0, 0]	n/a	FR1	1	R1156D
2656.501	0.984	2664448	WORD_OFF	n/a	n/a	CAR	9	23	[0, 0, 0]	n/a	FR1	1	R1156D
2657.485	1.617	2665432	WORD	n/a	wordpools/wordpool_EN.txt	PHONE	10	23	[0, 0, 0]	n/a	FR1	1	R1156D
2659.102	0.951	2667049	WORD_OFF	n/a	n/a	PHONE	10	23	[0, 0, 0]	n/a	FR1	1	R1156D
2660.053	1.616	2668000	WORD	n/a	wordpools/wordpool_EN.txt	ROAD	11	23	[0, 0, 0]	n/a	FR1	1	R1156D
2661.669	1.0	2669616	WORD_OFF	n/a	n/a	ROAD	11	23	[0, 0, 0]	n/a	FR1	1	R1156D
2662.669	1.617	2670616	WORD	n/a	wordpools/wordpool_EN.txt	SQUARE	12	23	[0, 0, 0]	n/a	FR1	1	R1156D
2664.286	0.0	2672233	WORD_OFF	n/a	n/a	SQUARE	12	23	[0, 0, 0]	n/a	FR1	1	R1156D
2664.286	0.0	2672233	DISTRACT_START	n/a	n/a	n/a	-999	23	[0, 0, 0]	n/a	FR1	1	R1156D
2664.286	0.017	2672233	START	n/a	n/a	n/a	-999	23	[-999, -999, -999]	n/a	FR1	1	R1156D
2664.303	7.569	2672250	PROB	7.569	n/a	n/a	-999	23	[9, 3, 8]	20	FR1	1	R1156D
2671.872	4.716	2679819	PROB	4.716	n/a	n/a	-999	23	[7, 5, 4]	16	FR1	1	R1156D
2676.588	3.717	2684534	PROB	3.717	n/a	n/a	-999	23	[7, 1, 8]	16	FR1	1	R1156D
2680.305	3.418	2688251	PROB	3.418	n/a	n/a	-999	23	[5, 9, 1]	15	FR1	1	R1156D
2683.723	3.23	2691669	PROB	3.23	n/a	n/a	-999	23	[7, 2, 3]	12	FR1	1	R1156D
2686.953	0.021	2694899	STOP	n/a	n/a	n/a	-999	23	[-999, -999, -999]	n/a	FR1	1	R1156D
2686.974	0.566	2694920	DISTRACT_END	n/a	n/a	n/a	-999	23	[0, 0, 0]	n/a	FR1	1	R1156D
2687.54	0.519	2695486	RETRIEVAL_ORIENT	n/a	n/a	n/a	-999	23	[0, 0, 0]	n/a	FR1	1	R1156D
2688.059	2.63	2696005	REC_START	n/a	n/a	n/a	-999	23	[0, 0, 0]	n/a	FR1	1	R1156D
2690.689	1.399	2698635	REC_WORD_VV	1.399	n/a	<>	-999	23	[0, 0, 0]	n/a	FR1	1	R1156D
2692.088	1.306	2700033	REC_WORD	1.306	n/a	CAR	9	23	[0, 0, 0]	n/a	FR1	1	R1156D
2693.394	1.78	2701339	REC_WORD	1.78	n/a	PHONE	10	23	[0, 0, 0]	n/a	FR1	1	R1156D
2695.174	18.223	2703119	REC_WORD	18.223	n/a	BUS	-999	23	[0, 0, 0]	n/a	FR1	1	R1156D
2713.397	2.509	2721341	REC_WORD_VV	2.509	n/a	<>	-999	23	[0, 0, 0]	n/a	FR1	1	R1156D
2715.906	2.164	2723850	REC_WORD	2.164	n/a	STUCK	-999	23	[0, 0, 0]	n/a	FR1	1	R1156D
2718.07	6.078	2726014	REC_END	n/a	n/a	n/a	-999	23	[0, 0, 0]	n/a	FR1	1	R1156D
2724.148	0.5	2732092	TRIAL	n/a	n/a	n/a	-999	24	[0, 0, 0]	n/a	FR1	1	R1156D
2724.648	10.428	2732592	COUNTDOWN_START	n/a	n/a	n/a	-999	24	[0, 0, 0]	n/a	FR1	1	R1156D
2735.076	0.007	2743019	COUNTDOWN_END	n/a	n/a	n/a	-999	24	[0, 0, 0]	n/a	FR1	1	R1156D
2735.083	1.616	2743026	ORIENT	n/a	n/a	n/a	-999	24	[0, 0, 0]	n/a	FR1	1	R1156D
2736.699	1.884	2744642	ORIENT_OFF	n/a	n/a	n/a	-999	24	[0, 0, 0]	n/a	FR1	1	R1156D
2738.583	1.601	2746526	WORD	n/a	wordpools/wordpool_EN.txt	GRAPE	1	24	[0, 0, 0]	n/a	FR1	1	R1156D
2740.184	0.85	2748127	WORD_OFF	n/a	n/a	GRAPE	1	24	[0, 0, 0]	n/a	FR1	1	R1156D
2741.034	1.616	2748977	WORD	n/a	wordpools/wordpool_EN.txt	BEAK	2	24	[0, 0, 0]	n/a	FR1	1	R1156D
2742.65	0.9	2750593	WORD_OFF	n/a	n/a	BEAK	2	24	[0, 0, 0]	n/a	FR1	1	R1156D
2743.55	1.618	2751493	WORD	n/a	wordpools/wordpool_EN.txt	JUICE	3	24	[0, 0, 0]	n/a	FR1	1	R1156D
2745.168	0.901	2753111	WORD_OFF	n/a	n/a	JUICE	3	24	[0, 0, 0]	n/a	FR1	1	R1156D
2746.069	1.616	2754012	WORD	n/a	wordpools/wordpool_EN.txt	SPOON	4	24	[0, 0, 0]	n/a	FR1	1	R1156D
2747.685	0.816	2755627	WORD_OFF	n/a	n/a	SPOON	4	24	[0, 0, 0]	n/a	FR1	1	R1156D
2748.501	1.618	2756443	WORD	n/a	wordpools/wordpool_EN.txt	SOCK	5	24	[0, 0, 0]	n/a	FR1	1	R1156D
2750.119	0.85	2758061	WORD_OFF	n/a	n/a	SOCK	5	24	[0, 0, 0]	n/a	FR1	1	R1156D
2750.969	1.616	2758911	WORD	n/a	wordpools/wordpool_EN.txt	AXE	6	24	[0, 0, 0]	n/a	FR1	1	R1156D
2752.585	0.784	2760527	WORD_OFF	n/a	n/a	AXE	6	24	[0, 0, 0]	n/a	FR1	1	R1156D
2753.369	1.618	2761311	WORD	n/a	wordpools/wordpool_EN.txt	RUG	7	24	[0, 0, 0]	n/a	FR1	1	R1156D
2754.987	0.917	2762929	WORD_OFF	n/a	n/a	RUG	7	24	[0, 0, 0]	n/a	FR1	1	R1156D
2755.904	1.616	2763846	WORD	n/a	wordpools/wordpool_EN.txt	NAIL	8	24	[0, 0, 0]	n/a	FR1	1	R1156D
2757.52	0.95	2765462	WORD_OFF	n/a	n/a	NAIL	8	24	[0, 0, 0]	n/a	FR1	1	R1156D
2758.47	1.618	2766412	WORD	n/a	wordpools/wordpool_EN.txt	CLOWN	9	24	[0, 0, 0]	n/a	FR1	1	R1156D
2760.088	0.883	2768030	WORD_OFF	n/a	n/a	CLOWN	9	24	[0, 0, 0]	n/a	FR1	1	R1156D
2760.971	1.616	2768913	WORD	n/a	wordpools/wordpool_EN.txt	JAR	10	24	[0, 0, 0]	n/a	FR1	1	R1156D
2762.587	0.9	2770529	WORD_OFF	n/a	n/a	JAR	10	24	[0, 0, 0]	n/a	FR1	1	R1156D
2763.487	1.618	2771429	WORD	n/a	wordpools/wordpool_EN.txt	VASE	11	24	[0, 0, 0]	n/a	FR1	1	R1156D
2765.105	0.8	2773047	WORD_OFF	n/a	n/a	VASE	11	24	[0, 0, 0]	n/a	FR1	1	R1156D
2765.905	1.616	2773846	WORD	n/a	wordpools/wordpool_EN.txt	THUMB	12	24	[0, 0, 0]	n/a	FR1	1	R1156D
2767.521	0.0	2775462	WORD_OFF	n/a	n/a	THUMB	12	24	[0, 0, 0]	n/a	FR1	1	R1156D
2767.521	0.001	2775462	DISTRACT_START	n/a	n/a	n/a	-999	24	[0, 0, 0]	n/a	FR1	1	R1156D
2767.522	0.016	2775463	START	n/a	n/a	n/a	-999	24	[-999, -999, -999]	n/a	FR1	1	R1156D
2767.538	3.735	2775479	PROB	3.735	n/a	n/a	-999	24	[3, 4, 1]	8	FR1	1	R1156D
2771.273	4.35	2779214	PROB	4.35	n/a	n/a	-999	24	[7, 4, 5]	16	FR1	1	R1156D
2775.623	3.751	2783564	PROB	3.751	n/a	n/a	-999	24	[2, 6, 4]	12	FR1	1	R1156D
2779.374	2.934	2787315	PROB	2.934	n/a	n/a	-999	24	[9, 1, 3]	13	FR1	1	R1156D
2782.308	7.5	2790249	PROB	7.5	n/a	n/a	-999	24	[8, 6, 7]	21	FR1	1	R1156D
2789.808	0.017	2797748	STOP	n/a	n/a	n/a	-999	24	[-999, -999, -999]	n/a	FR1	1	R1156D
2789.825	0.701	2797765	DISTRACT_END	n/a	n/a	n/a	-999	24	[0, 0, 0]	n/a	FR1	1	R1156D
2790.526	0.518	2798466	RETRIEVAL_ORIENT	n/a	n/a	n/a	-999	24	[0, 0, 0]	n/a	FR1	1	R1156D
2791.044	9.203	2798984	REC_START	n/a	n/a	n/a	-999	24	[0, 0, 0]	n/a	FR1	1	R1156D
2800.247	2.639	2808187	REC_WORD	2.639	n/a	THUMB	12	24	[0, 0, 0]	n/a	FR1	1	R1156D
2802.886	10.913	2810825	REC_WORD_VV	10.913	n/a	<>	-999	24	[0, 0, 0]	n/a	FR1	1	R1156D
2813.799	7.254	2821738	REC_WORD	7.254	n/a	SHOE	-999	24	[0, 0, 0]	n/a	FR1	1	R1156D
2821.053	4.83	2828991	REC_END	n/a	n/a	n/a	-999	24	[0, 0, 0]	n/a	FR1	1	R1156D
2825.883	0.5	2833821	TRIAL	n/a	n/a	n/a	-999	25	[0, 0, 0]	n/a	FR1	1	R1156D
2826.383	10.428	2834321	COUNTDOWN_START	n/a	n/a	n/a	-999	25	[0, 0, 0]	n/a	FR1	1	R1156D
2836.811	0.006	2844749	COUNTDOWN_END	n/a	n/a	n/a	-999	25	[0, 0, 0]	n/a	FR1	1	R1156D
2836.817	1.618	2844755	ORIENT	n/a	n/a	n/a	-999	25	[0, 0, 0]	n/a	FR1	1	R1156D
2838.435	2.2	2846373	ORIENT_OFF	n/a	n/a	n/a	-999	25	[0, 0, 0]	n/a	FR1	1	R1156D
2840.635	1.618	2848572	WORD	n/a	wordpools/wordpool_EN.txt	OAK	1	25	[0, 0, 0]	n/a	FR1	1	R1156D
2842.253	0.933	2850190	WORD_OFF	n/a	n/a	OAK	1	25	[0, 0, 0]	n/a	FR1	1	R1156D
2843.186	1.616	2851123	WORD	n/a	wordpools/wordpool_EN.txt	FLAG	2	25	[0, 0, 0]	n/a	FR1	1	R1156D
2844.802	0.967	2852739	WORD_OFF	n/a	n/a	FLAG	2	25	[0, 0, 0]	n/a	FR1	1	R1156D
2845.769	1.617	2853706	WORD	n/a	wordpools/wordpool_EN.txt	CROWN	3	25	[0, 0, 0]	n/a	FR1	1	R1156D
2847.386	1.017	2855323	WORD_OFF	n/a	n/a	CROWN	3	25	[0, 0, 0]	n/a	FR1	1	R1156D
2848.403	1.618	2856340	WORD	n/a	wordpools/wordpool_EN.txt	STORM	4	25	[0, 0, 0]	n/a	FR1	1	R1156D
2850.021	0.85	2857958	WORD_OFF	n/a	n/a	STORM	4	25	[0, 0, 0]	n/a	FR1	1	R1156D
2850.871	1.616	2858808	WORD	n/a	wordpools/wordpool_EN.txt	CUBE	5	25	[0, 0, 0]	n/a	FR1	1	R1156D
2852.487	0.867	2860424	WORD_OFF	n/a	n/a	CUBE	5	25	[0, 0, 0]	n/a	FR1	1	R1156D
2853.354	1.601	2861291	WORD	n/a	wordpools/wordpool_EN.txt	POLE	6	25	[0, 0, 0]	n/a	FR1	1	R1156D
2854.955	0.833	2862892	WORD_OFF	n/a	n/a	POLE	6	25	[0, 0, 0]	n/a	FR1	1	R1156D
2855.788	1.617	2863725	WORD	n/a	wordpools/wordpool_EN.txt	MOON	7	25	[0, 0, 0]	n/a	FR1	1	R1156D
2857.405	0.95	2865342	WORD_OFF	n/a	n/a	MOON	7	25	[0, 0, 0]	n/a	FR1	1	R1156D
2858.355	1.618	2866291	WORD	n/a	wordpools/wordpool_EN.txt	CAPE	8	25	[0, 0, 0]	n/a	FR1	1	R1156D
2859.973	0.9	2867909	WORD_OFF	n/a	n/a	CAPE	8	25	[0, 0, 0]	n/a	FR1	1	R1156D
