onset	duration	sample	trial_type	response_time	stim_file	item_name	serialpos	list	test	answer	experiment	session	subject
0.0	0.0	387893	INSTRUCT_START	n/a	n/a	n/a	-999	-999	[0, 0, 0]	n/a	FR1	2	R1145J
0.0	11.208	387893	INSTRUCT_END	n/a	n/a	n/a	-999	-999	[0, 0, 0]	n/a	FR1	2	R1145J
11.208	0.0	399100	SESS_START	n/a	n/a	n/a	-999	-999	[0, 0, 0]	n/a	FR1	2	R1145J
11.208	73.677	399100	MIC_TEST	n/a	n/a	n/a	-999	-999	[0, 0, 0]	n/a	FR1	2	R1145J
84.885	0.658	472777	PRACTICE_TRIAL	n/a	n/a	n/a	-999	-1	[0, 0, 0]	n/a	FR1	2	R1145J
85.543	10.428	473435	COUNTDOWN_START	n/a	n/a	n/a	-999	-1	[0, 0, 0]	n/a	FR1	2	R1145J
95.971	0.008	483863	COUNTDOWN_END	n/a	n/a	n/a	-999	-1	[0, 0, 0]	n/a	FR1	2	R1145J
95.979	1.617	483871	PRACTICE_ORIENT	n/a	n/a	n/a	-999	-1	[0, 0, 0]	n/a	FR1	2	R1145J
97.596	2.05	485488	PRACTICE_ORIENT_OFF	n/a	n/a	n/a	-999	-1	[0, 0, 0]	n/a	FR1	2	R1145J
99.646	1.616	487538	PRACTICE_WORD	n/a	n/a	RING	1	-1	[0, 0, 0]	n/a	FR1	2	R1145J
101.262	0.867	489154	PRACTICE_WORD_OFF	n/a	n/a	RING	-999	-1	[0, 0, 0]	n/a	FR1	2	R1145J
102.129	1.618	490021	PRACTICE_WORD	n/a	n/a	COTTON	2	-1	[0, 0, 0]	n/a	FR1	2	R1145J
103.747	0.816	491639	PRACTICE_WORD_OFF	n/a	n/a	COTTON	-999	-1	[0, 0, 0]	n/a	FR1	2	R1145J
104.563	1.617	492455	PRACTICE_WORD	n/a	n/a	BEAM	3	-1	[0, 0, 0]	n/a	FR1	2	R1145J
106.18	0.95	494072	PRACTICE_WORD_OFF	n/a	n/a	BEAM	-999	-1	[0, 0, 0]	n/a	FR1	2	R1145J
107.13	1.617	495022	PRACTICE_WORD	n/a	n/a	RHINO	4	-1	[0, 0, 0]	n/a	FR1	2	R1145J
108.747	0.984	496639	PRACTICE_WORD_OFF	n/a	n/a	RHINO	-999	-1	[0, 0, 0]	n/a	FR1	2	R1145J
109.731	1.617	497623	PRACTICE_WORD	n/a	n/a	IRON	5	-1	[0, 0, 0]	n/a	FR1	2	R1145J
111.348	0.832	499240	PRACTICE_WORD_OFF	n/a	n/a	IRON	-999	-1	[0, 0, 0]	n/a	FR1	2	R1145J
112.18	1.601	500072	PRACTICE_WORD	n/a	n/a	CHEST	6	-1	[0, 0, 0]	n/a	FR1	2	R1145J
113.781	0.934	501672	PRACTICE_WORD_OFF	n/a	n/a	CHEST	-999	-1	[0, 0, 0]	n/a	FR1	2	R1145J
114.715	1.617	502606	PRACTICE_WORD	n/a	n/a	ATTIC	7	-1	[0, 0, 0]	n/a	FR1	2	R1145J
116.332	0.899	504223	PRACTICE_WORD_OFF	n/a	n/a	ATTIC	-999	-1	[0, 0, 0]	n/a	FR1	2	R1145J
117.231	1.618	505122	PRACTICE_WORD	n/a	n/a	WATCH	8	-1	[0, 0, 0]	n/a	FR1	2	R1145J
118.849	0.933	506740	PRACTICE_WORD_OFF	n/a	n/a	WATCH	-999	-1	[0, 0, 0]	n/a	FR1	2	R1145J
119.782	1.617	507673	PRACTICE_WORD	n/a	n/a	TONGUE	9	-1	[0, 0, 0]	n/a	FR1	2	R1145J
121.399	0.9	509290	PRACTICE_WORD_OFF	n/a	n/a	TONGUE	-999	-1	[0, 0, 0]	n/a	FR1	2	R1145J
122.299	1.617	510190	PRACTICE_WORD	n/a	n/a	FLOOD	10	-1	[0, 0, 0]	n/a	FR1	2	R1145J
123.916	0.983	511807	PRACTICE_WORD_OFF	n/a	n/a	FLOOD	-999	-1	[0, 0, 0]	n/a	FR1	2	R1145J
124.899	1.617	512790	PRACTICE_WORD	n/a	n/a	CAMEL	11	-1	[0, 0, 0]	n/a	FR1	2	R1145J
126.516	0.951	514407	PRACTICE_WORD_OFF	n/a	n/a	CAMEL	-999	-1	[0, 0, 0]	n/a	FR1	2	R1145J
127.467	1.615	515358	PRACTICE_WORD	n/a	n/a	WAGON	12	-1	[0, 0, 0]	n/a	FR1	2	R1145J
129.082	0.0	516973	DISTRACT_START	n/a	n/a	n/a	-999	-1	[0, 0, 0]	n/a	FR1	2	R1145J
129.082	0.001	516973	PRACTICE_WORD_OFF	n/a	n/a	WAGON	-999	-1	[0, 0, 0]	n/a	FR1	2	R1145J
129.083	0.016	516974	START	n/a	n/a	n/a	-999	-1	[-999, -999, -999]	n/a	FR1	2	R1145J
129.099	10.336	516990	PROB	10.336	n/a	n/a	-999	-1	[1, 8, 1]	10	FR1	2	R1145J
139.435	5.55	527326	PROB	5.55	n/a	n/a	-999	-1	[7, 3, 1]	11	FR1	2	R1145J
144.985	7.756	532876	PROB	7.756	n/a	n/a	-999	-1	[5, 1, 9]	15	FR1	2	R1145J
152.741	0.012	540632	STOP	n/a	n/a	n/a	-999	-1	[-999, -999, -999]	n/a	FR1	2	R1145J
152.753	0.55	540644	DISTRACT_END	n/a	n/a	n/a	-999	-1	[0, 0, 0]	n/a	FR1	2	R1145J
153.303	0.517	541194	RETRIEVAL_ORIENT	n/a	n/a	n/a	-999	-1	[0, 0, 0]	n/a	FR1	2	R1145J
153.82	30.012	541711	PRACTICE_REC_START	n/a	n/a	n/a	-999	-1	[0, 0, 0]	n/a	FR1	2	R1145J
183.832	53.132	571723	PRACTICE_REC_END	n/a	n/a	n/a	-999	-1	[0, 0, 0]	n/a	FR1	2	R1145J
236.964	0.5	624854	TRIAL	n/a	n/a	n/a	-999	1	[0, 0, 0]	n/a	FR1	2	R1145J
237.464	10.428	625354	COUNTDOWN_START	n/a	n/a	n/a	-999	1	[0, 0, 0]	n/a	FR1	2	R1145J
247.892	0.006	635782	COUNTDOWN_END	n/a	n/a	n/a	-999	1	[0, 0, 0]	n/a	FR1	2	R1145J
247.898	1.617	635788	ORIENT	n/a	n/a	n/a	-999	1	[0, 0, 0]	n/a	FR1	2	R1145J
249.515	2.184	637405	ORIENT_OFF	n/a	n/a	n/a	-999	1	[0, 0, 0]	n/a	FR1	2	R1145J
251.699	1.617	639589	WORD	n/a	wordpools/wordpool_EN.txt	PASTE	1	1	[0, 0, 0]	n/a	FR1	2	R1145J
253.316	0.849	641206	WORD_OFF	n/a	n/a	PASTE	1	1	[0, 0, 0]	n/a	FR1	2	R1145J
254.165	1.601	642055	WORD	n/a	wordpools/wordpool_EN.txt	CART	2	1	[0, 0, 0]	n/a	FR1	2	R1145J
255.766	0.85	643656	WORD_OFF	n/a	n/a	CART	2	1	[0, 0, 0]	n/a	FR1	2	R1145J
256.616	1.616	644506	WORD	n/a	wordpools/wordpool_EN.txt	STONE	3	1	[0, 0, 0]	n/a	FR1	2	R1145J
258.232	0.867	646122	WORD_OFF	n/a	n/a	STONE	3	1	[0, 0, 0]	n/a	FR1	2	R1145J
259.099	1.601	646989	WORD	n/a	wordpools/wordpool_EN.txt	TRAY	4	1	[0, 0, 0]	n/a	FR1	2	R1145J
260.7	0.783	648590	WORD_OFF	n/a	n/a	TRAY	4	1	[0, 0, 0]	n/a	FR1	2	R1145J
261.483	1.616	649373	WORD	n/a	wordpools/wordpool_EN.txt	PLATE	5	1	[0, 0, 0]	n/a	FR1	2	R1145J
263.099	0.852	650989	WORD_OFF	n/a	n/a	PLATE	5	1	[0, 0, 0]	n/a	FR1	2	R1145J
263.951	1.617	651841	WORD	n/a	wordpools/wordpool_EN.txt	INK	6	1	[0, 0, 0]	n/a	FR1	2	R1145J
265.568	0.916	653458	WORD_OFF	n/a	n/a	INK	6	1	[0, 0, 0]	n/a	FR1	2	R1145J
266.484	1.616	654374	WORD	n/a	wordpools/wordpool_EN.txt	FRUIT	7	1	[0, 0, 0]	n/a	FR1	2	R1145J
268.1	0.901	655990	WORD_OFF	n/a	n/a	FRUIT	7	1	[0, 0, 0]	n/a	FR1	2	R1145J
269.001	1.617	656891	WORD	n/a	wordpools/wordpool_EN.txt	CHALK	8	1	[0, 0, 0]	n/a	FR1	2	R1145J
270.618	0.817	658508	WORD_OFF	n/a	n/a	CHALK	8	1	[0, 0, 0]	n/a	FR1	2	R1145J
271.435	1.616	659325	WORD	n/a	wordpools/wordpool_EN.txt	BEAN	9	1	[0, 0, 0]	n/a	FR1	2	R1145J
273.051	0.834	660941	WORD_OFF	n/a	n/a	BEAN	9	1	[0, 0, 0]	n/a	FR1	2	R1145J
273.885	1.617	661775	WORD	n/a	wordpools/wordpool_EN.txt	FENCE	10	1	[0, 0, 0]	n/a	FR1	2	R1145J
275.502	0.867	663392	WORD_OFF	n/a	n/a	FENCE	10	1	[0, 0, 0]	n/a	FR1	2	R1145J
276.369	1.616	664259	WORD	n/a	wordpools/wordpool_EN.txt	SHARK	11	1	[0, 0, 0]	n/a	FR1	2	R1145J
277.985	0.984	665875	WORD_OFF	n/a	n/a	SHARK	11	1	[0, 0, 0]	n/a	FR1	2	R1145J
278.969	1.617	666859	WORD	n/a	wordpools/wordpool_EN.txt	SALT	12	1	[0, 0, 0]	n/a	FR1	2	R1145J
280.586	0.0	668476	WORD_OFF	n/a	n/a	SALT	12	1	[0, 0, 0]	n/a	FR1	2	R1145J
280.586	0.0	668476	DISTRACT_START	n/a	n/a	n/a	-999	1	[0, 0, 0]	n/a	FR1	2	R1145J
280.586	0.016	668476	START	n/a	n/a	n/a	-999	1	[-999, -999, -999]	n/a	FR1	2	R1145J
280.602	7.201	668492	PROB	7.201	n/a	n/a	-999	1	[8, 4, 4]	16	FR1	2	R1145J
287.803	4.884	675693	PROB	4.884	n/a	n/a	-999	1	[1, 2, 4]	7	FR1	2	R1145J
292.687	8.112	680577	PROB	8.112	n/a	n/a	-999	1	[3, 8, 6]	17	FR1	2	R1145J
300.799	0.006	688689	STOP	n/a	n/a	n/a	-999	1	[-999, -999, -999]	n/a	FR1	2	R1145J
300.805	0.6	688695	DISTRACT_END	n/a	n/a	n/a	-999	1	[0, 0, 0]	n/a	FR1	2	R1145J
301.405	0.518	689295	RETRIEVAL_ORIENT	n/a	n/a	n/a	-999	1	[0, 0, 0]	n/a	FR1	2	R1145J
301.923	2.423	689813	REC_START	n/a	n/a	n/a	-999	1	[0, 0, 0]	n/a	FR1	2	R1145J
304.346	1.132	692236	REC_WORD	1.132	n/a	PASTE	1	1	[0, 0, 0]	n/a	FR1	2	R1145J
305.478	0.656	693368	REC_WORD	0.656	n/a	CART	2	1	[0, 0, 0]	n/a	FR1	2	R1145J
306.134	0.544	694024	REC_WORD_VV	0.544	n/a	<>	-999	1	[0, 0, 0]	n/a	FR1	2	R1145J
306.678	2.936	694568	REC_WORD	2.936	n/a	STONE	3	1	[0, 0, 0]	n/a	FR1	2	R1145J
309.614	1.975	697504	REC_WORD	1.975	n/a	FRUIT	7	1	[0, 0, 0]	n/a	FR1	2	R1145J
311.589	6.657	699479	REC_WORD_VV	6.657	n/a	<>	-999	1	[0, 0, 0]	n/a	FR1	2	R1145J
318.246	2.781	706136	REC_WORD_VV	2.781	n/a	<>	-999	1	[0, 0, 0]	n/a	FR1	2	R1145J
321.027	2.202	708917	REC_WORD_VV	2.202	n/a	<>	-999	1	[0, 0, 0]	n/a	FR1	2	R1145J
323.229	0.69	711119	REC_WORD_VV	0.69	n/a	<>	-999	1	[0, 0, 0]	n/a	FR1	2	R1145J
323.919	2.606	711809	REC_WORD_VV	2.606	n/a	<>	-999	1	[0, 0, 0]	n/a	FR1	2	R1145J
326.525	5.41	714415	REC_WORD	5.41	n/a	TRAY	4	1	[0, 0, 0]	n/a	FR1	2	R1145J
331.935	4.492	719825	REC_END	n/a	n/a	n/a	-999	1	[0, 0, 0]	n/a	FR1	2	R1145J
336.427	0.5	724317	TRIAL	n/a	n/a	n/a	-999	2	[0, 0, 0]	n/a	FR1	2	R1145J
336.927	10.428	724817	COUNTDOWN_START	n/a	n/a	n/a	-999	2	[0, 0, 0]	n/a	FR1	2	R1145J
347.355	0.006	735244	COUNTDOWN_END	n/a	n/a	n/a	-999	2	[0, 0, 0]	n/a	FR1	2	R1145J
347.361	1.617	735250	ORIENT	n/a	n/a	n/a	-999	2	[0, 0, 0]	n/a	FR1	2	R1145J
348.978	2.049	736867	ORIENT_OFF	n/a	n/a	n/a	-999	2	[0, 0, 0]	n/a	FR1	2	R1145J
351.027	1.618	738916	WORD	n/a	wordpools/wordpool_EN.txt	SPONGE	1	2	[0, 0, 0]	n/a	FR1	2	R1145J
352.645	1.0	740534	WORD_OFF	n/a	n/a	SPONGE	1	2	[0, 0, 0]	n/a	FR1	2	R1145J
353.645	1.616	741534	WORD	n/a	wordpools/wordpool_EN.txt	RICE	2	2	[0, 0, 0]	n/a	FR1	2	R1145J
355.261	0.884	743150	WORD_OFF	n/a	n/a	RICE	2	2	[0, 0, 0]	n/a	FR1	2	R1145J
356.145	1.617	744034	WORD	n/a	wordpools/wordpool_EN.txt	PLANT	3	2	[0, 0, 0]	n/a	FR1	2	R1145J
357.762	0.934	745651	WORD_OFF	n/a	n/a	PLANT	3	2	[0, 0, 0]	n/a	FR1	2	R1145J
358.696	1.617	746585	WORD	n/a	wordpools/wordpool_EN.txt	SEED	4	2	[0, 0, 0]	n/a	FR1	2	R1145J
360.313	1.016	748202	WORD_OFF	n/a	n/a	SEED	4	2	[0, 0, 0]	n/a	FR1	2	R1145J
361.329	1.617	749218	WORD	n/a	wordpools/wordpool_EN.txt	STEM	5	2	[0, 0, 0]	n/a	FR1	2	R1145J
362.946	0.851	750835	WORD_OFF	n/a	n/a	STEM	5	2	[0, 0, 0]	n/a	FR1	2	R1145J
363.797	1.616	751686	WORD	n/a	wordpools/wordpool_EN.txt	FOOD	6	2	[0, 0, 0]	n/a	FR1	2	R1145J
365.413	0.984	753302	WORD_OFF	n/a	n/a	FOOD	6	2	[0, 0, 0]	n/a	FR1	2	R1145J
366.397	1.615	754286	WORD	n/a	wordpools/wordpool_EN.txt	SEA	7	2	[0, 0, 0]	n/a	FR1	2	R1145J
368.012	0.952	755901	WORD_OFF	n/a	n/a	SEA	7	2	[0, 0, 0]	n/a	FR1	2	R1145J
368.964	1.617	756853	WORD	n/a	wordpools/wordpool_EN.txt	SHRIMP	8	2	[0, 0, 0]	n/a	FR1	2	R1145J
370.581	0.866	758470	WORD_OFF	n/a	n/a	SHRIMP	8	2	[0, 0, 0]	n/a	FR1	2	R1145J
371.447	1.616	759336	WORD	n/a	wordpools/wordpool_EN.txt	THREAD	9	2	[0, 0, 0]	n/a	FR1	2	R1145J
373.063	0.984	760952	WORD_OFF	n/a	n/a	THREAD	9	2	[0, 0, 0]	n/a	FR1	2	R1145J
374.047	1.617	761936	WORD	n/a	wordpools/wordpool_EN.txt	MOOSE	10	2	[0, 0, 0]	n/a	FR1	2	R1145J
375.664	0.984	763553	WORD_OFF	n/a	n/a	MOOSE	10	2	[0, 0, 0]	n/a	FR1	2	R1145J
376.648	1.616	764537	WORD	n/a	wordpools/wordpool_EN.txt	PEARL	11	2	[0, 0, 0]	n/a	FR1	2	R1145J
378.264	1.0	766153	WORD_OFF	n/a	n/a	PEARL	11	2	[0, 0, 0]	n/a	FR1	2	R1145J
379.264	1.618	767153	WORD	n/a	wordpools/wordpool_EN.txt	LAMB	12	2	[0, 0, 0]	n/a	FR1	2	R1145J
380.882	0.0	768771	WORD_OFF	n/a	n/a	LAMB	12	2	[0, 0, 0]	n/a	FR1	2	R1145J
380.882	0.001	768771	DISTRACT_START	n/a	n/a	n/a	-999	2	[0, 0, 0]	n/a	FR1	2	R1145J
380.883	0.016	768772	START	n/a	n/a	n/a	-999	2	[-999, -999, -999]	n/a	FR1	2	R1145J
380.899	12.401	768788	PROB	12.401	n/a	n/a	-999	2	[4, 5, 9]	18	FR1	2	R1145J
393.3	4.933	781189	PROB	4.933	n/a	n/a	-999	2	[6, 1, 9]	16	FR1	2	R1145J
398.233	5.25	786122	PROB	5.25	n/a	n/a	-999	2	[1, 5, 6]	12	FR1	2	R1145J
403.483	0.019	791372	STOP	n/a	n/a	n/a	-999	2	[-999, -999, -999]	n/a	FR1	2	R1145J
403.502	0.532	791391	DISTRACT_END	n/a	n/a	n/a	-999	2	[0, 0, 0]	n/a	FR1	2	R1145J
404.034	0.519	791923	RETRIEVAL_ORIENT	n/a	n/a	n/a	-999	2	[0, 0, 0]	n/a	FR1	2	R1145J
404.553	1.122	792442	REC_START	n/a	n/a	n/a	-999	2	[0, 0, 0]	n/a	FR1	2	R1145J
405.675	0.848	793564	REC_WORD	0.848	n/a	MOOSE	10	2	[0, 0, 0]	n/a	FR1	2	R1145J
406.523	1.411	794412	REC_WORD	1.411	n/a	LAMB	12	2	[0, 0, 0]	n/a	FR1	2	R1145J
407.934	5.825	795823	REC_WORD	5.825	n/a	THREAD	9	2	[0, 0, 0]	n/a	FR1	2	R1145J
413.759	4.695	801648	REC_WORD	4.695	n/a	FOOD	6	2	[0, 0, 0]	n/a	FR1	2	R1145J
418.454	6.272	806343	REC_WORD_VV	6.272	n/a	<>	-999	2	[0, 0, 0]	n/a	FR1	2	R1145J
424.726	3.223	812615	REC_WORD_VV	3.223	n/a	<>	-999	2	[0, 0, 0]	n/a	FR1	2	R1145J
427.949	3.176	815838	REC_WORD	3.176	n/a	SEED	4	2	[0, 0, 0]	n/a	FR1	2	R1145J
431.125	0.635	819014	REC_WORD_VV	0.635	n/a	<>	-999	2	[0, 0, 0]	n/a	FR1	2	R1145J
431.76	2.806	819649	REC_WORD	2.806	n/a	PLANT	3	2	[0, 0, 0]	n/a	FR1	2	R1145J
434.566	4.572	822455	REC_END	n/a	n/a	n/a	-999	2	[0, 0, 0]	n/a	FR1	2	R1145J
439.138	0.5	827027	TRIAL	n/a	n/a	n/a	-999	3	[0, 0, 0]	n/a	FR1	2	R1145J
439.638	10.428	827527	COUNTDOWN_START	n/a	n/a	n/a	-999	3	[0, 0, 0]	n/a	FR1	2	R1145J
450.066	0.007	837955	COUNTDOWN_END	n/a	n/a	n/a	-999	3	[0, 0, 0]	n/a	FR1	2	R1145J
450.073	1.601	837962	ORIENT	n/a	n/a	n/a	-999	3	[0, 0, 0]	n/a	FR1	2	R1145J
451.674	1.951	839562	ORIENT_OFF	n/a	n/a	n/a	-999	3	[0, 0, 0]	n/a	FR1	2	R1145J
453.625	1.616	841513	WORD	n/a	wordpools/wordpool_EN.txt	PANTS	1	3	[0, 0, 0]	n/a	FR1	2	R1145J
455.241	0.966	843129	WORD_OFF	n/a	n/a	PANTS	1	3	[0, 0, 0]	n/a	FR1	2	R1145J
456.207	1.601	844095	WORD	n/a	wordpools/wordpool_EN.txt	SPEAR	2	3	[0, 0, 0]	n/a	FR1	2	R1145J
457.808	0.784	845696	WORD_OFF	n/a	n/a	SPEAR	2	3	[0, 0, 0]	n/a	FR1	2	R1145J
458.592	1.616	846480	WORD	n/a	wordpools/wordpool_EN.txt	SKUNK	3	3	[0, 0, 0]	n/a	FR1	2	R1145J
460.208	0.833	848096	WORD_OFF	n/a	n/a	SKUNK	3	3	[0, 0, 0]	n/a	FR1	2	R1145J
461.041	1.618	848929	WORD	n/a	wordpools/wordpool_EN.txt	FOAM	4	3	[0, 0, 0]	n/a	FR1	2	R1145J
462.659	0.967	850547	WORD_OFF	n/a	n/a	FOAM	4	3	[0, 0, 0]	n/a	FR1	2	R1145J
463.626	1.616	851514	WORD	n/a	wordpools/wordpool_EN.txt	WOOD	5	3	[0, 0, 0]	n/a	FR1	2	R1145J
465.242	0.983	853130	WORD_OFF	n/a	n/a	WOOD	5	3	[0, 0, 0]	n/a	FR1	2	R1145J
466.225	1.618	854113	WORD	n/a	wordpools/wordpool_EN.txt	BEACH	6	3	[0, 0, 0]	n/a	FR1	2	R1145J
467.843	0.9	855731	WORD_OFF	n/a	n/a	BEACH	6	3	[0, 0, 0]	n/a	FR1	2	R1145J
468.743	1.617	856631	WORD	n/a	wordpools/wordpool_EN.txt	SNAKE	7	3	[0, 0, 0]	n/a	FR1	2	R1145J
470.36	0.95	858248	WORD_OFF	n/a	n/a	SNAKE	7	3	[0, 0, 0]	n/a	FR1	2	R1145J
471.31	1.617	859198	WORD	n/a	wordpools/wordpool_EN.txt	STRING	8	3	[0, 0, 0]	n/a	FR1	2	R1145J
472.927	1.0	860815	WORD_OFF	n/a	n/a	STRING	8	3	[0, 0, 0]	n/a	FR1	2	R1145J
473.927	1.617	861815	WORD	n/a	wordpools/wordpool_EN.txt	RAKE	9	3	[0, 0, 0]	n/a	FR1	2	R1145J
475.544	0.833	863432	WORD_OFF	n/a	n/a	RAKE	9	3	[0, 0, 0]	n/a	FR1	2	R1145J
476.377	1.617	864265	WORD	n/a	wordpools/wordpool_EN.txt	FLEA	10	3	[0, 0, 0]	n/a	FR1	2	R1145J
477.994	0.784	865882	WORD_OFF	n/a	n/a	FLEA	10	3	[0, 0, 0]	n/a	FR1	2	R1145J
478.778	1.617	866666	WORD	n/a	wordpools/wordpool_EN.txt	HOOF	11	3	[0, 0, 0]	n/a	FR1	2	R1145J
480.395	0.849	868283	WORD_OFF	n/a	n/a	HOOF	11	3	[0, 0, 0]	n/a	FR1	2	R1145J
481.244	1.618	869132	WORD	n/a	wordpools/wordpool_EN.txt	SOAP	12	3	[0, 0, 0]	n/a	FR1	2	R1145J
482.862	0.0	870750	WORD_OFF	n/a	n/a	SOAP	12	3	[0, 0, 0]	n/a	FR1	2	R1145J
482.862	0.0	870750	DISTRACT_START	n/a	n/a	n/a	-999	3	[0, 0, 0]	n/a	FR1	2	R1145J
482.862	0.016	870750	START	n/a	n/a	n/a	-999	3	[-999, -999, -999]	n/a	FR1	2	R1145J
482.878	6.4	870766	PROB	6.4	n/a	n/a	-999	3	[2, 6, 5]	13	FR1	2	R1145J
489.278	5.901	877166	PROB	5.901	n/a	n/a	-999	3	[5, 2, 8]	15	FR1	2	R1145J
495.179	13.067	883067	PROB	13.067	n/a	n/a	-999	3	[6, 9, 9]	24	FR1	2	R1145J
508.246	0.018	896134	STOP	n/a	n/a	n/a	-999	3	[-999, -999, -999]	n/a	FR1	2	R1145J
508.264	0.618	896152	DISTRACT_END	n/a	n/a	n/a	-999	3	[0, 0, 0]	n/a	FR1	2	R1145J
508.882	0.517	896770	RETRIEVAL_ORIENT	n/a	n/a	n/a	-999	3	[0, 0, 0]	n/a	FR1	2	R1145J
509.399	2.896	897287	REC_START	n/a	n/a	n/a	-999	3	[0, 0, 0]	n/a	FR1	2	R1145J
512.295	4.451	900183	REC_WORD	4.451	n/a	SNAKE	7	3	[0, 0, 0]	n/a	FR1	2	R1145J
516.746	3.649	904634	REC_WORD	3.649	n/a	RAKE	9	3	[0, 0, 0]	n/a	FR1	2	R1145J
520.395	4.172	908283	REC_WORD_VV	4.172	n/a	<>	-999	3	[0, 0, 0]	n/a	FR1	2	R1145J
524.567	1.059	912455	REC_WORD_VV	1.059	n/a	<>	-999	3	[0, 0, 0]	n/a	FR1	2	R1145J
525.626	13.784	913514	REC_WORD	13.784	n/a	FOOD	-999	3	[0, 0, 0]	n/a	FR1	2	R1145J
539.41	4.109	927298	REC_END	n/a	n/a	n/a	-999	3	[0, 0, 0]	n/a	FR1	2	R1145J
543.519	0.5	931407	TRIAL	n/a	n/a	n/a	-999	4	[0, 0, 0]	n/a	FR1	2	R1145J
544.019	10.428	931907	COUNTDOWN_START	n/a	n/a	n/a	-999	4	[0, 0, 0]	n/a	FR1	2	R1145J
554.447	0.007	942335	COUNTDOWN_END	n/a	n/a	n/a	-999	4	[0, 0, 0]	n/a	FR1	2	R1145J
554.454	1.616	942342	ORIENT	n/a	n/a	n/a	-999	4	[0, 0, 0]	n/a	FR1	2	R1145J
556.07	1.918	943958	ORIENT_OFF	n/a	n/a	n/a	-999	4	[0, 0, 0]	n/a	FR1	2	R1145J
557.988	1.617	945876	WORD	n/a	wordpools/wordpool_EN.txt	COIN	1	4	[0, 0, 0]	n/a	FR1	2	R1145J
559.605	0.816	947493	WORD_OFF	n/a	n/a	COIN	1	4	[0, 0, 0]	n/a	FR1	2	R1145J
560.421	1.616	948309	WORD	n/a	wordpools/wordpool_EN.txt	BOOK	2	4	[0, 0, 0]	n/a	FR1	2	R1145J
562.037	0.802	949925	WORD_OFF	n/a	n/a	BOOK	2	4	[0, 0, 0]	n/a	FR1	2	R1145J
562.839	1.617	950727	WORD	n/a	wordpools/wordpool_EN.txt	STORE	3	4	[0, 0, 0]	n/a	FR1	2	R1145J
564.456	0.799	952343	WORD_OFF	n/a	n/a	STORE	3	4	[0, 0, 0]	n/a	FR1	2	R1145J
565.255	1.617	953142	WORD	n/a	wordpools/wordpool_EN.txt	MAIL	4	4	[0, 0, 0]	n/a	FR1	2	R1145J
566.872	0.884	954759	WORD_OFF	n/a	n/a	MAIL	4	4	[0, 0, 0]	n/a	FR1	2	R1145J
567.756	1.617	955643	WORD	n/a	wordpools/wordpool_EN.txt	CLOCK	5	4	[0, 0, 0]	n/a	FR1	2	R1145J
569.373	1.0	957260	WORD_OFF	n/a	n/a	CLOCK	5	4	[0, 0, 0]	n/a	FR1	2	R1145J
570.373	1.617	958260	WORD	n/a	wordpools/wordpool_EN.txt	FROG	6	4	[0, 0, 0]	n/a	FR1	2	R1145J
571.99	0.933	959877	WORD_OFF	n/a	n/a	FROG	6	4	[0, 0, 0]	n/a	FR1	2	R1145J
572.923	1.617	960810	WORD	n/a	wordpools/wordpool_EN.txt	KEY	7	4	[0, 0, 0]	n/a	FR1	2	R1145J
574.54	0.9	962427	WORD_OFF	n/a	n/a	KEY	7	4	[0, 0, 0]	n/a	FR1	2	R1145J
575.44	1.616	963327	WORD	n/a	wordpools/wordpool_EN.txt	JUDGE	8	4	[0, 0, 0]	n/a	FR1	2	R1145J
577.056	0.934	964943	WORD_OFF	n/a	n/a	JUDGE	8	4	[0, 0, 0]	n/a	FR1	2	R1145J
577.99	1.617	965877	WORD	n/a	wordpools/wordpool_EN.txt	TANK	9	4	[0, 0, 0]	n/a	FR1	2	R1145J
579.607	0.934	967494	WORD_OFF	n/a	n/a	TANK	9	4	[0, 0, 0]	n/a	FR1	2	R1145J
580.541	1.616	968428	WORD	n/a	wordpools/wordpool_EN.txt	STREET	10	4	[0, 0, 0]	n/a	FR1	2	R1145J
582.157	0.784	970044	WORD_OFF	n/a	n/a	STREET	10	4	[0, 0, 0]	n/a	FR1	2	R1145J
582.941	1.617	970828	WORD	n/a	wordpools/wordpool_EN.txt	CAR	11	4	[0, 0, 0]	n/a	FR1	2	R1145J
584.558	0.9	972445	WORD_OFF	n/a	n/a	CAR	11	4	[0, 0, 0]	n/a	FR1	2	R1145J
585.458	1.616	973345	WORD	n/a	wordpools/wordpool_EN.txt	BADGE	12	4	[0, 0, 0]	n/a	FR1	2	R1145J
587.074	0.0	974961	WORD_OFF	n/a	n/a	BADGE	12	4	[0, 0, 0]	n/a	FR1	2	R1145J
587.074	0.001	974961	DISTRACT_START	n/a	n/a	n/a	-999	4	[0, 0, 0]	n/a	FR1	2	R1145J
587.075	0.016	974962	START	n/a	n/a	n/a	-999	4	[-999, -999, -999]	n/a	FR1	2	R1145J
587.091	9.101	974978	PROB	9.101	n/a	n/a	-999	4	[1, 8, 1]	10	FR1	2	R1145J
596.192	11.969	984079	PROB	11.969	n/a	n/a	-999	4	[2, 9, 9]	20	FR1	2	R1145J
608.161	0.015	996048	STOP	n/a	n/a	n/a	-999	4	[-999, -999, -999]	n/a	FR1	2	R1145J
608.176	0.685	996063	DISTRACT_END	n/a	n/a	n/a	-999	4	[0, 0, 0]	n/a	FR1	2	R1145J
608.861	0.517	996748	RETRIEVAL_ORIENT	n/a	n/a	n/a	-999	4	[0, 0, 0]	n/a	FR1	2	R1145J
609.378	0.55	997265	REC_START	n/a	n/a	n/a	-999	4	[0, 0, 0]	n/a	FR1	2	R1145J
609.928	0.84	997815	REC_WORD_VV	0.84	n/a	<>	-999	4	[0, 0, 0]	n/a	FR1	2	R1145J
610.768	7.123	998655	REC_WORD_VV	7.123	n/a	<>	-999	4	[0, 0, 0]	n/a	FR1	2	R1145J
617.891	0.618	1005778	REC_WORD_VV	0.618	n/a	<>	-999	4	[0, 0, 0]	n/a	FR1	2	R1145J
618.509	3.472	1006396	REC_WORD_VV	3.472	n/a	<>	-999	4	[0, 0, 0]	n/a	FR1	2	R1145J
621.981	6.329	1009868	REC_WORD	6.329	n/a	COIN	1	4	[0, 0, 0]	n/a	FR1	2	R1145J
628.31	4.129	1016197	REC_WORD	4.129	n/a	TANK	9	4	[0, 0, 0]	n/a	FR1	2	R1145J
632.439	6.951	1020326	REC_WORD	6.951	n/a	SHOP	-999	4	[0, 0, 0]	n/a	FR1	2	R1145J
639.39	5.242	1027277	REC_END	n/a	n/a	n/a	-999	4	[0, 0, 0]	n/a	FR1	2	R1145J
644.632	0.5	1032519	TRIAL	n/a	n/a	n/a	-999	5	[0, 0, 0]	n/a	FR1	2	R1145J
645.132	10.428	1033019	COUNTDOWN_START	n/a	n/a	n/a	-999	5	[0, 0, 0]	n/a	FR1	2	R1145J
655.56	0.007	1043447	COUNTDOWN_END	n/a	n/a	n/a	-999	5	[0, 0, 0]	n/a	FR1	2	R1145J
655.567	1.616	1043454	ORIENT	n/a	n/a	n/a	-999	5	[0, 0, 0]	n/a	FR1	2	R1145J
657.183	2.017	1045070	ORIENT_OFF	n/a	n/a	n/a	-999	5	[0, 0, 0]	n/a	FR1	2	R1145J
659.2	1.618	1047087	WORD	n/a	wordpools/wordpool_EN.txt	LAKE	1	5	[0, 0, 0]	n/a	FR1	2	R1145J
660.818	0.9	1048705	WORD_OFF	n/a	n/a	LAKE	1	5	[0, 0, 0]	n/a	FR1	2	R1145J
661.718	1.617	1049605	WORD	n/a	wordpools/wordpool_EN.txt	ICE	2	5	[0, 0, 0]	n/a	FR1	2	R1145J
663.335	0.849	1051222	WORD_OFF	n/a	n/a	ICE	2	5	[0, 0, 0]	n/a	FR1	2	R1145J
664.184	1.618	1052071	WORD	n/a	wordpools/wordpool_EN.txt	BRIDGE	3	5	[0, 0, 0]	n/a	FR1	2	R1145J
665.802	0.967	1053689	WORD_OFF	n/a	n/a	BRIDGE	3	5	[0, 0, 0]	n/a	FR1	2	R1145J
666.769	1.616	1054656	WORD	n/a	wordpools/wordpool_EN.txt	CROWN	4	5	[0, 0, 0]	n/a	FR1	2	R1145J
668.385	0.967	1056272	WORD_OFF	n/a	n/a	CROWN	4	5	[0, 0, 0]	n/a	FR1	2	R1145J
669.352	1.617	1057239	WORD	n/a	wordpools/wordpool_EN.txt	BLUSH	5	5	[0, 0, 0]	n/a	FR1	2	R1145J
670.969	0.883	1058856	WORD_OFF	n/a	n/a	BLUSH	5	5	[0, 0, 0]	n/a	FR1	2	R1145J
671.852	1.617	1059739	WORD	n/a	wordpools/wordpool_EN.txt	JAIL	6	5	[0, 0, 0]	n/a	FR1	2	R1145J
673.469	1.001	1061356	WORD_OFF	n/a	n/a	JAIL	6	5	[0, 0, 0]	n/a	FR1	2	R1145J
674.47	1.615	1062357	WORD	n/a	wordpools/wordpool_EN.txt	MAZE	7	5	[0, 0, 0]	n/a	FR1	2	R1145J
676.085	0.984	1063972	WORD_OFF	n/a	n/a	MAZE	7	5	[0, 0, 0]	n/a	FR1	2	R1145J
677.069	1.618	1064955	WORD	n/a	wordpools/wordpool_EN.txt	BRICK	8	5	[0, 0, 0]	n/a	FR1	2	R1145J
678.687	0.916	1066573	WORD_OFF	n/a	n/a	BRICK	8	5	[0, 0, 0]	n/a	FR1	2	R1145J
679.603	1.616	1067489	WORD	n/a	wordpools/wordpool_EN.txt	BANK	9	5	[0, 0, 0]	n/a	FR1	2	R1145J
681.219	0.768	1069105	WORD_OFF	n/a	n/a	BANK	9	5	[0, 0, 0]	n/a	FR1	2	R1145J
681.987	1.617	1069873	WORD	n/a	wordpools/wordpool_EN.txt	LOCK	10	5	[0, 0, 0]	n/a	FR1	2	R1145J
683.604	0.883	1071490	WORD_OFF	n/a	n/a	LOCK	10	5	[0, 0, 0]	n/a	FR1	2	R1145J
684.487	1.616	1072373	WORD	n/a	wordpools/wordpool_EN.txt	HILL	11	5	[0, 0, 0]	n/a	FR1	2	R1145J
686.103	0.984	1073989	WORD_OFF	n/a	n/a	HILL	11	5	[0, 0, 0]	n/a	FR1	2	R1145J
687.087	1.601	1074973	WORD	n/a	wordpools/wordpool_EN.txt	POLE	12	5	[0, 0, 0]	n/a	FR1	2	R1145J
688.688	0.0	1076574	WORD_OFF	n/a	n/a	POLE	12	5	[0, 0, 0]	n/a	FR1	2	R1145J
688.688	0.0	1076574	DISTRACT_START	n/a	n/a	n/a	-999	5	[0, 0, 0]	n/a	FR1	2	R1145J
688.688	0.016	1076574	START	n/a	n/a	n/a	-999	5	[-999, -999, -999]	n/a	FR1	2	R1145J
688.704	5.285	1076590	PROB	5.285	n/a	n/a	-999	5	[2, 8, 6]	16	FR1	2	R1145J
693.989	6.634	1081875	PROB	6.634	n/a	n/a	-999	5	[8, 8, 4]	20	FR1	2	R1145J
700.623	5.65	1088509	PROB	5.65	n/a	n/a	-999	5	[4, 1, 9]	14	FR1	2	R1145J
706.273	6.796	1094159	PROB	6.796	n/a	n/a	-999	5	[4, 8, 9]	21	FR1	2	R1145J
713.069	0.021	1100955	STOP	n/a	n/a	n/a	-999	5	[-999, -999, -999]	n/a	FR1	2	R1145J
713.09	0.551	1100976	DISTRACT_END	n/a	n/a	n/a	-999	5	[0, 0, 0]	n/a	FR1	2	R1145J
713.641	0.517	1101527	RETRIEVAL_ORIENT	n/a	n/a	n/a	-999	5	[0, 0, 0]	n/a	FR1	2	R1145J
714.158	1.702	1102044	REC_START	n/a	n/a	n/a	-999	5	[0, 0, 0]	n/a	FR1	2	R1145J
715.86	0.784	1103746	REC_WORD	0.784	n/a	BRIDGE	3	5	[0, 0, 0]	n/a	FR1	2	R1145J
716.644	3.713	1104530	REC_WORD	3.713	n/a	POLE	12	5	[0, 0, 0]	n/a	FR1	2	R1145J
720.357	0.343	1108243	REC_WORD_VV	0.343	n/a	<>	-999	5	[0, 0, 0]	n/a	FR1	2	R1145J
720.7	1.556	1108586	REC_WORD_VV	1.556	n/a	<>	-999	5	[0, 0, 0]	n/a	FR1	2	R1145J
722.256	1.072	1110142	REC_WORD	1.072	n/a	LOCK	10	5	[0, 0, 0]	n/a	FR1	2	R1145J
723.328	3.253	1111214	REC_WORD	3.253	n/a	MAZE	7	5	[0, 0, 0]	n/a	FR1	2	R1145J
726.581	5.197	1114467	REC_WORD	5.197	n/a	FREEZE	-999	5	[0, 0, 0]	n/a	FR1	2	R1145J
731.778	4.967	1119664	REC_WORD	4.967	n/a	JAIL	6	5	[0, 0, 0]	n/a	FR1	2	R1145J
736.745	1.068	1124631	REC_WORD_VV	1.068	n/a	<>	-999	5	[0, 0, 0]	n/a	FR1	2	R1145J
737.813	4.003	1125699	REC_WORD_VV	4.003	n/a	<>	-999	5	[0, 0, 0]	n/a	FR1	2	R1145J
741.816	2.353	1129702	REC_WORD_VV	2.353	n/a	<>	-999	5	[0, 0, 0]	n/a	FR1	2	R1145J
744.169	4.643	1132055	REC_END	n/a	n/a	n/a	-999	5	[0, 0, 0]	n/a	FR1	2	R1145J
748.812	0.5	1136698	TRIAL	n/a	n/a	n/a	-999	6	[0, 0, 0]	n/a	FR1	2	R1145J
749.312	10.428	1137198	COUNTDOWN_START	n/a	n/a	n/a	-999	6	[0, 0, 0]	n/a	FR1	2	R1145J
759.74	0.007	1147626	COUNTDOWN_END	n/a	n/a	n/a	-999	6	[0, 0, 0]	n/a	FR1	2	R1145J
759.747	1.617	1147633	ORIENT	n/a	n/a	n/a	-999	6	[0, 0, 0]	n/a	FR1	2	R1145J
761.364	1.967	1149250	ORIENT_OFF	n/a	n/a	n/a	-999	6	[0, 0, 0]	n/a	FR1	2	R1145J
763.331	1.617	1151217	WORD	n/a	wordpools/wordpool_EN.txt	HOSE	1	6	[0, 0, 0]	n/a	FR1	2	R1145J
764.948	0.966	1152834	WORD_OFF	n/a	n/a	HOSE	1	6	[0, 0, 0]	n/a	FR1	2	R1145J
765.914	1.617	1153800	WORD	n/a	wordpools/wordpool_EN.txt	SLEEVE	2	6	[0, 0, 0]	n/a	FR1	2	R1145J
767.531	0.867	1155417	WORD_OFF	n/a	n/a	SLEEVE	2	6	[0, 0, 0]	n/a	FR1	2	R1145J
768.398	1.616	1156284	WORD	n/a	wordpools/wordpool_EN.txt	FUDGE	3	6	[0, 0, 0]	n/a	FR1	2	R1145J
770.014	0.984	1157900	WORD_OFF	n/a	n/a	FUDGE	3	6	[0, 0, 0]	n/a	FR1	2	R1145J
770.998	1.617	1158884	WORD	n/a	wordpools/wordpool_EN.txt	RAT	4	6	[0, 0, 0]	n/a	FR1	2	R1145J
772.615	0.867	1160501	WORD_OFF	n/a	n/a	RAT	4	6	[0, 0, 0]	n/a	FR1	2	R1145J
773.482	1.616	1161368	WORD	n/a	wordpools/wordpool_EN.txt	BOX	5	6	[0, 0, 0]	n/a	FR1	2	R1145J
775.098	0.835	1162984	WORD_OFF	n/a	n/a	BOX	5	6	[0, 0, 0]	n/a	FR1	2	R1145J
775.933	1.616	1163819	WORD	n/a	wordpools/wordpool_EN.txt	FAN	6	6	[0, 0, 0]	n/a	FR1	2	R1145J
777.549	0.917	1165435	WORD_OFF	n/a	n/a	FAN	6	6	[0, 0, 0]	n/a	FR1	2	R1145J
778.466	1.616	1166352	WORD	n/a	wordpools/wordpool_EN.txt	PIG	7	6	[0, 0, 0]	n/a	FR1	2	R1145J
780.082	0.918	1167968	WORD_OFF	n/a	n/a	PIG	7	6	[0, 0, 0]	n/a	FR1	2	R1145J
781.0	1.616	1168886	WORD	n/a	wordpools/wordpool_EN.txt	BRUSH	8	6	[0, 0, 0]	n/a	FR1	2	R1145J
782.616	0.817	1170502	WORD_OFF	n/a	n/a	BRUSH	8	6	[0, 0, 0]	n/a	FR1	2	R1145J
783.433	1.616	1171319	WORD	n/a	wordpools/wordpool_EN.txt	PIT	9	6	[0, 0, 0]	n/a	FR1	2	R1145J
785.049	0.951	1172935	WORD_OFF	n/a	n/a	PIT	9	6	[0, 0, 0]	n/a	FR1	2	R1145J
786.0	1.617	1173886	WORD	n/a	wordpools/wordpool_EN.txt	BROOM	10	6	[0, 0, 0]	n/a	FR1	2	R1145J
787.617	0.8	1175503	WORD_OFF	n/a	n/a	BROOM	10	6	[0, 0, 0]	n/a	FR1	2	R1145J
788.417	1.616	1176303	WORD	n/a	wordpools/wordpool_EN.txt	MUG	11	6	[0, 0, 0]	n/a	FR1	2	R1145J
790.033	0.935	1177918	WORD_OFF	n/a	n/a	MUG	11	6	[0, 0, 0]	n/a	FR1	2	R1145J
790.968	1.616	1178853	WORD	n/a	wordpools/wordpool_EN.txt	COUCH	12	6	[0, 0, 0]	n/a	FR1	2	R1145J
792.584	0.0	1180469	WORD_OFF	n/a	n/a	COUCH	12	6	[0, 0, 0]	n/a	FR1	2	R1145J
792.584	0.001	1180469	DISTRACT_START	n/a	n/a	n/a	-999	6	[0, 0, 0]	n/a	FR1	2	R1145J
792.585	0.016	1180470	START	n/a	n/a	n/a	-999	6	[-999, -999, -999]	n/a	FR1	2	R1145J
792.601	12.318	1180486	PROB	12.318	n/a	n/a	-999	6	[8, 7, 5]	20	FR1	2	R1145J
804.919	7.2	1192804	PROB	7.2	n/a	n/a	-999	6	[7, 5, 1]	13	FR1	2	R1145J
812.119	8.491	1200004	PROB	8.491	n/a	n/a	-999	6	[9, 5, 6]	20	FR1	2	R1145J
820.61	0.011	1208495	STOP	n/a	n/a	n/a	-999	6	[-999, -999, -999]	n/a	FR1	2	R1145J
820.621	0.533	1208506	DISTRACT_END	n/a	n/a	n/a	-999	6	[0, 0, 0]	n/a	FR1	2	R1145J
821.154	0.518	1209039	RETRIEVAL_ORIENT	n/a	n/a	n/a	-999	6	[0, 0, 0]	n/a	FR1	2	R1145J
821.672	0.612	1209557	REC_START	n/a	n/a	n/a	-999	6	[0, 0, 0]	n/a	FR1	2	R1145J
822.284	1.382	1210169	REC_WORD_VV	1.382	n/a	<>	-999	6	[0, 0, 0]	n/a	FR1	2	R1145J
823.666	1.548	1211551	REC_WORD	1.548	n/a	HOSE	1	6	[0, 0, 0]	n/a	FR1	2	R1145J
825.214	1.229	1213099	REC_WORD	1.229	n/a	BOX	5	6	[0, 0, 0]	n/a	FR1	2	R1145J
826.443	1.886	1214328	REC_WORD	1.886	n/a	PIG	7	6	[0, 0, 0]	n/a	FR1	2	R1145J
828.329	1.456	1216214	REC_WORD	1.456	n/a	BRUSH	8	6	[0, 0, 0]	n/a	FR1	2	R1145J
829.785	11.861	1217670	REC_WORD	11.861	n/a	MUG	11	6	[0, 0, 0]	n/a	FR1	2	R1145J
841.646	1.629	1229531	REC_WORD_VV	1.629	n/a	<>	-999	6	[0, 0, 0]	n/a	FR1	2	R1145J
843.275	8.409	1231160	REC_WORD_VV	8.409	n/a	<>	-999	6	[0, 0, 0]	n/a	FR1	2	R1145J
851.684	16.359	1239569	REC_END	n/a	n/a	n/a	-999	6	[0, 0, 0]	n/a	FR1	2	R1145J
868.043	0.5	1255928	TRIAL	n/a	n/a	n/a	-999	7	[0, 0, 0]	n/a	FR1	2	R1145J
868.543	10.428	1256428	COUNTDOWN_START	n/a	n/a	n/a	-999	7	[0, 0, 0]	n/a	FR1	2	R1145J
878.971	0.008	1266856	COUNTDOWN_END	n/a	n/a	n/a	-999	7	[0, 0, 0]	n/a	FR1	2	R1145J
878.979	1.617	1266864	ORIENT	n/a	n/a	n/a	-999	7	[0, 0, 0]	n/a	FR1	2	R1145J
880.596	2.033	1268481	ORIENT_OFF	n/a	n/a	n/a	-999	7	[0, 0, 0]	n/a	FR1	2	R1145J
882.629	1.616	1270514	WORD	n/a	wordpools/wordpool_EN.txt	CALF	1	7	[0, 0, 0]	n/a	FR1	2	R1145J
884.245	0.834	1272130	WORD_OFF	n/a	n/a	CALF	1	7	[0, 0, 0]	n/a	FR1	2	R1145J
885.079	1.618	1272964	WORD	n/a	wordpools/wordpool_EN.txt	WOLF	2	7	[0, 0, 0]	n/a	FR1	2	R1145J
886.697	0.833	1274582	WORD_OFF	n/a	n/a	WOLF	2	7	[0, 0, 0]	n/a	FR1	2	R1145J
887.53	1.616	1275415	WORD	n/a	wordpools/wordpool_EN.txt	PRINCE	3	7	[0, 0, 0]	n/a	FR1	2	R1145J
889.146	0.933	1277031	WORD_OFF	n/a	n/a	PRINCE	3	7	[0, 0, 0]	n/a	FR1	2	R1145J
890.079	1.618	1277964	WORD	n/a	wordpools/wordpool_EN.txt	GATE	4	7	[0, 0, 0]	n/a	FR1	2	R1145J
891.697	0.917	1279582	WORD_OFF	n/a	n/a	GATE	4	7	[0, 0, 0]	n/a	FR1	2	R1145J
892.614	1.616	1280499	WORD	n/a	wordpools/wordpool_EN.txt	GOAT	5	7	[0, 0, 0]	n/a	FR1	2	R1145J
894.23	0.983	1282115	WORD_OFF	n/a	n/a	GOAT	5	7	[0, 0, 0]	n/a	FR1	2	R1145J
895.213	1.618	1283098	WORD	n/a	wordpools/wordpool_EN.txt	STEAK	6	7	[0, 0, 0]	n/a	FR1	2	R1145J
896.831	0.833	1284716	WORD_OFF	n/a	n/a	STEAK	6	7	[0, 0, 0]	n/a	FR1	2	R1145J
897.664	1.616	1285549	WORD	n/a	wordpools/wordpool_EN.txt	MOUTH	7	7	[0, 0, 0]	n/a	FR1	2	R1145J
899.28	0.767	1287165	WORD_OFF	n/a	n/a	MOUTH	7	7	[0, 0, 0]	n/a	FR1	2	R1145J
900.047	1.601	1287932	WORD	n/a	wordpools/wordpool_EN.txt	BARN	8	7	[0, 0, 0]	n/a	FR1	2	R1145J
901.648	0.884	1289533	WORD_OFF	n/a	n/a	BARN	8	7	[0, 0, 0]	n/a	FR1	2	R1145J
902.532	1.616	1290416	WORD	n/a	wordpools/wordpool_EN.txt	COW	9	7	[0, 0, 0]	n/a	FR1	2	R1145J
904.148	0.851	1292032	WORD_OFF	n/a	n/a	COW	9	7	[0, 0, 0]	n/a	FR1	2	R1145J
904.999	1.617	1292883	WORD	n/a	wordpools/wordpool_EN.txt	GUARD	10	7	[0, 0, 0]	n/a	FR1	2	R1145J
906.616	0.95	1294500	WORD_OFF	n/a	n/a	GUARD	10	7	[0, 0, 0]	n/a	FR1	2	R1145J
907.566	1.616	1295450	WORD	n/a	wordpools/wordpool_EN.txt	BAG	11	7	[0, 0, 0]	n/a	FR1	2	R1145J
909.182	0.966	1297066	WORD_OFF	n/a	n/a	BAG	11	7	[0, 0, 0]	n/a	FR1	2	R1145J
910.148	1.618	1298032	WORD	n/a	wordpools/wordpool_EN.txt	BEAK	12	7	[0, 0, 0]	n/a	FR1	2	R1145J
911.766	0.0	1299650	WORD_OFF	n/a	n/a	BEAK	12	7	[0, 0, 0]	n/a	FR1	2	R1145J
911.766	0.001	1299650	DISTRACT_START	n/a	n/a	n/a	-999	7	[0, 0, 0]	n/a	FR1	2	R1145J
911.767	0.016	1299651	START	n/a	n/a	n/a	-999	7	[-999, -999, -999]	n/a	FR1	2	R1145J
911.783	5.501	1299667	PROB	5.501	n/a	n/a	-999	7	[1, 7, 5]	13	FR1	2	R1145J
917.284	4.05	1305168	PROB	4.05	n/a	n/a	-999	7	[4, 1, 7]	12	FR1	2	R1145J
921.334	5.168	1309218	PROB	5.168	n/a	n/a	-999	7	[6, 1, 7]	14	FR1	2	R1145J
926.502	4.766	1314386	PROB	4.766	n/a	n/a	-999	7	[1, 9, 8]	18	FR1	2	R1145J
931.268	10.848	1319152	PROB	10.848	n/a	n/a	-999	7	[9, 5, 3]	17	FR1	2	R1145J
942.116	0.02	1330000	STOP	n/a	n/a	n/a	-999	7	[-999, -999, -999]	n/a	FR1	2	R1145J
942.136	0.684	1330020	DISTRACT_END	n/a	n/a	n/a	-999	7	[0, 0, 0]	n/a	FR1	2	R1145J
942.82	0.518	1330704	RETRIEVAL_ORIENT	n/a	n/a	n/a	-999	7	[0, 0, 0]	n/a	FR1	2	R1145J
943.338	1.775	1331222	REC_START	n/a	n/a	n/a	-999	7	[0, 0, 0]	n/a	FR1	2	R1145J
945.113	0.794	1332997	REC_WORD	0.794	n/a	CALF	1	7	[0, 0, 0]	n/a	FR1	2	R1145J
945.907	3.068	1333791	REC_WORD	3.068	n/a	GATE	4	7	[0, 0, 0]	n/a	FR1	2	R1145J
948.975	0.986	1336859	REC_WORD	0.986	n/a	WOLF	2	7	[0, 0, 0]	n/a	FR1	2	R1145J
949.961	2.862	1337845	REC_WORD	2.862	n/a	PRINCE	3	7	[0, 0, 0]	n/a	FR1	2	R1145J
952.823	4.656	1340707	REC_WORD	4.656	n/a	STEAK	6	7	[0, 0, 0]	n/a	FR1	2	R1145J
957.479	7.936	1345363	REC_WORD	7.936	n/a	MOUTH	7	7	[0, 0, 0]	n/a	FR1	2	R1145J
965.415	1.176	1353299	REC_WORD_VV	1.176	n/a	<>	-999	7	[0, 0, 0]	n/a	FR1	2	R1145J
966.591	6.084	1354475	REC_WORD_VV	6.084	n/a	<>	-999	7	[0, 0, 0]	n/a	FR1	2	R1145J
972.675	0.675	1360559	REC_WORD_VV	0.675	n/a	<>	-999	7	[0, 0, 0]	n/a	FR1	2	R1145J
973.35	11.908	1361234	REC_END	n/a	n/a	n/a	-999	7	[0, 0, 0]	n/a	FR1	2	R1145J
985.258	0.5	1373142	TRIAL	n/a	n/a	n/a	-999	8	[0, 0, 0]	n/a	FR1	2	R1145J
985.758	10.428	1373642	COUNTDOWN_START	n/a	n/a	n/a	-999	8	[0, 0, 0]	n/a	FR1	2	R1145J
996.186	0.007	1384070	COUNTDOWN_END	n/a	n/a	n/a	-999	8	[0, 0, 0]	n/a	FR1	2	R1145J
996.193	1.617	1384077	ORIENT	n/a	n/a	n/a	-999	8	[0, 0, 0]	n/a	FR1	2	R1145J
997.81	1.851	1385694	ORIENT_OFF	n/a	n/a	n/a	-999	8	[0, 0, 0]	n/a	FR1	2	R1145J
999.661	1.616	1387545	WORD	n/a	wordpools/wordpool_EN.txt	CHIEF	1	8	[0, 0, 0]	n/a	FR1	2	R1145J
1001.277	0.917	1389161	WORD_OFF	n/a	n/a	CHIEF	1	8	[0, 0, 0]	n/a	FR1	2	R1145J
1002.194	1.617	1390078	WORD	n/a	wordpools/wordpool_EN.txt	FOG	2	8	[0, 0, 0]	n/a	FR1	2	R1145J
1003.811	0.784	1391695	WORD_OFF	n/a	n/a	FOG	2	8	[0, 0, 0]	n/a	FR1	2	R1145J
1004.595	1.616	1392479	WORD	n/a	wordpools/wordpool_EN.txt	STEAM	3	8	[0, 0, 0]	n/a	FR1	2	R1145J
1006.211	0.801	1394095	WORD_OFF	n/a	n/a	STEAM	3	8	[0, 0, 0]	n/a	FR1	2	R1145J
1007.012	1.617	1394896	WORD	n/a	wordpools/wordpool_EN.txt	SHIELD	4	8	[0, 0, 0]	n/a	FR1	2	R1145J
1008.629	0.883	1396513	WORD_OFF	n/a	n/a	SHIELD	4	8	[0, 0, 0]	n/a	FR1	2	R1145J
1009.512	1.616	1397396	WORD	n/a	wordpools/wordpool_EN.txt	STAR	5	8	[0, 0, 0]	n/a	FR1	2	R1145J
1011.128	0.983	1399012	WORD_OFF	n/a	n/a	STAR	5	8	[0, 0, 0]	n/a	FR1	2	R1145J
1012.111	1.618	1399995	WORD	n/a	wordpools/wordpool_EN.txt	WEED	6	8	[0, 0, 0]	n/a	FR1	2	R1145J
1013.729	0.784	1401613	WORD_OFF	n/a	n/a	WEED	6	8	[0, 0, 0]	n/a	FR1	2	R1145J
1014.513	1.616	1402396	WORD	n/a	wordpools/wordpool_EN.txt	SMOKE	7	8	[0, 0, 0]	n/a	FR1	2	R1145J
1016.129	1.0	1404012	WORD_OFF	n/a	n/a	SMOKE	7	8	[0, 0, 0]	n/a	FR1	2	R1145J
1017.129	1.617	1405012	WORD	n/a	wordpools/wordpool_EN.txt	SAIL	8	8	[0, 0, 0]	n/a	FR1	2	R1145J
1018.746	0.884	1406629	WORD_OFF	n/a	n/a	SAIL	8	8	[0, 0, 0]	n/a	FR1	2	R1145J
1019.63	1.616	1407513	WORD	n/a	wordpools/wordpool_EN.txt	SWORD	9	8	[0, 0, 0]	n/a	FR1	2	R1145J
1021.246	0.867	1409129	WORD_OFF	n/a	n/a	SWORD	9	8	[0, 0, 0]	n/a	FR1	2	R1145J
1022.113	1.618	1409996	WORD	n/a	wordpools/wordpool_EN.txt	TRAIN	10	8	[0, 0, 0]	n/a	FR1	2	R1145J
1023.731	0.95	1411614	WORD_OFF	n/a	n/a	TRAIN	10	8	[0, 0, 0]	n/a	FR1	2	R1145J
1024.681	1.617	1412564	WORD	n/a	wordpools/wordpool_EN.txt	FORT	11	8	[0, 0, 0]	n/a	FR1	2	R1145J
1026.298	0.832	1414181	WORD_OFF	n/a	n/a	FORT	11	8	[0, 0, 0]	n/a	FR1	2	R1145J
1027.13	1.601	1415013	WORD	n/a	wordpools/wordpool_EN.txt	SHIP	12	8	[0, 0, 0]	n/a	FR1	2	R1145J
1028.731	0.0	1416614	DISTRACT_START	n/a	n/a	n/a	-999	8	[0, 0, 0]	n/a	FR1	2	R1145J
1028.731	0.001	1416614	WORD_OFF	n/a	n/a	SHIP	12	8	[0, 0, 0]	n/a	FR1	2	R1145J
1028.732	0.016	1416615	START	n/a	n/a	n/a	-999	8	[-999, -999, -999]	n/a	FR1	2	R1145J
1028.748	7.984	1416631	PROB	7.984	n/a	n/a	-999	8	[1, 2, 1]	4	FR1	2	R1145J
1036.732	4.466	1424615	PROB	4.466	n/a	n/a	-999	8	[5, 6, 1]	12	FR1	2	R1145J
1041.198	5.702	1429081	PROB	5.702	n/a	n/a	-999	8	[6, 8, 6]	20	FR1	2	R1145J
1046.9	8.476	1434783	PROB	8.476	n/a	n/a	-999	8	[5, 2, 4]	11	FR1	2	R1145J
1055.376	0.009	1443259	STOP	n/a	n/a	n/a	-999	8	[-999, -999, -999]	n/a	FR1	2	R1145J
1055.385	0.583	1443268	DISTRACT_END	n/a	n/a	n/a	-999	8	[0, 0, 0]	n/a	FR1	2	R1145J
1055.968	0.518	1443851	RETRIEVAL_ORIENT	n/a	n/a	n/a	-999	8	[0, 0, 0]	n/a	FR1	2	R1145J
1056.486	2.584	1444369	REC_START	n/a	n/a	n/a	-999	8	[0, 0, 0]	n/a	FR1	2	R1145J
1059.07	0.983	1446953	REC_WORD	0.983	n/a	SHIP	12	8	[0, 0, 0]	n/a	FR1	2	R1145J
1060.053	3.125	1447936	REC_WORD	3.125	n/a	STAR	5	8	[0, 0, 0]	n/a	FR1	2	R1145J
1063.178	4.169	1451061	REC_WORD	4.169	n/a	SAIL	8	8	[0, 0, 0]	n/a	FR1	2	R1145J
1067.347	3.388	1455230	REC_WORD	3.388	n/a	WEED	6	8	[0, 0, 0]	n/a	FR1	2	R1145J
1070.735	6.32	1458618	REC_WORD_VV	6.32	n/a	<>	-999	8	[0, 0, 0]	n/a	FR1	2	R1145J
1077.055	8.604	1464938	REC_WORD_VV	8.604	n/a	<>	-999	8	[0, 0, 0]	n/a	FR1	2	R1145J
1085.659	0.839	1473542	REC_WORD	0.839	n/a	SMOKE	7	8	[0, 0, 0]	n/a	FR1	2	R1145J
1086.498	5.291	1474381	REC_END	n/a	n/a	n/a	-999	8	[0, 0, 0]	n/a	FR1	2	R1145J
1091.789	0.5	1479672	TRIAL	n/a	n/a	n/a	-999	9	[0, 0, 0]	n/a	FR1	2	R1145J
1092.289	10.428	1480172	COUNTDOWN_START	n/a	n/a	n/a	-999	9	[0, 0, 0]	n/a	FR1	2	R1145J
1102.717	0.007	1490600	COUNTDOWN_END	n/a	n/a	n/a	-999	9	[0, 0, 0]	n/a	FR1	2	R1145J
1102.724	1.617	1490607	ORIENT	n/a	n/a	n/a	-999	9	[0, 0, 0]	n/a	FR1	2	R1145J
1104.341	2.167	1492224	ORIENT_OFF	n/a	n/a	n/a	-999	9	[0, 0, 0]	n/a	FR1	2	R1145J
1106.508	1.616	1494391	WORD	n/a	wordpools/wordpool_EN.txt	TEETH	1	9	[0, 0, 0]	n/a	FR1	2	R1145J
1108.124	0.95	1496007	WORD_OFF	n/a	n/a	TEETH	1	9	[0, 0, 0]	n/a	FR1	2	R1145J
1109.074	1.618	1496957	WORD	n/a	wordpools/wordpool_EN.txt	CORD	2	9	[0, 0, 0]	n/a	FR1	2	R1145J
1110.692	0.85	1498575	WORD_OFF	n/a	n/a	CORD	2	9	[0, 0, 0]	n/a	FR1	2	R1145J
1111.542	1.615	1499425	WORD	n/a	wordpools/wordpool_EN.txt	BOMB	3	9	[0, 0, 0]	n/a	FR1	2	R1145J
1113.157	0.917	1501040	WORD_OFF	n/a	n/a	BOMB	3	9	[0, 0, 0]	n/a	FR1	2	R1145J
1114.074	1.601	1501957	WORD	n/a	wordpools/wordpool_EN.txt	PLANE	4	9	[0, 0, 0]	n/a	FR1	2	R1145J
1115.675	0.834	1503558	WORD_OFF	n/a	n/a	PLANE	4	9	[0, 0, 0]	n/a	FR1	2	R1145J
1116.509	1.616	1504392	WORD	n/a	wordpools/wordpool_EN.txt	WHEEL	5	9	[0, 0, 0]	n/a	FR1	2	R1145J
1118.125	0.818	1506008	WORD_OFF	n/a	n/a	WHEEL	5	9	[0, 0, 0]	n/a	FR1	2	R1145J
1118.943	1.617	1506826	WORD	n/a	wordpools/wordpool_EN.txt	SHEET	6	9	[0, 0, 0]	n/a	FR1	2	R1145J
1120.56	0.783	1508443	WORD_OFF	n/a	n/a	SHEET	6	9	[0, 0, 0]	n/a	FR1	2	R1145J
1121.343	1.617	1509226	WORD	n/a	wordpools/wordpool_EN.txt	PHONE	7	9	[0, 0, 0]	n/a	FR1	2	R1145J
1122.96	0.884	1510843	WORD_OFF	n/a	n/a	PHONE	7	9	[0, 0, 0]	n/a	FR1	2	R1145J
1123.844	1.616	1511727	WORD	n/a	wordpools/wordpool_EN.txt	CASH	8	9	[0, 0, 0]	n/a	FR1	2	R1145J
1125.46	0.951	1513343	WORD_OFF	n/a	n/a	CASH	8	9	[0, 0, 0]	n/a	FR1	2	R1145J
1126.411	1.615	1514294	WORD	n/a	wordpools/wordpool_EN.txt	CAPE	9	9	[0, 0, 0]	n/a	FR1	2	R1145J
1128.026	0.985	1515908	WORD_OFF	n/a	n/a	CAPE	9	9	[0, 0, 0]	n/a	FR1	2	R1145J
1129.011	1.616	1516893	WORD	n/a	wordpools/wordpool_EN.txt	BOARD	10	9	[0, 0, 0]	n/a	FR1	2	R1145J
1130.627	0.817	1518509	WORD_OFF	n/a	n/a	BOARD	10	9	[0, 0, 0]	n/a	FR1	2	R1145J
1131.444	1.616	1519326	WORD	n/a	wordpools/wordpool_EN.txt	WORLD	11	9	[0, 0, 0]	n/a	FR1	2	R1145J
1133.06	0.818	1520942	WORD_OFF	n/a	n/a	WORLD	11	9	[0, 0, 0]	n/a	FR1	2	R1145J
1133.878	1.617	1521760	WORD	n/a	wordpools/wordpool_EN.txt	TOOL	12	9	[0, 0, 0]	n/a	FR1	2	R1145J
1135.495	0.0	1523377	WORD_OFF	n/a	n/a	TOOL	12	9	[0, 0, 0]	n/a	FR1	2	R1145J
1135.495	0.001	1523377	DISTRACT_START	n/a	n/a	n/a	-999	9	[0, 0, 0]	n/a	FR1	2	R1145J
1135.496	0.016	1523378	START	n/a	n/a	n/a	-999	9	[-999, -999, -999]	n/a	FR1	2	R1145J
1135.512	6.484	1523394	PROB	6.484	n/a	n/a	-999	9	[3, 4, 5]	12	FR1	2	R1145J
1141.996	7.617	1529878	PROB	7.617	n/a	n/a	-999	9	[9, 1, 5]	15	FR1	2	R1145J
1149.613	5.96	1537495	PROB	5.96	n/a	n/a	-999	9	[7, 7, 4]	18	FR1	2	R1145J
1155.573	0.008	1543455	STOP	n/a	n/a	n/a	-999	9	[-999, -999, -999]	n/a	FR1	2	R1145J
1155.581	0.566	1543463	DISTRACT_END	n/a	n/a	n/a	-999	9	[0, 0, 0]	n/a	FR1	2	R1145J
1156.147	0.518	1544029	RETRIEVAL_ORIENT	n/a	n/a	n/a	-999	9	[0, 0, 0]	n/a	FR1	2	R1145J
1156.665	1.706	1544547	REC_START	n/a	n/a	n/a	-999	9	[0, 0, 0]	n/a	FR1	2	R1145J
1158.371	1.119	1546253	REC_WORD	1.119	n/a	WORLD	11	9	[0, 0, 0]	n/a	FR1	2	R1145J
1159.49	2.341	1547372	REC_WORD	2.341	n/a	TEETH	1	9	[0, 0, 0]	n/a	FR1	2	R1145J
1161.831	2.244	1549713	REC_WORD	2.244	n/a	BOMB	3	9	[0, 0, 0]	n/a	FR1	2	R1145J
1164.075	22.601	1551957	REC_WORD	22.601	n/a	CASH	8	9	[0, 0, 0]	n/a	FR1	2	R1145J
1186.676	11.459	1574558	REC_END	n/a	n/a	n/a	-999	9	[0, 0, 0]	n/a	FR1	2	R1145J
1198.135	0.5	1586017	TRIAL	n/a	n/a	n/a	-999	10	[0, 0, 0]	n/a	FR1	2	R1145J
1198.635	10.428	1586517	COUNTDOWN_START	n/a	n/a	n/a	-999	10	[0, 0, 0]	n/a	FR1	2	R1145J
1209.063	0.007	1596945	COUNTDOWN_END	n/a	n/a	n/a	-999	10	[0, 0, 0]	n/a	FR1	2	R1145J
1209.07	1.618	1596952	ORIENT	n/a	n/a	n/a	-999	10	[0, 0, 0]	n/a	FR1	2	R1145J
1210.688	2.317	1598570	ORIENT_OFF	n/a	n/a	n/a	-999	10	[0, 0, 0]	n/a	FR1	2	R1145J
1213.005	1.617	1600887	WORD	n/a	wordpools/wordpool_EN.txt	PET	1	10	[0, 0, 0]	n/a	FR1	2	R1145J
1214.622	1.0	1602504	WORD_OFF	n/a	n/a	PET	1	10	[0, 0, 0]	n/a	FR1	2	R1145J
1215.622	1.616	1603504	WORD	n/a	wordpools/wordpool_EN.txt	FARM	2	10	[0, 0, 0]	n/a	FR1	2	R1145J
1217.238	0.783	1605120	WORD_OFF	n/a	n/a	FARM	2	10	[0, 0, 0]	n/a	FR1	2	R1145J
1218.021	1.601	1605903	WORD	n/a	wordpools/wordpool_EN.txt	CUP	3	10	[0, 0, 0]	n/a	FR1	2	R1145J
1219.622	1.0	1607504	WORD_OFF	n/a	n/a	CUP	3	10	[0, 0, 0]	n/a	FR1	2	R1145J
1220.622	1.616	1608504	WORD	n/a	wordpools/wordpool_EN.txt	CAT	4	10	[0, 0, 0]	n/a	FR1	2	R1145J
1222.238	0.884	1610120	WORD_OFF	n/a	n/a	CAT	4	10	[0, 0, 0]	n/a	FR1	2	R1145J
1223.122	1.618	1611004	WORD	n/a	wordpools/wordpool_EN.txt	FOX	5	10	[0, 0, 0]	n/a	FR1	2	R1145J
1224.74	0.833	1612622	WORD_OFF	n/a	n/a	FOX	5	10	[0, 0, 0]	n/a	FR1	2	R1145J
1225.573	1.616	1613455	WORD	n/a	wordpools/wordpool_EN.txt	HORSE	6	10	[0, 0, 0]	n/a	FR1	2	R1145J
1227.189	0.867	1615071	WORD_OFF	n/a	n/a	HORSE	6	10	[0, 0, 0]	n/a	FR1	2	R1145J
1228.056	1.617	1615938	WORD	n/a	wordpools/wordpool_EN.txt	ZOO	7	10	[0, 0, 0]	n/a	FR1	2	R1145J
1229.673	0.817	1617555	WORD_OFF	n/a	n/a	ZOO	7	10	[0, 0, 0]	n/a	FR1	2	R1145J
1230.49	1.616	1618372	WORD	n/a	wordpools/wordpool_EN.txt	KITE	8	10	[0, 0, 0]	n/a	FR1	2	R1145J
1232.106	0.835	1619988	WORD_OFF	n/a	n/a	KITE	8	10	[0, 0, 0]	n/a	FR1	2	R1145J
1232.941	1.617	1620823	WORD	n/a	wordpools/wordpool_EN.txt	ANT	9	10	[0, 0, 0]	n/a	FR1	2	R1145J
1234.558	0.883	1622440	WORD_OFF	n/a	n/a	ANT	9	10	[0, 0, 0]	n/a	FR1	2	R1145J
1235.441	1.616	1623323	WORD	n/a	wordpools/wordpool_EN.txt	BIRD	10	10	[0, 0, 0]	n/a	FR1	2	R1145J
1237.057	0.784	1624939	WORD_OFF	n/a	n/a	BIRD	10	10	[0, 0, 0]	n/a	FR1	2	R1145J
1237.841	1.617	1625723	WORD	n/a	wordpools/wordpool_EN.txt	DOG	11	10	[0, 0, 0]	n/a	FR1	2	R1145J
1239.458	0.9	1627340	WORD_OFF	n/a	n/a	DOG	11	10	[0, 0, 0]	n/a	FR1	2	R1145J
1240.358	1.617	1628239	WORD	n/a	wordpools/wordpool_EN.txt	CORN	12	10	[0, 0, 0]	n/a	FR1	2	R1145J
1241.975	0.0	1629856	WORD_OFF	n/a	n/a	CORN	12	10	[0, 0, 0]	n/a	FR1	2	R1145J
1241.975	0.001	1629856	DISTRACT_START	n/a	n/a	n/a	-999	10	[0, 0, 0]	n/a	FR1	2	R1145J
1241.976	0.016	1629857	START	n/a	n/a	n/a	-999	10	[-999, -999, -999]	n/a	FR1	2	R1145J
1241.992	6.751	1629873	PROB	6.751	n/a	n/a	-999	10	[6, 4, 8]	18	FR1	2	R1145J
1248.743	8.901	1636624	PROB	8.901	n/a	n/a	-999	10	[8, 3, 9]	20	FR1	2	R1145J
1257.644	5.74	1645525	PROB	5.74	n/a	n/a	-999	10	[9, 4, 4]	17	FR1	2	R1145J
1263.384	0.011	1651265	STOP	n/a	n/a	n/a	-999	10	[-999, -999, -999]	n/a	FR1	2	R1145J
1263.395	0.699	1651276	DISTRACT_END	n/a	n/a	n/a	-999	10	[0, 0, 0]	n/a	FR1	2	R1145J
1264.094	0.519	1651975	RETRIEVAL_ORIENT	n/a	n/a	n/a	-999	10	[0, 0, 0]	n/a	FR1	2	R1145J
1264.613	1.488	1652494	REC_START	n/a	n/a	n/a	-999	10	[0, 0, 0]	n/a	FR1	2	R1145J
1266.101	0.919	1653982	REC_WORD	0.919	n/a	FARM	2	10	[0, 0, 0]	n/a	FR1	2	R1145J
1267.02	6.17	1654901	REC_WORD	6.17	n/a	CAT	4	10	[0, 0, 0]	n/a	FR1	2	R1145J
1273.19	21.433	1661071	REC_WORD	21.433	n/a	CUP	3	10	[0, 0, 0]	n/a	FR1	2	R1145J
1294.623	4.342	1682504	REC_END	n/a	n/a	n/a	-999	10	[0, 0, 0]	n/a	FR1	2	R1145J
1298.965	0.5	1686846	TRIAL	n/a	n/a	n/a	-999	11	[0, 0, 0]	n/a	FR1	2	R1145J
1299.465	10.428	1687346	COUNTDOWN_START	n/a	n/a	n/a	-999	11	[0, 0, 0]	n/a	FR1	2	R1145J
1309.893	0.007	1697774	COUNTDOWN_END	n/a	n/a	n/a	-999	11	[0, 0, 0]	n/a	FR1	2	R1145J
1309.9	1.617	1697781	ORIENT	n/a	n/a	n/a	-999	11	[0, 0, 0]	n/a	FR1	2	R1145J
1311.517	2.317	1699398	ORIENT_OFF	n/a	n/a	n/a	-999	11	[0, 0, 0]	n/a	FR1	2	R1145J
1313.834	1.617	1701715	WORD	n/a	wordpools/wordpool_EN.txt	DIME	1	11	[0, 0, 0]	n/a	FR1	2	R1145J
1315.451	0.884	1703332	WORD_OFF	n/a	n/a	DIME	1	11	[0, 0, 0]	n/a	FR1	2	R1145J
1316.335	1.616	1704216	WORD	n/a	wordpools/wordpool_EN.txt	STICK	2	11	[0, 0, 0]	n/a	FR1	2	R1145J
1317.951	1.0	1705832	WORD_OFF	n/a	n/a	STICK	2	11	[0, 0, 0]	n/a	FR1	2	R1145J
1318.951	1.617	1706832	WORD	n/a	wordpools/wordpool_EN.txt	LIP	3	11	[0, 0, 0]	n/a	FR1	2	R1145J
1320.568	0.801	1708449	WORD_OFF	n/a	n/a	LIP	3	11	[0, 0, 0]	n/a	FR1	2	R1145J
1321.369	1.617	1709250	WORD	n/a	wordpools/wordpool_EN.txt	PALM	4	11	[0, 0, 0]	n/a	FR1	2	R1145J
1322.986	0.983	1710867	WORD_OFF	n/a	n/a	PALM	4	11	[0, 0, 0]	n/a	FR1	2	R1145J
1323.969	1.617	1711850	WORD	n/a	wordpools/wordpool_EN.txt	LEG	5	11	[0, 0, 0]	n/a	FR1	2	R1145J
1325.586	0.85	1713467	WORD_OFF	n/a	n/a	LEG	5	11	[0, 0, 0]	n/a	FR1	2	R1145J
1326.436	1.616	1714317	WORD	n/a	wordpools/wordpool_EN.txt	GRASS	6	11	[0, 0, 0]	n/a	FR1	2	R1145J
1328.052	0.817	1715933	WORD_OFF	n/a	n/a	GRASS	6	11	[0, 0, 0]	n/a	FR1	2	R1145J
1328.869	1.617	1716750	WORD	n/a	wordpools/wordpool_EN.txt	BENCH	7	11	[0, 0, 0]	n/a	FR1	2	R1145J
1330.486	0.834	1718367	WORD_OFF	n/a	n/a	BENCH	7	11	[0, 0, 0]	n/a	FR1	2	R1145J
1331.32	1.617	1719201	WORD	n/a	wordpools/wordpool_EN.txt	TOY	8	11	[0, 0, 0]	n/a	FR1	2	R1145J
1332.937	0.917	1720818	WORD_OFF	n/a	n/a	TOY	8	11	[0, 0, 0]	n/a	FR1	2	R1145J
1333.854	1.617	1721735	WORD	n/a	wordpools/wordpool_EN.txt	SUN	9	11	[0, 0, 0]	n/a	FR1	2	R1145J
1335.471	0.833	1723352	WORD_OFF	n/a	n/a	SUN	9	11	[0, 0, 0]	n/a	FR1	2	R1145J
1336.304	1.617	1724185	WORD	n/a	wordpools/wordpool_EN.txt	BALL	10	11	[0, 0, 0]	n/a	FR1	2	R1145J
1337.921	0.916	1725802	WORD_OFF	n/a	n/a	BALL	10	11	[0, 0, 0]	n/a	FR1	2	R1145J
1338.837	1.617	1726718	WORD	n/a	wordpools/wordpool_EN.txt	FACE	11	11	[0, 0, 0]	n/a	FR1	2	R1145J
1340.454	0.9	1728335	WORD_OFF	n/a	n/a	FACE	11	11	[0, 0, 0]	n/a	FR1	2	R1145J
1341.354	1.617	1729235	WORD	n/a	wordpools/wordpool_EN.txt	SHOE	12	11	[0, 0, 0]	n/a	FR1	2	R1145J
1342.971	0.0	1730852	WORD_OFF	n/a	n/a	SHOE	12	11	[0, 0, 0]	n/a	FR1	2	R1145J
1342.971	0.001	1730852	DISTRACT_START	n/a	n/a	n/a	-999	11	[0, 0, 0]	n/a	FR1	2	R1145J
1342.972	0.016	1730853	START	n/a	n/a	n/a	-999	11	[-999, -999, -999]	n/a	FR1	2	R1145J
1342.988	5.917	1730869	PROB	5.917	n/a	n/a	-999	11	[2, 7, 1]	10	FR1	2	R1145J
1348.905	5.668	1736786	PROB	5.668	n/a	n/a	-999	11	[5, 2, 9]	16	FR1	2	R1145J
1354.573	5.917	1742453	PROB	5.917	n/a	n/a	-999	11	[8, 5, 3]	16	FR1	2	R1145J
1360.49	4.147	1748370	PROB	4.147	n/a	n/a	-999	11	[4, 9, 4]	17	FR1	2	R1145J
1364.637	0.021	1752517	STOP	n/a	n/a	n/a	-999	11	[-999, -999, -999]	n/a	FR1	2	R1145J
1364.658	0.515	1752538	DISTRACT_END	n/a	n/a	n/a	-999	11	[0, 0, 0]	n/a	FR1	2	R1145J
1365.173	0.519	1753053	RETRIEVAL_ORIENT	n/a	n/a	n/a	-999	11	[0, 0, 0]	n/a	FR1	2	R1145J
1365.692	1.718	1753572	REC_START	n/a	n/a	n/a	-999	11	[0, 0, 0]	n/a	FR1	2	R1145J
1367.41	0.836	1755290	REC_WORD	0.836	n/a	DIME	1	11	[0, 0, 0]	n/a	FR1	2	R1145J
1368.246	1.094	1756126	REC_WORD	1.094	n/a	STICK	2	11	[0, 0, 0]	n/a	FR1	2	R1145J
1369.34	2.104	1757220	REC_WORD	2.104	n/a	LIP	3	11	[0, 0, 0]	n/a	FR1	2	R1145J
1371.444	0.993	1759324	REC_WORD	0.993	n/a	BENCH	7	11	[0, 0, 0]	n/a	FR1	2	R1145J
1372.437	8.796	1760317	REC_WORD	8.796	n/a	BALL	10	11	[0, 0, 0]	n/a	FR1	2	R1145J
1381.233	14.47	1769113	REC_WORD_VV	14.47	n/a	<>	-999	11	[0, 0, 0]	n/a	FR1	2	R1145J
1395.703	5.742	1783583	REC_END	n/a	n/a	n/a	-999	11	[0, 0, 0]	n/a	FR1	2	R1145J
1401.445	0.5	1789325	TRIAL	n/a	n/a	n/a	-999	12	[0, 0, 0]	n/a	FR1	2	R1145J
1401.945	10.428	1789825	COUNTDOWN_START	n/a	n/a	n/a	-999	12	[0, 0, 0]	n/a	FR1	2	R1145J
1412.373	0.007	1800253	COUNTDOWN_END	n/a	n/a	n/a	-999	12	[0, 0, 0]	n/a	FR1	2	R1145J
1412.38	1.617	1800260	ORIENT	n/a	n/a	n/a	-999	12	[0, 0, 0]	n/a	FR1	2	R1145J
1413.997	2.216	1801877	ORIENT_OFF	n/a	n/a	n/a	-999	12	[0, 0, 0]	n/a	FR1	2	R1145J
1416.213	1.618	1804093	WORD	n/a	wordpools/wordpool_EN.txt	FILM	1	12	[0, 0, 0]	n/a	FR1	2	R1145J
1417.831	0.983	1805711	WORD_OFF	n/a	n/a	FILM	1	12	[0, 0, 0]	n/a	FR1	2	R1145J
1418.814	1.617	1806694	WORD	n/a	wordpools/wordpool_EN.txt	BEAR	2	12	[0, 0, 0]	n/a	FR1	2	R1145J
1420.431	0.783	1808311	WORD_OFF	n/a	n/a	BEAR	2	12	[0, 0, 0]	n/a	FR1	2	R1145J
1421.214	1.618	1809094	WORD	n/a	wordpools/wordpool_EN.txt	MAP	3	12	[0, 0, 0]	n/a	FR1	2	R1145J
1422.832	1.0	1810712	WORD_OFF	n/a	n/a	MAP	3	12	[0, 0, 0]	n/a	FR1	2	R1145J
1423.832	1.617	1811712	WORD	n/a	wordpools/wordpool_EN.txt	GOLD	4	12	[0, 0, 0]	n/a	FR1	2	R1145J
1425.449	0.85	1813329	WORD_OFF	n/a	n/a	GOLD	4	12	[0, 0, 0]	n/a	FR1	2	R1145J
1426.299	1.616	1814179	WORD	n/a	wordpools/wordpool_EN.txt	GRAPE	5	12	[0, 0, 0]	n/a	FR1	2	R1145J
1427.915	0.884	1815795	WORD_OFF	n/a	n/a	GRAPE	5	12	[0, 0, 0]	n/a	FR1	2	R1145J
1428.799	1.617	1816679	WORD	n/a	wordpools/wordpool_EN.txt	DEER	6	12	[0, 0, 0]	n/a	FR1	2	R1145J
1430.416	0.765	1818296	WORD_OFF	n/a	n/a	DEER	6	12	[0, 0, 0]	n/a	FR1	2	R1145J
1431.181	1.602	1819061	WORD	n/a	wordpools/wordpool_EN.txt	DART	7	12	[0, 0, 0]	n/a	FR1	2	R1145J
1432.783	0.85	1820663	WORD_OFF	n/a	n/a	DART	7	12	[0, 0, 0]	n/a	FR1	2	R1145J
1433.633	1.616	1821513	WORD	n/a	wordpools/wordpool_EN.txt	TOOTH	8	12	[0, 0, 0]	n/a	FR1	2	R1145J
1435.249	0.9	1823129	WORD_OFF	n/a	n/a	TOOTH	8	12	[0, 0, 0]	n/a	FR1	2	R1145J
1436.149	1.618	1824029	WORD	n/a	wordpools/wordpool_EN.txt	WAVE	9	12	[0, 0, 0]	n/a	FR1	2	R1145J
1437.767	0.866	1825647	WORD_OFF	n/a	n/a	WAVE	9	12	[0, 0, 0]	n/a	FR1	2	R1145J
1438.633	1.616	1826513	WORD	n/a	wordpools/wordpool_EN.txt	EGG	10	12	[0, 0, 0]	n/a	FR1	2	R1145J
1440.249	0.767	1828129	WORD_OFF	n/a	n/a	EGG	10	12	[0, 0, 0]	n/a	FR1	2	R1145J
1441.016	1.601	1828896	WORD	n/a	wordpools/wordpool_EN.txt	MOON	11	12	[0, 0, 0]	n/a	FR1	2	R1145J
1442.617	0.901	1830497	WORD_OFF	n/a	n/a	MOON	11	12	[0, 0, 0]	n/a	FR1	2	R1145J
1443.518	1.616	1831398	WORD	n/a	wordpools/wordpool_EN.txt	TRASH	12	12	[0, 0, 0]	n/a	FR1	2	R1145J
1445.134	0.0	1833014	WORD_OFF	n/a	n/a	TRASH	12	12	[0, 0, 0]	n/a	FR1	2	R1145J
1445.134	0.0	1833014	DISTRACT_START	n/a	n/a	n/a	-999	12	[0, 0, 0]	n/a	FR1	2	R1145J
1445.134	0.016	1833014	START	n/a	n/a	n/a	-999	12	[-999, -999, -999]	n/a	FR1	2	R1145J
1445.15	14.753	1833030	PROB	14.753	n/a	n/a	-999	12	[9, 9, 5]	23	FR1	2	R1145J
1459.903	3.333	1847783	PROB	3.333	n/a	n/a	-999	12	[5, 5, 1]	11	FR1	2	R1145J
1463.236	9.763	1851116	PROB	9.763	n/a	n/a	-999	12	[7, 4, 6]	17	FR1	2	R1145J
1472.999	0.021	1860878	STOP	n/a	n/a	n/a	-999	12	[-999, -999, -999]	n/a	FR1	2	R1145J
1473.02	0.551	1860899	DISTRACT_END	n/a	n/a	n/a	-999	12	[0, 0, 0]	n/a	FR1	2	R1145J
1473.571	0.517	1861450	RETRIEVAL_ORIENT	n/a	n/a	n/a	-999	12	[0, 0, 0]	n/a	FR1	2	R1145J
1474.088	2.183	1861967	REC_START	n/a	n/a	n/a	-999	12	[0, 0, 0]	n/a	FR1	2	R1145J
1476.271	4.378	1864150	REC_WORD	4.378	n/a	TRASH	12	12	[0, 0, 0]	n/a	FR1	2	R1145J
1480.649	6.82	1868528	REC_WORD_VV	6.82	n/a	<>	-999	12	[0, 0, 0]	n/a	FR1	2	R1145J
1487.469	0.62	1875348	REC_WORD_VV	0.62	n/a	<>	-999	12	[0, 0, 0]	n/a	FR1	2	R1145J
1488.089	1.211	1875968	REC_WORD_VV	1.211	n/a	<>	-999	12	[0, 0, 0]	n/a	FR1	2	R1145J
1489.3	14.8	1877179	REC_WORD_VV	14.8	n/a	<>	-999	12	[0, 0, 0]	n/a	FR1	2	R1145J
1504.1	5.309	1891979	REC_END	n/a	n/a	n/a	-999	12	[0, 0, 0]	n/a	FR1	2	R1145J
1509.409	0.5	1897288	TRIAL	n/a	n/a	n/a	-999	13	[0, 0, 0]	n/a	FR1	2	R1145J
1509.909	10.428	1897788	COUNTDOWN_START	n/a	n/a	n/a	-999	13	[0, 0, 0]	n/a	FR1	2	R1145J
1520.337	0.007	1908216	COUNTDOWN_END	n/a	n/a	n/a	-999	13	[0, 0, 0]	n/a	FR1	2	R1145J
1520.344	1.617	1908223	ORIENT	n/a	n/a	n/a	-999	13	[0, 0, 0]	n/a	FR1	2	R1145J
1521.961	2.149	1909840	ORIENT_OFF	n/a	n/a	n/a	-999	13	[0, 0, 0]	n/a	FR1	2	R1145J
1524.11	1.618	1911989	WORD	n/a	wordpools/wordpool_EN.txt	WEB	1	13	[0, 0, 0]	n/a	FR1	2	R1145J
1525.728	0.95	1913607	WORD_OFF	n/a	n/a	WEB	1	13	[0, 0, 0]	n/a	FR1	2	R1145J
1526.678	1.617	1914557	WORD	n/a	wordpools/wordpool_EN.txt	PEA	2	13	[0, 0, 0]	n/a	FR1	2	R1145J
1528.295	0.866	1916174	WORD_OFF	n/a	n/a	PEA	2	13	[0, 0, 0]	n/a	FR1	2	R1145J
1529.161	1.618	1917040	WORD	n/a	wordpools/wordpool_EN.txt	CROW	3	13	[0, 0, 0]	n/a	FR1	2	R1145J
1530.779	0.8	1918658	WORD_OFF	n/a	n/a	CROW	3	13	[0, 0, 0]	n/a	FR1	2	R1145J
1531.579	1.616	1919458	WORD	n/a	wordpools/wordpool_EN.txt	TOAD	4	13	[0, 0, 0]	n/a	FR1	2	R1145J
1533.195	1.0	1921074	WORD_OFF	n/a	n/a	TOAD	4	13	[0, 0, 0]	n/a	FR1	2	R1145J
1534.195	1.601	1922074	WORD	n/a	wordpools/wordpool_EN.txt	FISH	5	13	[0, 0, 0]	n/a	FR1	2	R1145J
1535.796	0.834	1923675	WORD_OFF	n/a	n/a	FISH	5	13	[0, 0, 0]	n/a	FR1	2	R1145J
1536.63	1.615	1924509	WORD	n/a	wordpools/wordpool_EN.txt	RAIN	6	13	[0, 0, 0]	n/a	FR1	2	R1145J
1538.245	0.8	1926124	WORD_OFF	n/a	n/a	RAIN	6	13	[0, 0, 0]	n/a	FR1	2	R1145J
1539.045	1.602	1926924	WORD	n/a	wordpools/wordpool_EN.txt	SCHOOL	7	13	[0, 0, 0]	n/a	FR1	2	R1145J
1540.647	0.766	1928526	WORD_OFF	n/a	n/a	SCHOOL	7	13	[0, 0, 0]	n/a	FR1	2	R1145J
1541.413	1.616	1929292	WORD	n/a	wordpools/wordpool_EN.txt	CLOUD	8	13	[0, 0, 0]	n/a	FR1	2	R1145J
1543.029	0.918	1930908	WORD_OFF	n/a	n/a	CLOUD	8	13	[0, 0, 0]	n/a	FR1	2	R1145J
1543.947	1.617	1931826	WORD	n/a	wordpools/wordpool_EN.txt	SPARK	9	13	[0, 0, 0]	n/a	FR1	2	R1145J
1545.564	0.884	1933443	WORD_OFF	n/a	n/a	SPARK	9	13	[0, 0, 0]	n/a	FR1	2	R1145J
1546.448	1.615	1934327	WORD	n/a	wordpools/wordpool_EN.txt	JET	10	13	[0, 0, 0]	n/a	FR1	2	R1145J
1548.063	0.934	1935942	WORD_OFF	n/a	n/a	JET	10	13	[0, 0, 0]	n/a	FR1	2	R1145J
1548.997	1.618	1936876	WORD	n/a	wordpools/wordpool_EN.txt	BEE	11	13	[0, 0, 0]	n/a	FR1	2	R1145J
1550.615	0.8	1938494	WORD_OFF	n/a	n/a	BEE	11	13	[0, 0, 0]	n/a	FR1	2	R1145J
1551.415	1.616	1939294	WORD	n/a	wordpools/wordpool_EN.txt	BLOOM	12	13	[0, 0, 0]	n/a	FR1	2	R1145J
1553.031	0.0	1940910	WORD_OFF	n/a	n/a	BLOOM	12	13	[0, 0, 0]	n/a	FR1	2	R1145J
1553.031	0.0	1940910	DISTRACT_START	n/a	n/a	n/a	-999	13	[0, 0, 0]	n/a	FR1	2	R1145J
1553.031	0.016	1940910	START	n/a	n/a	n/a	-999	13	[-999, -999, -999]	n/a	FR1	2	R1145J
1553.047	16.353	1940926	PROB	16.353	n/a	n/a	-999	13	[9, 6, 8]	23	FR1	2	R1145J
1569.4	4.874	1957279	PROB	4.874	n/a	n/a	-999	13	[2, 3, 3]	8	FR1	2	R1145J
1574.274	0.01	1962153	STOP	n/a	n/a	n/a	-999	13	[-999, -999, -999]	n/a	FR1	2	R1145J
1574.284	0.567	1962163	DISTRACT_END	n/a	n/a	n/a	-999	13	[0, 0, 0]	n/a	FR1	2	R1145J
1574.851	0.518	1962730	RETRIEVAL_ORIENT	n/a	n/a	n/a	-999	13	[0, 0, 0]	n/a	FR1	2	R1145J
1575.369	2.724	1963248	REC_START	n/a	n/a	n/a	-999	13	[0, 0, 0]	n/a	FR1	2	R1145J
1578.093	1.996	1965971	REC_WORD	1.996	n/a	WEB	1	13	[0, 0, 0]	n/a	FR1	2	R1145J
1580.089	2.157	1967967	REC_WORD	2.157	n/a	PEA	2	13	[0, 0, 0]	n/a	FR1	2	R1145J
1582.246	4.181	1970124	REC_WORD	4.181	n/a	RAIN	6	13	[0, 0, 0]	n/a	FR1	2	R1145J
1586.427	2.661	1974305	REC_WORD	2.661	n/a	SCHOOL	7	13	[0, 0, 0]	n/a	FR1	2	R1145J
1589.088	3.162	1976966	REC_WORD_VV	3.162	n/a	<>	-999	13	[0, 0, 0]	n/a	FR1	2	R1145J
1592.25	4.59	1980128	REC_WORD_VV	4.59	n/a	<>	-999	13	[0, 0, 0]	n/a	FR1	2	R1145J
1596.84	1.154	1984718	REC_WORD_VV	1.154	n/a	<>	-999	13	[0, 0, 0]	n/a	FR1	2	R1145J
1597.994	5.673	1985872	REC_WORD_VV	5.673	n/a	<>	-999	13	[0, 0, 0]	n/a	FR1	2	R1145J
1603.667	0.646	1991545	REC_WORD_VV	0.646	n/a	<>	-999	13	[0, 0, 0]	n/a	FR1	2	R1145J
1604.313	1.067	1992191	REC_WORD_VV	1.067	n/a	<>	-999	13	[0, 0, 0]	n/a	FR1	2	R1145J
1605.38	6.392	1993258	REC_END	n/a	n/a	n/a	-999	13	[0, 0, 0]	n/a	FR1	2	R1145J
1611.772	0.5	1999650	TRIAL	n/a	n/a	n/a	-999	14	[0, 0, 0]	n/a	FR1	2	R1145J
1612.272	10.428	2000150	COUNTDOWN_START	n/a	n/a	n/a	-999	14	[0, 0, 0]	n/a	FR1	2	R1145J
1622.7	0.007	2010578	COUNTDOWN_END	n/a	n/a	n/a	-999	14	[0, 0, 0]	n/a	FR1	2	R1145J
1622.707	1.617	2010585	ORIENT	n/a	n/a	n/a	-999	14	[0, 0, 0]	n/a	FR1	2	R1145J
1624.324	2.067	2012202	ORIENT_OFF	n/a	n/a	n/a	-999	14	[0, 0, 0]	n/a	FR1	2	R1145J
1626.391	1.617	2014269	WORD	n/a	wordpools/wordpool_EN.txt	YARD	1	14	[0, 0, 0]	n/a	FR1	2	R1145J
1628.008	0.816	2015886	WORD_OFF	n/a	n/a	YARD	1	14	[0, 0, 0]	n/a	FR1	2	R1145J
1628.824	1.617	2016702	WORD	n/a	wordpools/wordpool_EN.txt	ROPE	2	14	[0, 0, 0]	n/a	FR1	2	R1145J
1630.441	1.001	2018319	WORD_OFF	n/a	n/a	ROPE	2	14	[0, 0, 0]	n/a	FR1	2	R1145J
1631.442	1.616	2019320	WORD	n/a	wordpools/wordpool_EN.txt	SKY	3	14	[0, 0, 0]	n/a	FR1	2	R1145J
1633.058	1.0	2020936	WORD_OFF	n/a	n/a	SKY	3	14	[0, 0, 0]	n/a	FR1	2	R1145J
1634.058	1.618	2021936	WORD	n/a	wordpools/wordpool_EN.txt	HEART	4	14	[0, 0, 0]	n/a	FR1	2	R1145J
1635.676	0.9	2023554	WORD_OFF	n/a	n/a	HEART	4	14	[0, 0, 0]	n/a	FR1	2	R1145J
1636.576	1.615	2024454	WORD	n/a	wordpools/wordpool_EN.txt	OAK	5	14	[0, 0, 0]	n/a	FR1	2	R1145J
1638.191	0.818	2026069	WORD_OFF	n/a	n/a	OAK	5	14	[0, 0, 0]	n/a	FR1	2	R1145J
1639.009	1.617	2026887	WORD	n/a	wordpools/wordpool_EN.txt	FOOT	6	14	[0, 0, 0]	n/a	FR1	2	R1145J
1640.626	0.934	2028504	WORD_OFF	n/a	n/a	FOOT	6	14	[0, 0, 0]	n/a	FR1	2	R1145J
1641.56	1.615	2029438	WORD	n/a	wordpools/wordpool_EN.txt	FLAG	7	14	[0, 0, 0]	n/a	FR1	2	R1145J
1643.175	1.017	2031053	WORD_OFF	n/a	n/a	FLAG	7	14	[0, 0, 0]	n/a	FR1	2	R1145J
1644.192	1.601	2032070	WORD	n/a	wordpools/wordpool_EN.txt	WAND	8	14	[0, 0, 0]	n/a	FR1	2	R1145J
1645.793	0.984	2033671	WORD_OFF	n/a	n/a	WAND	8	14	[0, 0, 0]	n/a	FR1	2	R1145J
1646.777	1.617	2034655	WORD	n/a	wordpools/wordpool_EN.txt	SIGN	9	14	[0, 0, 0]	n/a	FR1	2	R1145J
1648.394	0.865	2036272	WORD_OFF	n/a	n/a	SIGN	9	14	[0, 0, 0]	n/a	FR1	2	R1145J
1649.259	1.602	2037137	WORD	n/a	wordpools/wordpool_EN.txt	DOCK	10	14	[0, 0, 0]	n/a	FR1	2	R1145J
1650.861	0.833	2038739	WORD_OFF	n/a	n/a	DOCK	10	14	[0, 0, 0]	n/a	FR1	2	R1145J
1651.694	1.617	2039572	WORD	n/a	wordpools/wordpool_EN.txt	SNOW	11	14	[0, 0, 0]	n/a	FR1	2	R1145J
1653.311	0.984	2041189	WORD_OFF	n/a	n/a	SNOW	11	14	[0, 0, 0]	n/a	FR1	2	R1145J
1654.295	1.617	2042173	WORD	n/a	wordpools/wordpool_EN.txt	SUIT	12	14	[0, 0, 0]	n/a	FR1	2	R1145J
1655.912	0.0	2043790	WORD_OFF	n/a	n/a	SUIT	12	14	[0, 0, 0]	n/a	FR1	2	R1145J
1655.912	0.0	2043790	DISTRACT_START	n/a	n/a	n/a	-999	14	[0, 0, 0]	n/a	FR1	2	R1145J
1655.912	0.016	2043790	START	n/a	n/a	n/a	-999	14	[-999, -999, -999]	n/a	FR1	2	R1145J
1655.928	8.117	2043806	PROB	8.117	n/a	n/a	-999	14	[8, 4, 8]	20	FR1	2	R1145J
1664.045	6.402	2051923	PROB	6.402	n/a	n/a	-999	14	[8, 9, 5]	22	FR1	2	R1145J
1670.447	7.464	2058325	PROB	7.464	n/a	n/a	-999	14	[6, 3, 6]	15	FR1	2	R1145J
1677.911	0.02	2065789	STOP	n/a	n/a	n/a	-999	14	[-999, -999, -999]	n/a	FR1	2	R1145J
1677.931	0.633	2065809	DISTRACT_END	n/a	n/a	n/a	-999	14	[0, 0, 0]	n/a	FR1	2	R1145J
1678.564	0.517	2066442	RETRIEVAL_ORIENT	n/a	n/a	n/a	-999	14	[0, 0, 0]	n/a	FR1	2	R1145J
1679.081	2.174	2066959	REC_START	n/a	n/a	n/a	-999	14	[0, 0, 0]	n/a	FR1	2	R1145J
1681.255	1.218	2069133	REC_WORD	1.218	n/a	SUIT	12	14	[0, 0, 0]	n/a	FR1	2	R1145J
1682.473	7.965	2070351	REC_WORD_VV	7.965	n/a	<>	-999	14	[0, 0, 0]	n/a	FR1	2	R1145J
1690.438	18.654	2078315	REC_WORD_VV	18.654	n/a	<>	-999	14	[0, 0, 0]	n/a	FR1	2	R1145J
1709.092	6.943	2096969	REC_END	n/a	n/a	n/a	-999	14	[0, 0, 0]	n/a	FR1	2	R1145J
1716.035	0.5	2103912	TRIAL	n/a	n/a	n/a	-999	15	[0, 0, 0]	n/a	FR1	2	R1145J
1716.535	10.428	2104412	COUNTDOWN_START	n/a	n/a	n/a	-999	15	[0, 0, 0]	n/a	FR1	2	R1145J
1726.963	0.008	2114840	COUNTDOWN_END	n/a	n/a	n/a	-999	15	[0, 0, 0]	n/a	FR1	2	R1145J
1726.971	1.616	2114848	ORIENT	n/a	n/a	n/a	-999	15	[0, 0, 0]	n/a	FR1	2	R1145J
1728.587	2.151	2116464	ORIENT_OFF	n/a	n/a	n/a	-999	15	[0, 0, 0]	n/a	FR1	2	R1145J
1730.738	1.617	2118615	WORD	n/a	wordpools/wordpool_EN.txt	JEEP	1	15	[0, 0, 0]	n/a	FR1	2	R1145J
1732.355	0.95	2120232	WORD_OFF	n/a	n/a	JEEP	1	15	[0, 0, 0]	n/a	FR1	2	R1145J
1733.305	1.617	2121182	WORD	n/a	wordpools/wordpool_EN.txt	SMILE	2	15	[0, 0, 0]	n/a	FR1	2	R1145J
1734.922	0.867	2122799	WORD_OFF	n/a	n/a	SMILE	2	15	[0, 0, 0]	n/a	FR1	2	R1145J
1735.789	1.616	2123666	WORD	n/a	wordpools/wordpool_EN.txt	SEAT	3	15	[0, 0, 0]	n/a	FR1	2	R1145J
1737.405	0.9	2125282	WORD_OFF	n/a	n/a	SEAT	3	15	[0, 0, 0]	n/a	FR1	2	R1145J
1738.305	1.617	2126182	WORD	n/a	wordpools/wordpool_EN.txt	ROOM	4	15	[0, 0, 0]	n/a	FR1	2	R1145J
1739.922	0.884	2127799	WORD_OFF	n/a	n/a	ROOM	4	15	[0, 0, 0]	n/a	FR1	2	R1145J
1740.806	1.617	2128683	WORD	n/a	wordpools/wordpool_EN.txt	LAWN	5	15	[0, 0, 0]	n/a	FR1	2	R1145J
1742.423	0.815	2130300	WORD_OFF	n/a	n/a	LAWN	5	15	[0, 0, 0]	n/a	FR1	2	R1145J
1743.238	1.601	2131115	WORD	n/a	wordpools/wordpool_EN.txt	OAR	6	15	[0, 0, 0]	n/a	FR1	2	R1145J
1744.839	0.851	2132716	WORD_OFF	n/a	n/a	OAR	6	15	[0, 0, 0]	n/a	FR1	2	R1145J
1745.69	1.617	2133567	WORD	n/a	wordpools/wordpool_EN.txt	MULE	7	15	[0, 0, 0]	n/a	FR1	2	R1145J
1747.307	0.915	2135184	WORD_OFF	n/a	n/a	MULE	7	15	[0, 0, 0]	n/a	FR1	2	R1145J
1748.222	1.618	2136099	WORD	n/a	wordpools/wordpool_EN.txt	TRUCK	8	15	[0, 0, 0]	n/a	FR1	2	R1145J
1749.84	0.834	2137717	WORD_OFF	n/a	n/a	TRUCK	8	15	[0, 0, 0]	n/a	FR1	2	R1145J
1750.674	1.616	2138551	WORD	n/a	wordpools/wordpool_EN.txt	SHIRT	9	15	[0, 0, 0]	n/a	FR1	2	R1145J
1752.29	0.85	2140167	WORD_OFF	n/a	n/a	SHIRT	9	15	[0, 0, 0]	n/a	FR1	2	R1145J
1753.14	1.617	2141017	WORD	n/a	wordpools/wordpool_EN.txt	DRESS	10	15	[0, 0, 0]	n/a	FR1	2	R1145J
1754.757	1.001	2142634	WORD_OFF	n/a	n/a	DRESS	10	15	[0, 0, 0]	n/a	FR1	2	R1145J
1755.758	1.617	2143635	WORD	n/a	wordpools/wordpool_EN.txt	HOUSE	11	15	[0, 0, 0]	n/a	FR1	2	R1145J
1757.375	0.999	2145252	WORD_OFF	n/a	n/a	HOUSE	11	15	[0, 0, 0]	n/a	FR1	2	R1145J
1758.374	1.617	2146251	WORD	n/a	wordpools/wordpool_EN.txt	PARK	12	15	[0, 0, 0]	n/a	FR1	2	R1145J
1759.991	0.0	2147868	WORD_OFF	n/a	n/a	PARK	12	15	[0, 0, 0]	n/a	FR1	2	R1145J
1759.991	0.001	2147868	DISTRACT_START	n/a	n/a	n/a	-999	15	[0, 0, 0]	n/a	FR1	2	R1145J
1759.992	0.016	2147869	START	n/a	n/a	n/a	-999	15	[-999, -999, -999]	n/a	FR1	2	R1145J
1760.008	17.852	2147885	PROB	17.852	n/a	n/a	-999	15	[1, 3, 8]	12	FR1	2	R1145J
1777.86	6.157	2165737	PROB	6.157	n/a	n/a	-999	15	[3, 2, 4]	9	FR1	2	R1145J
1784.017	0.01	2171894	STOP	n/a	n/a	n/a	-999	15	[-999, -999, -999]	n/a	FR1	2	R1145J
1784.027	0.634	2171904	DISTRACT_END	n/a	n/a	n/a	-999	15	[0, 0, 0]	n/a	FR1	2	R1145J
1784.661	0.517	2172538	RETRIEVAL_ORIENT	n/a	n/a	n/a	-999	15	[0, 0, 0]	n/a	FR1	2	R1145J
1785.178	1.429	2173055	REC_START	n/a	n/a	n/a	-999	15	[0, 0, 0]	n/a	FR1	2	R1145J
1786.607	1.768	2174484	REC_WORD	1.768	n/a	MULE	7	15	[0, 0, 0]	n/a	FR1	2	R1145J
1788.375	1.553	2176252	REC_WORD	1.553	n/a	ROOT	-999	15	[0, 0, 0]	n/a	FR1	2	R1145J
1789.928	2.233	2177805	REC_WORD	2.233	n/a	OAR	6	15	[0, 0, 0]	n/a	FR1	2	R1145J
1792.161	7.21	2180038	REC_WORD	7.21	n/a	OAK	-999	15	[0, 0, 0]	n/a	FR1	2	R1145J
1799.371	15.819	2187248	REC_WORD	15.819	n/a	OAK	-999	15	[0, 0, 0]	n/a	FR1	2	R1145J
1815.19	5.092	2203066	REC_END	n/a	n/a	n/a	-999	15	[0, 0, 0]	n/a	FR1	2	R1145J
1820.282	0.5	2208158	TRIAL	n/a	n/a	n/a	-999	16	[0, 0, 0]	n/a	FR1	2	R1145J
1820.782	10.428	2208658	COUNTDOWN_START	n/a	n/a	n/a	-999	16	[0, 0, 0]	n/a	FR1	2	R1145J
1831.21	0.006	2219086	COUNTDOWN_END	n/a	n/a	n/a	-999	16	[0, 0, 0]	n/a	FR1	2	R1145J
1831.216	1.601	2219092	ORIENT	n/a	n/a	n/a	-999	16	[0, 0, 0]	n/a	FR1	2	R1145J
1832.817	2.084	2220693	ORIENT_OFF	n/a	n/a	n/a	-999	16	[0, 0, 0]	n/a	FR1	2	R1145J
1834.901	1.617	2222777	WORD	n/a	wordpools/wordpool_EN.txt	SHELL	1	16	[0, 0, 0]	n/a	FR1	2	R1145J
1836.518	0.8	2224394	WORD_OFF	n/a	n/a	SHELL	1	16	[0, 0, 0]	n/a	FR1	2	R1145J
1837.318	1.617	2225194	WORD	n/a	wordpools/wordpool_EN.txt	FLAME	2	16	[0, 0, 0]	n/a	FR1	2	R1145J
1838.935	0.95	2226811	WORD_OFF	n/a	n/a	FLAME	2	16	[0, 0, 0]	n/a	FR1	2	R1145J
1839.885	1.617	2227761	WORD	n/a	wordpools/wordpool_EN.txt	OWL	3	16	[0, 0, 0]	n/a	FR1	2	R1145J
1841.502	0.983	2229378	WORD_OFF	n/a	n/a	OWL	3	16	[0, 0, 0]	n/a	FR1	2	R1145J
1842.485	1.616	2230361	WORD	n/a	wordpools/wordpool_EN.txt	CAKE	4	16	[0, 0, 0]	n/a	FR1	2	R1145J
1844.101	0.967	2231977	WORD_OFF	n/a	n/a	CAKE	4	16	[0, 0, 0]	n/a	FR1	2	R1145J
1845.068	1.618	2232944	WORD	n/a	wordpools/wordpool_EN.txt	CRANE	5	16	[0, 0, 0]	n/a	FR1	2	R1145J
1846.686	1.0	2234562	WORD_OFF	n/a	n/a	CRANE	5	16	[0, 0, 0]	n/a	FR1	2	R1145J
1847.686	1.617	2235562	WORD	n/a	wordpools/wordpool_EN.txt	MOLE	6	16	[0, 0, 0]	n/a	FR1	2	R1145J
1849.303	0.832	2237179	WORD_OFF	n/a	n/a	MOLE	6	16	[0, 0, 0]	n/a	FR1	2	R1145J
1850.135	1.618	2238011	WORD	n/a	wordpools/wordpool_EN.txt	MOTH	7	16	[0, 0, 0]	n/a	FR1	2	R1145J
1851.753	0.967	2239629	WORD_OFF	n/a	n/a	MOTH	7	16	[0, 0, 0]	n/a	FR1	2	R1145J
1852.72	1.617	2240596	WORD	n/a	wordpools/wordpool_EN.txt	EAR	8	16	[0, 0, 0]	n/a	FR1	2	R1145J
1854.337	0.765	2242213	WORD_OFF	n/a	n/a	EAR	8	16	[0, 0, 0]	n/a	FR1	2	R1145J
1855.102	1.602	2242978	WORD	n/a	wordpools/wordpool_EN.txt	PEAR	9	16	[0, 0, 0]	n/a	FR1	2	R1145J
1856.704	0.866	2244580	WORD_OFF	n/a	n/a	PEAR	9	16	[0, 0, 0]	n/a	FR1	2	R1145J
1857.57	1.616	2245446	WORD	n/a	wordpools/wordpool_EN.txt	SNAIL	10	16	[0, 0, 0]	n/a	FR1	2	R1145J
1859.186	0.768	2247062	WORD_OFF	n/a	n/a	SNAIL	10	16	[0, 0, 0]	n/a	FR1	2	R1145J
1859.954	1.617	2247830	WORD	n/a	wordpools/wordpool_EN.txt	SLIME	11	16	[0, 0, 0]	n/a	FR1	2	R1145J
1861.571	0.783	2249447	WORD_OFF	n/a	n/a	SLIME	11	16	[0, 0, 0]	n/a	FR1	2	R1145J
1862.354	1.617	2250230	WORD	n/a	wordpools/wordpool_EN.txt	HEN	12	16	[0, 0, 0]	n/a	FR1	2	R1145J
1863.971	0.0	2251847	WORD_OFF	n/a	n/a	HEN	12	16	[0, 0, 0]	n/a	FR1	2	R1145J
1863.971	0.001	2251847	DISTRACT_START	n/a	n/a	n/a	-999	16	[0, 0, 0]	n/a	FR1	2	R1145J
1863.972	0.016	2251848	START	n/a	n/a	n/a	-999	16	[-999, -999, -999]	n/a	FR1	2	R1145J
1863.988	11.818	2251864	PROB	11.818	n/a	n/a	-999	16	[4, 2, 5]	11	FR1	2	R1145J
1875.806	7.518	2263682	PROB	7.518	n/a	n/a	-999	16	[4, 8, 8]	20	FR1	2	R1145J
1883.324	3.507	2271200	PROB	3.507	n/a	n/a	-999	16	[1, 8, 2]	11	FR1	2	R1145J
1886.831	0.01	2274707	STOP	n/a	n/a	n/a	-999	16	[-999, -999, -999]	n/a	FR1	2	R1145J
1886.841	0.517	2274717	DISTRACT_END	n/a	n/a	n/a	-999	16	[0, 0, 0]	n/a	FR1	2	R1145J
1887.358	0.517	2275234	RETRIEVAL_ORIENT	n/a	n/a	n/a	-999	16	[0, 0, 0]	n/a	FR1	2	R1145J
1887.875	3.491	2275751	REC_START	n/a	n/a	n/a	-999	16	[0, 0, 0]	n/a	FR1	2	R1145J
1891.366	1.572	2279242	REC_WORD	1.572	n/a	EAR	8	16	[0, 0, 0]	n/a	FR1	2	R1145J
1892.938	7.133	2280814	REC_WORD	7.133	n/a	PEAR	9	16	[0, 0, 0]	n/a	FR1	2	R1145J
1900.071	17.816	2287947	REC_WORD_VV	17.816	n/a	<>	-999	16	[0, 0, 0]	n/a	FR1	2	R1145J
1917.887	4.141	2305762	REC_END	n/a	n/a	n/a	-999	16	[0, 0, 0]	n/a	FR1	2	R1145J
1922.028	0.5	2309903	TRIAL	n/a	n/a	n/a	-999	17	[0, 0, 0]	n/a	FR1	2	R1145J
1922.528	10.428	2310403	COUNTDOWN_START	n/a	n/a	n/a	-999	17	[0, 0, 0]	n/a	FR1	2	R1145J
1932.956	0.008	2320831	COUNTDOWN_END	n/a	n/a	n/a	-999	17	[0, 0, 0]	n/a	FR1	2	R1145J
1932.964	1.617	2320839	ORIENT	n/a	n/a	n/a	-999	17	[0, 0, 0]	n/a	FR1	2	R1145J
1934.581	1.833	2322456	ORIENT_OFF	n/a	n/a	n/a	-999	17	[0, 0, 0]	n/a	FR1	2	R1145J
1936.414	1.616	2324289	WORD	n/a	wordpools/wordpool_EN.txt	MUD	1	17	[0, 0, 0]	n/a	FR1	2	R1145J
1938.03	0.934	2325905	WORD_OFF	n/a	n/a	MUD	1	17	[0, 0, 0]	n/a	FR1	2	R1145J
1938.964	1.617	2326839	WORD	n/a	wordpools/wordpool_EN.txt	SPOON	2	17	[0, 0, 0]	n/a	FR1	2	R1145J
1940.581	0.867	2328456	WORD_OFF	n/a	n/a	SPOON	2	17	[0, 0, 0]	n/a	FR1	2	R1145J
1941.448	1.616	2329323	WORD	n/a	wordpools/wordpool_EN.txt	SINK	3	17	[0, 0, 0]	n/a	FR1	2	R1145J
1943.064	0.835	2330939	WORD_OFF	n/a	n/a	SINK	3	17	[0, 0, 0]	n/a	FR1	2	R1145J
1943.899	1.616	2331774	WORD	n/a	wordpools/wordpool_EN.txt	MAT	4	17	[0, 0, 0]	n/a	FR1	2	R1145J
1945.515	0.884	2333390	WORD_OFF	n/a	n/a	MAT	4	17	[0, 0, 0]	n/a	FR1	2	R1145J
1946.399	1.615	2334274	WORD	n/a	wordpools/wordpool_EN.txt	FLUTE	5	17	[0, 0, 0]	n/a	FR1	2	R1145J
1948.014	0.851	2335889	WORD_OFF	n/a	n/a	FLUTE	5	17	[0, 0, 0]	n/a	FR1	2	R1145J
1948.865	1.617	2336740	WORD	n/a	wordpools/wordpool_EN.txt	DOOR	6	17	[0, 0, 0]	n/a	FR1	2	R1145J
1950.482	0.934	2338357	WORD_OFF	n/a	n/a	DOOR	6	17	[0, 0, 0]	n/a	FR1	2	R1145J
1951.416	1.616	2339291	WORD	n/a	wordpools/wordpool_EN.txt	TENT	7	17	[0, 0, 0]	n/a	FR1	2	R1145J
1953.032	0.818	2340907	WORD_OFF	n/a	n/a	TENT	7	17	[0, 0, 0]	n/a	FR1	2	R1145J
1953.85	1.617	2341725	WORD	n/a	wordpools/wordpool_EN.txt	SWAMP	8	17	[0, 0, 0]	n/a	FR1	2	R1145J
1955.467	0.883	2343342	WORD_OFF	n/a	n/a	SWAMP	8	17	[0, 0, 0]	n/a	FR1	2	R1145J
1956.35	1.617	2344225	WORD	n/a	wordpools/wordpool_EN.txt	TOAST	9	17	[0, 0, 0]	n/a	FR1	2	R1145J
1957.967	0.95	2345842	WORD_OFF	n/a	n/a	TOAST	9	17	[0, 0, 0]	n/a	FR1	2	R1145J
1958.917	1.617	2346792	WORD	n/a	wordpools/wordpool_EN.txt	BED	10	17	[0, 0, 0]	n/a	FR1	2	R1145J
1960.534	0.833	2348409	WORD_OFF	n/a	n/a	BED	10	17	[0, 0, 0]	n/a	FR1	2	R1145J
1961.367	1.617	2349242	WORD	n/a	wordpools/wordpool_EN.txt	BATH	11	17	[0, 0, 0]	n/a	FR1	2	R1145J
1962.984	0.917	2350859	WORD_OFF	n/a	n/a	BATH	11	17	[0, 0, 0]	n/a	FR1	2	R1145J
1963.901	1.617	2351776	WORD	n/a	wordpools/wordpool_EN.txt	FORK	12	17	[0, 0, 0]	n/a	FR1	2	R1145J
1965.518	0.0	2353393	DISTRACT_START	n/a	n/a	n/a	-999	17	[0, 0, 0]	n/a	FR1	2	R1145J
1965.518	0.001	2353393	WORD_OFF	n/a	n/a	FORK	12	17	[0, 0, 0]	n/a	FR1	2	R1145J
1965.519	0.016	2353394	START	n/a	n/a	n/a	-999	17	[-999, -999, -999]	n/a	FR1	2	R1145J
1965.535	16.335	2353410	PROB	16.335	n/a	n/a	-999	17	[5, 7, 6]	18	FR1	2	R1145J
1981.87	11.219	2369745	PROB	11.219	n/a	n/a	-999	17	[8, 2, 4]	14	FR1	2	R1145J
1993.089	0.015	2380964	STOP	n/a	n/a	n/a	-999	17	[-999, -999, -999]	n/a	FR1	2	R1145J
1993.104	0.651	2380979	DISTRACT_END	n/a	n/a	n/a	-999	17	[0, 0, 0]	n/a	FR1	2	R1145J
1993.755	0.516	2381630	RETRIEVAL_ORIENT	n/a	n/a	n/a	-999	17	[0, 0, 0]	n/a	FR1	2	R1145J
1994.271	5.166	2382146	REC_START	n/a	n/a	n/a	-999	17	[0, 0, 0]	n/a	FR1	2	R1145J
1999.437	1.04	2387312	REC_WORD	1.04	n/a	BED	10	17	[0, 0, 0]	n/a	FR1	2	R1145J
2000.477	1.563	2388352	REC_WORD_VV	1.563	n/a	<>	-999	17	[0, 0, 0]	n/a	FR1	2	R1145J
2002.04	2.55	2389915	REC_WORD	2.55	n/a	BED	10	17	[0, 0, 0]	n/a	FR1	2	R1145J
2004.59	5.863	2392465	REC_WORD	5.863	n/a	BED	10	17	[0, 0, 0]	n/a	FR1	2	R1145J
2010.453	1.254	2398328	REC_WORD_VV	1.254	n/a	<>	-999	17	[0, 0, 0]	n/a	FR1	2	R1145J
2011.707	0.836	2399582	REC_WORD_VV	0.836	n/a	<>	-999	17	[0, 0, 0]	n/a	FR1	2	R1145J
2012.543	0.735	2400418	REC_WORD_VV	0.735	n/a	<>	-999	17	[0, 0, 0]	n/a	FR1	2	R1145J
2013.278	1.273	2401153	REC_WORD_VV	1.273	n/a	<>	-999	17	[0, 0, 0]	n/a	FR1	2	R1145J
2014.551	6.726	2402426	REC_WORD_VV	6.726	n/a	<>	-999	17	[0, 0, 0]	n/a	FR1	2	R1145J
2021.277	3.007	2409152	REC_WORD_VV	3.007	n/a	<>	-999	17	[0, 0, 0]	n/a	FR1	2	R1145J
2024.284	5.042	2412159	REC_END	n/a	n/a	n/a	-999	17	[0, 0, 0]	n/a	FR1	2	R1145J
2029.326	0.5	2417200	TRIAL	n/a	n/a	n/a	-999	18	[0, 0, 0]	n/a	FR1	2	R1145J
2029.826	10.428	2417700	COUNTDOWN_START	n/a	n/a	n/a	-999	18	[0, 0, 0]	n/a	FR1	2	R1145J
2040.254	0.006	2428128	COUNTDOWN_END	n/a	n/a	n/a	-999	18	[0, 0, 0]	n/a	FR1	2	R1145J
2040.26	1.618	2428134	ORIENT	n/a	n/a	n/a	-999	18	[0, 0, 0]	n/a	FR1	2	R1145J
2041.878	1.933	2429752	ORIENT_OFF	n/a	n/a	n/a	-999	18	[0, 0, 0]	n/a	FR1	2	R1145J
2043.811	1.617	2431685	WORD	n/a	wordpools/wordpool_EN.txt	DOLL	1	18	[0, 0, 0]	n/a	FR1	2	R1145J
2045.428	1.0	2433302	WORD_OFF	n/a	n/a	DOLL	1	18	[0, 0, 0]	n/a	FR1	2	R1145J
2046.428	1.616	2434302	WORD	n/a	wordpools/wordpool_EN.txt	PIN	2	18	[0, 0, 0]	n/a	FR1	2	R1145J
2048.044	0.834	2435918	WORD_OFF	n/a	n/a	PIN	2	18	[0, 0, 0]	n/a	FR1	2	R1145J
2048.878	1.617	2436752	WORD	n/a	wordpools/wordpool_EN.txt	SOUP	3	18	[0, 0, 0]	n/a	FR1	2	R1145J
2050.495	0.783	2438369	WORD_OFF	n/a	n/a	SOUP	3	18	[0, 0, 0]	n/a	FR1	2	R1145J
2051.278	1.618	2439152	WORD	n/a	wordpools/wordpool_EN.txt	ROSE	4	18	[0, 0, 0]	n/a	FR1	2	R1145J
2052.896	0.933	2440770	WORD_OFF	n/a	n/a	ROSE	4	18	[0, 0, 0]	n/a	FR1	2	R1145J
2053.829	1.617	2441703	WORD	n/a	wordpools/wordpool_EN.txt	DESK	5	18	[0, 0, 0]	n/a	FR1	2	R1145J
2055.446	0.984	2443320	WORD_OFF	n/a	n/a	DESK	5	18	[0, 0, 0]	n/a	FR1	2	R1145J
2056.43	1.615	2444304	WORD	n/a	wordpools/wordpool_EN.txt	CLOTH	6	18	[0, 0, 0]	n/a	FR1	2	R1145J
2058.045	0.835	2445919	WORD_OFF	n/a	n/a	CLOTH	6	18	[0, 0, 0]	n/a	FR1	2	R1145J
2058.88	1.616	2446754	WORD	n/a	wordpools/wordpool_EN.txt	STOVE	7	18	[0, 0, 0]	n/a	FR1	2	R1145J
2060.496	0.801	2448370	WORD_OFF	n/a	n/a	STOVE	7	18	[0, 0, 0]	n/a	FR1	2	R1145J
2061.297	1.617	2449171	WORD	n/a	wordpools/wordpool_EN.txt	HAT	8	18	[0, 0, 0]	n/a	FR1	2	R1145J
2062.914	0.816	2450788	WORD_OFF	n/a	n/a	HAT	8	18	[0, 0, 0]	n/a	FR1	2	R1145J
2063.73	1.617	2451604	WORD	n/a	wordpools/wordpool_EN.txt	GLASS	9	18	[0, 0, 0]	n/a	FR1	2	R1145J
2065.347	0.951	2453221	WORD_OFF	n/a	n/a	GLASS	9	18	[0, 0, 0]	n/a	FR1	2	R1145J
2066.298	1.616	2454172	WORD	n/a	wordpools/wordpool_EN.txt	APE	10	18	[0, 0, 0]	n/a	FR1	2	R1145J
2067.914	0.967	2455788	WORD_OFF	n/a	n/a	APE	10	18	[0, 0, 0]	n/a	FR1	2	R1145J
2068.881	1.617	2456755	WORD	n/a	wordpools/wordpool_EN.txt	LAMP	11	18	[0, 0, 0]	n/a	FR1	2	R1145J
2070.498	0.8	2458372	WORD_OFF	n/a	n/a	LAMP	11	18	[0, 0, 0]	n/a	FR1	2	R1145J
2071.298	1.617	2459172	WORD	n/a	wordpools/wordpool_EN.txt	BOOT	12	18	[0, 0, 0]	n/a	FR1	2	R1145J
2072.915	0.0	2460789	WORD_OFF	n/a	n/a	BOOT	12	18	[0, 0, 0]	n/a	FR1	2	R1145J
2072.915	0.0	2460789	DISTRACT_START	n/a	n/a	n/a	-999	18	[0, 0, 0]	n/a	FR1	2	R1145J
2072.915	0.017	2460789	START	n/a	n/a	n/a	-999	18	[-999, -999, -999]	n/a	FR1	2	R1145J
2072.932	6.316	2460806	PROB	6.316	n/a	n/a	-999	18	[7, 3, 7]	17	FR1	2	R1145J
2079.248	4.402	2467122	PROB	4.402	n/a	n/a	-999	18	[6, 5, 4]	15	FR1	2	R1145J
2083.65	5.333	2471524	PROB	5.333	n/a	n/a	-999	18	[8, 5, 4]	17	FR1	2	R1145J
2088.983	6.799	2476857	PROB	6.799	n/a	n/a	-999	18	[3, 4, 1]	8	FR1	2	R1145J
2095.782	0.019	2483656	STOP	n/a	n/a	n/a	-999	18	[-999, -999, -999]	n/a	FR1	2	R1145J
2095.801	0.534	2483675	DISTRACT_END	n/a	n/a	n/a	-999	18	[0, 0, 0]	n/a	FR1	2	R1145J
2096.335	0.517	2484209	RETRIEVAL_ORIENT	n/a	n/a	n/a	-999	18	[0, 0, 0]	n/a	FR1	2	R1145J
2096.852	1.753	2484726	REC_START	n/a	n/a	n/a	-999	18	[0, 0, 0]	n/a	FR1	2	R1145J
2098.605	0.843	2486479	REC_WORD	0.843	n/a	DESK	5	18	[0, 0, 0]	n/a	FR1	2	R1145J
2099.448	1.718	2487322	REC_WORD	1.718	n/a	PIN	2	18	[0, 0, 0]	n/a	FR1	2	R1145J
2101.166	2.24	2489040	REC_WORD	2.24	n/a	APE	10	18	[0, 0, 0]	n/a	FR1	2	R1145J
2103.406	3.891	2491280	REC_WORD	3.891	n/a	LAMP	11	18	[0, 0, 0]	n/a	FR1	2	R1145J
2107.297	0.443	2495171	REC_WORD	0.443	n/a	DESK	5	18	[0, 0, 0]	n/a	FR1	2	R1145J
2107.74	0.255	2495614	REC_WORD	0.255	n/a	PIN	2	18	[0, 0, 0]	n/a	FR1	2	R1145J
2107.995	0.745	2495869	REC_WORD	0.745	n/a	APE	10	18	[0, 0, 0]	n/a	FR1	2	R1145J
2108.74	2.765	2496614	REC_WORD	2.765	n/a	LAMP	11	18	[0, 0, 0]	n/a	FR1	2	R1145J
2111.505	0.627	2499379	REC_WORD	0.627	n/a	DESK	5	18	[0, 0, 0]	n/a	FR1	2	R1145J
2112.132	0.611	2500006	REC_WORD	0.611	n/a	PIN	2	18	[0, 0, 0]	n/a	FR1	2	R1145J
2112.743	0.752	2500617	REC_WORD	0.752	n/a	APE	10	18	[0, 0, 0]	n/a	FR1	2	R1145J
2113.495	13.371	2501369	REC_WORD	13.371	n/a	LAMP	11	18	[0, 0, 0]	n/a	FR1	2	R1145J
2126.866	7.74	2514740	REC_END	n/a	n/a	n/a	-999	18	[0, 0, 0]	n/a	FR1	2	R1145J
2134.606	0.5	2522480	TRIAL	n/a	n/a	n/a	-999	19	[0, 0, 0]	n/a	FR1	2	R1145J
2135.106	10.428	2522980	COUNTDOWN_START	n/a	n/a	n/a	-999	19	[0, 0, 0]	n/a	FR1	2	R1145J
2145.534	0.007	2533407	COUNTDOWN_END	n/a	n/a	n/a	-999	19	[0, 0, 0]	n/a	FR1	2	R1145J
2145.541	1.616	2533414	ORIENT	n/a	n/a	n/a	-999	19	[0, 0, 0]	n/a	FR1	2	R1145J
2147.157	1.817	2535030	ORIENT_OFF	n/a	n/a	n/a	-999	19	[0, 0, 0]	n/a	FR1	2	R1145J
2148.974	1.617	2536847	WORD	n/a	wordpools/wordpool_EN.txt	VINE	1	19	[0, 0, 0]	n/a	FR1	2	R1145J
2150.591	0.984	2538464	WORD_OFF	n/a	n/a	VINE	1	19	[0, 0, 0]	n/a	FR1	2	R1145J
2151.575	1.616	2539448	WORD	n/a	wordpools/wordpool_EN.txt	CONE	2	19	[0, 0, 0]	n/a	FR1	2	R1145J
2153.191	0.917	2541064	WORD_OFF	n/a	n/a	CONE	2	19	[0, 0, 0]	n/a	FR1	2	R1145J
2154.108	1.618	2541981	WORD	n/a	wordpools/wordpool_EN.txt	SOCK	3	19	[0, 0, 0]	n/a	FR1	2	R1145J
2155.726	0.766	2543599	WORD_OFF	n/a	n/a	SOCK	3	19	[0, 0, 0]	n/a	FR1	2	R1145J
2156.492	1.616	2544365	WORD	n/a	wordpools/wordpool_EN.txt	FLOOR	4	19	[0, 0, 0]	n/a	FR1	2	R1145J
2158.108	0.851	2545981	WORD_OFF	n/a	n/a	FLOOR	4	19	[0, 0, 0]	n/a	FR1	2	R1145J
2158.959	1.617	2546832	WORD	n/a	wordpools/wordpool_EN.txt	RIB	5	19	[0, 0, 0]	n/a	FR1	2	R1145J
2160.576	0.884	2548449	WORD_OFF	n/a	n/a	RIB	5	19	[0, 0, 0]	n/a	FR1	2	R1145J
2161.46	1.615	2549333	WORD	n/a	wordpools/wordpool_EN.txt	WALL	6	19	[0, 0, 0]	n/a	FR1	2	R1145J
2163.075	0.967	2550948	WORD_OFF	n/a	n/a	WALL	6	19	[0, 0, 0]	n/a	FR1	2	R1145J
2164.042	1.618	2551915	WORD	n/a	wordpools/wordpool_EN.txt	CHIN	7	19	[0, 0, 0]	n/a	FR1	2	R1145J
2165.66	0.95	2553533	WORD_OFF	n/a	n/a	CHIN	7	19	[0, 0, 0]	n/a	FR1	2	R1145J
2166.61	1.616	2554483	WORD	n/a	wordpools/wordpool_EN.txt	VEST	8	19	[0, 0, 0]	n/a	FR1	2	R1145J
2168.226	0.8	2556099	WORD_OFF	n/a	n/a	VEST	8	19	[0, 0, 0]	n/a	FR1	2	R1145J
2169.026	1.618	2556899	WORD	n/a	wordpools/wordpool_EN.txt	CLIFF	9	19	[0, 0, 0]	n/a	FR1	2	R1145J
2170.644	0.883	2558517	WORD_OFF	n/a	n/a	CLIFF	9	19	[0, 0, 0]	n/a	FR1	2	R1145J
2171.527	1.616	2559400	WORD	n/a	wordpools/wordpool_EN.txt	FUR	10	19	[0, 0, 0]	n/a	FR1	2	R1145J
2173.143	0.917	2561016	WORD_OFF	n/a	n/a	FUR	10	19	[0, 0, 0]	n/a	FR1	2	R1145J
2174.06	1.601	2561933	WORD	n/a	wordpools/wordpool_EN.txt	RUG	11	19	[0, 0, 0]	n/a	FR1	2	R1145J
2175.661	0.934	2563534	WORD_OFF	n/a	n/a	RUG	11	19	[0, 0, 0]	n/a	FR1	2	R1145J
2176.595	1.615	2564468	WORD	n/a	wordpools/wordpool_EN.txt	LAND	12	19	[0, 0, 0]	n/a	FR1	2	R1145J
2178.21	0.0	2566083	WORD_OFF	n/a	n/a	LAND	12	19	[0, 0, 0]	n/a	FR1	2	R1145J
2178.21	0.001	2566083	DISTRACT_START	n/a	n/a	n/a	-999	19	[0, 0, 0]	n/a	FR1	2	R1145J
2178.211	0.016	2566084	START	n/a	n/a	n/a	-999	19	[-999, -999, -999]	n/a	FR1	2	R1145J
2178.227	8.236	2566100	PROB	8.236	n/a	n/a	-999	19	[3, 9, 6]	18	FR1	2	R1145J
2186.463	8.817	2574336	PROB	8.817	n/a	n/a	-999	19	[7, 6, 1]	14	FR1	2	R1145J
2195.28	14.593	2583153	PROB	14.593	n/a	n/a	-999	19	[8, 9, 6]	23	FR1	2	R1145J
2209.873	0.009	2597746	STOP	n/a	n/a	n/a	-999	19	[-999, -999, -999]	n/a	FR1	2	R1145J
2209.882	0.617	2597755	DISTRACT_END	n/a	n/a	n/a	-999	19	[0, 0, 0]	n/a	FR1	2	R1145J
2210.499	0.517	2598372	RETRIEVAL_ORIENT	n/a	n/a	n/a	-999	19	[0, 0, 0]	n/a	FR1	2	R1145J
2211.016	1.431	2598889	REC_START	n/a	n/a	n/a	-999	19	[0, 0, 0]	n/a	FR1	2	R1145J
2212.447	1.974	2600320	REC_WORD	1.974	n/a	WALL	6	19	[0, 0, 0]	n/a	FR1	2	R1145J
2214.421	5.155	2602294	REC_WORD	5.155	n/a	RUG	11	19	[0, 0, 0]	n/a	FR1	2	R1145J
2219.576	0.627	2607449	REC_WORD	0.627	n/a	WALL	6	19	[0, 0, 0]	n/a	FR1	2	R1145J
2220.203	9.687	2608076	REC_WORD	9.687	n/a	RUG	11	19	[0, 0, 0]	n/a	FR1	2	R1145J
2229.89	1.912	2617763	REC_WORD_VV	1.912	n/a	<>	-999	19	[0, 0, 0]	n/a	FR1	2	R1145J
2231.802	2.176	2619675	REC_WORD	2.176	n/a	VINE	1	19	[0, 0, 0]	n/a	FR1	2	R1145J
2233.978	0.291	2621851	REC_WORD_VV	0.291	n/a	<>	-999	19	[0, 0, 0]	n/a	FR1	2	R1145J
2234.269	1.04	2622142	REC_WORD	1.04	n/a	VINE	1	19	[0, 0, 0]	n/a	FR1	2	R1145J
2235.309	5.719	2623182	REC_WORD	5.719	n/a	FUR	10	19	[0, 0, 0]	n/a	FR1	2	R1145J
2241.028	6.242	2628901	REC_END	n/a	n/a	n/a	-999	19	[0, 0, 0]	n/a	FR1	2	R1145J
2247.27	0.5	2635143	TRIAL	n/a	n/a	n/a	-999	20	[0, 0, 0]	n/a	FR1	2	R1145J
2247.77	10.428	2635643	COUNTDOWN_START	n/a	n/a	n/a	-999	20	[0, 0, 0]	n/a	FR1	2	R1145J
2258.198	0.006	2646070	COUNTDOWN_END	n/a	n/a	n/a	-999	20	[0, 0, 0]	n/a	FR1	2	R1145J
2258.204	1.618	2646076	ORIENT	n/a	n/a	n/a	-999	20	[0, 0, 0]	n/a	FR1	2	R1145J
2259.822	2.216	2647694	ORIENT_OFF	n/a	n/a	n/a	-999	20	[0, 0, 0]	n/a	FR1	2	R1145J
2262.038	1.601	2649910	WORD	n/a	wordpools/wordpool_EN.txt	BOAT	1	20	[0, 0, 0]	n/a	FR1	2	R1145J
2263.639	0.784	2651511	WORD_OFF	n/a	n/a	BOAT	1	20	[0, 0, 0]	n/a	FR1	2	R1145J
2264.423	1.616	2652295	WORD	n/a	wordpools/wordpool_EN.txt	VASE	2	20	[0, 0, 0]	n/a	FR1	2	R1145J
2266.039	0.983	2653911	WORD_OFF	n/a	n/a	VASE	2	20	[0, 0, 0]	n/a	FR1	2	R1145J
2267.022	1.618	2654894	WORD	n/a	wordpools/wordpool_EN.txt	CHAIR	3	20	[0, 0, 0]	n/a	FR1	2	R1145J
2268.64	0.783	2656512	WORD_OFF	n/a	n/a	CHAIR	3	20	[0, 0, 0]	n/a	FR1	2	R1145J
2269.423	1.616	2657295	WORD	n/a	wordpools/wordpool_EN.txt	SPRING	4	20	[0, 0, 0]	n/a	FR1	2	R1145J
2271.039	0.918	2658911	WORD_OFF	n/a	n/a	SPRING	4	20	[0, 0, 0]	n/a	FR1	2	R1145J
2271.957	1.617	2659829	WORD	n/a	wordpools/wordpool_EN.txt	CLAY	5	20	[0, 0, 0]	n/a	FR1	2	R1145J
2273.574	0.95	2661446	WORD_OFF	n/a	n/a	CLAY	5	20	[0, 0, 0]	n/a	FR1	2	R1145J
2274.524	1.616	2662396	WORD	n/a	wordpools/wordpool_EN.txt	TEA	6	20	[0, 0, 0]	n/a	FR1	2	R1145J
2276.14	0.967	2664012	WORD_OFF	n/a	n/a	TEA	6	20	[0, 0, 0]	n/a	FR1	2	R1145J
2277.107	1.617	2664979	WORD	n/a	wordpools/wordpool_EN.txt	CLOWN	7	20	[0, 0, 0]	n/a	FR1	2	R1145J
2278.724	0.884	2666596	WORD_OFF	n/a	n/a	CLOWN	7	20	[0, 0, 0]	n/a	FR1	2	R1145J
2279.608	1.616	2667480	WORD	n/a	wordpools/wordpool_EN.txt	DUCK	8	20	[0, 0, 0]	n/a	FR1	2	R1145J
2281.224	0.833	2669096	WORD_OFF	n/a	n/a	DUCK	8	20	[0, 0, 0]	n/a	FR1	2	R1145J
2282.057	1.618	2669929	WORD	n/a	wordpools/wordpool_EN.txt	SEAL	9	20	[0, 0, 0]	n/a	FR1	2	R1145J
2283.675	0.867	2671547	WORD_OFF	n/a	n/a	SEAL	9	20	[0, 0, 0]	n/a	FR1	2	R1145J
2284.542	1.616	2672414	WORD	n/a	wordpools/wordpool_EN.txt	EEL	10	20	[0, 0, 0]	n/a	FR1	2	R1145J
2286.158	0.784	2674030	WORD_OFF	n/a	n/a	EEL	10	20	[0, 0, 0]	n/a	FR1	2	R1145J
2286.942	1.617	2674814	WORD	n/a	wordpools/wordpool_EN.txt	POOL	11	20	[0, 0, 0]	n/a	FR1	2	R1145J
2288.559	0.783	2676431	WORD_OFF	n/a	n/a	POOL	11	20	[0, 0, 0]	n/a	FR1	2	R1145J
2289.342	1.617	2677214	WORD	n/a	wordpools/wordpool_EN.txt	NET	12	20	[0, 0, 0]	n/a	FR1	2	R1145J
2290.959	0.0	2678831	DISTRACT_START	n/a	n/a	n/a	-999	20	[0, 0, 0]	n/a	FR1	2	R1145J
2290.959	0.001	2678831	WORD_OFF	n/a	n/a	NET	12	20	[0, 0, 0]	n/a	FR1	2	R1145J
2290.96	0.016	2678832	START	n/a	n/a	n/a	-999	20	[-999, -999, -999]	n/a	FR1	2	R1145J
2290.976	5.984	2678848	PROB	5.984	n/a	n/a	-999	20	[7, 7, 8]	22	FR1	2	R1145J
2296.96	7.167	2684832	PROB	7.167	n/a	n/a	-999	20	[9, 8, 3]	20	FR1	2	R1145J
2304.127	12.526	2691999	PROB	12.526	n/a	n/a	-999	20	[6, 8, 7]	21	FR1	2	R1145J
2316.653	0.01	2704525	STOP	n/a	n/a	n/a	-999	20	[-999, -999, -999]	n/a	FR1	2	R1145J
2316.663	0.549	2704535	DISTRACT_END	n/a	n/a	n/a	-999	20	[0, 0, 0]	n/a	FR1	2	R1145J
2317.212	0.518	2705084	RETRIEVAL_ORIENT	n/a	n/a	n/a	-999	20	[0, 0, 0]	n/a	FR1	2	R1145J
2317.73	2.17	2705602	REC_START	n/a	n/a	n/a	-999	20	[0, 0, 0]	n/a	FR1	2	R1145J
2319.9	1.424	2707772	REC_WORD	1.424	n/a	NET	12	20	[0, 0, 0]	n/a	FR1	2	R1145J
2321.324	1.089	2709196	REC_WORD	1.089	n/a	CLOWN	7	20	[0, 0, 0]	n/a	FR1	2	R1145J
2322.413	0.41	2710285	REC_WORD	0.41	n/a	NET	12	20	[0, 0, 0]	n/a	FR1	2	R1145J
2322.823	4.152	2710695	REC_WORD	4.152	n/a	CLOWN	7	20	[0, 0, 0]	n/a	FR1	2	R1145J
2326.975	1.177	2714847	REC_WORD	1.177	n/a	BOAT	1	20	[0, 0, 0]	n/a	FR1	2	R1145J
2328.152	1.347	2716024	REC_WORD_VV	1.347	n/a	<>	-999	20	[0, 0, 0]	n/a	FR1	2	R1145J
2329.499	0.702	2717371	REC_WORD_VV	0.702	n/a	<>	-999	20	[0, 0, 0]	n/a	FR1	2	R1145J
2330.201	0.372	2718073	REC_WORD	0.372	n/a	NET	12	20	[0, 0, 0]	n/a	FR1	2	R1145J
2330.573	0.488	2718445	REC_WORD	0.488	n/a	CLOWN	7	20	[0, 0, 0]	n/a	FR1	2	R1145J
2331.061	9.855	2718933	REC_WORD	9.855	n/a	BOAT	1	20	[0, 0, 0]	n/a	FR1	2	R1145J
2340.916	0.256	2728788	REC_WORD	0.256	n/a	NET	12	20	[0, 0, 0]	n/a	FR1	2	R1145J
2341.172	6.57	2729044	REC_WORD	6.57	n/a	CLOWN	7	20	[0, 0, 0]	n/a	FR1	2	R1145J
2347.742	6.042	2735614	REC_END	n/a	n/a	n/a	-999	20	[0, 0, 0]	n/a	FR1	2	R1145J
2353.784	0.5	2741656	TRIAL	n/a	n/a	n/a	-999	21	[0, 0, 0]	n/a	FR1	2	R1145J
2354.284	10.428	2742156	COUNTDOWN_START	n/a	n/a	n/a	-999	21	[0, 0, 0]	n/a	FR1	2	R1145J
2364.712	0.007	2752584	COUNTDOWN_END	n/a	n/a	n/a	-999	21	[0, 0, 0]	n/a	FR1	2	R1145J
2364.719	1.617	2752591	ORIENT	n/a	n/a	n/a	-999	21	[0, 0, 0]	n/a	FR1	2	R1145J
2366.336	1.899	2754207	ORIENT_OFF	n/a	n/a	n/a	-999	21	[0, 0, 0]	n/a	FR1	2	R1145J
2368.235	1.618	2756106	WORD	n/a	wordpools/wordpool_EN.txt	HOOK	1	21	[0, 0, 0]	n/a	FR1	2	R1145J
2369.853	0.883	2757724	WORD_OFF	n/a	n/a	HOOK	1	21	[0, 0, 0]	n/a	FR1	2	R1145J
2370.736	1.617	2758607	WORD	n/a	wordpools/wordpool_EN.txt	GLOVE	2	21	[0, 0, 0]	n/a	FR1	2	R1145J
2372.353	0.866	2760224	WORD_OFF	n/a	n/a	GLOVE	2	21	[0, 0, 0]	n/a	FR1	2	R1145J
2373.219	1.618	2761090	WORD	n/a	wordpools/wordpool_EN.txt	BAT	3	21	[0, 0, 0]	n/a	FR1	2	R1145J
2374.837	0.967	2762708	WORD_OFF	n/a	n/a	BAT	3	21	[0, 0, 0]	n/a	FR1	2	R1145J
2375.804	1.617	2763675	WORD	n/a	wordpools/wordpool_EN.txt	PIE	4	21	[0, 0, 0]	n/a	FR1	2	R1145J
2377.421	0.765	2765292	WORD_OFF	n/a	n/a	PIE	4	21	[0, 0, 0]	n/a	FR1	2	R1145J
2378.186	1.618	2766057	WORD	n/a	wordpools/wordpool_EN.txt	PURSE	5	21	[0, 0, 0]	n/a	FR1	2	R1145J
2379.804	0.984	2767675	WORD_OFF	n/a	n/a	PURSE	5	21	[0, 0, 0]	n/a	FR1	2	R1145J
2380.788	1.616	2768659	WORD	n/a	wordpools/wordpool_EN.txt	BREAD	6	21	[0, 0, 0]	n/a	FR1	2	R1145J
2382.404	0.85	2770275	WORD_OFF	n/a	n/a	BREAD	6	21	[0, 0, 0]	n/a	FR1	2	R1145J
2383.254	1.601	2771125	WORD	n/a	wordpools/wordpool_EN.txt	PEN	7	21	[0, 0, 0]	n/a	FR1	2	R1145J
2384.855	0.817	2772726	WORD_OFF	n/a	n/a	PEN	7	21	[0, 0, 0]	n/a	FR1	2	R1145J
2385.672	1.617	2773543	WORD	n/a	wordpools/wordpool_EN.txt	NAIL	8	21	[0, 0, 0]	n/a	FR1	2	R1145J
2387.289	0.982	2775160	WORD_OFF	n/a	n/a	NAIL	8	21	[0, 0, 0]	n/a	FR1	2	R1145J
2388.271	1.618	2776142	WORD	n/a	wordpools/wordpool_EN.txt	BOY	9	21	[0, 0, 0]	n/a	FR1	2	R1145J
2389.889	0.866	2777760	WORD_OFF	n/a	n/a	BOY	9	21	[0, 0, 0]	n/a	FR1	2	R1145J
2390.755	1.617	2778626	WORD	n/a	wordpools/wordpool_EN.txt	STOOL	10	21	[0, 0, 0]	n/a	FR1	2	R1145J
2392.372	0.883	2780243	WORD_OFF	n/a	n/a	STOOL	10	21	[0, 0, 0]	n/a	FR1	2	R1145J
2393.255	1.601	2781126	WORD	n/a	wordpools/wordpool_EN.txt	HAND	11	21	[0, 0, 0]	n/a	FR1	2	R1145J
2394.856	0.784	2782727	WORD_OFF	n/a	n/a	HAND	11	21	[0, 0, 0]	n/a	FR1	2	R1145J
2395.64	1.616	2783511	WORD	n/a	wordpools/wordpool_EN.txt	ELF	12	21	[0, 0, 0]	n/a	FR1	2	R1145J
2397.256	0.0	2785127	WORD_OFF	n/a	n/a	ELF	12	21	[0, 0, 0]	n/a	FR1	2	R1145J
2397.256	0.0	2785127	DISTRACT_START	n/a	n/a	n/a	-999	21	[0, 0, 0]	n/a	FR1	2	R1145J
2397.256	0.016	2785127	START	n/a	n/a	n/a	-999	21	[-999, -999, -999]	n/a	FR1	2	R1145J
2397.272	5.335	2785143	PROB	5.335	n/a	n/a	-999	21	[6, 1, 7]	14	FR1	2	R1145J
2402.607	5.583	2790478	PROB	5.583	n/a	n/a	-999	21	[3, 5, 1]	9	FR1	2	R1145J
2408.19	9.953	2796061	PROB	9.953	n/a	n/a	-999	21	[2, 5, 9]	16	FR1	2	R1145J
2418.143	0.015	2806014	STOP	n/a	n/a	n/a	-999	21	[-999, -999, -999]	n/a	FR1	2	R1145J
2418.158	0.701	2806029	DISTRACT_END	n/a	n/a	n/a	-999	21	[0, 0, 0]	n/a	FR1	2	R1145J
2418.859	0.519	2806730	RETRIEVAL_ORIENT	n/a	n/a	n/a	-999	21	[0, 0, 0]	n/a	FR1	2	R1145J
2419.378	20.306	2807249	REC_START	n/a	n/a	n/a	-999	21	[0, 0, 0]	n/a	FR1	2	R1145J
2439.684	0.896	2827555	REC_WORD_VV	0.896	n/a	<>	-999	21	[0, 0, 0]	n/a	FR1	2	R1145J
2440.58	2.29	2828451	REC_WORD_VV	2.29	n/a	<>	-999	21	[0, 0, 0]	n/a	FR1	2	R1145J
2442.87	6.519	2830741	REC_WORD_VV	6.519	n/a	<>	-999	21	[0, 0, 0]	n/a	FR1	2	R1145J
2449.389	12.442	2837260	REC_END	n/a	n/a	n/a	-999	21	[0, 0, 0]	n/a	FR1	2	R1145J
2461.831	0.5	2849702	TRIAL	n/a	n/a	n/a	-999	22	[0, 0, 0]	n/a	FR1	2	R1145J
2462.331	10.428	2850202	COUNTDOWN_START	n/a	n/a	n/a	-999	22	[0, 0, 0]	n/a	FR1	2	R1145J
2472.759	0.007	2860630	COUNTDOWN_END	n/a	n/a	n/a	-999	22	[0, 0, 0]	n/a	FR1	2	R1145J
2472.766	1.617	2860637	ORIENT	n/a	n/a	n/a	-999	22	[0, 0, 0]	n/a	FR1	2	R1145J
2474.383	2.067	2862254	ORIENT_OFF	n/a	n/a	n/a	-999	22	[0, 0, 0]	n/a	FR1	2	R1145J
2476.45	1.615	2864321	WORD	n/a	wordpools/wordpool_EN.txt	MOUSE	1	22	[0, 0, 0]	n/a	FR1	2	R1145J
2478.065	0.984	2865936	WORD_OFF	n/a	n/a	MOUSE	1	22	[0, 0, 0]	n/a	FR1	2	R1145J
2479.049	1.618	2866919	WORD	n/a	wordpools/wordpool_EN.txt	ROCK	2	22	[0, 0, 0]	n/a	FR1	2	R1145J
2480.667	0.983	2868537	WORD_OFF	n/a	n/a	ROCK	2	22	[0, 0, 0]	n/a	FR1	2	R1145J
2481.65	1.616	2869520	WORD	n/a	wordpools/wordpool_EN.txt	JUICE	3	22	[0, 0, 0]	n/a	FR1	2	R1145J
2483.266	0.934	2871136	WORD_OFF	n/a	n/a	JUICE	3	22	[0, 0, 0]	n/a	FR1	2	R1145J
2484.2	1.618	2872070	WORD	n/a	wordpools/wordpool_EN.txt	SHEEP	4	22	[0, 0, 0]	n/a	FR1	2	R1145J
2485.818	1.017	2873688	WORD_OFF	n/a	n/a	SHEEP	4	22	[0, 0, 0]	n/a	FR1	2	R1145J
2486.835	1.616	2874705	WORD	n/a	wordpools/wordpool_EN.txt	ROOT	5	22	[0, 0, 0]	n/a	FR1	2	R1145J
2488.451	0.967	2876321	WORD_OFF	n/a	n/a	ROOT	5	22	[0, 0, 0]	n/a	FR1	2	R1145J
2489.418	1.616	2877288	WORD	n/a	wordpools/wordpool_EN.txt	MILK	6	22	[0, 0, 0]	n/a	FR1	2	R1145J
2491.034	1.017	2878904	WORD_OFF	n/a	n/a	MILK	6	22	[0, 0, 0]	n/a	FR1	2	R1145J
2492.051	1.618	2879921	WORD	n/a	wordpools/wordpool_EN.txt	CUBE	7	22	[0, 0, 0]	n/a	FR1	2	R1145J
2493.669	0.917	2881539	WORD_OFF	n/a	n/a	CUBE	7	22	[0, 0, 0]	n/a	FR1	2	R1145J
2494.586	1.615	2882456	WORD	n/a	wordpools/wordpool_EN.txt	WORM	8	22	[0, 0, 0]	n/a	FR1	2	R1145J
2496.201	0.884	2884071	WORD_OFF	n/a	n/a	WORM	8	22	[0, 0, 0]	n/a	FR1	2	R1145J
2497.085	1.617	2884955	WORD	n/a	wordpools/wordpool_EN.txt	BRANCH	9	22	[0, 0, 0]	n/a	FR1	2	R1145J
2498.702	0.9	2886572	WORD_OFF	n/a	n/a	BRANCH	9	22	[0, 0, 0]	n/a	FR1	2	R1145J
2499.602	1.617	2887472	WORD	n/a	wordpools/wordpool_EN.txt	NOSE	10	22	[0, 0, 0]	n/a	FR1	2	R1145J
2501.219	0.983	2889089	WORD_OFF	n/a	n/a	NOSE	10	22	[0, 0, 0]	n/a	FR1	2	R1145J
2502.202	1.601	2890072	WORD	n/a	wordpools/wordpool_EN.txt	CAVE	11	22	[0, 0, 0]	n/a	FR1	2	R1145J
2503.803	0.867	2891673	WORD_OFF	n/a	n/a	CAVE	11	22	[0, 0, 0]	n/a	FR1	2	R1145J
2504.67	1.617	2892540	WORD	n/a	wordpools/wordpool_EN.txt	LEAF	12	22	[0, 0, 0]	n/a	FR1	2	R1145J
2506.287	0.0	2894157	WORD_OFF	n/a	n/a	LEAF	12	22	[0, 0, 0]	n/a	FR1	2	R1145J
2506.287	0.001	2894157	DISTRACT_START	n/a	n/a	n/a	-999	22	[0, 0, 0]	n/a	FR1	2	R1145J
2506.288	0.016	2894158	START	n/a	n/a	n/a	-999	22	[-999, -999, -999]	n/a	FR1	2	R1145J
2506.304	5.117	2894174	PROB	5.117	n/a	n/a	-999	22	[2, 3, 6]	11	FR1	2	R1145J
2511.421	8.901	2899291	PROB	8.901	n/a	n/a	-999	22	[8, 9, 3]	20	FR1	2	R1145J
2520.322	6.41	2908192	PROB	6.41	n/a	n/a	-999	22	[1, 9, 5]	15	FR1	2	R1145J
2526.732	0.008	2914602	STOP	n/a	n/a	n/a	-999	22	[-999, -999, -999]	n/a	FR1	2	R1145J
2526.74	0.667	2914610	DISTRACT_END	n/a	n/a	n/a	-999	22	[0, 0, 0]	n/a	FR1	2	R1145J
2527.407	0.517	2915277	RETRIEVAL_ORIENT	n/a	n/a	n/a	-999	22	[0, 0, 0]	n/a	FR1	2	R1145J
2527.924	1.965	2915794	REC_START	n/a	n/a	n/a	-999	22	[0, 0, 0]	n/a	FR1	2	R1145J
2529.889	3.188	2917759	REC_WORD	3.188	n/a	LEAF	12	22	[0, 0, 0]	n/a	FR1	2	R1145J
2533.077	1.691	2920947	REC_WORD	1.691	n/a	CAVE	11	22	[0, 0, 0]	n/a	FR1	2	R1145J
2534.768	0.512	2922638	REC_WORD_VV	0.512	n/a	<>	-999	22	[0, 0, 0]	n/a	FR1	2	R1145J
2535.28	2.43	2923150	REC_WORD_VV	2.43	n/a	<>	-999	22	[0, 0, 0]	n/a	FR1	2	R1145J
2537.71	9.411	2925580	REC_WORD_VV	9.411	n/a	<>	-999	22	[0, 0, 0]	n/a	FR1	2	R1145J
2547.121	10.814	2934991	REC_WORD_VV	10.814	n/a	<>	-999	22	[0, 0, 0]	n/a	FR1	2	R1145J
2557.935	8.259	2945805	REC_END	n/a	n/a	n/a	-999	22	[0, 0, 0]	n/a	FR1	2	R1145J
2566.194	0.5	2954064	TRIAL	n/a	n/a	n/a	-999	23	[0, 0, 0]	n/a	FR1	2	R1145J
2566.694	10.428	2954564	COUNTDOWN_START	n/a	n/a	n/a	-999	23	[0, 0, 0]	n/a	FR1	2	R1145J
2577.122	0.007	2964992	COUNTDOWN_END	n/a	n/a	n/a	-999	23	[0, 0, 0]	n/a	FR1	2	R1145J
2577.129	1.617	2964999	ORIENT	n/a	n/a	n/a	-999	23	[0, 0, 0]	n/a	FR1	2	R1145J
2578.746	2.266	2966616	ORIENT_OFF	n/a	n/a	n/a	-999	23	[0, 0, 0]	n/a	FR1	2	R1145J
2581.012	1.618	2968882	WORD	n/a	wordpools/wordpool_EN.txt	SQUARE	1	23	[0, 0, 0]	n/a	FR1	2	R1145J
2582.63	0.917	2970500	WORD_OFF	n/a	n/a	SQUARE	1	23	[0, 0, 0]	n/a	FR1	2	R1145J
2583.547	1.616	2971417	WORD	n/a	wordpools/wordpool_EN.txt	HORN	2	23	[0, 0, 0]	n/a	FR1	2	R1145J
2585.163	0.834	2973033	WORD_OFF	n/a	n/a	HORN	2	23	[0, 0, 0]	n/a	FR1	2	R1145J
2585.997	1.617	2973867	WORD	n/a	wordpools/wordpool_EN.txt	CHEEK	3	23	[0, 0, 0]	n/a	FR1	2	R1145J
2587.614	0.983	2975484	WORD_OFF	n/a	n/a	CHEEK	3	23	[0, 0, 0]	n/a	FR1	2	R1145J
2588.597	1.616	2976467	WORD	n/a	wordpools/wordpool_EN.txt	CANE	4	23	[0, 0, 0]	n/a	FR1	2	R1145J
2590.213	0.817	2978083	WORD_OFF	n/a	n/a	CANE	4	23	[0, 0, 0]	n/a	FR1	2	R1145J
2591.03	1.618	2978899	WORD	n/a	wordpools/wordpool_EN.txt	DRUM	5	23	[0, 0, 0]	n/a	FR1	2	R1145J
2592.648	0.85	2980517	WORD_OFF	n/a	n/a	DRUM	5	23	[0, 0, 0]	n/a	FR1	2	R1145J
2593.498	1.616	2981367	WORD	n/a	wordpools/wordpool_EN.txt	ARM	6	23	[0, 0, 0]	n/a	FR1	2	R1145J
2595.114	0.984	2982983	WORD_OFF	n/a	n/a	ARM	6	23	[0, 0, 0]	n/a	FR1	2	R1145J
2596.098	1.617	2983967	WORD	n/a	wordpools/wordpool_EN.txt	THUMB	7	23	[0, 0, 0]	n/a	FR1	2	R1145J
2597.715	1.0	2985584	WORD_OFF	n/a	n/a	THUMB	7	23	[0, 0, 0]	n/a	FR1	2	R1145J
2598.715	1.617	2986584	WORD	n/a	wordpools/wordpool_EN.txt	ARK	8	23	[0, 0, 0]	n/a	FR1	2	R1145J
2600.332	0.783	2988201	WORD_OFF	n/a	n/a	ARK	8	23	[0, 0, 0]	n/a	FR1	2	R1145J
2601.115	1.618	2988984	WORD	n/a	wordpools/wordpool_EN.txt	SKI	9	23	[0, 0, 0]	n/a	FR1	2	R1145J
2602.733	0.766	2990602	WORD_OFF	n/a	n/a	SKI	9	23	[0, 0, 0]	n/a	FR1	2	R1145J
2603.499	1.616	2991368	WORD	n/a	wordpools/wordpool_EN.txt	VAN	10	23	[0, 0, 0]	n/a	FR1	2	R1145J
2605.115	0.984	2992984	WORD_OFF	n/a	n/a	VAN	10	23	[0, 0, 0]	n/a	FR1	2	R1145J
2606.099	1.617	2993968	WORD	n/a	wordpools/wordpool_EN.txt	ROAD	11	23	[0, 0, 0]	n/a	FR1	2	R1145J
2607.716	0.967	2995585	WORD_OFF	n/a	n/a	ROAD	11	23	[0, 0, 0]	n/a	FR1	2	R1145J
2608.683	1.617	2996552	WORD	n/a	wordpools/wordpool_EN.txt	BAND	12	23	[0, 0, 0]	n/a	FR1	2	R1145J
2610.3	0.0	2998169	WORD_OFF	n/a	n/a	BAND	12	23	[0, 0, 0]	n/a	FR1	2	R1145J
2610.3	0.001	2998169	DISTRACT_START	n/a	n/a	n/a	-999	23	[0, 0, 0]	n/a	FR1	2	R1145J
2610.301	0.016	2998170	START	n/a	n/a	n/a	-999	23	[-999, -999, -999]	n/a	FR1	2	R1145J
2610.317	7.284	2998186	PROB	7.284	n/a	n/a	-999	23	[9, 1, 2]	12	FR1	2	R1145J
2617.601	4.717	3005470	PROB	4.717	n/a	n/a	-999	23	[8, 2, 7]	17	FR1	2	R1145J
2622.318	6.201	3010187	PROB	6.201	n/a	n/a	-999	23	[2, 7, 7]	16	FR1	2	R1145J
2628.519	5.392	3016388	PROB	5.392	n/a	n/a	-999	23	[1, 1, 8]	10	FR1	2	R1145J
2633.911	0.009	3021780	STOP	n/a	n/a	n/a	-999	23	[-999, -999, -999]	n/a	FR1	2	R1145J
2633.92	0.567	3021789	DISTRACT_END	n/a	n/a	n/a	-999	23	[0, 0, 0]	n/a	FR1	2	R1145J
2634.487	0.517	3022356	RETRIEVAL_ORIENT	n/a	n/a	n/a	-999	23	[0, 0, 0]	n/a	FR1	2	R1145J
2635.004	2.372	3022873	REC_START	n/a	n/a	n/a	-999	23	[0, 0, 0]	n/a	FR1	2	R1145J
2637.376	0.899	3025245	REC_WORD	0.899	n/a	ARM	6	23	[0, 0, 0]	n/a	FR1	2	R1145J
2638.275	2.574	3026144	REC_WORD	2.574	n/a	HAND	-999	23	[0, 0, 0]	n/a	FR1	2	R1145J
2640.849	1.104	3028718	REC_WORD	1.104	n/a	ARK	8	23	[0, 0, 0]	n/a	FR1	2	R1145J
2641.953	6.236	3029822	REC_WORD	6.236	n/a	BAND	12	23	[0, 0, 0]	n/a	FR1	2	R1145J
2648.189	12.435	3036058	REC_WORD_VV	12.435	n/a	<>	-999	23	[0, 0, 0]	n/a	FR1	2	R1145J
2660.624	4.392	3048493	REC_WORD	4.392	n/a	CHEEK	3	23	[0, 0, 0]	n/a	FR1	2	R1145J
2665.016	9.876	3052885	REC_END	n/a	n/a	n/a	-999	23	[0, 0, 0]	n/a	FR1	2	R1145J
2674.892	0.5	3062761	TRIAL	n/a	n/a	n/a	-999	24	[0, 0, 0]	n/a	FR1	2	R1145J
2675.392	10.428	3063261	COUNTDOWN_START	n/a	n/a	n/a	-999	24	[0, 0, 0]	n/a	FR1	2	R1145J
2685.82	0.007	3073689	COUNTDOWN_END	n/a	n/a	n/a	-999	24	[0, 0, 0]	n/a	FR1	2	R1145J
2685.827	1.617	3073696	ORIENT	n/a	n/a	n/a	-999	24	[0, 0, 0]	n/a	FR1	2	R1145J
2687.444	2.183	3075313	ORIENT_OFF	n/a	n/a	n/a	-999	24	[0, 0, 0]	n/a	FR1	2	R1145J
2689.627	1.616	3077496	WORD	n/a	wordpools/wordpool_EN.txt	TIE	1	24	[0, 0, 0]	n/a	FR1	2	R1145J
2691.243	0.768	3079112	WORD_OFF	n/a	n/a	TIE	1	24	[0, 0, 0]	n/a	FR1	2	R1145J
2692.011	1.617	3079880	WORD	n/a	wordpools/wordpool_EN.txt	BOWL	2	24	[0, 0, 0]	n/a	FR1	2	R1145J
2693.628	0.983	3081497	WORD_OFF	n/a	n/a	BOWL	2	24	[0, 0, 0]	n/a	FR1	2	R1145J
2694.611	1.616	3082480	WORD	n/a	wordpools/wordpool_EN.txt	STORM	3	24	[0, 0, 0]	n/a	FR1	2	R1145J
2696.227	0.785	3084096	WORD_OFF	n/a	n/a	STORM	3	24	[0, 0, 0]	n/a	FR1	2	R1145J
2697.012	1.616	3084881	WORD	n/a	wordpools/wordpool_EN.txt	JAR	4	24	[0, 0, 0]	n/a	FR1	2	R1145J
2698.628	0.917	3086497	WORD_OFF	n/a	n/a	JAR	4	24	[0, 0, 0]	n/a	FR1	2	R1145J
2699.545	1.616	3087414	WORD	n/a	wordpools/wordpool_EN.txt	PIPE	5	24	[0, 0, 0]	n/a	FR1	2	R1145J
2701.161	0.917	3089030	WORD_OFF	n/a	n/a	PIPE	5	24	[0, 0, 0]	n/a	FR1	2	R1145J
2702.078	1.618	3089947	WORD	n/a	wordpools/wordpool_EN.txt	STAIR	6	24	[0, 0, 0]	n/a	FR1	2	R1145J
2703.696	0.85	3091564	WORD_OFF	n/a	n/a	STAIR	6	24	[0, 0, 0]	n/a	FR1	2	R1145J
2704.546	1.616	3092414	WORD	n/a	wordpools/wordpool_EN.txt	DITCH	7	24	[0, 0, 0]	n/a	FR1	2	R1145J
2706.162	1.017	3094030	WORD_OFF	n/a	n/a	DITCH	7	24	[0, 0, 0]	n/a	FR1	2	R1145J
2707.179	1.617	3095047	WORD	n/a	wordpools/wordpool_EN.txt	AXE	8	24	[0, 0, 0]	n/a	FR1	2	R1145J
2708.796	0.884	3096664	WORD_OFF	n/a	n/a	AXE	8	24	[0, 0, 0]	n/a	FR1	2	R1145J
2709.68	1.616	3097548	WORD	n/a	wordpools/wordpool_EN.txt	HOLE	9	24	[0, 0, 0]	n/a	FR1	2	R1145J
2711.296	0.783	3099164	WORD_OFF	n/a	n/a	HOLE	9	24	[0, 0, 0]	n/a	FR1	2	R1145J
2712.079	1.601	3099947	WORD	n/a	wordpools/wordpool_EN.txt	ROOF	10	24	[0, 0, 0]	n/a	FR1	2	R1145J
2713.68	0.784	3101548	WORD_OFF	n/a	n/a	ROOF	10	24	[0, 0, 0]	n/a	FR1	2	R1145J
2714.464	1.616	3102332	WORD	n/a	wordpools/wordpool_EN.txt	WHALE	11	24	[0, 0, 0]	n/a	FR1	2	R1145J
2716.08	0.983	3103948	WORD_OFF	n/a	n/a	WHALE	11	24	[0, 0, 0]	n/a	FR1	2	R1145J
2717.063	1.601	3104931	WORD	n/a	wordpools/wordpool_EN.txt	PEACH	12	24	[0, 0, 0]	n/a	FR1	2	R1145J
2718.664	0.0	3106532	WORD_OFF	n/a	n/a	PEACH	12	24	[0, 0, 0]	n/a	FR1	2	R1145J
2718.664	0.001	3106532	DISTRACT_START	n/a	n/a	n/a	-999	24	[0, 0, 0]	n/a	FR1	2	R1145J
2718.665	0.016	3106533	START	n/a	n/a	n/a	-999	24	[-999, -999, -999]	n/a	FR1	2	R1145J
2718.681	6.184	3106549	PROB	6.184	n/a	n/a	-999	24	[1, 1, 3]	5	FR1	2	R1145J
2724.865	4.684	3112733	PROB	4.684	n/a	n/a	-999	24	[4, 4, 2]	10	FR1	2	R1145J
2729.549	4.951	3117417	PROB	4.951	n/a	n/a	-999	24	[9, 4, 2]	15	FR1	2	R1145J
2734.5	5.936	3122368	PROB	5.936	n/a	n/a	-999	24	[9, 6, 7]	22	FR1	2	R1145J
2740.436	0.014	3128304	STOP	n/a	n/a	n/a	-999	24	[-999, -999, -999]	n/a	FR1	2	R1145J
2740.45	0.649	3128318	DISTRACT_END	n/a	n/a	n/a	-999	24	[0, 0, 0]	n/a	FR1	2	R1145J
2741.099	0.519	3128967	RETRIEVAL_ORIENT	n/a	n/a	n/a	-999	24	[0, 0, 0]	n/a	FR1	2	R1145J
2741.618	1.792	3129486	REC_START	n/a	n/a	n/a	-999	24	[0, 0, 0]	n/a	FR1	2	R1145J
2743.41	1.302	3131278	REC_WORD	1.302	n/a	WHALE	11	24	[0, 0, 0]	n/a	FR1	2	R1145J
2744.712	3.201	3132580	REC_WORD	3.201	n/a	AXE	8	24	[0, 0, 0]	n/a	FR1	2	R1145J
2747.913	6.97	3135781	REC_WORD	6.97	n/a	ITCH	-999	24	[0, 0, 0]	n/a	FR1	2	R1145J
2754.883	3.046	3142751	REC_WORD	3.046	n/a	PICK	-999	24	[0, 0, 0]	n/a	FR1	2	R1145J
2757.929	7.124	3145797	REC_WORD_VV	7.124	n/a	<>	-999	24	[0, 0, 0]	n/a	FR1	2	R1145J
2765.053	6.577	3152921	REC_WORD_VV	6.577	n/a	<>	-999	24	[0, 0, 0]	n/a	FR1	2	R1145J
2771.63	5.175	3159498	REC_END	n/a	n/a	n/a	-999	24	[0, 0, 0]	n/a	FR1	2	R1145J
2776.805	0.5	3164673	TRIAL	n/a	n/a	n/a	-999	25	[0, 0, 0]	n/a	FR1	2	R1145J
2777.305	10.428	3165173	COUNTDOWN_START	n/a	n/a	n/a	-999	25	[0, 0, 0]	n/a	FR1	2	R1145J
2787.733	0.006	3175601	COUNTDOWN_END	n/a	n/a	n/a	-999	25	[0, 0, 0]	n/a	FR1	2	R1145J
2787.739	1.617	3175607	ORIENT	n/a	n/a	n/a	-999	25	[0, 0, 0]	n/a	FR1	2	R1145J
2789.356	2.018	3177224	ORIENT_OFF	n/a	n/a	n/a	-999	25	[0, 0, 0]	n/a	FR1	2	R1145J
2791.374	1.616	3179242	WORD	n/a	wordpools/wordpool_EN.txt	TREE	1	25	[0, 0, 0]	n/a	FR1	2	R1145J
2792.99	0.917	3180858	WORD_OFF	n/a	n/a	TREE	1	25	[0, 0, 0]	n/a	FR1	2	R1145J
2793.907	1.617	3181775	WORD	n/a	wordpools/wordpool_EN.txt	TOE	2	25	[0, 0, 0]	n/a	FR1	2	R1145J
2795.524	0.767	3183392	WORD_OFF	n/a	n/a	TOE	2	25	[0, 0, 0]	n/a	FR1	2	R1145J
2796.291	1.616	3184159	WORD	n/a	wordpools/wordpool_EN.txt	CAGE	3	25	[0, 0, 0]	n/a	FR1	2	R1145J
2797.907	0.767	3185775	WORD_OFF	n/a	n/a	CAGE	3	25	[0, 0, 0]	n/a	FR1	2	R1145J
2798.674	1.617	3186542	WORD	n/a	wordpools/wordpool_EN.txt	POND	4	25	[0, 0, 0]	n/a	FR1	2	R1145J
2800.291	0.866	3188159	WORD_OFF	n/a	n/a	POND	4	25	[0, 0, 0]	n/a	FR1	2	R1145J
2801.157	1.618	3189025	WORD	n/a	wordpools/wordpool_EN.txt	STRAW	5	25	[0, 0, 0]	n/a	FR1	2	R1145J
2802.775	0.783	3190643	WORD_OFF	n/a	n/a	STRAW	5	25	[0, 0, 0]	n/a	FR1	2	R1145J
2803.558	1.616	3191426	WORD	n/a	wordpools/wordpool_EN.txt	GEESE	6	25	[0, 0, 0]	n/a	FR1	2	R1145J
2805.174	0.835	3193042	WORD_OFF	n/a	n/a	GEESE	6	25	[0, 0, 0]	n/a	FR1	2	R1145J
2806.009	1.616	3193877	WORD	n/a	wordpools/wordpool_EN.txt	TAIL	7	25	[0, 0, 0]	n/a	FR1	2	R1145J
2807.625	0.984	3195493	WORD_OFF	n/a	n/a	TAIL	7	25	[0, 0, 0]	n/a	FR1	2	R1145J
2808.609	1.616	3196477	WORD	n/a	wordpools/wordpool_EN.txt	BUSH	8	25	[0, 0, 0]	n/a	FR1	2	R1145J
2810.225	0.967	3198093	WORD_OFF	n/a	n/a	BUSH	8	25	[0, 0, 0]	n/a	FR1	2	R1145J
2811.192	1.618	3199060	WORD	n/a	wordpools/wordpool_EN.txt	SLUSH	9	25	[0, 0, 0]	n/a	FR1	2	R1145J
2812.81	0.883	3200678	WORD_OFF	n/a	n/a	SLUSH	9	25	[0, 0, 0]	n/a	FR1	2	R1145J
2813.693	1.617	3201561	WORD	n/a	wordpools/wordpool_EN.txt	NEST	10	25	[0, 0, 0]	n/a	FR1	2	R1145J
2815.31	0.816	3203178	WORD_OFF	n/a	n/a	NEST	10	25	[0, 0, 0]	n/a	FR1	2	R1145J
2816.126	1.617	3203993	WORD	n/a	wordpools/wordpool_EN.txt	WING	11	25	[0, 0, 0]	n/a	FR1	2	R1145J
2817.743	0.95	3205610	WORD_OFF	n/a	n/a	WING	11	25	[0, 0, 0]	n/a	FR1	2	R1145J
2818.693	1.617	3206560	WORD	n/a	wordpools/wordpool_EN.txt	HAWK	12	25	[0, 0, 0]	n/a	FR1	2	R1145J
2820.31	0.0	3208177	WORD_OFF	n/a	n/a	HAWK	12	25	[0, 0, 0]	n/a	FR1	2	R1145J
2820.31	0.001	3208177	DISTRACT_START	n/a	n/a	n/a	-999	25	[0, 0, 0]	n/a	FR1	2	R1145J
2820.311	0.016	3208178	START	n/a	n/a	n/a	-999	25	[-999, -999, -999]	n/a	FR1	2	R1145J
2820.327	7.134	3208194	PROB	7.134	n/a	n/a	-999	25	[1, 2, 3]	6	FR1	2	R1145J
2827.461	9.784	3215328	PROB	9.784	n/a	n/a	-999	25	[1, 1, 9]	11	FR1	2	R1145J
2837.245	6.026	3225112	PROB	6.026	n/a	n/a	-999	25	[4, 8, 4]	16	FR1	2	R1145J
2843.271	0.008	3231138	STOP	n/a	n/a	n/a	-999	25	[-999, -999, -999]	n/a	FR1	2	R1145J
2843.279	0.668	3231146	DISTRACT_END	n/a	n/a	n/a	-999	25	[0, 0, 0]	n/a	FR1	2	R1145J
2843.947	0.518	3231814	RETRIEVAL_ORIENT	n/a	n/a	n/a	-999	25	[0, 0, 0]	n/a	FR1	2	R1145J
2844.465	2.146	3232332	REC_START	n/a	n/a	n/a	-999	25	[0, 0, 0]	n/a	FR1	2	R1145J
2846.611	1.445	3234478	REC_WORD	1.445	n/a	TREE	1	25	[0, 0, 0]	n/a	FR1	2	R1145J
2848.056	0.845	3235923	REC_WORD	0.845	n/a	TOE	2	25	[0, 0, 0]	n/a	FR1	2	R1145J
2848.901	0.799	3236768	REC_WORD	0.799	n/a	CAGE	3	25	[0, 0, 0]	n/a	FR1	2	R1145J
2849.7	2.102	3237567	REC_WORD	2.102	n/a	POND	4	25	[0, 0, 0]	n/a	FR1	2	R1145J
2851.802	0.504	3239669	REC_WORD	0.504	n/a	TREE	1	25	[0, 0, 0]	n/a	FR1	2	R1145J
2852.306	0.373	3240173	REC_WORD	0.373	n/a	TOE	2	25	[0, 0, 0]	n/a	FR1	2	R1145J
2852.679	0.759	3240546	REC_WORD	0.759	n/a	CAGE	3	25	[0, 0, 0]	n/a	FR1	2	R1145J
2853.438	3.788	3241305	REC_WORD	3.788	n/a	POND	4	25	[0, 0, 0]	n/a	FR1	2	R1145J
2857.226	2.327	3245093	REC_WORD_VV	2.327	n/a	<>	-999	25	[0, 0, 0]	n/a	FR1	2	R1145J
2859.553	14.925	3247420	REC_WORD	14.925	n/a	DUCK	-999	25	[0, 0, 0]	n/a	FR1	2	R1145J
2874.478	0.0	3262345	REC_END	n/a	n/a	n/a	-999	25	[0, 0, 0]	n/a	FR1	2	R1145J
