onset	duration	sample	trial_type	response_time	stim_file	item_name	serialpos	list	test	answer	experiment	session	subject
0.0	20.969	8704	SESS_START	n/a	n/a	n/a	-999	-999	[0, 0, 0]	n/a	FR1	1	R1124J
20.969	10.428	29673	COUNTDOWN_START	n/a	n/a	n/a	-999	-999	[0, 0, 0]	n/a	FR1	1	R1124J
31.397	0.009	40101	COUNTDOWN_END	n/a	n/a	n/a	-999	-999	[0, 0, 0]	n/a	FR1	1	R1124J
31.406	3.633	40110	PRACTICE_ORIENT	n/a	n/a	n/a	-999	-999	[0, 0, 0]	n/a	FR1	1	R1124J
35.039	2.401	43743	PRACTICE_WORD	n/a	n/a	ATTIC	1	-1	[0, 0, 0]	n/a	FR1	1	R1124J
37.44	2.583	46144	PRACTICE_WORD	n/a	n/a	IRON	2	-1	[0, 0, 0]	n/a	FR1	1	R1124J
40.023	2.484	48727	PRACTICE_WORD	n/a	n/a	TONGUE	3	-1	[0, 0, 0]	n/a	FR1	1	R1124J
42.507	2.55	51211	PRACTICE_WORD	n/a	n/a	RING	4	-1	[0, 0, 0]	n/a	FR1	1	R1124J
45.057	2.534	53761	PRACTICE_WORD	n/a	n/a	WATCH	5	-1	[0, 0, 0]	n/a	FR1	1	R1124J
47.591	2.617	56295	PRACTICE_WORD	n/a	n/a	CHEST	6	-1	[0, 0, 0]	n/a	FR1	1	R1124J
50.208	2.566	58912	PRACTICE_WORD	n/a	n/a	WAGON	7	-1	[0, 0, 0]	n/a	FR1	1	R1124J
52.774	2.384	61478	PRACTICE_WORD	n/a	n/a	COTTON	8	-1	[0, 0, 0]	n/a	FR1	1	R1124J
55.158	2.418	63862	PRACTICE_WORD	n/a	n/a	RHINO	9	-1	[0, 0, 0]	n/a	FR1	1	R1124J
57.576	2.415	66280	PRACTICE_WORD	n/a	n/a	BEAM	10	-1	[0, 0, 0]	n/a	FR1	1	R1124J
59.991	2.369	68695	PRACTICE_WORD	n/a	n/a	CAMEL	11	-1	[0, 0, 0]	n/a	FR1	1	R1124J
62.36	1.616	71064	PRACTICE_WORD	n/a	n/a	FLOOD	12	-1	[0, 0, 0]	n/a	FR1	1	R1124J
63.976	0.0	72680	PRACTICE_DISTRACT_START	n/a	n/a	n/a	-999	-1	[0, 0, 0]	n/a	FR1	1	R1124J
63.976	0.016	72680	START	n/a	n/a	n/a	-999	-1	[-999, -999, -999]	n/a	FR1	1	R1124J
63.992	8.202	72696	PROB	8.202	n/a	n/a	-999	-1	[5, 5, 6]	16	FR1	1	R1124J
72.194	5.884	80897	PROB	5.884	n/a	n/a	-999	-1	[8, 1, 7]	16	FR1	1	R1124J
78.078	16.987	86781	PROB	16.987	n/a	n/a	-999	-1	[9, 8, 8]	25	FR1	1	R1124J
95.065	0.599	103768	STOP	n/a	n/a	n/a	-999	-1	[-999, -999, -999]	n/a	FR1	1	R1124J
95.664	30.517	104367	PRACTICE_REC_START	n/a	n/a	n/a	-999	-1	[0, 0, 0]	n/a	FR1	1	R1124J
126.181	12.82	134884	PRACTICE_REC_END	n/a	n/a	n/a	-999	-1	[0, 0, 0]	n/a	FR1	1	R1124J
139.001	0.0	147703	COUNTDOWN_START	n/a	n/a	n/a	-999	1	[0, 0, 0]	n/a	FR1	1	R1124J
139.001	10.428	147703	TRIAL	n/a	n/a	n/a	-999	1	[0, 0, 0]	n/a	FR1	1	R1124J
149.429	0.008	158131	COUNTDOWN_END	n/a	n/a	n/a	-999	1	[0, 0, 0]	n/a	FR1	1	R1124J
149.437	3.601	158139	ORIENT	n/a	n/a	n/a	-999	1	[0, 0, 0]	n/a	FR1	1	R1124J
153.038	2.4	161740	WORD	n/a	wordpools/wordpool_EN.txt	GOAT	1	1	[0, 0, 0]	n/a	FR1	1	R1124J
155.438	2.383	164140	WORD	n/a	wordpools/wordpool_EN.txt	DESK	2	1	[0, 0, 0]	n/a	FR1	1	R1124J
157.821	2.518	166523	WORD	n/a	wordpools/wordpool_EN.txt	STEAM	3	1	[0, 0, 0]	n/a	FR1	1	R1124J
160.339	2.566	169041	WORD	n/a	wordpools/wordpool_EN.txt	SPEAR	4	1	[0, 0, 0]	n/a	FR1	1	R1124J
162.905	2.551	171607	WORD	n/a	wordpools/wordpool_EN.txt	FACE	5	1	[0, 0, 0]	n/a	FR1	1	R1124J
165.456	2.549	174158	WORD	n/a	wordpools/wordpool_EN.txt	SEAT	6	1	[0, 0, 0]	n/a	FR1	1	R1124J
168.005	2.518	176707	WORD	n/a	wordpools/wordpool_EN.txt	ARK	7	1	[0, 0, 0]	n/a	FR1	1	R1124J
170.523	2.501	179225	WORD	n/a	wordpools/wordpool_EN.txt	LAMB	8	1	[0, 0, 0]	n/a	FR1	1	R1124J
173.024	2.4	181726	WORD	n/a	wordpools/wordpool_EN.txt	SWORD	9	1	[0, 0, 0]	n/a	FR1	1	R1124J
175.424	2.617	184126	WORD	n/a	wordpools/wordpool_EN.txt	LAMP	10	1	[0, 0, 0]	n/a	FR1	1	R1124J
178.041	2.484	186743	WORD	n/a	wordpools/wordpool_EN.txt	SHIELD	11	1	[0, 0, 0]	n/a	FR1	1	R1124J
180.525	1.617	189227	WORD	n/a	wordpools/wordpool_EN.txt	LIP	12	1	[0, 0, 0]	n/a	FR1	1	R1124J
182.142	0.0	190844	DISTRACT_START	n/a	n/a	n/a	-999	1	[0, 0, 0]	n/a	FR1	1	R1124J
182.142	0.016	190844	START	n/a	n/a	n/a	-999	1	[-999, -999, -999]	n/a	FR1	1	R1124J
182.158	9.8	190860	PROB	9.8	n/a	n/a	-999	1	[5, 7, 4]	16	FR1	1	R1124J
191.958	9.503	200660	PROB	9.503	n/a	n/a	-999	1	[9, 6, 6]	21	FR1	1	R1124J
201.461	6.478	210163	PROB	6.478	n/a	n/a	-999	1	[8, 8, 3]	19	FR1	1	R1124J
207.939	0.005	216640	STOP	n/a	n/a	n/a	-999	1	[-999, -999, -999]	n/a	FR1	1	R1124J
207.944	1.038	216645	DISTRACT_END	n/a	n/a	n/a	-999	1	[0, 0, 0]	n/a	FR1	1	R1124J
208.982	2.066	217683	REC_START	n/a	n/a	n/a	-999	1	[0, 0, 0]	n/a	FR1	1	R1124J
211.048	2.008	219749	REC_WORD	2.008	n/a	GOAT	-999	1	[0, 0, 0]	n/a	FR1	1	R1124J
213.056	2.345	221757	REC_WORD	2.345	n/a	DESK	-999	1	[0, 0, 0]	n/a	FR1	1	R1124J
215.401	2.701	224102	REC_WORD	2.701	n/a	STEAM	-999	1	[0, 0, 0]	n/a	FR1	1	R1124J
218.102	1.189	226803	REC_WORD	1.189	n/a	SPEAR	-999	1	[0, 0, 0]	n/a	FR1	1	R1124J
219.291	19.696	227992	REC_WORD	19.696	n/a	LAMP	-999	1	[0, 0, 0]	n/a	FR1	1	R1124J
238.987	3.513	247688	REC_END	n/a	n/a	n/a	-999	1	[0, 0, 0]	n/a	FR1	1	R1124J
242.5	0.0	251201	TRIAL	n/a	n/a	n/a	-999	2	[0, 0, 0]	n/a	FR1	1	R1124J
242.5	10.428	251201	COUNTDOWN_START	n/a	n/a	n/a	-999	2	[0, 0, 0]	n/a	FR1	1	R1124J
252.928	0.005	261629	COUNTDOWN_END	n/a	n/a	n/a	-999	2	[0, 0, 0]	n/a	FR1	1	R1124J
252.933	3.801	261634	ORIENT	n/a	n/a	n/a	-999	2	[0, 0, 0]	n/a	FR1	1	R1124J
256.734	2.618	265435	WORD	n/a	wordpools/wordpool_EN.txt	CORN	1	2	[0, 0, 0]	n/a	FR1	1	R1124J
259.352	2.549	268053	WORD	n/a	wordpools/wordpool_EN.txt	BATH	2	2	[0, 0, 0]	n/a	FR1	1	R1124J
261.901	2.518	270602	WORD	n/a	wordpools/wordpool_EN.txt	HOSE	3	2	[0, 0, 0]	n/a	FR1	1	R1124J
264.419	2.533	273120	WORD	n/a	wordpools/wordpool_EN.txt	PLATE	4	2	[0, 0, 0]	n/a	FR1	1	R1124J
266.952	2.535	275653	WORD	n/a	wordpools/wordpool_EN.txt	FLAME	5	2	[0, 0, 0]	n/a	FR1	1	R1124J
269.487	2.499	278188	WORD	n/a	wordpools/wordpool_EN.txt	CUP	6	2	[0, 0, 0]	n/a	FR1	1	R1124J
271.986	2.585	280687	WORD	n/a	wordpools/wordpool_EN.txt	VAN	7	2	[0, 0, 0]	n/a	FR1	1	R1124J
274.571	2.399	283272	WORD	n/a	wordpools/wordpool_EN.txt	GATE	8	2	[0, 0, 0]	n/a	FR1	1	R1124J
276.97	2.518	285670	WORD	n/a	wordpools/wordpool_EN.txt	PEN	9	2	[0, 0, 0]	n/a	FR1	1	R1124J
279.488	2.617	288188	WORD	n/a	wordpools/wordpool_EN.txt	BRUSH	10	2	[0, 0, 0]	n/a	FR1	1	R1124J
282.105	2.384	290805	WORD	n/a	wordpools/wordpool_EN.txt	SUN	11	2	[0, 0, 0]	n/a	FR1	1	R1124J
284.489	1.617	293189	WORD	n/a	wordpools/wordpool_EN.txt	PEA	12	2	[0, 0, 0]	n/a	FR1	1	R1124J
286.106	0.0	294806	DISTRACT_START	n/a	n/a	n/a	-999	2	[0, 0, 0]	n/a	FR1	1	R1124J
286.106	0.016	294806	START	n/a	n/a	n/a	-999	2	[-999, -999, -999]	n/a	FR1	1	R1124J
286.122	6.151	294822	PROB	6.151	n/a	n/a	-999	2	[1, 1, 3]	5	FR1	1	R1124J
292.273	5.301	300973	PROB	5.301	n/a	n/a	-999	2	[5, 1, 4]	10	FR1	1	R1124J
297.574	5.751	306274	PROB	5.751	n/a	n/a	-999	2	[7, 1, 3]	11	FR1	1	R1124J
303.325	5.82	312025	PROB	5.82	n/a	n/a	-999	2	[2, 9, 7]	18	FR1	1	R1124J
309.145	0.013	317845	STOP	n/a	n/a	n/a	-999	2	[-999, -999, -999]	n/a	FR1	1	R1124J
309.158	1.218	317858	DISTRACT_END	n/a	n/a	n/a	-999	2	[0, 0, 0]	n/a	FR1	1	R1124J
310.376	3.402	319076	REC_START	n/a	n/a	n/a	-999	2	[0, 0, 0]	n/a	FR1	1	R1124J
313.778	1.896	322478	REC_WORD	1.896	n/a	CORN	-999	2	[0, 0, 0]	n/a	FR1	1	R1124J
315.674	2.11	324374	REC_WORD	2.11	n/a	BATH	-999	2	[0, 0, 0]	n/a	FR1	1	R1124J
317.784	2.802	326484	REC_WORD	2.802	n/a	HOSE	-999	2	[0, 0, 0]	n/a	FR1	1	R1124J
320.586	3.227	329286	REC_WORD	3.227	n/a	PLATE	-999	2	[0, 0, 0]	n/a	FR1	1	R1124J
323.813	16.572	332513	REC_WORD	16.572	n/a	PEA	-999	2	[0, 0, 0]	n/a	FR1	1	R1124J
340.385	3.779	349085	REC_END	n/a	n/a	n/a	-999	2	[0, 0, 0]	n/a	FR1	1	R1124J
344.164	0.0	352864	COUNTDOWN_START	n/a	n/a	n/a	-999	3	[0, 0, 0]	n/a	FR1	1	R1124J
344.164	10.428	352864	TRIAL	n/a	n/a	n/a	-999	3	[0, 0, 0]	n/a	FR1	1	R1124J
354.592	0.006	363291	COUNTDOWN_END	n/a	n/a	n/a	-999	3	[0, 0, 0]	n/a	FR1	1	R1124J
354.598	3.667	363297	ORIENT	n/a	n/a	n/a	-999	3	[0, 0, 0]	n/a	FR1	1	R1124J
358.265	2.516	366964	WORD	n/a	wordpools/wordpool_EN.txt	SHOE	1	3	[0, 0, 0]	n/a	FR1	1	R1124J
360.781	2.568	369480	WORD	n/a	wordpools/wordpool_EN.txt	SHIRT	2	3	[0, 0, 0]	n/a	FR1	1	R1124J
363.349	2.383	372048	WORD	n/a	wordpools/wordpool_EN.txt	DOLL	3	3	[0, 0, 0]	n/a	FR1	1	R1124J
365.732	2.601	374431	WORD	n/a	wordpools/wordpool_EN.txt	VEST	4	3	[0, 0, 0]	n/a	FR1	1	R1124J
368.333	2.466	377032	WORD	n/a	wordpools/wordpool_EN.txt	MOOSE	5	3	[0, 0, 0]	n/a	FR1	1	R1124J
370.799	2.602	379498	WORD	n/a	wordpools/wordpool_EN.txt	ARM	6	3	[0, 0, 0]	n/a	FR1	1	R1124J
373.401	2.466	382100	WORD	n/a	wordpools/wordpool_EN.txt	LEG	7	3	[0, 0, 0]	n/a	FR1	1	R1124J
375.867	2.517	384566	WORD	n/a	wordpools/wordpool_EN.txt	FOX	8	3	[0, 0, 0]	n/a	FR1	1	R1124J
378.384	2.466	387083	WORD	n/a	wordpools/wordpool_EN.txt	STEAK	9	3	[0, 0, 0]	n/a	FR1	1	R1124J
380.85	2.469	389549	WORD	n/a	wordpools/wordpool_EN.txt	JEEP	10	3	[0, 0, 0]	n/a	FR1	1	R1124J
383.319	2.432	392018	WORD	n/a	wordpools/wordpool_EN.txt	BRICK	11	3	[0, 0, 0]	n/a	FR1	1	R1124J
385.751	1.602	394450	WORD	n/a	wordpools/wordpool_EN.txt	LOCK	12	3	[0, 0, 0]	n/a	FR1	1	R1124J
387.353	0.0	396052	DISTRACT_START	n/a	n/a	n/a	-999	3	[0, 0, 0]	n/a	FR1	1	R1124J
387.353	0.016	396052	START	n/a	n/a	n/a	-999	3	[-999, -999, -999]	n/a	FR1	1	R1124J
387.369	6.718	396068	PROB	6.718	n/a	n/a	-999	3	[3, 6, 5]	14	FR1	1	R1124J
394.087	5.683	402786	PROB	5.683	n/a	n/a	-999	3	[1, 3, 8]	12	FR1	1	R1124J
399.77	5.401	408469	PROB	5.401	n/a	n/a	-999	3	[2, 8, 1]	11	FR1	1	R1124J
405.171	8.641	413870	PROB	8.641	n/a	n/a	-999	3	[5, 9, 9]	23	FR1	1	R1124J
413.812	0.01	422511	STOP	n/a	n/a	n/a	-999	3	[-999, -999, -999]	n/a	FR1	1	R1124J
413.822	1.167	422521	DISTRACT_END	n/a	n/a	n/a	-999	3	[0, 0, 0]	n/a	FR1	1	R1124J
414.989	2.491	423688	REC_START	n/a	n/a	n/a	-999	3	[0, 0, 0]	n/a	FR1	1	R1124J
417.48	2.718	426178	REC_WORD	2.718	n/a	SHOE	-999	3	[0, 0, 0]	n/a	FR1	1	R1124J
420.198	2.335	428896	REC_WORD	2.335	n/a	SHIRT	-999	3	[0, 0, 0]	n/a	FR1	1	R1124J
422.533	3.69	431231	REC_WORD	3.69	n/a	DOLL	-999	3	[0, 0, 0]	n/a	FR1	1	R1124J
426.223	1.842	434921	REC_WORD	1.842	n/a	HOSE	-999	3	[0, 0, 0]	n/a	FR1	1	R1124J
428.065	16.938	436763	REC_WORD	16.938	n/a	VEST	-999	3	[0, 0, 0]	n/a	FR1	1	R1124J
445.003	3.508	453701	REC_END	n/a	n/a	n/a	-999	3	[0, 0, 0]	n/a	FR1	1	R1124J
448.511	0.0	457209	TRIAL	n/a	n/a	n/a	-999	4	[0, 0, 0]	n/a	FR1	1	R1124J
448.511	10.428	457209	COUNTDOWN_START	n/a	n/a	n/a	-999	4	[0, 0, 0]	n/a	FR1	1	R1124J
458.939	0.006	467637	COUNTDOWN_END	n/a	n/a	n/a	-999	4	[0, 0, 0]	n/a	FR1	1	R1124J
458.945	3.751	467643	ORIENT	n/a	n/a	n/a	-999	4	[0, 0, 0]	n/a	FR1	1	R1124J
462.696	2.601	471394	WORD	n/a	wordpools/wordpool_EN.txt	THREAD	1	4	[0, 0, 0]	n/a	FR1	1	R1124J
465.297	2.465	473995	WORD	n/a	wordpools/wordpool_EN.txt	DIME	2	4	[0, 0, 0]	n/a	FR1	1	R1124J
467.762	2.618	476460	WORD	n/a	wordpools/wordpool_EN.txt	FISH	3	4	[0, 0, 0]	n/a	FR1	1	R1124J
470.38	2.45	479078	WORD	n/a	wordpools/wordpool_EN.txt	FLUTE	4	4	[0, 0, 0]	n/a	FR1	1	R1124J
472.83	2.601	481528	WORD	n/a	wordpools/wordpool_EN.txt	VINE	5	4	[0, 0, 0]	n/a	FR1	1	R1124J
475.431	2.617	484129	WORD	n/a	wordpools/wordpool_EN.txt	STREET	6	4	[0, 0, 0]	n/a	FR1	1	R1124J
478.048	2.467	486746	WORD	n/a	wordpools/wordpool_EN.txt	HOLE	7	4	[0, 0, 0]	n/a	FR1	1	R1124J
480.515	2.534	489213	WORD	n/a	wordpools/wordpool_EN.txt	NOSE	8	4	[0, 0, 0]	n/a	FR1	1	R1124J
483.049	2.5	491747	WORD	n/a	wordpools/wordpool_EN.txt	CHIN	9	4	[0, 0, 0]	n/a	FR1	1	R1124J
485.549	2.449	494247	WORD	n/a	wordpools/wordpool_EN.txt	COUCH	10	4	[0, 0, 0]	n/a	FR1	1	R1124J
487.998	2.535	496695	WORD	n/a	wordpools/wordpool_EN.txt	HOOK	11	4	[0, 0, 0]	n/a	FR1	1	R1124J
490.533	1.617	499230	WORD	n/a	wordpools/wordpool_EN.txt	MAT	12	4	[0, 0, 0]	n/a	FR1	1	R1124J
492.15	0.0	500847	DISTRACT_START	n/a	n/a	n/a	-999	4	[0, 0, 0]	n/a	FR1	1	R1124J
492.15	0.017	500847	START	n/a	n/a	n/a	-999	4	[-999, -999, -999]	n/a	FR1	1	R1124J
492.167	14.502	500864	PROB	14.502	n/a	n/a	-999	4	[4, 5, 8]	17	FR1	1	R1124J
506.669	5.693	515366	PROB	5.693	n/a	n/a	-999	4	[2, 6, 4]	12	FR1	1	R1124J
512.362	0.008	521059	STOP	n/a	n/a	n/a	-999	4	[-999, -999, -999]	n/a	FR1	1	R1124J
512.37	1.167	521067	DISTRACT_END	n/a	n/a	n/a	-999	4	[0, 0, 0]	n/a	FR1	1	R1124J
513.537	4.499	522234	REC_START	n/a	n/a	n/a	-999	4	[0, 0, 0]	n/a	FR1	1	R1124J
518.036	3.247	526733	REC_WORD	3.247	n/a	FISH	-999	4	[0, 0, 0]	n/a	FR1	1	R1124J
521.283	6.084	529980	REC_WORD	6.084	n/a	FLUTE	-999	4	[0, 0, 0]	n/a	FR1	1	R1124J
527.367	2.442	536064	REC_WORD	2.442	n/a	SHOE	-999	4	[0, 0, 0]	n/a	FR1	1	R1124J
529.809	3.454	538506	REC_WORD	3.454	n/a	THREAD	-999	4	[0, 0, 0]	n/a	FR1	1	R1124J
533.263	10.285	541960	REC_WORD	10.285	n/a	HOLE	-999	4	[0, 0, 0]	n/a	FR1	1	R1124J
543.548	4.776	552245	REC_END	n/a	n/a	n/a	-999	4	[0, 0, 0]	n/a	FR1	1	R1124J
548.324	0.0	557021	COUNTDOWN_START	n/a	n/a	n/a	-999	5	[0, 0, 0]	n/a	FR1	1	R1124J
548.324	10.428	557021	TRIAL	n/a	n/a	n/a	-999	5	[0, 0, 0]	n/a	FR1	1	R1124J
558.752	0.006	567448	COUNTDOWN_END	n/a	n/a	n/a	-999	5	[0, 0, 0]	n/a	FR1	1	R1124J
558.758	3.518	567454	ORIENT	n/a	n/a	n/a	-999	5	[0, 0, 0]	n/a	FR1	1	R1124J
562.276	2.466	570972	WORD	n/a	wordpools/wordpool_EN.txt	MOUTH	1	5	[0, 0, 0]	n/a	FR1	1	R1124J
564.742	2.452	573438	WORD	n/a	wordpools/wordpool_EN.txt	SPRING	2	5	[0, 0, 0]	n/a	FR1	1	R1124J
567.194	2.549	575890	WORD	n/a	wordpools/wordpool_EN.txt	ROOT	3	5	[0, 0, 0]	n/a	FR1	1	R1124J
569.743	2.501	578439	WORD	n/a	wordpools/wordpool_EN.txt	MILK	4	5	[0, 0, 0]	n/a	FR1	1	R1124J
572.244	2.533	580940	WORD	n/a	wordpools/wordpool_EN.txt	GUARD	5	5	[0, 0, 0]	n/a	FR1	1	R1124J
574.777	2.568	583473	WORD	n/a	wordpools/wordpool_EN.txt	STEM	6	5	[0, 0, 0]	n/a	FR1	1	R1124J
577.345	2.516	586041	WORD	n/a	wordpools/wordpool_EN.txt	COIN	7	5	[0, 0, 0]	n/a	FR1	1	R1124J
579.861	2.568	588557	WORD	n/a	wordpools/wordpool_EN.txt	FOOT	8	5	[0, 0, 0]	n/a	FR1	1	R1124J
582.429	2.449	591125	WORD	n/a	wordpools/wordpool_EN.txt	CAT	9	5	[0, 0, 0]	n/a	FR1	1	R1124J
584.878	2.568	593574	WORD	n/a	wordpools/wordpool_EN.txt	MAIL	10	5	[0, 0, 0]	n/a	FR1	1	R1124J
587.446	2.584	596142	WORD	n/a	wordpools/wordpool_EN.txt	SEA	11	5	[0, 0, 0]	n/a	FR1	1	R1124J
590.03	1.617	598726	WORD	n/a	wordpools/wordpool_EN.txt	ELF	12	5	[0, 0, 0]	n/a	FR1	1	R1124J
591.647	0.0	600343	DISTRACT_START	n/a	n/a	n/a	-999	5	[0, 0, 0]	n/a	FR1	1	R1124J
591.647	0.016	600343	START	n/a	n/a	n/a	-999	5	[-999, -999, -999]	n/a	FR1	1	R1124J
591.663	8.435	600359	PROB	8.435	n/a	n/a	-999	5	[6, 4, 5]	15	FR1	1	R1124J
600.098	7.201	608794	PROB	7.201	n/a	n/a	-999	5	[6, 6, 3]	15	FR1	1	R1124J
607.299	7.811	615995	PROB	7.811	n/a	n/a	-999	5	[3, 5, 6]	14	FR1	1	R1124J
615.11	0.007	623806	STOP	n/a	n/a	n/a	-999	5	[-999, -999, -999]	n/a	FR1	1	R1124J
615.117	1.05	623813	DISTRACT_END	n/a	n/a	n/a	-999	5	[0, 0, 0]	n/a	FR1	1	R1124J
616.167	2.998	624863	REC_START	n/a	n/a	n/a	-999	5	[0, 0, 0]	n/a	FR1	1	R1124J
619.165	2.364	627861	REC_WORD	2.364	n/a	MOUTH	-999	5	[0, 0, 0]	n/a	FR1	1	R1124J
621.529	2.372	630225	REC_WORD	2.372	n/a	ROOT	-999	5	[0, 0, 0]	n/a	FR1	1	R1124J
623.901	1.888	632597	REC_WORD	1.888	n/a	STRING	-999	5	[0, 0, 0]	n/a	FR1	1	R1124J
625.789	3.144	634485	REC_WORD	3.144	n/a	FOOT	-999	5	[0, 0, 0]	n/a	FR1	1	R1124J
628.933	3.382	637628	REC_WORD	3.382	n/a	STEM	-999	5	[0, 0, 0]	n/a	FR1	1	R1124J
632.315	13.869	641010	REC_WORD	13.869	n/a	ELF	-999	5	[0, 0, 0]	n/a	FR1	1	R1124J
646.184	3.937	654879	REC_END	n/a	n/a	n/a	-999	5	[0, 0, 0]	n/a	FR1	1	R1124J
650.121	0.0	658816	TRIAL	n/a	n/a	n/a	-999	6	[0, 0, 0]	n/a	FR1	1	R1124J
650.121	10.428	658816	COUNTDOWN_START	n/a	n/a	n/a	-999	6	[0, 0, 0]	n/a	FR1	1	R1124J
660.549	0.007	669244	COUNTDOWN_END	n/a	n/a	n/a	-999	6	[0, 0, 0]	n/a	FR1	1	R1124J
660.556	3.75	669251	ORIENT	n/a	n/a	n/a	-999	6	[0, 0, 0]	n/a	FR1	1	R1124J
664.306	2.4	673001	WORD	n/a	wordpools/wordpool_EN.txt	CLOWN	1	6	[0, 0, 0]	n/a	FR1	1	R1124J
666.706	2.601	675401	WORD	n/a	wordpools/wordpool_EN.txt	BEAN	2	6	[0, 0, 0]	n/a	FR1	1	R1124J
669.307	2.566	678002	WORD	n/a	wordpools/wordpool_EN.txt	TIE	3	6	[0, 0, 0]	n/a	FR1	1	R1124J
671.873	2.435	680568	WORD	n/a	wordpools/wordpool_EN.txt	BOX	4	6	[0, 0, 0]	n/a	FR1	1	R1124J
674.308	2.582	683003	WORD	n/a	wordpools/wordpool_EN.txt	CLOTH	5	6	[0, 0, 0]	n/a	FR1	1	R1124J
676.89	2.485	685585	WORD	n/a	wordpools/wordpool_EN.txt	HAND	6	6	[0, 0, 0]	n/a	FR1	1	R1124J
679.375	2.383	688070	WORD	n/a	wordpools/wordpool_EN.txt	DART	7	6	[0, 0, 0]	n/a	FR1	1	R1124J
681.758	2.401	690453	WORD	n/a	wordpools/wordpool_EN.txt	FAN	8	6	[0, 0, 0]	n/a	FR1	1	R1124J
684.159	2.6	692854	WORD	n/a	wordpools/wordpool_EN.txt	JAR	9	6	[0, 0, 0]	n/a	FR1	1	R1124J
686.759	2.601	695454	WORD	n/a	wordpools/wordpool_EN.txt	CROW	10	6	[0, 0, 0]	n/a	FR1	1	R1124J
689.36	2.399	698055	WORD	n/a	wordpools/wordpool_EN.txt	WAVE	11	6	[0, 0, 0]	n/a	FR1	1	R1124J
691.759	1.602	700454	WORD	n/a	wordpools/wordpool_EN.txt	CLAY	12	6	[0, 0, 0]	n/a	FR1	1	R1124J
693.361	0.0	702056	DISTRACT_START	n/a	n/a	n/a	-999	6	[0, 0, 0]	n/a	FR1	1	R1124J
693.361	0.016	702056	START	n/a	n/a	n/a	-999	6	[-999, -999, -999]	n/a	FR1	1	R1124J
693.377	18.635	702072	PROB	18.635	n/a	n/a	-999	6	[5, 8, 6]	19	FR1	1	R1124J
712.012	7.702	720706	PROB	7.702	n/a	n/a	-999	6	[4, 5, 8]	17	FR1	1	R1124J
719.714	0.016	728408	STOP	n/a	n/a	n/a	-999	6	[-999, -999, -999]	n/a	FR1	1	R1124J
719.73	1.217	728424	DISTRACT_END	n/a	n/a	n/a	-999	6	[0, 0, 0]	n/a	FR1	1	R1124J
720.947	2.559	729641	REC_START	n/a	n/a	n/a	-999	6	[0, 0, 0]	n/a	FR1	1	R1124J
723.506	2.467	732200	REC_WORD	2.467	n/a	CLOWN	-999	6	[0, 0, 0]	n/a	FR1	1	R1124J
725.973	4.743	734667	REC_WORD	4.743	n/a	BEAN	-999	6	[0, 0, 0]	n/a	FR1	1	R1124J
730.716	2.166	739410	REC_WORD	2.166	n/a	CLAW	-999	6	[0, 0, 0]	n/a	FR1	1	R1124J
732.882	8.39	741576	REC_WORD	8.39	n/a	DART	-999	6	[0, 0, 0]	n/a	FR1	1	R1124J
741.272	9.688	749966	REC_WORD	9.688	n/a	HAND	-999	6	[0, 0, 0]	n/a	FR1	1	R1124J
750.96	3.109	759654	REC_END	n/a	n/a	n/a	-999	6	[0, 0, 0]	n/a	FR1	1	R1124J
754.069	0.0	762763	COUNTDOWN_START	n/a	n/a	n/a	-999	7	[0, 0, 0]	n/a	FR1	1	R1124J
754.069	10.428	762763	TRIAL	n/a	n/a	n/a	-999	7	[0, 0, 0]	n/a	FR1	1	R1124J
764.497	0.007	773191	COUNTDOWN_END	n/a	n/a	n/a	-999	7	[0, 0, 0]	n/a	FR1	1	R1124J
764.504	3.616	773198	ORIENT	n/a	n/a	n/a	-999	7	[0, 0, 0]	n/a	FR1	1	R1124J
768.12	2.418	776813	WORD	n/a	wordpools/wordpool_EN.txt	THUMB	1	7	[0, 0, 0]	n/a	FR1	1	R1124J
770.538	2.449	779231	WORD	n/a	wordpools/wordpool_EN.txt	RAKE	2	7	[0, 0, 0]	n/a	FR1	1	R1124J
772.987	2.418	781680	WORD	n/a	wordpools/wordpool_EN.txt	HAT	3	7	[0, 0, 0]	n/a	FR1	1	R1124J
775.405	2.482	784098	WORD	n/a	wordpools/wordpool_EN.txt	DITCH	4	7	[0, 0, 0]	n/a	FR1	1	R1124J
777.887	2.502	786580	WORD	n/a	wordpools/wordpool_EN.txt	CONE	5	7	[0, 0, 0]	n/a	FR1	1	R1124J
780.389	2.566	789082	WORD	n/a	wordpools/wordpool_EN.txt	BREAD	6	7	[0, 0, 0]	n/a	FR1	1	R1124J
782.955	2.585	791648	WORD	n/a	wordpools/wordpool_EN.txt	WAND	7	7	[0, 0, 0]	n/a	FR1	1	R1124J
785.54	2.516	794233	WORD	n/a	wordpools/wordpool_EN.txt	YARD	8	7	[0, 0, 0]	n/a	FR1	1	R1124J
788.056	2.417	796749	WORD	n/a	wordpools/wordpool_EN.txt	POLE	9	7	[0, 0, 0]	n/a	FR1	1	R1124J
790.473	2.517	799166	WORD	n/a	wordpools/wordpool_EN.txt	HEN	10	7	[0, 0, 0]	n/a	FR1	1	R1124J
792.99	2.451	801683	WORD	n/a	wordpools/wordpool_EN.txt	CART	11	7	[0, 0, 0]	n/a	FR1	1	R1124J
795.441	1.617	804134	WORD	n/a	wordpools/wordpool_EN.txt	TOOL	12	7	[0, 0, 0]	n/a	FR1	1	R1124J
797.058	0.0	805751	DISTRACT_START	n/a	n/a	n/a	-999	7	[0, 0, 0]	n/a	FR1	1	R1124J
797.058	0.017	805751	START	n/a	n/a	n/a	-999	7	[-999, -999, -999]	n/a	FR1	1	R1124J
797.075	12.118	805768	PROB	12.118	n/a	n/a	-999	7	[9, 8, 7]	24	FR1	1	R1124J
809.193	5.484	817886	PROB	5.484	n/a	n/a	-999	7	[1, 9, 3]	13	FR1	1	R1124J
814.677	7.738	823370	PROB	7.738	n/a	n/a	-999	7	[7, 9, 2]	18	FR1	1	R1124J
822.415	0.013	831108	STOP	n/a	n/a	n/a	-999	7	[-999, -999, -999]	n/a	FR1	1	R1124J
822.428	1.134	831121	DISTRACT_END	n/a	n/a	n/a	-999	7	[0, 0, 0]	n/a	FR1	1	R1124J
823.562	2.933	832255	REC_START	n/a	n/a	n/a	-999	7	[0, 0, 0]	n/a	FR1	1	R1124J
826.495	2.314	835188	REC_WORD	2.314	n/a	RAKE	-999	7	[0, 0, 0]	n/a	FR1	1	R1124J
828.809	2.327	837502	REC_WORD	2.327	n/a	HAT	-999	7	[0, 0, 0]	n/a	FR1	1	R1124J
831.136	3.631	839829	REC_WORD	3.631	n/a	DITCH	-999	7	[0, 0, 0]	n/a	FR1	1	R1124J
834.767	2.389	843460	REC_WORD	2.389	n/a	CONE	-999	7	[0, 0, 0]	n/a	FR1	1	R1124J
837.156	16.419	845848	REC_WORD	16.419	n/a	THUMB	-999	7	[0, 0, 0]	n/a	FR1	1	R1124J
853.575	3.908	862267	REC_END	n/a	n/a	n/a	-999	7	[0, 0, 0]	n/a	FR1	1	R1124J
857.483	0.0	866175	TRIAL	n/a	n/a	n/a	-999	8	[0, 0, 0]	n/a	FR1	1	R1124J
857.483	10.428	866175	COUNTDOWN_START	n/a	n/a	n/a	-999	8	[0, 0, 0]	n/a	FR1	1	R1124J
867.911	0.006	876603	COUNTDOWN_END	n/a	n/a	n/a	-999	8	[0, 0, 0]	n/a	FR1	1	R1124J
867.917	3.568	876609	ORIENT	n/a	n/a	n/a	-999	8	[0, 0, 0]	n/a	FR1	1	R1124J
871.485	2.466	880177	WORD	n/a	wordpools/wordpool_EN.txt	APE	1	8	[0, 0, 0]	n/a	FR1	1	R1124J
873.951	2.418	882643	WORD	n/a	wordpools/wordpool_EN.txt	DUCK	2	8	[0, 0, 0]	n/a	FR1	1	R1124J
876.369	2.599	885061	WORD	n/a	wordpools/wordpool_EN.txt	WEB	3	8	[0, 0, 0]	n/a	FR1	1	R1124J
878.968	2.518	887660	WORD	n/a	wordpools/wordpool_EN.txt	BOAT	4	8	[0, 0, 0]	n/a	FR1	1	R1124J
881.486	2.499	890178	WORD	n/a	wordpools/wordpool_EN.txt	SEAL	5	8	[0, 0, 0]	n/a	FR1	1	R1124J
883.985	2.535	892677	WORD	n/a	wordpools/wordpool_EN.txt	CASH	6	8	[0, 0, 0]	n/a	FR1	1	R1124J
886.52	2.6	895212	WORD	n/a	wordpools/wordpool_EN.txt	TANK	7	8	[0, 0, 0]	n/a	FR1	1	R1124J
889.12	2.583	897812	WORD	n/a	wordpools/wordpool_EN.txt	BRANCH	8	8	[0, 0, 0]	n/a	FR1	1	R1124J
891.703	2.568	900395	WORD	n/a	wordpools/wordpool_EN.txt	HAWK	9	8	[0, 0, 0]	n/a	FR1	1	R1124J
894.271	2.583	902963	WORD	n/a	wordpools/wordpool_EN.txt	BANK	10	8	[0, 0, 0]	n/a	FR1	1	R1124J
896.854	2.518	905546	WORD	n/a	wordpools/wordpool_EN.txt	DEER	11	8	[0, 0, 0]	n/a	FR1	1	R1124J
899.372	1.616	908064	WORD	n/a	wordpools/wordpool_EN.txt	MUG	12	8	[0, 0, 0]	n/a	FR1	1	R1124J
900.988	0.0	909680	DISTRACT_START	n/a	n/a	n/a	-999	8	[0, 0, 0]	n/a	FR1	1	R1124J
900.988	0.016	909680	START	n/a	n/a	n/a	-999	8	[-999, -999, -999]	n/a	FR1	1	R1124J
901.004	6.901	909696	PROB	6.901	n/a	n/a	-999	8	[2, 5, 7]	14	FR1	1	R1124J
907.905	8.085	916596	PROB	8.085	n/a	n/a	-999	8	[7, 5, 8]	20	FR1	1	R1124J
915.99	11.876	924681	PROB	11.876	n/a	n/a	-999	8	[7, 8, 2]	17	FR1	1	R1124J
927.866	0.009	936557	STOP	n/a	n/a	n/a	-999	8	[-999, -999, -999]	n/a	FR1	1	R1124J
927.875	1.201	936566	DISTRACT_END	n/a	n/a	n/a	-999	8	[0, 0, 0]	n/a	FR1	1	R1124J
929.076	2.504	937767	REC_START	n/a	n/a	n/a	-999	8	[0, 0, 0]	n/a	FR1	1	R1124J
931.58	2.527	940271	REC_WORD	2.527	n/a	APE	-999	8	[0, 0, 0]	n/a	FR1	1	R1124J
934.107	2.627	942798	REC_WORD	2.627	n/a	DUCK	-999	8	[0, 0, 0]	n/a	FR1	1	R1124J
936.734	3.321	945425	REC_WORD	3.321	n/a	WEB	-999	8	[0, 0, 0]	n/a	FR1	1	R1124J
940.055	3.915	948746	REC_WORD	3.915	n/a	SEAL	-999	8	[0, 0, 0]	n/a	FR1	1	R1124J
943.97	0.215	952661	REC_WORD_VV	0.215	n/a	<>	-999	8	[0, 0, 0]	n/a	FR1	1	R1124J
944.185	14.905	952876	REC_WORD	14.905	n/a	CASH	-999	8	[0, 0, 0]	n/a	FR1	1	R1124J
959.09	2.957	967781	REC_END	n/a	n/a	n/a	-999	8	[0, 0, 0]	n/a	FR1	1	R1124J
962.047	0.0	970738	COUNTDOWN_START	n/a	n/a	n/a	-999	9	[0, 0, 0]	n/a	FR1	1	R1124J
962.047	10.428	970738	TRIAL	n/a	n/a	n/a	-999	9	[0, 0, 0]	n/a	FR1	1	R1124J
972.475	0.006	981166	COUNTDOWN_END	n/a	n/a	n/a	-999	9	[0, 0, 0]	n/a	FR1	1	R1124J
972.481	3.951	981172	ORIENT	n/a	n/a	n/a	-999	9	[0, 0, 0]	n/a	FR1	1	R1124J
976.432	2.549	985122	WORD	n/a	wordpools/wordpool_EN.txt	FUDGE	1	9	[0, 0, 0]	n/a	FR1	1	R1124J
978.981	2.585	987671	WORD	n/a	wordpools/wordpool_EN.txt	BEE	2	9	[0, 0, 0]	n/a	FR1	1	R1124J
981.566	2.617	990256	WORD	n/a	wordpools/wordpool_EN.txt	FRUIT	3	9	[0, 0, 0]	n/a	FR1	1	R1124J
984.183	2.616	992873	WORD	n/a	wordpools/wordpool_EN.txt	BAT	4	9	[0, 0, 0]	n/a	FR1	1	R1124J
986.799	2.368	995489	WORD	n/a	wordpools/wordpool_EN.txt	RICE	5	9	[0, 0, 0]	n/a	FR1	1	R1124J
989.167	2.401	997857	WORD	n/a	wordpools/wordpool_EN.txt	SAIL	6	9	[0, 0, 0]	n/a	FR1	1	R1124J
991.568	2.432	1000258	WORD	n/a	wordpools/wordpool_EN.txt	GRASS	7	9	[0, 0, 0]	n/a	FR1	1	R1124J
994.0	2.418	1002690	WORD	n/a	wordpools/wordpool_EN.txt	SOUP	8	9	[0, 0, 0]	n/a	FR1	1	R1124J
996.418	2.549	1005108	WORD	n/a	wordpools/wordpool_EN.txt	BOOK	9	9	[0, 0, 0]	n/a	FR1	1	R1124J
998.967	2.518	1007657	WORD	n/a	wordpools/wordpool_EN.txt	LAKE	10	9	[0, 0, 0]	n/a	FR1	1	R1124J
1001.485	2.584	1010175	WORD	n/a	wordpools/wordpool_EN.txt	TENT	11	9	[0, 0, 0]	n/a	FR1	1	R1124J
1004.069	1.617	1012759	WORD	n/a	wordpools/wordpool_EN.txt	ROAD	12	9	[0, 0, 0]	n/a	FR1	1	R1124J
1005.686	0.001	1014376	DISTRACT_START	n/a	n/a	n/a	-999	9	[0, 0, 0]	n/a	FR1	1	R1124J
1005.687	0.015	1014377	START	n/a	n/a	n/a	-999	9	[-999, -999, -999]	n/a	FR1	1	R1124J
1005.702	18.152	1014392	PROB	18.152	n/a	n/a	-999	9	[3, 8, 9]	20	FR1	1	R1124J
1023.854	14.394	1032544	PROB	14.394	n/a	n/a	-999	9	[8, 4, 5]	17	FR1	1	R1124J
1038.248	0.009	1046938	STOP	n/a	n/a	n/a	-999	9	[-999, -999, -999]	n/a	FR1	1	R1124J
1038.257	1.034	1046947	DISTRACT_END	n/a	n/a	n/a	-999	9	[0, 0, 0]	n/a	FR1	1	R1124J
1039.291	4.081	1047981	REC_START	n/a	n/a	n/a	-999	9	[0, 0, 0]	n/a	FR1	1	R1124J
1043.372	3.191	1052062	REC_WORD	3.191	n/a	FUDGE	-999	9	[0, 0, 0]	n/a	FR1	1	R1124J
1046.563	4.906	1055252	REC_WORD	4.906	n/a	BEE	-999	9	[0, 0, 0]	n/a	FR1	1	R1124J
1051.469	3.504	1060158	REC_WORD	3.504	n/a	FRUIT	-999	9	[0, 0, 0]	n/a	FR1	1	R1124J
1054.973	5.019	1063662	REC_WORD	5.019	n/a	RAT	-999	9	[0, 0, 0]	n/a	FR1	1	R1124J
1059.992	2.783	1068681	REC_WORD	2.783	n/a	RICE	-999	9	[0, 0, 0]	n/a	FR1	1	R1124J
1062.775	6.525	1071464	REC_WORD	6.525	n/a	SAIL	-999	9	[0, 0, 0]	n/a	FR1	1	R1124J
1069.3	2.978	1077989	REC_END	n/a	n/a	n/a	-999	9	[0, 0, 0]	n/a	FR1	1	R1124J
1072.278	0.0	1080967	TRIAL	n/a	n/a	n/a	-999	10	[0, 0, 0]	n/a	FR1	1	R1124J
1072.278	10.428	1080967	COUNTDOWN_START	n/a	n/a	n/a	-999	10	[0, 0, 0]	n/a	FR1	1	R1124J
1082.706	0.006	1091395	COUNTDOWN_END	n/a	n/a	n/a	-999	10	[0, 0, 0]	n/a	FR1	1	R1124J
1082.712	3.918	1091401	ORIENT	n/a	n/a	n/a	-999	10	[0, 0, 0]	n/a	FR1	1	R1124J
1086.63	2.434	1095319	WORD	n/a	wordpools/wordpool_EN.txt	CUBE	1	10	[0, 0, 0]	n/a	FR1	1	R1124J
1089.064	2.417	1097753	WORD	n/a	wordpools/wordpool_EN.txt	CROWN	2	10	[0, 0, 0]	n/a	FR1	1	R1124J
1091.481	2.433	1100170	WORD	n/a	wordpools/wordpool_EN.txt	BEAR	3	10	[0, 0, 0]	n/a	FR1	1	R1124J
1093.914	2.568	1102603	WORD	n/a	wordpools/wordpool_EN.txt	RAIN	4	10	[0, 0, 0]	n/a	FR1	1	R1124J
1096.482	2.482	1105171	WORD	n/a	wordpools/wordpool_EN.txt	PIT	5	10	[0, 0, 0]	n/a	FR1	1	R1124J
1098.964	2.602	1107653	WORD	n/a	wordpools/wordpool_EN.txt	BUSH	6	10	[0, 0, 0]	n/a	FR1	1	R1124J
1101.566	2.583	1110255	WORD	n/a	wordpools/wordpool_EN.txt	PARK	7	10	[0, 0, 0]	n/a	FR1	1	R1124J
1104.149	2.583	1112838	WORD	n/a	wordpools/wordpool_EN.txt	SMILE	8	10	[0, 0, 0]	n/a	FR1	1	R1124J
1106.732	2.368	1115421	WORD	n/a	wordpools/wordpool_EN.txt	GLASS	9	10	[0, 0, 0]	n/a	FR1	1	R1124J
1109.1	2.401	1117789	WORD	n/a	wordpools/wordpool_EN.txt	SHEET	10	10	[0, 0, 0]	n/a	FR1	1	R1124J
1111.501	2.416	1120190	WORD	n/a	wordpools/wordpool_EN.txt	EGG	11	10	[0, 0, 0]	n/a	FR1	1	R1124J
1113.917	1.618	1122606	WORD	n/a	wordpools/wordpool_EN.txt	DRESS	12	10	[0, 0, 0]	n/a	FR1	1	R1124J
1115.535	0.0	1124224	DISTRACT_START	n/a	n/a	n/a	-999	10	[0, 0, 0]	n/a	FR1	1	R1124J
1115.535	0.016	1124224	START	n/a	n/a	n/a	-999	10	[-999, -999, -999]	n/a	FR1	1	R1124J
1115.551	10.485	1124240	PROB	10.485	n/a	n/a	-999	10	[1, 2, 7]	10	FR1	1	R1124J
1126.036	10.704	1134724	PROB	10.704	n/a	n/a	-999	10	[4, 7, 9]	20	FR1	1	R1124J
1136.74	0.013	1145428	STOP	n/a	n/a	n/a	-999	10	[-999, -999, -999]	n/a	FR1	1	R1124J
1136.753	1.134	1145441	DISTRACT_END	n/a	n/a	n/a	-999	10	[0, 0, 0]	n/a	FR1	1	R1124J
1137.887	4.403	1146575	REC_START	n/a	n/a	n/a	-999	10	[0, 0, 0]	n/a	FR1	1	R1124J
1142.29	3.315	1150978	REC_WORD	3.315	n/a	BEAR	-999	10	[0, 0, 0]	n/a	FR1	1	R1124J
1145.605	3.43	1154293	REC_WORD	3.43	n/a	CROWN	-999	10	[0, 0, 0]	n/a	FR1	1	R1124J
1149.035	3.788	1157723	REC_WORD	3.788	n/a	PIT	-999	10	[0, 0, 0]	n/a	FR1	1	R1124J
1152.823	3.775	1161511	REC_WORD	3.775	n/a	PARK	-999	10	[0, 0, 0]	n/a	FR1	1	R1124J
1156.598	11.298	1165286	REC_WORD	11.298	n/a	DRESS	-999	10	[0, 0, 0]	n/a	FR1	1	R1124J
1167.896	3.613	1176584	REC_END	n/a	n/a	n/a	-999	10	[0, 0, 0]	n/a	FR1	1	R1124J
1171.509	0.0	1180197	COUNTDOWN_START	n/a	n/a	n/a	-999	11	[0, 0, 0]	n/a	FR1	1	R1124J
1171.509	10.428	1180197	TRIAL	n/a	n/a	n/a	-999	11	[0, 0, 0]	n/a	FR1	1	R1124J
1181.937	0.005	1190625	COUNTDOWN_END	n/a	n/a	n/a	-999	11	[0, 0, 0]	n/a	FR1	1	R1124J
1181.942	3.519	1190630	ORIENT	n/a	n/a	n/a	-999	11	[0, 0, 0]	n/a	FR1	1	R1124J
1185.461	2.399	1194149	WORD	n/a	wordpools/wordpool_EN.txt	GLOVE	1	11	[0, 0, 0]	n/a	FR1	1	R1124J
1187.86	2.418	1196547	WORD	n/a	wordpools/wordpool_EN.txt	CAPE	2	11	[0, 0, 0]	n/a	FR1	1	R1124J
1190.278	2.616	1198965	WORD	n/a	wordpools/wordpool_EN.txt	WHALE	3	11	[0, 0, 0]	n/a	FR1	1	R1124J
1192.894	2.535	1201581	WORD	n/a	wordpools/wordpool_EN.txt	INK	4	11	[0, 0, 0]	n/a	FR1	1	R1124J
1195.429	2.399	1204116	WORD	n/a	wordpools/wordpool_EN.txt	ZOO	5	11	[0, 0, 0]	n/a	FR1	1	R1124J
1197.828	2.468	1206515	WORD	n/a	wordpools/wordpool_EN.txt	MAP	6	11	[0, 0, 0]	n/a	FR1	1	R1124J
1200.296	2.533	1208983	WORD	n/a	wordpools/wordpool_EN.txt	CAR	7	11	[0, 0, 0]	n/a	FR1	1	R1124J
1202.829	2.434	1211516	WORD	n/a	wordpools/wordpool_EN.txt	WALL	8	11	[0, 0, 0]	n/a	FR1	1	R1124J
1205.263	2.616	1213950	WORD	n/a	wordpools/wordpool_EN.txt	OWL	9	11	[0, 0, 0]	n/a	FR1	1	R1124J
1207.879	2.468	1216566	WORD	n/a	wordpools/wordpool_EN.txt	CHIEF	10	11	[0, 0, 0]	n/a	FR1	1	R1124J
1210.347	2.616	1219034	WORD	n/a	wordpools/wordpool_EN.txt	JAIL	11	11	[0, 0, 0]	n/a	FR1	1	R1124J
1212.963	1.601	1221650	WORD	n/a	wordpools/wordpool_EN.txt	EAR	12	11	[0, 0, 0]	n/a	FR1	1	R1124J
1214.564	0.001	1223251	DISTRACT_START	n/a	n/a	n/a	-999	11	[0, 0, 0]	n/a	FR1	1	R1124J
1214.565	0.016	1223252	START	n/a	n/a	n/a	-999	11	[-999, -999, -999]	n/a	FR1	1	R1124J
1214.581	11.752	1223268	PROB	11.752	n/a	n/a	-999	11	[6, 5, 8]	19	FR1	1	R1124J
1226.333	8.467	1235020	PROB	8.467	n/a	n/a	-999	11	[7, 2, 5]	14	FR1	1	R1124J
1234.8	0.016	1243487	STOP	n/a	n/a	n/a	-999	11	[-999, -999, -999]	n/a	FR1	1	R1124J
1234.816	1.152	1243503	DISTRACT_END	n/a	n/a	n/a	-999	11	[0, 0, 0]	n/a	FR1	1	R1124J
1235.968	5.091	1244655	REC_START	n/a	n/a	n/a	-999	11	[0, 0, 0]	n/a	FR1	1	R1124J
1241.059	1.94	1249746	REC_WORD	1.94	n/a	GLOVE	-999	11	[0, 0, 0]	n/a	FR1	1	R1124J
1242.999	3.657	1251686	REC_WORD	3.657	n/a	CAPE	-999	11	[0, 0, 0]	n/a	FR1	1	R1124J
1246.656	3.368	1255343	REC_WORD	3.368	n/a	WHALE	-999	11	[0, 0, 0]	n/a	FR1	1	R1124J
1250.024	2.342	1258711	REC_WORD	2.342	n/a	INK	-999	11	[0, 0, 0]	n/a	FR1	1	R1124J
1252.366	13.611	1261053	REC_WORD	13.611	n/a	ZOO	-999	11	[0, 0, 0]	n/a	FR1	1	R1124J
1265.977	3.994	1274663	REC_END	n/a	n/a	n/a	-999	11	[0, 0, 0]	n/a	FR1	1	R1124J
1269.971	0.0	1278657	TRIAL	n/a	n/a	n/a	-999	12	[0, 0, 0]	n/a	FR1	1	R1124J
1269.971	10.428	1278657	COUNTDOWN_START	n/a	n/a	n/a	-999	12	[0, 0, 0]	n/a	FR1	1	R1124J
1280.399	0.007	1289085	COUNTDOWN_END	n/a	n/a	n/a	-999	12	[0, 0, 0]	n/a	FR1	1	R1124J
1280.406	3.751	1289092	ORIENT	n/a	n/a	n/a	-999	12	[0, 0, 0]	n/a	FR1	1	R1124J
1284.157	2.549	1292843	WORD	n/a	wordpools/wordpool_EN.txt	SKUNK	1	12	[0, 0, 0]	n/a	FR1	1	R1124J
1286.706	2.468	1295392	WORD	n/a	wordpools/wordpool_EN.txt	PASTE	2	12	[0, 0, 0]	n/a	FR1	1	R1124J
1289.174	2.6	1297860	WORD	n/a	wordpools/wordpool_EN.txt	POOL	3	12	[0, 0, 0]	n/a	FR1	1	R1124J
1291.774	2.451	1300460	WORD	n/a	wordpools/wordpool_EN.txt	CAGE	4	12	[0, 0, 0]	n/a	FR1	1	R1124J
1294.225	2.55	1302911	WORD	n/a	wordpools/wordpool_EN.txt	SOCK	5	12	[0, 0, 0]	n/a	FR1	1	R1124J
1296.775	2.451	1305461	WORD	n/a	wordpools/wordpool_EN.txt	STICK	6	12	[0, 0, 0]	n/a	FR1	1	R1124J
1299.226	2.467	1307912	WORD	n/a	wordpools/wordpool_EN.txt	SNAKE	7	12	[0, 0, 0]	n/a	FR1	1	R1124J
1301.693	2.55	1310379	WORD	n/a	wordpools/wordpool_EN.txt	FLOOR	8	12	[0, 0, 0]	n/a	FR1	1	R1124J
1304.243	2.401	1312929	WORD	n/a	wordpools/wordpool_EN.txt	HOOF	9	12	[0, 0, 0]	n/a	FR1	1	R1124J
1306.644	2.4	1315330	WORD	n/a	wordpools/wordpool_EN.txt	PEACH	10	12	[0, 0, 0]	n/a	FR1	1	R1124J
1309.044	2.6	1317730	WORD	n/a	wordpools/wordpool_EN.txt	CHAIR	11	12	[0, 0, 0]	n/a	FR1	1	R1124J
1311.644	1.617	1320330	WORD	n/a	wordpools/wordpool_EN.txt	CAKE	12	12	[0, 0, 0]	n/a	FR1	1	R1124J
1313.261	0.0	1321947	DISTRACT_START	n/a	n/a	n/a	-999	12	[0, 0, 0]	n/a	FR1	1	R1124J
1313.261	0.017	1321947	START	n/a	n/a	n/a	-999	12	[-999, -999, -999]	n/a	FR1	1	R1124J
1313.278	10.467	1321964	PROB	10.467	n/a	n/a	-999	12	[7, 4, 7]	18	FR1	1	R1124J
1323.745	4.735	1332431	PROB	4.735	n/a	n/a	-999	12	[2, 1, 8]	11	FR1	1	R1124J
1328.48	11.5	1337165	PROB	11.5	n/a	n/a	-999	12	[9, 8, 9]	26	FR1	1	R1124J
1339.98	0.017	1348665	STOP	n/a	n/a	n/a	-999	12	[-999, -999, -999]	n/a	FR1	1	R1124J
1339.997	1.201	1348682	DISTRACT_END	n/a	n/a	n/a	-999	12	[0, 0, 0]	n/a	FR1	1	R1124J
1341.198	3.633	1349883	REC_START	n/a	n/a	n/a	-999	12	[0, 0, 0]	n/a	FR1	1	R1124J
1344.831	3.817	1353516	REC_WORD	3.817	n/a	SKUNK	-999	12	[0, 0, 0]	n/a	FR1	1	R1124J
1348.648	3.518	1357333	REC_WORD	3.518	n/a	PASTE	-999	12	[0, 0, 0]	n/a	FR1	1	R1124J
1352.166	4.127	1360851	REC_WORD	4.127	n/a	PAINT	-999	12	[0, 0, 0]	n/a	FR1	1	R1124J
1356.293	2.312	1364978	REC_WORD	2.312	n/a	SOCK	-999	12	[0, 0, 0]	n/a	FR1	1	R1124J
1358.605	12.607	1367290	REC_WORD	12.607	n/a	STICK	-999	12	[0, 0, 0]	n/a	FR1	1	R1124J
1371.212	3.474	1379897	REC_END	n/a	n/a	n/a	-999	12	[0, 0, 0]	n/a	FR1	1	R1124J
1374.686	0.0	1383371	COUNTDOWN_START	n/a	n/a	n/a	-999	13	[0, 0, 0]	n/a	FR1	1	R1124J
1374.686	10.428	1383371	TRIAL	n/a	n/a	n/a	-999	13	[0, 0, 0]	n/a	FR1	1	R1124J
1385.114	0.007	1393799	COUNTDOWN_END	n/a	n/a	n/a	-999	13	[0, 0, 0]	n/a	FR1	1	R1124J
1385.121	3.567	1393806	ORIENT	n/a	n/a	n/a	-999	13	[0, 0, 0]	n/a	FR1	1	R1124J
1388.688	2.55	1397373	WORD	n/a	wordpools/wordpool_EN.txt	BENCH	1	13	[0, 0, 0]	n/a	FR1	1	R1124J
1391.238	2.516	1399923	WORD	n/a	wordpools/wordpool_EN.txt	DOOR	2	13	[0, 0, 0]	n/a	FR1	1	R1124J
1393.754	2.601	1402439	WORD	n/a	wordpools/wordpool_EN.txt	STOOL	3	13	[0, 0, 0]	n/a	FR1	1	R1124J
1396.355	2.383	1405039	WORD	n/a	wordpools/wordpool_EN.txt	TOE	4	13	[0, 0, 0]	n/a	FR1	1	R1124J
1398.738	2.451	1407422	WORD	n/a	wordpools/wordpool_EN.txt	VASE	5	13	[0, 0, 0]	n/a	FR1	1	R1124J
1401.189	2.451	1409873	WORD	n/a	wordpools/wordpool_EN.txt	GRAPE	6	13	[0, 0, 0]	n/a	FR1	1	R1124J
1403.64	2.417	1412324	WORD	n/a	wordpools/wordpool_EN.txt	SKY	7	13	[0, 0, 0]	n/a	FR1	1	R1124J
1406.057	2.5	1414741	WORD	n/a	wordpools/wordpool_EN.txt	MUD	8	13	[0, 0, 0]	n/a	FR1	1	R1124J
1408.557	2.517	1417241	WORD	n/a	wordpools/wordpool_EN.txt	STRAW	9	13	[0, 0, 0]	n/a	FR1	1	R1124J
1411.074	2.518	1419758	WORD	n/a	wordpools/wordpool_EN.txt	OAR	10	13	[0, 0, 0]	n/a	FR1	1	R1124J
1413.592	2.617	1422276	WORD	n/a	wordpools/wordpool_EN.txt	SLEEVE	11	13	[0, 0, 0]	n/a	FR1	1	R1124J
1416.209	1.615	1424893	WORD	n/a	wordpools/wordpool_EN.txt	PURSE	12	13	[0, 0, 0]	n/a	FR1	1	R1124J
1417.824	0.0	1426508	DISTRACT_START	n/a	n/a	n/a	-999	13	[0, 0, 0]	n/a	FR1	1	R1124J
1417.824	0.017	1426508	START	n/a	n/a	n/a	-999	13	[-999, -999, -999]	n/a	FR1	1	R1124J
1417.841	6.219	1426525	PROB	6.219	n/a	n/a	-999	13	[2, 5, 5]	12	FR1	1	R1124J
1424.06	15.941	1432744	PROB	15.941	n/a	n/a	-999	13	[9, 7, 6]	23	FR1	1	R1124J
1440.001	0.009	1448685	STOP	n/a	n/a	n/a	-999	13	[-999, -999, -999]	n/a	FR1	1	R1124J
1440.01	1.102	1448694	DISTRACT_END	n/a	n/a	n/a	-999	13	[0, 0, 0]	n/a	FR1	1	R1124J
1441.112	3.739	1449796	REC_START	n/a	n/a	n/a	-999	13	[0, 0, 0]	n/a	FR1	1	R1124J
1444.851	0.244	1453535	REC_WORD_VV	0.244	n/a	<>	-999	13	[0, 0, 0]	n/a	FR1	1	R1124J
1445.095	3.86	1453779	REC_WORD	3.86	n/a	BENCH	-999	13	[0, 0, 0]	n/a	FR1	1	R1124J
1448.955	3.625	1457639	REC_WORD	3.625	n/a	TOE	-999	13	[0, 0, 0]	n/a	FR1	1	R1124J
1452.58	3.604	1461264	REC_WORD	3.604	n/a	DOOR	-999	13	[0, 0, 0]	n/a	FR1	1	R1124J
1456.184	14.941	1464868	REC_WORD	14.941	n/a	OAR	-999	13	[0, 0, 0]	n/a	FR1	1	R1124J
1471.125	3.741	1479808	REC_END	n/a	n/a	n/a	-999	13	[0, 0, 0]	n/a	FR1	1	R1124J
1474.866	0.0	1483549	TRIAL	n/a	n/a	n/a	-999	14	[0, 0, 0]	n/a	FR1	1	R1124J
1474.866	10.428	1483549	COUNTDOWN_START	n/a	n/a	n/a	-999	14	[0, 0, 0]	n/a	FR1	1	R1124J
1485.294	0.007	1493977	COUNTDOWN_END	n/a	n/a	n/a	-999	14	[0, 0, 0]	n/a	FR1	1	R1124J
1485.301	3.767	1493984	ORIENT	n/a	n/a	n/a	-999	14	[0, 0, 0]	n/a	FR1	1	R1124J
1489.068	2.501	1497751	WORD	n/a	wordpools/wordpool_EN.txt	PHONE	1	14	[0, 0, 0]	n/a	FR1	1	R1124J
1491.569	2.45	1500252	WORD	n/a	wordpools/wordpool_EN.txt	SKI	2	14	[0, 0, 0]	n/a	FR1	1	R1124J
1494.019	2.434	1502702	WORD	n/a	wordpools/wordpool_EN.txt	FORT	3	14	[0, 0, 0]	n/a	FR1	1	R1124J
1496.453	2.449	1505136	WORD	n/a	wordpools/wordpool_EN.txt	ROCK	4	14	[0, 0, 0]	n/a	FR1	1	R1124J
1498.902	2.401	1507585	WORD	n/a	wordpools/wordpool_EN.txt	FROG	5	14	[0, 0, 0]	n/a	FR1	1	R1124J
1501.303	2.399	1509986	WORD	n/a	wordpools/wordpool_EN.txt	CLOCK	6	14	[0, 0, 0]	n/a	FR1	1	R1124J
1503.702	2.402	1512385	WORD	n/a	wordpools/wordpool_EN.txt	OAK	7	14	[0, 0, 0]	n/a	FR1	1	R1124J
1506.104	2.599	1514787	WORD	n/a	wordpools/wordpool_EN.txt	PEARL	8	14	[0, 0, 0]	n/a	FR1	1	R1124J
1508.703	2.435	1517386	WORD	n/a	wordpools/wordpool_EN.txt	STONE	9	14	[0, 0, 0]	n/a	FR1	1	R1124J
1511.138	2.566	1519821	WORD	n/a	wordpools/wordpool_EN.txt	FORK	10	14	[0, 0, 0]	n/a	FR1	1	R1124J
1513.704	2.468	1522387	WORD	n/a	wordpools/wordpool_EN.txt	HEART	11	14	[0, 0, 0]	n/a	FR1	1	R1124J
1516.172	1.615	1524855	WORD	n/a	wordpools/wordpool_EN.txt	FLEA	12	14	[0, 0, 0]	n/a	FR1	1	R1124J
1517.787	0.001	1526470	DISTRACT_START	n/a	n/a	n/a	-999	14	[0, 0, 0]	n/a	FR1	1	R1124J
1517.788	0.016	1526471	START	n/a	n/a	n/a	-999	14	[-999, -999, -999]	n/a	FR1	1	R1124J
1517.804	11.62	1526487	PROB	11.62	n/a	n/a	-999	14	[5, 3, 7]	15	FR1	1	R1124J
1529.424	5.55	1538107	PROB	5.55	n/a	n/a	-999	14	[3, 6, 2]	11	FR1	1	R1124J
1534.974	6.872	1543657	PROB	6.872	n/a	n/a	-999	14	[9, 7, 2]	18	FR1	1	R1124J
1541.846	0.012	1550528	STOP	n/a	n/a	n/a	-999	14	[-999, -999, -999]	n/a	FR1	1	R1124J
1541.858	1.034	1550540	DISTRACT_END	n/a	n/a	n/a	-999	14	[0, 0, 0]	n/a	FR1	1	R1124J
1542.892	2.36	1551574	REC_START	n/a	n/a	n/a	-999	14	[0, 0, 0]	n/a	FR1	1	R1124J
1545.252	3.99	1553934	REC_WORD	3.99	n/a	SKI	-999	14	[0, 0, 0]	n/a	FR1	1	R1124J
1549.242	3.559	1557924	REC_WORD	3.559	n/a	FORT	-999	14	[0, 0, 0]	n/a	FR1	1	R1124J
1552.801	3.93	1561483	REC_WORD	3.93	n/a	ROCK	-999	14	[0, 0, 0]	n/a	FR1	1	R1124J
1556.731	5.274	1565413	REC_WORD	5.274	n/a	PHONE	-999	14	[0, 0, 0]	n/a	FR1	1	R1124J
1562.005	10.896	1570687	REC_WORD	10.896	n/a	GUARD	-999	14	[0, 0, 0]	n/a	FR1	1	R1124J
1572.901	350.641	1581583	REC_END	n/a	n/a	n/a	-999	14	[0, 0, 0]	n/a	FR1	1	R1124J
1923.542	16.62	5558	SESS_START	n/a	n/a	n/a	-999	14	[0, 0, 0]	n/a	FR1	1	R1124J
1940.162	0.0	22178	COUNTDOWN_START	n/a	n/a	n/a	-999	15	[0, 0, 0]	n/a	FR1	1	R1124J
1940.162	10.428	22178	TRIAL	n/a	n/a	n/a	-999	15	[0, 0, 0]	n/a	FR1	1	R1124J
1950.59	0.006	32606	COUNTDOWN_END	n/a	n/a	n/a	-999	15	[0, 0, 0]	n/a	FR1	1	R1124J
1950.596	3.767	32612	ORIENT	n/a	n/a	n/a	-999	15	[0, 0, 0]	n/a	FR1	1	R1124J
1954.363	2.617	36379	WORD	n/a	wordpools/wordpool_EN.txt	BOARD	1	15	[0, 0, 0]	n/a	FR1	1	R1124J
1956.98	2.617	38996	WORD	n/a	wordpools/wordpool_EN.txt	TRAIN	2	15	[0, 0, 0]	n/a	FR1	1	R1124J
1959.597	2.535	41613	WORD	n/a	wordpools/wordpool_EN.txt	SHRIMP	3	15	[0, 0, 0]	n/a	FR1	1	R1124J
1962.132	2.399	44148	WORD	n/a	wordpools/wordpool_EN.txt	PIN	4	15	[0, 0, 0]	n/a	FR1	1	R1124J
1964.531	2.367	46547	WORD	n/a	wordpools/wordpool_EN.txt	TRASH	5	15	[0, 0, 0]	n/a	FR1	1	R1124J
1966.898	2.584	48914	WORD	n/a	wordpools/wordpool_EN.txt	KEY	6	15	[0, 0, 0]	n/a	FR1	1	R1124J
1969.482	2.568	51498	WORD	n/a	wordpools/wordpool_EN.txt	BOOT	7	15	[0, 0, 0]	n/a	FR1	1	R1124J
1972.05	2.583	54066	WORD	n/a	wordpools/wordpool_EN.txt	MULE	8	15	[0, 0, 0]	n/a	FR1	1	R1124J
1974.633	2.551	56649	WORD	n/a	wordpools/wordpool_EN.txt	BEAK	9	15	[0, 0, 0]	n/a	FR1	1	R1124J
1977.184	2.582	59199	WORD	n/a	wordpools/wordpool_EN.txt	JUICE	10	15	[0, 0, 0]	n/a	FR1	1	R1124J
1979.766	2.552	61781	WORD	n/a	wordpools/wordpool_EN.txt	CRANE	11	15	[0, 0, 0]	n/a	FR1	1	R1124J
1982.318	1.616	64333	WORD	n/a	wordpools/wordpool_EN.txt	SHELL	12	15	[0, 0, 0]	n/a	FR1	1	R1124J
1983.934	0.0	65949	DISTRACT_START	n/a	n/a	n/a	-999	15	[0, 0, 0]	n/a	FR1	1	R1124J
1983.934	0.017	65949	START	n/a	n/a	n/a	-999	15	[-999, -999, -999]	n/a	FR1	1	R1124J
1983.951	16.852	65966	PROB	16.852	n/a	n/a	-999	15	[6, 9, 7]	22	FR1	1	R1124J
2000.803	8.69	82818	PROB	8.69	n/a	n/a	-999	15	[2, 2, 6]	10	FR1	1	R1124J
2009.493	0.011	91508	STOP	n/a	n/a	n/a	-999	15	[-999, -999, -999]	n/a	FR1	1	R1124J
2009.504	1.101	91519	DISTRACT_END	n/a	n/a	n/a	-999	15	[0, 0, 0]	n/a	FR1	1	R1124J
2010.605	3.498	92620	REC_START	n/a	n/a	n/a	-999	15	[0, 0, 0]	n/a	FR1	1	R1124J
2014.103	2.076	96118	REC_WORD	2.076	n/a	TRAIN	-999	15	[0, 0, 0]	n/a	FR1	1	R1124J
2016.179	3.365	98194	REC_WORD	3.365	n/a	SHRIMP	-999	15	[0, 0, 0]	n/a	FR1	1	R1124J
2019.544	2.671	101559	REC_WORD	2.671	n/a	PIN	-999	15	[0, 0, 0]	n/a	FR1	1	R1124J
2022.215	1.779	104230	REC_WORD	1.779	n/a	TRASH	-999	15	[0, 0, 0]	n/a	FR1	1	R1124J
2023.994	16.621	106009	REC_WORD	16.621	n/a	BOARD	-999	15	[0, 0, 0]	n/a	FR1	1	R1124J
2040.615	3.227	122630	REC_END	n/a	n/a	n/a	-999	15	[0, 0, 0]	n/a	FR1	1	R1124J
2043.842	0.0	125857	TRIAL	n/a	n/a	n/a	-999	16	[0, 0, 0]	n/a	FR1	1	R1124J
2043.842	10.428	125857	COUNTDOWN_START	n/a	n/a	n/a	-999	16	[0, 0, 0]	n/a	FR1	1	R1124J
2054.27	0.008	136284	COUNTDOWN_END	n/a	n/a	n/a	-999	16	[0, 0, 0]	n/a	FR1	1	R1124J
2054.278	3.75	136292	ORIENT	n/a	n/a	n/a	-999	16	[0, 0, 0]	n/a	FR1	1	R1124J
2058.028	2.499	140042	WORD	n/a	wordpools/wordpool_EN.txt	PIE	1	16	[0, 0, 0]	n/a	FR1	1	R1124J
2060.527	2.552	142541	WORD	n/a	wordpools/wordpool_EN.txt	SLUSH	2	16	[0, 0, 0]	n/a	FR1	1	R1124J
2063.079	2.516	145093	WORD	n/a	wordpools/wordpool_EN.txt	FOG	3	16	[0, 0, 0]	n/a	FR1	1	R1124J
2065.595	2.551	147609	WORD	n/a	wordpools/wordpool_EN.txt	STAIR	4	16	[0, 0, 0]	n/a	FR1	1	R1124J
2068.146	2.55	150160	WORD	n/a	wordpools/wordpool_EN.txt	PANTS	5	16	[0, 0, 0]	n/a	FR1	1	R1124J
2070.696	2.451	152710	WORD	n/a	wordpools/wordpool_EN.txt	PEAR	6	16	[0, 0, 0]	n/a	FR1	1	R1124J
2073.147	2.5	155161	WORD	n/a	wordpools/wordpool_EN.txt	BROOM	7	16	[0, 0, 0]	n/a	FR1	1	R1124J
2075.647	2.617	157661	WORD	n/a	wordpools/wordpool_EN.txt	WOOD	8	16	[0, 0, 0]	n/a	FR1	1	R1124J
2078.264	2.5	160278	WORD	n/a	wordpools/wordpool_EN.txt	WORM	9	16	[0, 0, 0]	n/a	FR1	1	R1124J
2080.764	2.485	162778	WORD	n/a	wordpools/wordpool_EN.txt	ROOM	10	16	[0, 0, 0]	n/a	FR1	1	R1124J
2083.249	2.582	165263	WORD	n/a	wordpools/wordpool_EN.txt	NAIL	11	16	[0, 0, 0]	n/a	FR1	1	R1124J
2085.831	1.617	167845	WORD	n/a	wordpools/wordpool_EN.txt	SUIT	12	16	[0, 0, 0]	n/a	FR1	1	R1124J
2087.448	0.001	169462	DISTRACT_START	n/a	n/a	n/a	-999	16	[0, 0, 0]	n/a	FR1	1	R1124J
2087.449	0.016	169463	START	n/a	n/a	n/a	-999	16	[-999, -999, -999]	n/a	FR1	1	R1124J
2087.465	7.835	169479	PROB	7.835	n/a	n/a	-999	16	[1, 1, 5]	7	FR1	1	R1124J
2095.3	6.283	177314	PROB	6.283	n/a	n/a	-999	16	[8, 3, 1]	12	FR1	1	R1124J
2101.583	6.042	183597	PROB	6.042	n/a	n/a	-999	16	[1, 7, 1]	9	FR1	1	R1124J
2107.625	0.009	189639	STOP	n/a	n/a	n/a	-999	16	[-999, -999, -999]	n/a	FR1	1	R1124J
2107.634	1.167	189648	DISTRACT_END	n/a	n/a	n/a	-999	16	[0, 0, 0]	n/a	FR1	1	R1124J
2108.801	4.532	190815	REC_START	n/a	n/a	n/a	-999	16	[0, 0, 0]	n/a	FR1	1	R1124J
2113.333	4.578	195347	REC_WORD	4.578	n/a	PIE	-999	16	[0, 0, 0]	n/a	FR1	1	R1124J
2117.911	2.527	199925	REC_WORD	2.527	n/a	SLUSH	-999	16	[0, 0, 0]	n/a	FR1	1	R1124J
2120.438	6.15	202452	REC_WORD	6.15	n/a	FOG	-999	16	[0, 0, 0]	n/a	FR1	1	R1124J
2126.588	3.554	208602	REC_WORD	3.554	n/a	SNAIL	-999	16	[0, 0, 0]	n/a	FR1	1	R1124J
2130.142	8.674	212155	REC_WORD	8.674	n/a	PEAR	-999	16	[0, 0, 0]	n/a	FR1	1	R1124J
2138.816	3.189	220829	REC_END	n/a	n/a	n/a	-999	16	[0, 0, 0]	n/a	FR1	1	R1124J
2142.005	0.0	224018	COUNTDOWN_START	n/a	n/a	n/a	-999	17	[0, 0, 0]	n/a	FR1	1	R1124J
2142.005	10.428	224018	TRIAL	n/a	n/a	n/a	-999	17	[0, 0, 0]	n/a	FR1	1	R1124J
2152.433	0.007	234446	COUNTDOWN_END	n/a	n/a	n/a	-999	17	[0, 0, 0]	n/a	FR1	1	R1124J
2152.44	3.467	234453	ORIENT	n/a	n/a	n/a	-999	17	[0, 0, 0]	n/a	FR1	1	R1124J
2155.907	2.534	237920	WORD	n/a	wordpools/wordpool_EN.txt	CLIFF	1	17	[0, 0, 0]	n/a	FR1	1	R1124J
2158.441	2.434	240454	WORD	n/a	wordpools/wordpool_EN.txt	BADGE	2	17	[0, 0, 0]	n/a	FR1	1	R1124J
2160.875	2.418	242888	WORD	n/a	wordpools/wordpool_EN.txt	BAND	3	17	[0, 0, 0]	n/a	FR1	1	R1124J
2163.293	2.499	245306	WORD	n/a	wordpools/wordpool_EN.txt	RIB	4	17	[0, 0, 0]	n/a	FR1	1	R1124J
2165.792	2.434	247805	WORD	n/a	wordpools/wordpool_EN.txt	GOLD	5	17	[0, 0, 0]	n/a	FR1	1	R1124J
2168.226	2.55	250239	WORD	n/a	wordpools/wordpool_EN.txt	TAIL	6	17	[0, 0, 0]	n/a	FR1	1	R1124J
2170.776	2.584	252789	WORD	n/a	wordpools/wordpool_EN.txt	ROOF	7	17	[0, 0, 0]	n/a	FR1	1	R1124J
2173.36	2.55	255373	WORD	n/a	wordpools/wordpool_EN.txt	FUR	8	17	[0, 0, 0]	n/a	FR1	1	R1124J
2175.91	2.55	257923	WORD	n/a	wordpools/wordpool_EN.txt	TRUCK	9	17	[0, 0, 0]	n/a	FR1	1	R1124J
2178.46	2.55	260473	WORD	n/a	wordpools/wordpool_EN.txt	ROSE	10	17	[0, 0, 0]	n/a	FR1	1	R1124J
2181.01	2.417	263023	WORD	n/a	wordpools/wordpool_EN.txt	PIG	11	17	[0, 0, 0]	n/a	FR1	1	R1124J
2183.427	1.601	265440	WORD	n/a	wordpools/wordpool_EN.txt	STORM	12	17	[0, 0, 0]	n/a	FR1	1	R1124J
2185.028	0.001	267041	DISTRACT_START	n/a	n/a	n/a	-999	17	[0, 0, 0]	n/a	FR1	1	R1124J
2185.029	0.016	267042	START	n/a	n/a	n/a	-999	17	[-999, -999, -999]	n/a	FR1	1	R1124J
2185.045	5.684	267058	PROB	5.684	n/a	n/a	-999	17	[5, 1, 1]	7	FR1	1	R1124J
2190.729	9.319	272742	PROB	9.319	n/a	n/a	-999	17	[5, 6, 9]	20	FR1	1	R1124J
2200.048	6.718	282061	PROB	6.718	n/a	n/a	-999	17	[6, 5, 2]	13	FR1	1	R1124J
2206.766	0.015	288778	STOP	n/a	n/a	n/a	-999	17	[-999, -999, -999]	n/a	FR1	1	R1124J
2206.781	1.051	288793	DISTRACT_END	n/a	n/a	n/a	-999	17	[0, 0, 0]	n/a	FR1	1	R1124J
2207.832	3.297	289844	REC_START	n/a	n/a	n/a	-999	17	[0, 0, 0]	n/a	FR1	1	R1124J
2211.129	2.658	293141	REC_WORD	2.658	n/a	BADGE	-999	17	[0, 0, 0]	n/a	FR1	1	R1124J
2213.787	3.697	295799	REC_WORD	3.697	n/a	BAND	-999	17	[0, 0, 0]	n/a	FR1	1	R1124J
2217.484	3.978	299496	REC_WORD	3.978	n/a	RIB	-999	17	[0, 0, 0]	n/a	FR1	1	R1124J
2221.462	3.882	303474	REC_WORD	3.882	n/a	GOLD	-999	17	[0, 0, 0]	n/a	FR1	1	R1124J
2225.344	12.499	307356	REC_WORD	12.499	n/a	CLIFF	-999	17	[0, 0, 0]	n/a	FR1	1	R1124J
2237.843	3.21	319855	REC_END	n/a	n/a	n/a	-999	17	[0, 0, 0]	n/a	FR1	1	R1124J
2241.053	0.0	323065	TRIAL	n/a	n/a	n/a	-999	18	[0, 0, 0]	n/a	FR1	1	R1124J
2241.053	10.428	323065	COUNTDOWN_START	n/a	n/a	n/a	-999	18	[0, 0, 0]	n/a	FR1	1	R1124J
2251.481	0.006	333493	COUNTDOWN_END	n/a	n/a	n/a	-999	18	[0, 0, 0]	n/a	FR1	1	R1124J
2251.487	3.384	333499	ORIENT	n/a	n/a	n/a	-999	18	[0, 0, 0]	n/a	FR1	1	R1124J
2254.871	2.517	336883	WORD	n/a	wordpools/wordpool_EN.txt	ROPE	1	18	[0, 0, 0]	n/a	FR1	1	R1124J
2257.388	2.417	339400	WORD	n/a	wordpools/wordpool_EN.txt	DOG	2	18	[0, 0, 0]	n/a	FR1	1	R1124J
2259.805	2.617	341817	WORD	n/a	wordpools/wordpool_EN.txt	BOY	3	18	[0, 0, 0]	n/a	FR1	1	R1124J
2262.422	2.467	344434	WORD	n/a	wordpools/wordpool_EN.txt	LAWN	4	18	[0, 0, 0]	n/a	FR1	1	R1124J
2264.889	2.484	346901	WORD	n/a	wordpools/wordpool_EN.txt	CHEEK	5	18	[0, 0, 0]	n/a	FR1	1	R1124J
2267.373	2.566	349385	WORD	n/a	wordpools/wordpool_EN.txt	CALF	6	18	[0, 0, 0]	n/a	FR1	1	R1124J
2269.939	2.584	351951	WORD	n/a	wordpools/wordpool_EN.txt	PIPE	7	18	[0, 0, 0]	n/a	FR1	1	R1124J
2272.523	2.601	354535	WORD	n/a	wordpools/wordpool_EN.txt	RUG	8	18	[0, 0, 0]	n/a	FR1	1	R1124J
2275.124	2.417	357136	WORD	n/a	wordpools/wordpool_EN.txt	SPOON	9	18	[0, 0, 0]	n/a	FR1	1	R1124J
2277.541	2.617	359553	WORD	n/a	wordpools/wordpool_EN.txt	BARN	10	18	[0, 0, 0]	n/a	FR1	1	R1124J
2280.158	2.616	362170	WORD	n/a	wordpools/wordpool_EN.txt	BED	11	18	[0, 0, 0]	n/a	FR1	1	R1124J
2282.774	1.617	364785	WORD	n/a	wordpools/wordpool_EN.txt	TOY	12	18	[0, 0, 0]	n/a	FR1	1	R1124J
2284.391	0.001	366402	DISTRACT_START	n/a	n/a	n/a	-999	18	[0, 0, 0]	n/a	FR1	1	R1124J
2284.392	0.016	366403	START	n/a	n/a	n/a	-999	18	[-999, -999, -999]	n/a	FR1	1	R1124J
2284.408	7.785	366419	PROB	7.785	n/a	n/a	-999	18	[1, 9, 6]	16	FR1	1	R1124J
2292.193	8.167	374204	PROB	8.167	n/a	n/a	-999	18	[1, 7, 9]	17	FR1	1	R1124J
2300.36	4.948	382371	PROB	4.948	n/a	n/a	-999	18	[5, 7, 2]	14	FR1	1	R1124J
2305.308	0.003	387319	STOP	n/a	n/a	n/a	-999	18	[-999, -999, -999]	n/a	FR1	1	R1124J
2305.311	1.05	387322	DISTRACT_END	n/a	n/a	n/a	-999	18	[0, 0, 0]	n/a	FR1	1	R1124J
2306.361	3.839	388372	REC_START	n/a	n/a	n/a	-999	18	[0, 0, 0]	n/a	FR1	1	R1124J
2310.2	3.738	392211	REC_WORD	3.738	n/a	DOG	-999	18	[0, 0, 0]	n/a	FR1	1	R1124J
2313.938	2.554	395949	REC_WORD	2.554	n/a	BOY	-999	18	[0, 0, 0]	n/a	FR1	1	R1124J
2316.492	3.136	398503	REC_WORD	3.136	n/a	LAWN	-999	18	[0, 0, 0]	n/a	FR1	1	R1124J
2319.628	3.851	401639	REC_WORD	3.851	n/a	CHEEK	-999	18	[0, 0, 0]	n/a	FR1	1	R1124J
2323.479	12.897	405490	REC_WORD	12.897	n/a	ROPE	-999	18	[0, 0, 0]	n/a	FR1	1	R1124J
2336.376	3.824	418387	REC_END	n/a	n/a	n/a	-999	18	[0, 0, 0]	n/a	FR1	1	R1124J
2340.2	0.0	422211	COUNTDOWN_START	n/a	n/a	n/a	-999	19	[0, 0, 0]	n/a	FR1	1	R1124J
2340.2	10.428	422211	TRIAL	n/a	n/a	n/a	-999	19	[0, 0, 0]	n/a	FR1	1	R1124J
2350.628	0.005	432639	COUNTDOWN_END	n/a	n/a	n/a	-999	19	[0, 0, 0]	n/a	FR1	1	R1124J
2350.633	3.669	432644	ORIENT	n/a	n/a	n/a	-999	19	[0, 0, 0]	n/a	FR1	1	R1124J
2354.302	2.616	436313	WORD	n/a	wordpools/wordpool_EN.txt	DRUM	1	19	[0, 0, 0]	n/a	FR1	1	R1124J
2356.918	2.45	438929	WORD	n/a	wordpools/wordpool_EN.txt	HOUSE	2	19	[0, 0, 0]	n/a	FR1	1	R1124J
2359.368	2.584	441378	WORD	n/a	wordpools/wordpool_EN.txt	EEL	3	19	[0, 0, 0]	n/a	FR1	1	R1124J
2361.952	2.55	443962	WORD	n/a	wordpools/wordpool_EN.txt	SHIP	4	19	[0, 0, 0]	n/a	FR1	1	R1124J
2364.502	2.552	446512	WORD	n/a	wordpools/wordpool_EN.txt	LEAF	5	19	[0, 0, 0]	n/a	FR1	1	R1124J
2367.054	2.382	449064	WORD	n/a	wordpools/wordpool_EN.txt	HORN	6	19	[0, 0, 0]	n/a	FR1	1	R1124J
2369.436	2.534	451446	WORD	n/a	wordpools/wordpool_EN.txt	TOAD	7	19	[0, 0, 0]	n/a	FR1	1	R1124J
2371.97	2.584	453980	WORD	n/a	wordpools/wordpool_EN.txt	PLANE	8	19	[0, 0, 0]	n/a	FR1	1	R1124J
2374.554	2.4	456564	WORD	n/a	wordpools/wordpool_EN.txt	HORSE	9	19	[0, 0, 0]	n/a	FR1	1	R1124J
2376.954	2.534	458964	WORD	n/a	wordpools/wordpool_EN.txt	JUDGE	10	19	[0, 0, 0]	n/a	FR1	1	R1124J
2379.488	2.417	461498	WORD	n/a	wordpools/wordpool_EN.txt	POND	11	19	[0, 0, 0]	n/a	FR1	1	R1124J
2381.905	1.617	463915	WORD	n/a	wordpools/wordpool_EN.txt	CORD	12	19	[0, 0, 0]	n/a	FR1	1	R1124J
2383.522	0.0	465532	DISTRACT_START	n/a	n/a	n/a	-999	19	[0, 0, 0]	n/a	FR1	1	R1124J
2383.522	0.016	465532	START	n/a	n/a	n/a	-999	19	[-999, -999, -999]	n/a	FR1	1	R1124J
2383.538	9.636	465548	PROB	9.636	n/a	n/a	-999	19	[8, 4, 6]	18	FR1	1	R1124J
2393.174	5.233	475184	PROB	5.233	n/a	n/a	-999	19	[6, 1, 8]	15	FR1	1	R1124J
2398.407	7.256	480417	PROB	7.256	n/a	n/a	-999	19	[9, 9, 3]	21	FR1	1	R1124J
2405.663	0.011	487673	STOP	n/a	n/a	n/a	-999	19	[-999, -999, -999]	n/a	FR1	1	R1124J
2405.674	1.085	487684	DISTRACT_END	n/a	n/a	n/a	-999	19	[0, 0, 0]	n/a	FR1	1	R1124J
2406.759	3.537	488769	REC_START	n/a	n/a	n/a	-999	19	[0, 0, 0]	n/a	FR1	1	R1124J
2410.296	3.279	492306	REC_WORD	3.279	n/a	HOUSE	-999	19	[0, 0, 0]	n/a	FR1	1	R1124J
2413.575	3.176	495585	REC_WORD	3.176	n/a	EEL	-999	19	[0, 0, 0]	n/a	FR1	1	R1124J
2416.751	3.874	498761	REC_WORD	3.874	n/a	SHIP	-999	19	[0, 0, 0]	n/a	FR1	1	R1124J
2420.625	3.375	502635	REC_WORD	3.375	n/a	LEAF	-999	19	[0, 0, 0]	n/a	FR1	1	R1124J
2424.0	12.769	506010	REC_WORD	12.769	n/a	HORSE	-999	19	[0, 0, 0]	n/a	FR1	1	R1124J
2436.769	2.927	518778	REC_END	n/a	n/a	n/a	-999	19	[0, 0, 0]	n/a	FR1	1	R1124J
2439.696	0.0	521705	TRIAL	n/a	n/a	n/a	-999	20	[0, 0, 0]	n/a	FR1	1	R1124J
2439.696	10.428	521705	COUNTDOWN_START	n/a	n/a	n/a	-999	20	[0, 0, 0]	n/a	FR1	1	R1124J
2450.124	0.007	532133	COUNTDOWN_END	n/a	n/a	n/a	-999	20	[0, 0, 0]	n/a	FR1	1	R1124J
2450.131	3.6	532140	ORIENT	n/a	n/a	n/a	-999	20	[0, 0, 0]	n/a	FR1	1	R1124J
2453.731	2.451	535740	WORD	n/a	wordpools/wordpool_EN.txt	SALT	1	20	[0, 0, 0]	n/a	FR1	1	R1124J
2456.182	2.566	538191	WORD	n/a	wordpools/wordpool_EN.txt	WING	2	20	[0, 0, 0]	n/a	FR1	1	R1124J
2458.748	2.502	540757	WORD	n/a	wordpools/wordpool_EN.txt	PET	3	20	[0, 0, 0]	n/a	FR1	1	R1124J
2461.25	2.532	543259	WORD	n/a	wordpools/wordpool_EN.txt	SQUARE	4	20	[0, 0, 0]	n/a	FR1	1	R1124J
2463.782	2.452	545791	WORD	n/a	wordpools/wordpool_EN.txt	FILM	5	20	[0, 0, 0]	n/a	FR1	1	R1124J
2466.234	2.615	548243	WORD	n/a	wordpools/wordpool_EN.txt	JET	6	20	[0, 0, 0]	n/a	FR1	1	R1124J
2468.849	2.452	550858	WORD	n/a	wordpools/wordpool_EN.txt	BRIDGE	7	20	[0, 0, 0]	n/a	FR1	1	R1124J
2471.301	2.466	553310	WORD	n/a	wordpools/wordpool_EN.txt	MOTH	8	20	[0, 0, 0]	n/a	FR1	1	R1124J
2473.767	2.385	555776	WORD	n/a	wordpools/wordpool_EN.txt	BLUSH	9	20	[0, 0, 0]	n/a	FR1	1	R1124J
2476.152	2.382	558161	WORD	n/a	wordpools/wordpool_EN.txt	LAND	10	20	[0, 0, 0]	n/a	FR1	1	R1124J
2478.534	2.467	560543	WORD	n/a	wordpools/wordpool_EN.txt	WOLF	11	20	[0, 0, 0]	n/a	FR1	1	R1124J
2481.001	1.617	563010	WORD	n/a	wordpools/wordpool_EN.txt	FOOD	12	20	[0, 0, 0]	n/a	FR1	1	R1124J
2482.618	0.001	564627	DISTRACT_START	n/a	n/a	n/a	-999	20	[0, 0, 0]	n/a	FR1	1	R1124J
2482.619	0.016	564628	START	n/a	n/a	n/a	-999	20	[-999, -999, -999]	n/a	FR1	1	R1124J
2482.635	12.718	564644	PROB	12.718	n/a	n/a	-999	20	[5, 2, 6]	13	FR1	1	R1124J
2495.353	9.059	577362	PROB	9.059	n/a	n/a	-999	20	[9, 4, 9]	21	FR1	1	R1124J
2504.412	0.009	586421	STOP	n/a	n/a	n/a	-999	20	[-999, -999, -999]	n/a	FR1	1	R1124J
2504.421	1.151	586430	DISTRACT_END	n/a	n/a	n/a	-999	20	[0, 0, 0]	n/a	FR1	1	R1124J
2505.572	2.96	587581	REC_START	n/a	n/a	n/a	-999	20	[0, 0, 0]	n/a	FR1	1	R1124J
2508.532	2.766	590541	REC_WORD	2.766	n/a	SALT	-999	20	[0, 0, 0]	n/a	FR1	1	R1124J
2511.298	2.911	593307	REC_WORD	2.911	n/a	WING	-999	20	[0, 0, 0]	n/a	FR1	1	R1124J
2514.209	3.211	596217	REC_WORD	3.211	n/a	PET	-999	20	[0, 0, 0]	n/a	FR1	1	R1124J
2517.42	3.566	599428	REC_WORD	3.566	n/a	SQUARE	-999	20	[0, 0, 0]	n/a	FR1	1	R1124J
2520.986	14.596	602994	REC_WORD	14.596	n/a	FILM	-999	20	[0, 0, 0]	n/a	FR1	1	R1124J
2535.582	3.31	617590	REC_END	n/a	n/a	n/a	-999	20	[0, 0, 0]	n/a	FR1	1	R1124J
2538.892	0.0	620900	COUNTDOWN_START	n/a	n/a	n/a	-999	21	[0, 0, 0]	n/a	FR1	1	R1124J
2538.892	10.428	620900	TRIAL	n/a	n/a	n/a	-999	21	[0, 0, 0]	n/a	FR1	1	R1124J
2549.32	0.007	631328	COUNTDOWN_END	n/a	n/a	n/a	-999	21	[0, 0, 0]	n/a	FR1	1	R1124J
2549.327	3.701	631335	ORIENT	n/a	n/a	n/a	-999	21	[0, 0, 0]	n/a	FR1	1	R1124J
2553.028	2.467	635036	WORD	n/a	wordpools/wordpool_EN.txt	MOLE	1	21	[0, 0, 0]	n/a	FR1	1	R1124J
2555.495	2.383	637503	WORD	n/a	wordpools/wordpool_EN.txt	STORE	2	21	[0, 0, 0]	n/a	FR1	1	R1124J
2557.878	2.401	639886	WORD	n/a	wordpools/wordpool_EN.txt	ICE	3	21	[0, 0, 0]	n/a	FR1	1	R1124J
2560.279	2.5	642287	WORD	n/a	wordpools/wordpool_EN.txt	WHEEL	4	21	[0, 0, 0]	n/a	FR1	1	R1124J
2562.779	2.468	644787	WORD	n/a	wordpools/wordpool_EN.txt	TREE	5	21	[0, 0, 0]	n/a	FR1	1	R1124J
2565.247	2.549	647255	WORD	n/a	wordpools/wordpool_EN.txt	SMOKE	6	21	[0, 0, 0]	n/a	FR1	1	R1124J
2567.796	2.634	649804	WORD	n/a	wordpools/wordpool_EN.txt	DOCK	7	21	[0, 0, 0]	n/a	FR1	1	R1124J
2570.43	2.467	652438	WORD	n/a	wordpools/wordpool_EN.txt	STRING	8	21	[0, 0, 0]	n/a	FR1	1	R1124J
2572.897	2.533	654905	WORD	n/a	wordpools/wordpool_EN.txt	WORLD	9	21	[0, 0, 0]	n/a	FR1	1	R1124J
2575.43	2.4	657438	WORD	n/a	wordpools/wordpool_EN.txt	TEETH	10	21	[0, 0, 0]	n/a	FR1	1	R1124J
2577.83	2.501	659838	WORD	n/a	wordpools/wordpool_EN.txt	MOUSE	11	21	[0, 0, 0]	n/a	FR1	1	R1124J
2580.331	1.617	662339	WORD	n/a	wordpools/wordpool_EN.txt	PRINCE	12	21	[0, 0, 0]	n/a	FR1	1	R1124J
2581.948	0.0	663956	DISTRACT_START	n/a	n/a	n/a	-999	21	[0, 0, 0]	n/a	FR1	1	R1124J
2581.948	0.017	663956	START	n/a	n/a	n/a	-999	21	[-999, -999, -999]	n/a	FR1	1	R1124J
2581.965	6.784	663973	PROB	6.784	n/a	n/a	-999	21	[7, 7, 1]	15	FR1	1	R1124J
2588.749	14.251	670757	PROB	14.251	n/a	n/a	-999	21	[8, 7, 7]	22	FR1	1	R1124J
2603.0	0.018	685007	STOP	n/a	n/a	n/a	-999	21	[-999, -999, -999]	n/a	FR1	1	R1124J
2603.018	1.103	685025	DISTRACT_END	n/a	n/a	n/a	-999	21	[0, 0, 0]	n/a	FR1	1	R1124J
2604.121	3.494	686128	REC_START	n/a	n/a	n/a	-999	21	[0, 0, 0]	n/a	FR1	1	R1124J
2607.615	3.846	689622	REC_WORD	3.846	n/a	MOLE	-999	21	[0, 0, 0]	n/a	FR1	1	R1124J
2611.461	3.357	693468	REC_WORD	3.357	n/a	STORE	-999	21	[0, 0, 0]	n/a	FR1	1	R1124J
2614.818	2.784	696825	REC_WORD	2.784	n/a	ICE	-999	21	[0, 0, 0]	n/a	FR1	1	R1124J
2617.602	3.513	699609	REC_WORD	3.513	n/a	WHEEL	-999	21	[0, 0, 0]	n/a	FR1	1	R1124J
2621.115	13.015	703122	REC_WORD	13.015	n/a	PET	-999	21	[0, 0, 0]	n/a	FR1	1	R1124J
2634.13	3.759	716137	REC_END	n/a	n/a	n/a	-999	21	[0, 0, 0]	n/a	FR1	1	R1124J
2637.889	0.0	719896	TRIAL	n/a	n/a	n/a	-999	22	[0, 0, 0]	n/a	FR1	1	R1124J
2637.889	10.428	719896	COUNTDOWN_START	n/a	n/a	n/a	-999	22	[0, 0, 0]	n/a	FR1	1	R1124J
2648.317	0.006	730324	COUNTDOWN_END	n/a	n/a	n/a	-999	22	[0, 0, 0]	n/a	FR1	1	R1124J
2648.323	3.719	730330	ORIENT	n/a	n/a	n/a	-999	22	[0, 0, 0]	n/a	FR1	1	R1124J
2652.042	2.582	734049	WORD	n/a	wordpools/wordpool_EN.txt	NEST	1	22	[0, 0, 0]	n/a	FR1	1	R1124J
2654.624	2.402	736631	WORD	n/a	wordpools/wordpool_EN.txt	PALM	2	22	[0, 0, 0]	n/a	FR1	1	R1124J
2657.026	2.565	739033	WORD	n/a	wordpools/wordpool_EN.txt	FOAM	3	22	[0, 0, 0]	n/a	FR1	1	R1124J
2659.591	2.519	741598	WORD	n/a	wordpools/wordpool_EN.txt	GEESE	4	22	[0, 0, 0]	n/a	FR1	1	R1124J
2662.11	2.532	744117	WORD	n/a	wordpools/wordpool_EN.txt	TOAST	5	22	[0, 0, 0]	n/a	FR1	1	R1124J
2664.642	2.602	746649	WORD	n/a	wordpools/wordpool_EN.txt	WEED	6	22	[0, 0, 0]	n/a	FR1	1	R1124J
2667.244	2.416	749250	WORD	n/a	wordpools/wordpool_EN.txt	BAG	7	22	[0, 0, 0]	n/a	FR1	1	R1124J
2669.66	2.418	751666	WORD	n/a	wordpools/wordpool_EN.txt	COW	8	22	[0, 0, 0]	n/a	FR1	1	R1124J
2672.078	2.566	754084	WORD	n/a	wordpools/wordpool_EN.txt	TRAY	9	22	[0, 0, 0]	n/a	FR1	1	R1124J
2674.644	2.401	756650	WORD	n/a	wordpools/wordpool_EN.txt	FENCE	10	22	[0, 0, 0]	n/a	FR1	1	R1124J
2677.045	2.533	759051	WORD	n/a	wordpools/wordpool_EN.txt	SINK	11	22	[0, 0, 0]	n/a	FR1	1	R1124J
2679.578	1.618	761584	WORD	n/a	wordpools/wordpool_EN.txt	SNOW	12	22	[0, 0, 0]	n/a	FR1	1	R1124J
2681.196	0.0	763202	DISTRACT_START	n/a	n/a	n/a	-999	22	[0, 0, 0]	n/a	FR1	1	R1124J
2681.196	0.016	763202	START	n/a	n/a	n/a	-999	22	[-999, -999, -999]	n/a	FR1	1	R1124J
2681.212	8.684	763218	PROB	8.684	n/a	n/a	-999	22	[2, 3, 1]	6	FR1	1	R1124J
2689.896	8.451	771902	PROB	8.451	n/a	n/a	-999	22	[1, 8, 5]	14	FR1	1	R1124J
2698.347	4.683	780353	PROB	4.683	n/a	n/a	-999	22	[3, 3, 1]	7	FR1	1	R1124J
2703.03	0.019	785036	STOP	n/a	n/a	n/a	-999	22	[-999, -999, -999]	n/a	FR1	1	R1124J
2703.049	1.184	785055	DISTRACT_END	n/a	n/a	n/a	-999	22	[0, 0, 0]	n/a	FR1	1	R1124J
2704.233	3.945	786239	REC_START	n/a	n/a	n/a	-999	22	[0, 0, 0]	n/a	FR1	1	R1124J
2708.178	3.924	790184	REC_WORD	3.924	n/a	NEST	-999	22	[0, 0, 0]	n/a	FR1	1	R1124J
2712.102	4.185	794108	REC_WORD	4.185	n/a	PALM	-999	22	[0, 0, 0]	n/a	FR1	1	R1124J
2716.287	3.722	798293	REC_WORD	3.722	n/a	GEESE	-999	22	[0, 0, 0]	n/a	FR1	1	R1124J
2720.009	14.235	802015	REC_WORD	14.235	n/a	FEAST	-999	22	[0, 0, 0]	n/a	FR1	1	R1124J
2734.244	2.725	816250	REC_END	n/a	n/a	n/a	-999	22	[0, 0, 0]	n/a	FR1	1	R1124J
2736.969	0.0	818975	TRIAL	n/a	n/a	n/a	-999	23	[0, 0, 0]	n/a	FR1	1	R1124J
2736.969	10.428	818975	COUNTDOWN_START	n/a	n/a	n/a	-999	23	[0, 0, 0]	n/a	FR1	1	R1124J
2747.397	0.007	829402	COUNTDOWN_END	n/a	n/a	n/a	-999	23	[0, 0, 0]	n/a	FR1	1	R1124J
2747.404	3.851	829409	ORIENT	n/a	n/a	n/a	-999	23	[0, 0, 0]	n/a	FR1	1	R1124J
2751.255	2.45	833260	WORD	n/a	wordpools/wordpool_EN.txt	TEA	1	23	[0, 0, 0]	n/a	FR1	1	R1124J
2753.705	2.584	835710	WORD	n/a	wordpools/wordpool_EN.txt	BIRD	2	23	[0, 0, 0]	n/a	FR1	1	R1124J
2756.289	2.466	838294	WORD	n/a	wordpools/wordpool_EN.txt	SLIME	3	23	[0, 0, 0]	n/a	FR1	1	R1124J
2758.755	2.518	840760	WORD	n/a	wordpools/wordpool_EN.txt	BOMB	4	23	[0, 0, 0]	n/a	FR1	1	R1124J
2761.273	2.516	843278	WORD	n/a	wordpools/wordpool_EN.txt	SOAP	5	23	[0, 0, 0]	n/a	FR1	1	R1124J
2763.789	2.485	845794	WORD	n/a	wordpools/wordpool_EN.txt	TOOTH	6	23	[0, 0, 0]	n/a	FR1	1	R1124J
2766.274	2.516	848279	WORD	n/a	wordpools/wordpool_EN.txt	PLANT	7	23	[0, 0, 0]	n/a	FR1	1	R1124J
2768.79	2.401	850795	WORD	n/a	wordpools/wordpool_EN.txt	AXE	8	23	[0, 0, 0]	n/a	FR1	1	R1124J
2771.191	2.549	853196	WORD	n/a	wordpools/wordpool_EN.txt	STOVE	9	23	[0, 0, 0]	n/a	FR1	1	R1124J
2773.74	2.618	855745	WORD	n/a	wordpools/wordpool_EN.txt	CAVE	10	23	[0, 0, 0]	n/a	FR1	1	R1124J
2776.358	2.616	858363	WORD	n/a	wordpools/wordpool_EN.txt	HILL	11	23	[0, 0, 0]	n/a	FR1	1	R1124J
2778.974	1.617	860979	WORD	n/a	wordpools/wordpool_EN.txt	ANT	12	23	[0, 0, 0]	n/a	FR1	1	R1124J
2780.591	0.001	862596	DISTRACT_START	n/a	n/a	n/a	-999	23	[0, 0, 0]	n/a	FR1	1	R1124J
2780.592	0.016	862597	START	n/a	n/a	n/a	-999	23	[-999, -999, -999]	n/a	FR1	1	R1124J
2780.608	8.419	862613	PROB	8.419	n/a	n/a	-999	23	[3, 1, 3]	7	FR1	1	R1124J
2789.027	12.55	871032	PROB	12.55	n/a	n/a	-999	23	[2, 9, 8]	19	FR1	1	R1124J
2801.577	0.017	883582	STOP	n/a	n/a	n/a	-999	23	[-999, -999, -999]	n/a	FR1	1	R1124J
2801.594	1.217	883599	DISTRACT_END	n/a	n/a	n/a	-999	23	[0, 0, 0]	n/a	FR1	1	R1124J
2802.811	1.723	884816	REC_START	n/a	n/a	n/a	-999	23	[0, 0, 0]	n/a	FR1	1	R1124J
2804.534	3.315	886539	REC_WORD	3.315	n/a	SMILE	-999	23	[0, 0, 0]	n/a	FR1	1	R1124J
2807.849	3.405	889854	REC_WORD	3.405	n/a	BOMB	-999	23	[0, 0, 0]	n/a	FR1	1	R1124J
2811.254	4.644	893259	REC_WORD	4.644	n/a	SOAP	-999	23	[0, 0, 0]	n/a	FR1	1	R1124J
2815.898	1.305	897903	REC_WORD	1.305	n/a	TEA	-999	23	[0, 0, 0]	n/a	FR1	1	R1124J
2817.203	15.622	899208	REC_WORD	15.622	n/a	BIRD	-999	23	[0, 0, 0]	n/a	FR1	1	R1124J
2832.825	3.492	914829	REC_END	n/a	n/a	n/a	-999	23	[0, 0, 0]	n/a	FR1	1	R1124J
2836.317	0.0	918321	TRIAL	n/a	n/a	n/a	-999	24	[0, 0, 0]	n/a	FR1	1	R1124J
2836.317	10.428	918321	COUNTDOWN_START	n/a	n/a	n/a	-999	24	[0, 0, 0]	n/a	FR1	1	R1124J
2846.745	0.005	928749	COUNTDOWN_END	n/a	n/a	n/a	-999	24	[0, 0, 0]	n/a	FR1	1	R1124J
2846.75	3.634	928754	ORIENT	n/a	n/a	n/a	-999	24	[0, 0, 0]	n/a	FR1	1	R1124J
2850.384	2.467	932388	WORD	n/a	wordpools/wordpool_EN.txt	BALL	1	24	[0, 0, 0]	n/a	FR1	1	R1124J
2852.851	2.435	934855	WORD	n/a	wordpools/wordpool_EN.txt	SPONGE	2	24	[0, 0, 0]	n/a	FR1	1	R1124J
2855.286	2.532	937290	WORD	n/a	wordpools/wordpool_EN.txt	MAZE	3	24	[0, 0, 0]	n/a	FR1	1	R1124J
2857.818	2.534	939822	WORD	n/a	wordpools/wordpool_EN.txt	MOON	4	24	[0, 0, 0]	n/a	FR1	1	R1124J
2860.352	2.617	942356	WORD	n/a	wordpools/wordpool_EN.txt	STAR	5	24	[0, 0, 0]	n/a	FR1	1	R1124J
2862.969	2.551	944973	WORD	n/a	wordpools/wordpool_EN.txt	SCHOOL	6	24	[0, 0, 0]	n/a	FR1	1	R1124J
2865.52	2.634	947524	WORD	n/a	wordpools/wordpool_EN.txt	BOWL	7	24	[0, 0, 0]	n/a	FR1	1	R1124J
2868.154	2.55	950158	WORD	n/a	wordpools/wordpool_EN.txt	BEACH	8	24	[0, 0, 0]	n/a	FR1	1	R1124J
2870.704	2.601	952708	WORD	n/a	wordpools/wordpool_EN.txt	KITE	9	24	[0, 0, 0]	n/a	FR1	1	R1124J
2873.305	2.616	955309	WORD	n/a	wordpools/wordpool_EN.txt	NET	10	24	[0, 0, 0]	n/a	FR1	1	R1124J
2875.921	2.45	957925	WORD	n/a	wordpools/wordpool_EN.txt	SIGN	11	24	[0, 0, 0]	n/a	FR1	1	R1124J
2878.371	1.617	960375	WORD	n/a	wordpools/wordpool_EN.txt	BLOOM	12	24	[0, 0, 0]	n/a	FR1	1	R1124J
2879.988	0.001	961992	DISTRACT_START	n/a	n/a	n/a	-999	24	[0, 0, 0]	n/a	FR1	1	R1124J
2879.989	0.016	961993	START	n/a	n/a	n/a	-999	24	[-999, -999, -999]	n/a	FR1	1	R1124J
2880.005	19.386	962009	PROB	19.386	n/a	n/a	-999	24	[7, 8, 8]	23	FR1	1	R1124J
2899.391	8.19	981394	PROB	8.19	n/a	n/a	-999	24	[2, 5, 7]	14	FR1	1	R1124J
2907.581	0.011	989584	STOP	n/a	n/a	n/a	-999	24	[-999, -999, -999]	n/a	FR1	1	R1124J
2907.592	1.217	989595	DISTRACT_END	n/a	n/a	n/a	-999	24	[0, 0, 0]	n/a	FR1	1	R1124J
2908.809	3.331	990812	REC_START	n/a	n/a	n/a	-999	24	[0, 0, 0]	n/a	FR1	1	R1124J
2912.14	3.031	994143	REC_WORD	3.031	n/a	BALL	-999	24	[0, 0, 0]	n/a	FR1	1	R1124J
2915.171	4.09	997174	REC_WORD	4.09	n/a	SPONGE	-999	24	[0, 0, 0]	n/a	FR1	1	R1124J
2919.261	4.435	1001264	REC_WORD	4.435	n/a	MAZE	-999	24	[0, 0, 0]	n/a	FR1	1	R1124J
2923.696	7.764	1005699	REC_WORD	7.764	n/a	MOON	-999	24	[0, 0, 0]	n/a	FR1	1	R1124J
2931.46	7.363	1013463	REC_WORD	7.363	n/a	STAR	-999	24	[0, 0, 0]	n/a	FR1	1	R1124J
2938.823	3.024	1020826	REC_END	n/a	n/a	n/a	-999	24	[0, 0, 0]	n/a	FR1	1	R1124J
2941.847	0.0	1023850	TRIAL	n/a	n/a	n/a	-999	25	[0, 0, 0]	n/a	FR1	1	R1124J
2941.847	10.428	1023850	COUNTDOWN_START	n/a	n/a	n/a	-999	25	[0, 0, 0]	n/a	FR1	1	R1124J
2952.275	0.007	1034278	COUNTDOWN_END	n/a	n/a	n/a	-999	25	[0, 0, 0]	n/a	FR1	1	R1124J
2952.282	3.951	1034285	ORIENT	n/a	n/a	n/a	-999	25	[0, 0, 0]	n/a	FR1	1	R1124J
2956.233	2.516	1038236	WORD	n/a	wordpools/wordpool_EN.txt	SNAIL	1	25	[0, 0, 0]	n/a	FR1	1	R1124J
2958.749	2.484	1040752	WORD	n/a	wordpools/wordpool_EN.txt	SWAMP	2	25	[0, 0, 0]	n/a	FR1	1	R1124J
2961.233	2.4	1043236	WORD	n/a	wordpools/wordpool_EN.txt	FLAG	3	25	[0, 0, 0]	n/a	FR1	1	R1124J
2963.633	2.501	1045636	WORD	n/a	wordpools/wordpool_EN.txt	CHALK	4	25	[0, 0, 0]	n/a	FR1	1	R1124J
2966.134	2.533	1048137	WORD	n/a	wordpools/wordpool_EN.txt	CANE	5	25	[0, 0, 0]	n/a	FR1	1	R1124J
2968.667	2.468	1050670	WORD	n/a	wordpools/wordpool_EN.txt	SHARK	6	25	[0, 0, 0]	n/a	FR1	1	R1124J
2971.135	2.549	1053138	WORD	n/a	wordpools/wordpool_EN.txt	SEED	7	25	[0, 0, 0]	n/a	FR1	1	R1124J
2973.684	2.385	1055686	WORD	n/a	wordpools/wordpool_EN.txt	SHEEP	8	25	[0, 0, 0]	n/a	FR1	1	R1124J
2976.069	2.616	1058071	WORD	n/a	wordpools/wordpool_EN.txt	SPARK	9	25	[0, 0, 0]	n/a	FR1	1	R1124J
2978.685	2.601	1060687	WORD	n/a	wordpools/wordpool_EN.txt	RAT	10	25	[0, 0, 0]	n/a	FR1	1	R1124J
2981.286	2.583	1063288	WORD	n/a	wordpools/wordpool_EN.txt	FARM	11	25	[0, 0, 0]	n/a	FR1	1	R1124J
2983.869	1.617	1065871	WORD	n/a	wordpools/wordpool_EN.txt	CLOUD	12	25	[0, 0, 0]	n/a	FR1	1	R1124J
2985.486	0.001	1067488	DISTRACT_START	n/a	n/a	n/a	-999	25	[0, 0, 0]	n/a	FR1	1	R1124J
2985.487	0.016	1067489	START	n/a	n/a	n/a	-999	25	[-999, -999, -999]	n/a	FR1	1	R1124J
2985.503	22.059	1067505	PROB	22.059	n/a	n/a	-999	25	[7, 4, 9]	20	FR1	1	R1124J
3007.562	0.01	1089564	STOP	n/a	n/a	n/a	-999	25	[-999, -999, -999]	n/a	FR1	1	R1124J
3007.572	1.151	1089574	DISTRACT_END	n/a	n/a	n/a	-999	25	[0, 0, 0]	n/a	FR1	1	R1124J
3008.723	5.716	1090725	REC_START	n/a	n/a	n/a	-999	25	[0, 0, 0]	n/a	FR1	1	R1124J
3014.439	2.987	1096441	REC_WORD	2.987	n/a	SNAIL	-999	25	[0, 0, 0]	n/a	FR1	1	R1124J
3017.426	5.794	1099428	REC_WORD	5.794	n/a	FLAG	-999	25	[0, 0, 0]	n/a	FR1	1	R1124J
3023.22	15.514	1105222	REC_WORD	15.514	n/a	CLOUD	-999	25	[0, 0, 0]	n/a	FR1	1	R1124J
3038.734	13.761	1120736	REC_END	n/a	n/a	n/a	-999	25	[0, 0, 0]	n/a	FR1	1	R1124J
3052.495	0.0	1134496	SESS_END	n/a	n/a	n/a	-999	25	[0, 0, 0]	n/a	FR1	1	R1124J
