onset	duration	sample	trial_type	response_time	stim_file	item_name	serialpos	list	test	answer	experiment	session	subject
0.0	537.815	41007	INSTRUCT_START	n/a	n/a	n/a	-999	-999	[0, 0, 0]	n/a	FR1	0	R1374T
537.815	10.399	45198	COUNTDOWN_START	n/a	n/a	n/a	-999	1	[0, 0, 0]	n/a	FR1	0	R1374T
548.214	0.001	55593	COUNTDOWN_END	n/a	n/a	n/a	-999	1	[0, 0, 0]	n/a	FR1	0	R1374T
548.215	2.032	55593	ENCODING_START	n/a	n/a	n/a	-999	1	[0, 0, 0]	n/a	FR1	0	R1374T
550.247	1.6	57633	WORD	n/a	wordpools/wordpool_short_EN.txt	PLANT	1	1	[0, 0, 0]	n/a	FR1	0	R1374T
551.847	0.849	59226	WORD_OFF	n/a	n/a	PLANT	1	1	[0, 0, 0]	n/a	FR1	0	R1374T
552.696	1.601	60078	WORD	n/a	wordpools/wordpool_short_EN.txt	SKUNK	2	1	[0, 0, 0]	n/a	FR1	0	R1374T
554.297	0.951	61685	WORD_OFF	n/a	n/a	SKUNK	2	1	[0, 0, 0]	n/a	FR1	0	R1374T
555.248	1.615	62635	WORD	n/a	wordpools/wordpool_short_EN.txt	INK	3	1	[0, 0, 0]	n/a	FR1	0	R1374T
556.863	0.884	64242	WORD_OFF	n/a	n/a	INK	3	1	[0, 0, 0]	n/a	FR1	0	R1374T
557.747	1.617	65122	WORD	n/a	wordpools/wordpool_short_EN.txt	CHAIN	4	1	[0, 0, 0]	n/a	FR1	0	R1374T
559.364	1.0	66743	WORD_OFF	n/a	n/a	CHAIN	4	1	[0, 0, 0]	n/a	FR1	0	R1374T
560.364	1.616	67749	WORD	n/a	wordpools/wordpool_short_EN.txt	ROPE	5	1	[0, 0, 0]	n/a	FR1	0	R1374T
561.98	0.917	69356	WORD_OFF	n/a	n/a	ROPE	5	1	[0, 0, 0]	n/a	FR1	0	R1374T
562.897	1.617	70278	WORD	n/a	wordpools/wordpool_short_EN.txt	CUBE	6	1	[0, 0, 0]	n/a	FR1	0	R1374T
564.514	0.867	71898	WORD_OFF	n/a	n/a	CUBE	6	1	[0, 0, 0]	n/a	FR1	0	R1374T
565.381	1.6	72765	WORD	n/a	wordpools/wordpool_short_EN.txt	NAIL	7	1	[0, 0, 0]	n/a	FR1	0	R1374T
566.981	0.8	74358	WORD_OFF	n/a	n/a	NAIL	7	1	[0, 0, 0]	n/a	FR1	0	R1374T
567.781	1.6	75168	WORD	n/a	wordpools/wordpool_short_EN.txt	CHIN	8	1	[0, 0, 0]	n/a	FR1	0	R1374T
569.381	0.882	76761	WORD_OFF	n/a	n/a	CHIN	8	1	[0, 0, 0]	n/a	FR1	0	R1374T
570.263	1.601	77641	WORD	n/a	wordpools/wordpool_short_EN.txt	SACK	9	1	[0, 0, 0]	n/a	FR1	0	R1374T
571.864	0.916	79248	WORD_OFF	n/a	n/a	SACK	9	1	[0, 0, 0]	n/a	FR1	0	R1374T
572.78	1.6	80156	WORD	n/a	wordpools/wordpool_short_EN.txt	BEAN	10	1	[0, 0, 0]	n/a	FR1	0	R1374T
574.38	0.984	81763	WORD_OFF	n/a	n/a	BEAN	10	1	[0, 0, 0]	n/a	FR1	0	R1374T
575.364	1.616	82741	WORD	n/a	wordpools/wordpool_short_EN.txt	JAR	11	1	[0, 0, 0]	n/a	FR1	0	R1374T
576.98	0.984	84361	WORD_OFF	n/a	n/a	JAR	11	1	[0, 0, 0]	n/a	FR1	0	R1374T
577.964	1.6	85339	WORD	n/a	wordpools/wordpool_short_EN.txt	MULE	12	1	[0, 0, 0]	n/a	FR1	0	R1374T
579.564	0.001	86946	WORD_OFF	n/a	n/a	MULE	12	1	[0, 0, 0]	n/a	FR1	0	R1374T
579.565	0.001	86946	ENCODING_END	n/a	n/a	n/a	-999	1	[0, 0, 0]	n/a	FR1	0	R1374T
579.566	0.0	86946	DISTRACT_START	n/a	n/a	n/a	-999	1	[0, 0, 0]	n/a	FR1	0	R1374T
579.566	0.001	86949	START	n/a	n/a	n/a	-999	1	[-999, -999, -999]	n/a	FR1	0	R1374T
579.567	24.03	86950	PROB	24.03	n/a	n/a	-999	1	[8, 3, 8]	21	FR1	0	R1374T
603.597	0.0	110978	DISTRACT_END	n/a	n/a	n/a	-999	1	[0, 0, 0]	n/a	FR1	0	R1374T
603.597	1.401	110979	STOP	n/a	n/a	n/a	-999	1	[-999, -999, -999]	n/a	FR1	0	R1374T
604.998	7.693	112375	REC_START	n/a	n/a	n/a	-999	1	[0, 0, 0]	n/a	FR1	0	R1374T
612.691	0.413	120072	REC_WORD	0.413	n/a	PLANT	1	1	[0, 0, 0]	n/a	FR1	0	R1374T
613.104	0.868	120485	REC_WORD	0.868	n/a	SKUNK	2	1	[0, 0, 0]	n/a	FR1	0	R1374T
613.972	1.766	121353	REC_WORD	1.766	n/a	INK	3	1	[0, 0, 0]	n/a	FR1	0	R1374T
615.738	11.028	123119	REC_WORD	11.028	n/a	JAR	11	1	[0, 0, 0]	n/a	FR1	0	R1374T
626.766	8.524	134147	REC_WORD	8.524	n/a	MAP	-999	1	[0, 0, 0]	n/a	FR1	0	R1374T
635.29	7.373	142666	REC_END	n/a	n/a	n/a	-999	1	[0, 0, 0]	n/a	FR1	0	R1374T
642.663	10.351	150043	COUNTDOWN_START	n/a	n/a	n/a	-999	2	[0, 0, 0]	n/a	FR1	0	R1374T
653.014	0.001	160396	COUNTDOWN_END	n/a	n/a	n/a	-999	2	[0, 0, 0]	n/a	FR1	0	R1374T
653.015	2.032	160396	ENCODING_START	n/a	n/a	n/a	-999	2	[0, 0, 0]	n/a	FR1	0	R1374T
655.047	1.616	162422	WORD	n/a	wordpools/wordpool_short_EN.txt	GLOVE	1	2	[0, 0, 0]	n/a	FR1	0	R1374T
656.663	0.984	164043	WORD_OFF	n/a	n/a	GLOVE	1	2	[0, 0, 0]	n/a	FR1	0	R1374T
657.647	1.617	165021	WORD	n/a	wordpools/wordpool_short_EN.txt	FROG	2	2	[0, 0, 0]	n/a	FR1	0	R1374T
659.264	0.95	166641	WORD_OFF	n/a	n/a	FROG	2	2	[0, 0, 0]	n/a	FR1	0	R1374T
660.214	1.616	167592	WORD	n/a	wordpools/wordpool_short_EN.txt	AISLE	3	2	[0, 0, 0]	n/a	FR1	0	R1374T
661.83	0.817	169212	WORD_OFF	n/a	n/a	AISLE	3	2	[0, 0, 0]	n/a	FR1	0	R1374T
662.647	1.616	170023	WORD	n/a	wordpools/wordpool_short_EN.txt	JAIL	4	2	[0, 0, 0]	n/a	FR1	0	R1374T
664.263	0.918	171643	WORD_OFF	n/a	n/a	JAIL	4	2	[0, 0, 0]	n/a	FR1	0	R1374T
665.181	1.6	172552	WORD	n/a	wordpools/wordpool_short_EN.txt	STEM	5	2	[0, 0, 0]	n/a	FR1	0	R1374T
666.781	0.766	174158	WORD_OFF	n/a	n/a	STEM	5	2	[0, 0, 0]	n/a	FR1	0	R1374T
667.547	1.6	174927	WORD	n/a	wordpools/wordpool_short_EN.txt	CLOCK	6	2	[0, 0, 0]	n/a	FR1	0	R1374T
669.147	0.8	176520	WORD_OFF	n/a	n/a	CLOCK	6	2	[0, 0, 0]	n/a	FR1	0	R1374T
669.947	1.617	177316	WORD	n/a	wordpools/wordpool_short_EN.txt	WHEAT	7	2	[0, 0, 0]	n/a	FR1	0	R1374T
671.564	0.983	178937	WORD_OFF	n/a	n/a	WHEAT	7	2	[0, 0, 0]	n/a	FR1	0	R1374T
672.547	1.6	179929	WORD	n/a	wordpools/wordpool_short_EN.txt	WEED	8	2	[0, 0, 0]	n/a	FR1	0	R1374T
674.147	0.816	181521	WORD_OFF	n/a	n/a	WEED	8	2	[0, 0, 0]	n/a	FR1	0	R1374T
674.963	1.6	182346	WORD	n/a	wordpools/wordpool_short_EN.txt	LIMB	9	2	[0, 0, 0]	n/a	FR1	0	R1374T
676.563	0.868	183938	WORD_OFF	n/a	n/a	LIMB	9	2	[0, 0, 0]	n/a	FR1	0	R1374T
677.431	1.6	184805	WORD	n/a	wordpools/wordpool_short_EN.txt	MEAL	10	2	[0, 0, 0]	n/a	FR1	0	R1374T
679.031	0.833	186412	WORD_OFF	n/a	n/a	MEAL	10	2	[0, 0, 0]	n/a	FR1	0	R1374T
679.864	1.6	187236	WORD	n/a	wordpools/wordpool_short_EN.txt	LAWN	11	2	[0, 0, 0]	n/a	FR1	0	R1374T
681.464	0.917	188843	WORD_OFF	n/a	n/a	LAWN	11	2	[0, 0, 0]	n/a	FR1	0	R1374T
682.381	1.616	189751	WORD	n/a	wordpools/wordpool_short_EN.txt	BIN	12	2	[0, 0, 0]	n/a	FR1	0	R1374T
683.997	0.001	191372	WORD_OFF	n/a	n/a	BIN	12	2	[0, 0, 0]	n/a	FR1	0	R1374T
683.998	0.007	191376	PROB	0.007	n/a	n/a	-999	2	[8, 2, 8]	18	FR1	0	R1374T
684.005	0.0	191383	START	n/a	n/a	n/a	-999	2	[-999, -999, -999]	n/a	FR1	0	R1374T
683.999	0.006	191385	ENCODING_END	n/a	n/a	n/a	-999	2	[0, 0, 0]	n/a	FR1	0	R1374T
684.005	0.0	191385	DISTRACT_START	n/a	n/a	n/a	-999	2	[0, 0, 0]	n/a	FR1	0	R1374T
161.866	536.431	202856	INSTRUCT_END	n/a	n/a	n/a	-999	-999	[0, 0, 0]	n/a	FR1	0	R1374T
698.297	14.583	205674	PROB	14.583	n/a	n/a	-999	2	[2, 6, 4]	12	FR1	0	R1374T
712.88	0.0	220251	DISTRACT_END	n/a	n/a	n/a	-999	2	[0, 0, 0]	n/a	FR1	0	R1374T
712.88	1.333	220256	STOP	n/a	n/a	n/a	-999	2	[-999, -999, -999]	n/a	FR1	0	R1374T
714.213	5.093	221593	REC_START	n/a	n/a	n/a	-999	2	[0, 0, 0]	n/a	FR1	0	R1374T
719.306	0.586	226682	REC_WORD	0.586	n/a	PLANT	-999	2	[0, 0, 0]	n/a	FR1	0	R1374T
719.892	1.392	227268	REC_WORD	1.392	n/a	SKUNK	-999	2	[0, 0, 0]	n/a	FR1	0	R1374T
721.284	0.847	228660	REC_WORD	0.847	n/a	INK	-999	2	[0, 0, 0]	n/a	FR1	0	R1374T
722.131	1.433	229507	REC_WORD	1.433	n/a	JAR	-999	2	[0, 0, 0]	n/a	FR1	0	R1374T
723.564	11.491	230940	REC_WORD	11.491	n/a	MEAL	10	2	[0, 0, 0]	n/a	FR1	0	R1374T
735.055	7.953	242430	REC_WORD	7.953	n/a	SAND	-999	2	[0, 0, 0]	n/a	FR1	0	R1374T
743.008	1.478	250383	REC_WORD	1.478	n/a	CLOCK	6	2	[0, 0, 0]	n/a	FR1	0	R1374T
744.486	6.161	251856	REC_END	n/a	n/a	n/a	-999	2	[0, 0, 0]	n/a	FR1	0	R1374T
750.647	0.0	258017	COUNTDOWN_START	n/a	n/a	n/a	-999	3	[0, 0, 0]	n/a	FR1	0	R1374T
219.216	541.782	260211	COUNTDOWN_START	n/a	n/a	n/a	-999	-999	[0, 0, 0]	n/a	FR1	0	R1374T
760.998	0.0	268370	COUNTDOWN_END	n/a	n/a	n/a	-999	3	[0, 0, 0]	n/a	FR1	0	R1374T
760.998	2.033	268370	ENCODING_START	n/a	n/a	n/a	-999	3	[0, 0, 0]	n/a	FR1	0	R1374T
763.031	0.0	270396	WORD	n/a	wordpools/wordpool_short_EN.txt	TIE	1	3	[0, 0, 0]	n/a	FR1	0	R1374T
229.566	0.001	270550	COUNTDOWN_END	n/a	n/a	n/a	-999	-999	[0, 0, 0]	n/a	FR1	0	R1374T
229.567	535.064	270564	ENCODING_START	n/a	n/a	n/a	-999	-1	[0, 0, 0]	n/a	FR1	0	R1374T
764.631	0.0	272003	WORD_OFF	n/a	n/a	TIE	1	3	[0, 0, 0]	n/a	FR1	0	R1374T
231.649	533.815	272632	WORD	n/a	n/a	CHEST	1	-1	[0, 0, 0]	n/a	FR1	0	R1374T
765.464	0.0	272841	WORD	n/a	wordpools/wordpool_short_EN.txt	CHILD	2	3	[0, 0, 0]	n/a	FR1	0	R1374T
233.249	533.832	274238	WORD_OFF	n/a	n/a	CHEST	1	-1	[0, 0, 0]	n/a	FR1	0	R1374T
767.081	0.0	274448	WORD_OFF	n/a	n/a	CHILD	2	3	[0, 0, 0]	n/a	FR1	0	R1374T
234.065	533.966	275049	WORD	n/a	n/a	RHINO	2	-1	[0, 0, 0]	n/a	FR1	0	R1374T
768.031	0.0	275398	WORD	n/a	wordpools/wordpool_short_EN.txt	MAT	3	3	[0, 0, 0]	n/a	FR1	0	R1374T
235.665	533.966	276656	WORD_OFF	n/a	n/a	RHINO	2	-1	[0, 0, 0]	n/a	FR1	0	R1374T
769.631	0.0	277005	WORD_OFF	n/a	n/a	MAT	3	3	[0, 0, 0]	n/a	FR1	0	R1374T
236.565	534.032	277550	WORD	n/a	n/a	BABY	3	-1	[0, 0, 0]	n/a	FR1	0	R1374T
770.597	0.0	277969	WORD	n/a	wordpools/wordpool_short_EN.txt	TRASH	4	3	[0, 0, 0]	n/a	FR1	0	R1374T
238.165	534.049	279156	WORD_OFF	n/a	n/a	BABY	3	-1	[0, 0, 0]	n/a	FR1	0	R1374T
772.214	0.0	279590	WORD_OFF	n/a	n/a	TRASH	4	3	[0, 0, 0]	n/a	FR1	0	R1374T
239.165	533.916	280162	WORD	n/a	n/a	BEAM	4	-1	[0, 0, 0]	n/a	FR1	0	R1374T
773.081	0.0	280456	WORD	n/a	wordpools/wordpool_short_EN.txt	TOY	5	3	[0, 0, 0]	n/a	FR1	0	R1374T
240.765	533.932	281755	WORD_OFF	n/a	n/a	BEAM	4	-1	[0, 0, 0]	n/a	FR1	0	R1374T
774.697	0.0	282063	WORD_OFF	n/a	n/a	TOY	5	3	[0, 0, 0]	n/a	FR1	0	R1374T
241.714	533.967	282705	WORD	n/a	n/a	WAGON	5	-1	[0, 0, 0]	n/a	FR1	0	R1374T
775.681	0.0	283055	WORD	n/a	wordpools/wordpool_short_EN.txt	BOARD	6	3	[0, 0, 0]	n/a	FR1	0	R1374T
243.315	533.982	284298	WORD_OFF	n/a	n/a	WAGON	5	-1	[0, 0, 0]	n/a	FR1	0	R1374T
777.297	0.0	284661	WORD_OFF	n/a	n/a	BOARD	6	3	[0, 0, 0]	n/a	FR1	0	R1374T
244.182	534.032	285178	WORD	n/a	n/a	TONGUE	6	-1	[0, 0, 0]	n/a	FR1	0	R1374T
778.214	0.0	285584	WORD	n/a	wordpools/wordpool_short_EN.txt	PURSE	7	3	[0, 0, 0]	n/a	FR1	0	R1374T
245.799	534.032	286785	WORD_OFF	n/a	n/a	TONGUE	6	-1	[0, 0, 0]	n/a	FR1	0	R1374T
779.831	0.0	287204	WORD_OFF	n/a	n/a	PURSE	7	3	[0, 0, 0]	n/a	FR1	0	R1374T
246.648	534.166	287637	WORD	n/a	n/a	IMAGE	7	-1	[0, 0, 0]	n/a	FR1	0	R1374T
780.814	0.0	288182	WORD	n/a	wordpools/wordpool_short_EN.txt	HAIR	8	3	[0, 0, 0]	n/a	FR1	0	R1374T
248.248	534.182	289244	WORD_OFF	n/a	n/a	IMAGE	7	-1	[0, 0, 0]	n/a	FR1	0	R1374T
782.43	0.0	289803	WORD_OFF	n/a	n/a	HAIR	8	3	[0, 0, 0]	n/a	FR1	0	R1374T
249.032	534.365	290027	WORD	n/a	n/a	CAMEL	8	-1	[0, 0, 0]	n/a	FR1	0	R1374T
783.397	0.0	290767	WORD	n/a	wordpools/wordpool_short_EN.txt	PAGE	9	3	[0, 0, 0]	n/a	FR1	0	R1374T
250.632	534.365	291619	WORD_OFF	n/a	n/a	CAMEL	8	-1	[0, 0, 0]	n/a	FR1	0	R1374T
784.997	0.0	292374	WORD_OFF	n/a	n/a	PAGE	9	3	[0, 0, 0]	n/a	FR1	0	R1374T
251.515	534.432	292500	WORD	n/a	n/a	FLOOD	9	-1	[0, 0, 0]	n/a	FR1	0	R1374T
785.947	0.0	293324	WORD	n/a	wordpools/wordpool_short_EN.txt	COKE	10	3	[0, 0, 0]	n/a	FR1	0	R1374T
253.131	534.433	294120	WORD_OFF	n/a	n/a	FLOOD	9	-1	[0, 0, 0]	n/a	FR1	0	R1374T
787.564	0.0	294931	WORD_OFF	n/a	n/a	COKE	10	3	[0, 0, 0]	n/a	FR1	0	R1374T
254.098	534.416	295084	WORD	n/a	n/a	COTTON	10	-1	[0, 0, 0]	n/a	FR1	0	R1374T
788.514	0.0	295881	WORD	n/a	wordpools/wordpool_short_EN.txt	COAL	11	3	[0, 0, 0]	n/a	FR1	0	R1374T
255.698	534.416	296691	WORD_OFF	n/a	n/a	COTTON	10	-1	[0, 0, 0]	n/a	FR1	0	R1374T
790.114	0.0	297488	WORD_OFF	n/a	n/a	COAL	11	3	[0, 0, 0]	n/a	FR1	0	R1374T
256.532	534.482	297515	WORD	n/a	n/a	RING	11	-1	[0, 0, 0]	n/a	FR1	0	R1374T
791.014	0.0	298382	WORD	n/a	wordpools/wordpool_short_EN.txt	WORLD	12	3	[0, 0, 0]	n/a	FR1	0	R1374T
258.132	0.883	299122	WORD_OFF	n/a	n/a	RING	11	-1	[0, 0, 0]	n/a	FR1	0	R1374T
259.015	533.615	300002	WORD	n/a	n/a	WATCH	12	-1	[0, 0, 0]	n/a	FR1	0	R1374T
792.63	0.008	300002	WORD_OFF	n/a	n/a	WORLD	12	3	[0, 0, 0]	n/a	FR1	0	R1374T
792.638	0.0	300002	ENCODING_END	n/a	n/a	n/a	-999	3	[0, 0, 0]	n/a	FR1	0	R1374T
792.63	0.008	300002	PROB	0.008	n/a	n/a	-999	3	[7, 3, 7]	17	FR1	0	R1374T
792.638	0.0	300010	START	n/a	n/a	n/a	-999	3	[-999, -999, -999]	n/a	FR1	0	R1374T
792.638	0.0	300016	DISTRACT_START	n/a	n/a	n/a	-999	3	[0, 0, 0]	n/a	FR1	0	R1374T
260.616	0.001	301600	PROB	0.001	n/a	n/a	-999	-1	[3, 3, 2]	8	FR1	0	R1374T
260.617	0.0	301601	START	n/a	n/a	n/a	-999	-1	[-999, -999, -999]	n/a	FR1	0	R1374T
260.615	0.001	301609	WORD_OFF	n/a	n/a	WATCH	12	-1	[0, 0, 0]	n/a	FR1	0	R1374T
260.616	0.001	301609	ENCODING_END	n/a	n/a	n/a	-999	-1	[0, 0, 0]	n/a	FR1	0	R1374T
260.617	541.963	301609	DISTRACT_START	n/a	n/a	n/a	-999	-1	[0, 0, 0]	n/a	FR1	0	R1374T
802.58	18.2	309952	PROB	18.2	n/a	n/a	-999	3	[7, 2, 4]	13	FR1	0	R1374T
820.78	0.0	328142	DISTRACT_END	n/a	n/a	n/a	-999	3	[0, 0, 0]	n/a	FR1	0	R1374T
820.78	1.284	328151	STOP	n/a	n/a	n/a	-999	3	[-999, -999, -999]	n/a	FR1	0	R1374T
822.064	3.076	329427	REC_START	n/a	n/a	n/a	-999	3	[0, 0, 0]	n/a	FR1	0	R1374T
825.14	0.781	332510	REC_WORD	0.781	n/a	PLANT	-999	3	[0, 0, 0]	n/a	FR1	0	R1374T
825.921	1.189	333291	REC_WORD	1.189	n/a	SKUNK	-999	3	[0, 0, 0]	n/a	FR1	0	R1374T
827.11	1.911	334480	REC_WORD	1.911	n/a	INK	-999	3	[0, 0, 0]	n/a	FR1	0	R1374T
829.021	0.0	336391	REC_WORD	0.0	n/a	JAR	-999	3	[0, 0, 0]	n/a	FR1	0	R1374T
302.215	0.0	343197	STOP	n/a	n/a	n/a	-999	-1	[-999, -999, -999]	n/a	FR1	0	R1374T
302.215	1.368	343203	DISTRACT_END	n/a	n/a	n/a	-999	-1	[0, 0, 0]	n/a	FR1	0	R1374T
303.583	543.377	344573	REC_START	n/a	n/a	n/a	-999	-1	[0, 0, 0]	n/a	FR1	0	R1374T
846.96	1.605	354329	REC_WORD	1.605	n/a	WORD	-999	3	[0, 0, 0]	n/a	FR1	0	R1374T
848.565	0.0	355934	REC_WORD	0.0	n/a	WORLD	12	3	[0, 0, 0]	n/a	FR1	0	R1374T
316.526	535.803	357507	REC_WORD_VV	535.803	n/a	<>	-999	-1	[0, 0, 0]	n/a	FR1	0	R1374T
852.329	8.218	359690	REC_END	n/a	n/a	n/a	-999	3	[0, 0, 0]	n/a	FR1	0	R1374T
860.547	0.0	367919	COUNTDOWN_START	n/a	n/a	n/a	-999	4	[0, 0, 0]	n/a	FR1	0	R1374T
333.863	537.035	374849	REC_END	n/a	n/a	n/a	-999	-1	[0, 0, 0]	n/a	FR1	0	R1374T
870.898	0.0	378259	COUNTDOWN_END	n/a	n/a	n/a	-999	4	[0, 0, 0]	n/a	FR1	0	R1374T
870.898	1.832	378259	ENCODING_START	n/a	n/a	n/a	-999	4	[0, 0, 0]	n/a	FR1	0	R1374T
872.73	1.617	380103	WORD	n/a	wordpools/wordpool_short_EN.txt	PHONE	1	4	[0, 0, 0]	n/a	FR1	0	R1374T
874.347	0.767	381710	WORD_OFF	n/a	n/a	PHONE	1	4	[0, 0, 0]	n/a	FR1	0	R1374T
875.114	1.6	382478	WORD	n/a	wordpools/wordpool_short_EN.txt	CLIFF	2	4	[0, 0, 0]	n/a	FR1	0	R1374T
876.714	0.866	384085	WORD_OFF	n/a	n/a	CLIFF	2	4	[0, 0, 0]	n/a	FR1	0	R1374T
877.58	1.6	384951	WORD	n/a	wordpools/wordpool_short_EN.txt	FENCE	3	4	[0, 0, 0]	n/a	FR1	0	R1374T
879.18	0.933	386544	WORD_OFF	n/a	n/a	FENCE	3	4	[0, 0, 0]	n/a	FR1	0	R1374T
880.113	1.601	387480	WORD	n/a	wordpools/wordpool_short_EN.txt	STRING	4	4	[0, 0, 0]	n/a	FR1	0	R1374T
881.714	0.9	389073	WORD_OFF	n/a	n/a	STRING	4	4	[0, 0, 0]	n/a	FR1	0	R1374T
882.614	1.6	389981	WORD	n/a	wordpools/wordpool_short_EN.txt	WHEEL	5	4	[0, 0, 0]	n/a	FR1	0	R1374T
884.214	0.916	391574	WORD_OFF	n/a	n/a	WHEEL	5	4	[0, 0, 0]	n/a	FR1	0	R1374T
885.13	0.0	392496	WORD	n/a	wordpools/wordpool_short_EN.txt	SEAT	6	4	[0, 0, 0]	n/a	FR1	0	R1374T
352.082	534.665	393069	COUNTDOWN_START	n/a	n/a	n/a	-999	1	[0, 0, 0]	n/a	FR1	0	R1374T
886.747	0.866	394117	WORD_OFF	n/a	n/a	SEAT	6	4	[0, 0, 0]	n/a	FR1	0	R1374T
887.613	1.617	394983	WORD	n/a	wordpools/wordpool_short_EN.txt	HOUSE	7	4	[0, 0, 0]	n/a	FR1	0	R1374T
889.23	0.867	396590	WORD_OFF	n/a	n/a	HOUSE	7	4	[0, 0, 0]	n/a	FR1	0	R1374T
890.097	1.616	397456	WORD	n/a	wordpools/wordpool_short_EN.txt	WORM	8	4	[0, 0, 0]	n/a	FR1	0	R1374T
891.713	0.85	399077	WORD_OFF	n/a	n/a	WORM	8	4	[0, 0, 0]	n/a	FR1	0	R1374T
892.563	1.617	399929	WORD	n/a	wordpools/wordpool_short_EN.txt	MEN	9	4	[0, 0, 0]	n/a	FR1	0	R1374T
894.18	0.983	401550	WORD_OFF	n/a	n/a	MEN	9	4	[0, 0, 0]	n/a	FR1	0	R1374T
895.163	0.0	402528	WORD	n/a	wordpools/wordpool_short_EN.txt	KEY	10	4	[0, 0, 0]	n/a	FR1	0	R1374T
362.432	0.0	403422	COUNTDOWN_END	n/a	n/a	n/a	-999	1	[0, 0, 0]	n/a	FR1	0	R1374T
362.432	534.348	403422	ENCODING_START	n/a	n/a	n/a	-999	1	[0, 0, 0]	n/a	FR1	0	R1374T
896.78	0.917	404148	WORD_OFF	n/a	n/a	KEY	10	4	[0, 0, 0]	n/a	FR1	0	R1374T
897.697	0.0	405057	WORD	n/a	wordpools/wordpool_short_EN.txt	STICK	11	4	[0, 0, 0]	n/a	FR1	0	R1374T
364.481	534.832	405462	WORD	n/a	wordpools/wordpool_short_EN.txt	LENS	1	1	[0, 0, 0]	n/a	FR1	0	R1374T
899.313	0.0	406677	WORD_OFF	n/a	n/a	STICK	11	4	[0, 0, 0]	n/a	FR1	0	R1374T
366.081	534.032	407068	WORD_OFF	n/a	n/a	LENS	1	1	[0, 0, 0]	n/a	FR1	0	R1374T
900.113	0.0	407474	WORD	n/a	wordpools/wordpool_short_EN.txt	BENCH	12	4	[0, 0, 0]	n/a	FR1	0	R1374T
366.948	534.765	407935	WORD	n/a	wordpools/wordpool_short_EN.txt	TIN	2	1	[0, 0, 0]	n/a	FR1	0	R1374T
901.713	0.002	409080	WORD_OFF	n/a	n/a	BENCH	12	4	[0, 0, 0]	n/a	FR1	0	R1374T
901.715	0.0	409080	ENCODING_END	n/a	n/a	n/a	-999	4	[0, 0, 0]	n/a	FR1	0	R1374T
901.715	0.0	409080	DISTRACT_START	n/a	n/a	n/a	-999	4	[0, 0, 0]	n/a	FR1	0	R1374T
901.713	0.002	409080	PROB	0.002	n/a	n/a	-999	4	[2, 7, 8]	17	FR1	0	R1374T
901.715	0.0	409082	START	n/a	n/a	n/a	-999	4	[-999, -999, -999]	n/a	FR1	0	R1374T
368.548	0.8	409528	WORD_OFF	n/a	n/a	TIN	2	1	[0, 0, 0]	n/a	FR1	0	R1374T
369.348	1.6	410324	WORD	n/a	wordpools/wordpool_short_EN.txt	SPRING	3	1	[0, 0, 0]	n/a	FR1	0	R1374T
370.948	0.966	411931	WORD_OFF	n/a	n/a	SPRING	3	1	[0, 0, 0]	n/a	FR1	0	R1374T
371.914	1.601	412895	WORD	n/a	wordpools/wordpool_short_EN.txt	PEARL	4	1	[0, 0, 0]	n/a	FR1	0	R1374T
373.515	0.866	414501	WORD_OFF	n/a	n/a	PEARL	4	1	[0, 0, 0]	n/a	FR1	0	R1374T
374.381	1.601	415368	WORD	n/a	wordpools/wordpool_short_EN.txt	TROUT	5	1	[0, 0, 0]	n/a	FR1	0	R1374T
375.982	0.833	416961	WORD_OFF	n/a	n/a	TROUT	5	1	[0, 0, 0]	n/a	FR1	0	R1374T
376.815	534.534	417799	WORD	n/a	wordpools/wordpool_short_EN.txt	NET	6	1	[0, 0, 0]	n/a	FR1	0	R1374T
911.349	0.0	418715	PROB	0.0	n/a	n/a	-999	4	[8, 5, 3]	16	FR1	0	R1374T
378.415	0.918	419392	WORD_OFF	n/a	n/a	NET	6	1	[0, 0, 0]	n/a	FR1	0	R1374T
379.333	1.6	420314	WORD	n/a	wordpools/wordpool_short_EN.txt	BIN	7	1	[0, 0, 0]	n/a	FR1	0	R1374T
380.933	539.881	421920	WORD_OFF	n/a	n/a	BIN	7	1	[0, 0, 0]	n/a	FR1	0	R1374T
920.814	8.283	428180	PROB	8.283	n/a	n/a	-999	4	[5, 6, 2]	13	FR1	0	R1374T
929.097	0.0	436462	STOP	n/a	n/a	n/a	-999	4	[-999, -999, -999]	n/a	FR1	0	R1374T
929.097	1.367	436465	DISTRACT_END	n/a	n/a	n/a	-999	4	[0, 0, 0]	n/a	FR1	0	R1374T
930.464	3.409	437820	REC_START	n/a	n/a	n/a	-999	4	[0, 0, 0]	n/a	FR1	0	R1374T
933.873	0.623	441238	REC_WORD	0.623	n/a	PLANT	-999	4	[0, 0, 0]	n/a	FR1	0	R1374T
934.496	1.45	441861	REC_WORD	1.45	n/a	SKUNK	-999	4	[0, 0, 0]	n/a	FR1	0	R1374T
935.946	1.276	443311	REC_WORD	1.276	n/a	INK	-999	4	[0, 0, 0]	n/a	FR1	0	R1374T
937.222	6.456	444587	REC_WORD	6.456	n/a	JAR	-999	4	[0, 0, 0]	n/a	FR1	0	R1374T
943.678	9.403	451042	REC_WORD	9.403	n/a	WORD	-999	4	[0, 0, 0]	n/a	FR1	0	R1374T
953.081	2.417	460445	REC_WORD	2.417	n/a	WORLD	-999	4	[0, 0, 0]	n/a	FR1	0	R1374T
955.498	5.237	462862	REC_WORD	5.237	n/a	JAR	-999	4	[0, 0, 0]	n/a	FR1	0	R1374T
960.735	5.279	468097	REC_END	n/a	n/a	n/a	-999	4	[0, 0, 0]	n/a	FR1	0	R1374T
966.014	10.35	473379	COUNTDOWN_START	n/a	n/a	n/a	-999	5	[0, 0, 0]	n/a	FR1	0	R1374T
976.364	0.001	483718	COUNTDOWN_END	n/a	n/a	n/a	-999	5	[0, 0, 0]	n/a	FR1	0	R1374T
976.365	2.199	483732	ENCODING_START	n/a	n/a	n/a	-999	5	[0, 0, 0]	n/a	FR1	0	R1374T
978.564	1.616	485925	WORD	n/a	wordpools/wordpool_short_EN.txt	SKI	1	5	[0, 0, 0]	n/a	FR1	0	R1374T
980.18	0.868	487546	WORD_OFF	n/a	n/a	SKI	1	5	[0, 0, 0]	n/a	FR1	0	R1374T
981.048	1.616	488412	WORD	n/a	wordpools/wordpool_short_EN.txt	BRIDGE	2	5	[0, 0, 0]	n/a	FR1	0	R1374T
982.664	0.8	490019	WORD_OFF	n/a	n/a	BRIDGE	2	5	[0, 0, 0]	n/a	FR1	0	R1374T
983.464	1.6	490829	WORD	n/a	wordpools/wordpool_short_EN.txt	TOOL	3	5	[0, 0, 0]	n/a	FR1	0	R1374T
985.064	0.799	492422	WORD_OFF	n/a	n/a	TOOL	3	5	[0, 0, 0]	n/a	FR1	0	R1374T
985.863	1.601	493219	WORD	n/a	wordpools/wordpool_short_EN.txt	LAMP	4	5	[0, 0, 0]	n/a	FR1	0	R1374T
987.464	0.933	494825	WORD_OFF	n/a	n/a	LAMP	4	5	[0, 0, 0]	n/a	FR1	0	R1374T
988.397	1.617	495762	WORD	n/a	wordpools/wordpool_short_EN.txt	MAP	5	5	[0, 0, 0]	n/a	FR1	0	R1374T
990.014	0.816	497368	WORD_OFF	n/a	n/a	MAP	5	5	[0, 0, 0]	n/a	FR1	0	R1374T
990.83	1.6	498193	WORD	n/a	wordpools/wordpool_short_EN.txt	DEER	6	5	[0, 0, 0]	n/a	FR1	0	R1374T
992.43	0.867	499785	WORD_OFF	n/a	n/a	DEER	6	5	[0, 0, 0]	n/a	FR1	0	R1374T
993.297	1.616	500652	WORD	n/a	wordpools/wordpool_short_EN.txt	OWL	7	5	[0, 0, 0]	n/a	FR1	0	R1374T
994.913	0.784	502272	WORD_OFF	n/a	n/a	OWL	7	5	[0, 0, 0]	n/a	FR1	0	R1374T
995.697	1.617	503055	WORD	n/a	wordpools/wordpool_short_EN.txt	TIN	8	5	[0, 0, 0]	n/a	FR1	0	R1374T
997.314	0.933	504676	WORD_OFF	n/a	n/a	TIN	8	5	[0, 0, 0]	n/a	FR1	0	R1374T
998.247	1.616	505612	WORD	n/a	wordpools/wordpool_short_EN.txt	MAZE	9	5	[0, 0, 0]	n/a	FR1	0	R1374T
999.863	0.817	507218	WORD_OFF	n/a	n/a	MAZE	9	5	[0, 0, 0]	n/a	FR1	0	R1374T
1000.68	1.616	508043	WORD	n/a	wordpools/wordpool_short_EN.txt	RIB	10	5	[0, 0, 0]	n/a	FR1	0	R1374T
1002.296	0.834	509650	WORD_OFF	n/a	n/a	RIB	10	5	[0, 0, 0]	n/a	FR1	0	R1374T
1003.13	1.617	510488	WORD	n/a	wordpools/wordpool_short_EN.txt	STRAW	11	5	[0, 0, 0]	n/a	FR1	0	R1374T
1004.747	0.916	512109	WORD_OFF	n/a	n/a	STRAW	11	5	[0, 0, 0]	n/a	FR1	0	R1374T
1005.663	1.601	513017	WORD	n/a	wordpools/wordpool_short_EN.txt	PARK	12	5	[0, 0, 0]	n/a	FR1	0	R1374T
1007.264	0.001	514624	WORD_OFF	n/a	n/a	PARK	12	5	[0, 0, 0]	n/a	FR1	0	R1374T
1007.265	0.0	514624	ENCODING_END	n/a	n/a	n/a	-999	5	[0, 0, 0]	n/a	FR1	0	R1374T
1007.265	0.0	514624	DISTRACT_START	n/a	n/a	n/a	-999	5	[0, 0, 0]	n/a	FR1	0	R1374T
1007.264	0.001	514625	PROB	0.001	n/a	n/a	-999	5	[3, 2, 8]	13	FR1	0	R1374T
1007.265	10.732	514626	START	n/a	n/a	n/a	-999	5	[-999, -999, -999]	n/a	FR1	0	R1374T
1017.997	12.632	525358	PROB	12.632	n/a	n/a	-999	5	[6, 4, 7]	17	FR1	0	R1374T
1030.629	0.0	537984	DISTRACT_END	n/a	n/a	n/a	-999	5	[0, 0, 0]	n/a	FR1	0	R1374T
1030.629	1.117	537989	STOP	n/a	n/a	n/a	-999	5	[-999, -999, -999]	n/a	FR1	0	R1374T
1031.746	7.809	539102	REC_START	n/a	n/a	n/a	-999	5	[0, 0, 0]	n/a	FR1	0	R1374T
1039.555	2.153	546914	REC_WORD	2.153	n/a	PLANT	-999	5	[0, 0, 0]	n/a	FR1	0	R1374T
1041.708	2.479	549067	REC_WORD	2.479	n/a	SKUNK	-999	5	[0, 0, 0]	n/a	FR1	0	R1374T
1044.187	2.752	551546	REC_WORD	2.752	n/a	INK	-999	5	[0, 0, 0]	n/a	FR1	0	R1374T
1046.939	2.417	554298	REC_WORD	2.417	n/a	TOOL	3	5	[0, 0, 0]	n/a	FR1	0	R1374T
1049.356	12.664	556715	REC_WORD	12.664	n/a	MAP	5	5	[0, 0, 0]	n/a	FR1	0	R1374T
1062.02	5.693	569379	REC_END	n/a	n/a	n/a	-999	5	[0, 0, 0]	n/a	FR1	0	R1374T
1067.713	10.351	575066	COUNTDOWN_START	n/a	n/a	n/a	-999	6	[0, 0, 0]	n/a	FR1	0	R1374T
1078.064	0.001	585419	COUNTDOWN_END	n/a	n/a	n/a	-999	6	[0, 0, 0]	n/a	FR1	0	R1374T
1078.065	2.065	585419	ENCODING_START	n/a	n/a	n/a	-999	6	[0, 0, 0]	n/a	FR1	0	R1374T
1080.13	1.6	587487	WORD	n/a	wordpools/wordpool_short_EN.txt	WAND	1	6	[0, 0, 0]	n/a	FR1	0	R1374T
1081.73	0.884	589079	WORD_OFF	n/a	n/a	WAND	1	6	[0, 0, 0]	n/a	FR1	0	R1374T
1082.614	1.6	589974	WORD	n/a	wordpools/wordpool_short_EN.txt	SHARK	2	6	[0, 0, 0]	n/a	FR1	0	R1374T
1084.214	0.949	591566	WORD_OFF	n/a	n/a	SHARK	2	6	[0, 0, 0]	n/a	FR1	0	R1374T
1085.163	1.601	592516	WORD	n/a	wordpools/wordpool_short_EN.txt	MAIL	3	6	[0, 0, 0]	n/a	FR1	0	R1374T
1086.764	0.867	594123	WORD_OFF	n/a	n/a	MAIL	3	6	[0, 0, 0]	n/a	FR1	0	R1374T
1087.631	1.615	594989	WORD	n/a	wordpools/wordpool_short_EN.txt	WOLF	4	6	[0, 0, 0]	n/a	FR1	0	R1374T
1089.246	0.767	596596	WORD_OFF	n/a	n/a	WOLF	4	6	[0, 0, 0]	n/a	FR1	0	R1374T
1090.013	1.6	597365	WORD	n/a	wordpools/wordpool_short_EN.txt	CLOTH	5	6	[0, 0, 0]	n/a	FR1	0	R1374T
1091.613	0.784	598971	WORD_OFF	n/a	n/a	CLOTH	5	6	[0, 0, 0]	n/a	FR1	0	R1374T
1092.397	1.616	599754	WORD	n/a	wordpools/wordpool_short_EN.txt	LANE	6	6	[0, 0, 0]	n/a	FR1	0	R1374T
1094.013	0.984	601374	WORD_OFF	n/a	n/a	LANE	6	6	[0, 0, 0]	n/a	FR1	0	R1374T
1094.997	1.6	602353	WORD	n/a	wordpools/wordpool_short_EN.txt	TREE	7	6	[0, 0, 0]	n/a	FR1	0	R1374T
1096.597	0.834	603945	WORD_OFF	n/a	n/a	TREE	7	6	[0, 0, 0]	n/a	FR1	0	R1374T
1097.431	1.599	604784	WORD	n/a	wordpools/wordpool_short_EN.txt	SKIN	8	6	[0, 0, 0]	n/a	FR1	0	R1374T
1099.03	0.784	606390	WORD_OFF	n/a	n/a	SKIN	8	6	[0, 0, 0]	n/a	FR1	0	R1374T
1099.814	1.616	607173	WORD	n/a	wordpools/wordpool_short_EN.txt	PLATE	9	6	[0, 0, 0]	n/a	FR1	0	R1374T
1101.43	0.884	608780	WORD_OFF	n/a	n/a	PLATE	9	6	[0, 0, 0]	n/a	FR1	0	R1374T
1102.314	1.617	609674	WORD	n/a	wordpools/wordpool_short_EN.txt	CAVE	10	6	[0, 0, 0]	n/a	FR1	0	R1374T
1103.931	0.816	611281	WORD_OFF	n/a	n/a	CAVE	10	6	[0, 0, 0]	n/a	FR1	0	R1374T
1104.747	1.617	612105	WORD	n/a	wordpools/wordpool_short_EN.txt	BOOT	11	6	[0, 0, 0]	n/a	FR1	0	R1374T
1106.364	0.767	613712	WORD_OFF	n/a	n/a	BOOT	11	6	[0, 0, 0]	n/a	FR1	0	R1374T
1107.131	1.616	614480	WORD	n/a	wordpools/wordpool_short_EN.txt	SWAMP	12	6	[0, 0, 0]	n/a	FR1	0	R1374T
1108.747	0.002	616101	WORD_OFF	n/a	n/a	SWAMP	12	6	[0, 0, 0]	n/a	FR1	0	R1374T
1108.749	0.0	616101	ENCODING_END	n/a	n/a	n/a	-999	6	[0, 0, 0]	n/a	FR1	0	R1374T
1108.749	0.0	616101	DISTRACT_START	n/a	n/a	n/a	-999	6	[0, 0, 0]	n/a	FR1	0	R1374T
1108.747	0.002	616103	PROB	0.002	n/a	n/a	-999	6	[1, 4, 6]	11	FR1	0	R1374T
1108.749	14.365	616105	START	n/a	n/a	n/a	-999	6	[-999, -999, -999]	n/a	FR1	0	R1374T
1123.114	4.817	630469	PROB	4.817	n/a	n/a	-999	6	[6, 2, 3]	11	FR1	0	R1374T
1127.931	13.599	635286	PROB	13.599	n/a	n/a	-999	6	[6, 6, 8]	20	FR1	0	R1374T
1141.53	0.0	648879	DISTRACT_END	n/a	n/a	n/a	-999	6	[0, 0, 0]	n/a	FR1	0	R1374T
1141.53	1.2	648884	STOP	n/a	n/a	n/a	-999	6	[-999, -999, -999]	n/a	FR1	0	R1374T
1142.73	5.216	650080	REC_START	n/a	n/a	n/a	-999	6	[0, 0, 0]	n/a	FR1	0	R1374T
1147.946	0.585	655300	REC_WORD	0.585	n/a	PLANT	-999	6	[0, 0, 0]	n/a	FR1	0	R1374T
1148.531	3.008	655885	REC_WORD	3.008	n/a	SKUNK	-999	6	[0, 0, 0]	n/a	FR1	0	R1374T
1151.539	0.736	658893	REC_WORD	0.736	n/a	JAR	-999	6	[0, 0, 0]	n/a	FR1	0	R1374T
1152.275	2.236	659629	REC_WORD	2.236	n/a	INK	-999	6	[0, 0, 0]	n/a	FR1	0	R1374T
1154.511	2.72	661865	REC_WORD	2.72	n/a	ROAD	-999	6	[0, 0, 0]	n/a	FR1	0	R1374T
1157.231	14.516	664584	REC_WORD	14.516	n/a	WAND	1	6	[0, 0, 0]	n/a	FR1	0	R1374T
1171.747	1.27	679100	REC_WORD	1.27	n/a	MOTOR	-999	6	[0, 0, 0]	n/a	FR1	0	R1374T
1173.017	6.23	680371	REC_END	n/a	n/a	n/a	-999	6	[0, 0, 0]	n/a	FR1	0	R1374T
1179.247	10.351	686603	COUNTDOWN_START	n/a	n/a	n/a	-999	7	[0, 0, 0]	n/a	FR1	0	R1374T
1189.598	0.0	696942	COUNTDOWN_END	n/a	n/a	n/a	-999	7	[0, 0, 0]	n/a	FR1	0	R1374T
1189.598	2.283	696956	ENCODING_START	n/a	n/a	n/a	-999	7	[0, 0, 0]	n/a	FR1	0	R1374T
1191.881	1.615	699233	WORD	n/a	wordpools/wordpool_short_EN.txt	SOIL	1	7	[0, 0, 0]	n/a	FR1	0	R1374T
1193.496	0.917	700840	WORD_OFF	n/a	n/a	SOIL	1	7	[0, 0, 0]	n/a	FR1	0	R1374T
1194.413	1.601	701762	WORD	n/a	wordpools/wordpool_short_EN.txt	SPICE	2	7	[0, 0, 0]	n/a	FR1	0	R1374T
1196.014	0.9	703369	WORD_OFF	n/a	n/a	SPICE	2	7	[0, 0, 0]	n/a	FR1	0	R1374T
1196.914	1.616	704263	WORD	n/a	wordpools/wordpool_short_EN.txt	BOY	3	7	[0, 0, 0]	n/a	FR1	0	R1374T
1198.53	1.001	705884	WORD_OFF	n/a	n/a	BOY	3	7	[0, 0, 0]	n/a	FR1	0	R1374T
1199.531	1.6	706876	WORD	n/a	wordpools/wordpool_short_EN.txt	TEETH	4	7	[0, 0, 0]	n/a	FR1	0	R1374T
1201.131	0.799	708482	WORD_OFF	n/a	n/a	TEETH	4	7	[0, 0, 0]	n/a	FR1	0	R1374T
1201.93	1.6	709279	WORD	n/a	wordpools/wordpool_short_EN.txt	POND	5	7	[0, 0, 0]	n/a	FR1	0	R1374T
1203.53	0.967	710886	WORD_OFF	n/a	n/a	POND	5	7	[0, 0, 0]	n/a	FR1	0	R1374T
1204.497	1.6	711850	WORD	n/a	wordpools/wordpool_short_EN.txt	HAT	6	7	[0, 0, 0]	n/a	FR1	0	R1374T
1206.097	0.767	713442	WORD_OFF	n/a	n/a	HAT	6	7	[0, 0, 0]	n/a	FR1	0	R1374T
1206.864	1.6	714211	WORD	n/a	wordpools/wordpool_short_EN.txt	THUMB	7	7	[0, 0, 0]	n/a	FR1	0	R1374T
1208.464	0.95	715818	WORD_OFF	n/a	n/a	THUMB	7	7	[0, 0, 0]	n/a	FR1	0	R1374T
1209.414	1.616	716768	WORD	n/a	wordpools/wordpool_short_EN.txt	ELF	8	7	[0, 0, 0]	n/a	FR1	0	R1374T
1211.03	0.901	718375	WORD_OFF	n/a	n/a	ELF	8	7	[0, 0, 0]	n/a	FR1	0	R1374T
1211.931	1.616	719283	WORD	n/a	wordpools/wordpool_short_EN.txt	MOSS	9	7	[0, 0, 0]	n/a	FR1	0	R1374T
1213.547	1.001	720889	WORD_OFF	n/a	n/a	MOSS	9	7	[0, 0, 0]	n/a	FR1	0	R1374T
1214.548	1.599	721895	WORD	n/a	wordpools/wordpool_short_EN.txt	MOUTH	10	7	[0, 0, 0]	n/a	FR1	0	R1374T
1216.147	0.967	723502	WORD_OFF	n/a	n/a	MOUTH	10	7	[0, 0, 0]	n/a	FR1	0	R1374T
1217.114	1.616	724466	WORD	n/a	wordpools/wordpool_short_EN.txt	FROST	11	7	[0, 0, 0]	n/a	FR1	0	R1374T
1218.73	0.867	726073	WORD_OFF	n/a	n/a	FROST	11	7	[0, 0, 0]	n/a	FR1	0	R1374T
1219.597	1.6	726939	WORD	n/a	wordpools/wordpool_short_EN.txt	SMOKE	12	7	[0, 0, 0]	n/a	FR1	0	R1374T
1221.197	0.002	728546	WORD_OFF	n/a	n/a	SMOKE	12	7	[0, 0, 0]	n/a	FR1	0	R1374T
1221.199	0.0	728546	ENCODING_END	n/a	n/a	n/a	-999	7	[0, 0, 0]	n/a	FR1	0	R1374T
1221.199	0.0	728546	DISTRACT_START	n/a	n/a	n/a	-999	7	[0, 0, 0]	n/a	FR1	0	R1374T
1221.197	0.002	728547	PROB	0.002	n/a	n/a	-999	7	[2, 4, 1]	7	FR1	0	R1374T
1221.199	13.898	728549	START	n/a	n/a	n/a	-999	7	[-999, -999, -999]	n/a	FR1	0	R1374T
1235.097	5.184	742446	PROB	5.184	n/a	n/a	-999	7	[4, 1, 4]	9	FR1	0	R1374T
1240.281	6.632	747630	PROB	6.632	n/a	n/a	-999	7	[4, 3, 8]	15	FR1	0	R1374T
1246.913	0.0	754254	DISTRACT_END	n/a	n/a	n/a	-999	7	[0, 0, 0]	n/a	FR1	0	R1374T
1246.913	1.067	754262	STOP	n/a	n/a	n/a	-999	7	[-999, -999, -999]	n/a	FR1	0	R1374T
1247.98	4.122	755330	REC_START	n/a	n/a	n/a	-999	7	[0, 0, 0]	n/a	FR1	0	R1374T
1252.102	2.13	759451	REC_WORD	2.13	n/a	MAP	-999	7	[0, 0, 0]	n/a	FR1	0	R1374T
1254.232	2.371	761580	REC_WORD	2.371	n/a	BOY	3	7	[0, 0, 0]	n/a	FR1	0	R1374T
1256.603	1.468	763951	REC_WORD	1.468	n/a	INK	-999	7	[0, 0, 0]	n/a	FR1	0	R1374T
1258.071	3.569	765419	REC_WORD	3.569	n/a	SMOKE	12	7	[0, 0, 0]	n/a	FR1	0	R1374T
1261.64	16.587	768988	REC_WORD	16.587	n/a	JAR	-999	7	[0, 0, 0]	n/a	FR1	0	R1374T
1278.227	4.887	785565	REC_END	n/a	n/a	n/a	-999	7	[0, 0, 0]	n/a	FR1	0	R1374T
1283.114	10.351	790455	COUNTDOWN_START	n/a	n/a	n/a	-999	8	[0, 0, 0]	n/a	FR1	0	R1374T
1293.465	0.0	800808	COUNTDOWN_END	n/a	n/a	n/a	-999	8	[0, 0, 0]	n/a	FR1	0	R1374T
1293.465	2.132	800808	ENCODING_START	n/a	n/a	n/a	-999	8	[0, 0, 0]	n/a	FR1	0	R1374T
1295.597	1.617	802946	WORD	n/a	wordpools/wordpool_short_EN.txt	STEAK	1	8	[0, 0, 0]	n/a	FR1	0	R1374T
1297.214	0.85	804553	WORD_OFF	n/a	n/a	STEAK	1	8	[0, 0, 0]	n/a	FR1	0	R1374T
1298.064	1.6	805405	WORD	n/a	wordpools/wordpool_short_EN.txt	STORE	2	8	[0, 0, 0]	n/a	FR1	0	R1374T
1299.664	0.783	807012	WORD_OFF	n/a	n/a	STORE	2	8	[0, 0, 0]	n/a	FR1	0	R1374T
1300.447	1.617	807794	WORD	n/a	wordpools/wordpool_short_EN.txt	GOWN	3	8	[0, 0, 0]	n/a	FR1	0	R1374T
1302.064	0.8	809401	WORD_OFF	n/a	n/a	GOWN	3	8	[0, 0, 0]	n/a	FR1	0	R1374T
1302.864	1.6	810211	WORD	n/a	wordpools/wordpool_short_EN.txt	GLASS	4	8	[0, 0, 0]	n/a	FR1	0	R1374T
1304.464	0.999	811804	WORD_OFF	n/a	n/a	GLASS	4	8	[0, 0, 0]	n/a	FR1	0	R1374T
1305.463	1.601	812810	WORD	n/a	wordpools/wordpool_short_EN.txt	CROWN	5	8	[0, 0, 0]	n/a	FR1	0	R1374T
1307.064	0.767	814403	WORD_OFF	n/a	n/a	CROWN	5	8	[0, 0, 0]	n/a	FR1	0	R1374T
1307.831	1.616	815171	WORD	n/a	wordpools/wordpool_short_EN.txt	TROUT	6	8	[0, 0, 0]	n/a	FR1	0	R1374T
1309.447	0.784	816792	WORD_OFF	n/a	n/a	TROUT	6	8	[0, 0, 0]	n/a	FR1	0	R1374T
1310.231	1.616	817574	WORD	n/a	wordpools/wordpool_short_EN.txt	SOCK	7	8	[0, 0, 0]	n/a	FR1	0	R1374T
1311.847	0.85	819195	WORD_OFF	n/a	n/a	SOCK	7	8	[0, 0, 0]	n/a	FR1	0	R1374T
1312.697	1.617	820047	WORD	n/a	wordpools/wordpool_short_EN.txt	SPRING	8	8	[0, 0, 0]	n/a	FR1	0	R1374T
1314.314	0.85	821654	WORD_OFF	n/a	n/a	SPRING	8	8	[0, 0, 0]	n/a	FR1	0	R1374T
1315.164	1.6	822506	WORD	n/a	wordpools/wordpool_short_EN.txt	CAPE	9	8	[0, 0, 0]	n/a	FR1	0	R1374T
1316.764	1.017	824113	WORD_OFF	n/a	n/a	CAPE	9	8	[0, 0, 0]	n/a	FR1	0	R1374T
1317.781	1.6	825119	WORD	n/a	wordpools/wordpool_short_EN.txt	LENS	10	8	[0, 0, 0]	n/a	FR1	0	R1374T
1319.381	0.916	826726	WORD_OFF	n/a	n/a	LENS	10	8	[0, 0, 0]	n/a	FR1	0	R1374T
1320.297	1.6	827634	WORD	n/a	wordpools/wordpool_short_EN.txt	COURT	11	8	[0, 0, 0]	n/a	FR1	0	R1374T
1321.897	0.834	829241	WORD_OFF	n/a	n/a	COURT	11	8	[0, 0, 0]	n/a	FR1	0	R1374T
1322.731	1.6	830079	WORD	n/a	wordpools/wordpool_short_EN.txt	SCHOOL	12	8	[0, 0, 0]	n/a	FR1	0	R1374T
1324.331	0.001	831672	WORD_OFF	n/a	n/a	SCHOOL	12	8	[0, 0, 0]	n/a	FR1	0	R1374T
1324.332	0.0	831672	ENCODING_END	n/a	n/a	n/a	-999	8	[0, 0, 0]	n/a	FR1	0	R1374T
1324.332	0.0	831672	DISTRACT_START	n/a	n/a	n/a	-999	8	[0, 0, 0]	n/a	FR1	0	R1374T
1324.331	0.001	831676	PROB	0.001	n/a	n/a	-999	8	[7, 6, 4]	17	FR1	0	R1374T
1324.332	13.865	831677	START	n/a	n/a	n/a	-999	8	[-999, -999, -999]	n/a	FR1	0	R1374T
1338.197	5.517	845541	PROB	5.517	n/a	n/a	-999	8	[2, 1, 7]	10	FR1	0	R1374T
1343.714	7.249	851058	PROB	7.249	n/a	n/a	-999	8	[5, 3, 1]	9	FR1	0	R1374T
1350.963	0.0	858302	DISTRACT_END	n/a	n/a	n/a	-999	8	[0, 0, 0]	n/a	FR1	0	R1374T
1350.963	1.333	858306	STOP	n/a	n/a	n/a	-999	8	[-999, -999, -999]	n/a	FR1	0	R1374T
1352.296	6.097	859644	REC_START	n/a	n/a	n/a	-999	8	[0, 0, 0]	n/a	FR1	0	R1374T
1358.393	1.779	865736	REC_WORD	1.779	n/a	INK	-999	8	[0, 0, 0]	n/a	FR1	0	R1374T
1360.172	3.403	867515	REC_WORD	3.403	n/a	MAP	-999	8	[0, 0, 0]	n/a	FR1	0	R1374T
1363.575	1.46	870918	REC_WORD	1.46	n/a	GOWN	3	8	[0, 0, 0]	n/a	FR1	0	R1374T
1365.035	5.709	872378	REC_WORD	5.709	n/a	JAR	-999	8	[0, 0, 0]	n/a	FR1	0	R1374T
1370.744	4.551	878086	REC_WORD	4.551	n/a	TOOL	-999	8	[0, 0, 0]	n/a	FR1	0	R1374T
1375.295	7.274	882637	REC_WORD	7.274	n/a	ROAD	-999	8	[0, 0, 0]	n/a	FR1	0	R1374T
1382.569	6.828	889907	REC_END	n/a	n/a	n/a	-999	8	[0, 0, 0]	n/a	FR1	0	R1374T
1389.397	10.351	896739	COUNTDOWN_START	n/a	n/a	n/a	-999	9	[0, 0, 0]	n/a	FR1	0	R1374T
1399.748	0.0	907092	COUNTDOWN_END	n/a	n/a	n/a	-999	9	[0, 0, 0]	n/a	FR1	0	R1374T
1399.748	1.933	907092	ENCODING_START	n/a	n/a	n/a	-999	9	[0, 0, 0]	n/a	FR1	0	R1374T
1401.681	1.6	909020	WORD	n/a	wordpools/wordpool_short_EN.txt	SPONGE	1	9	[0, 0, 0]	n/a	FR1	0	R1374T
1403.281	0.916	910613	WORD_OFF	n/a	n/a	SPONGE	1	9	[0, 0, 0]	n/a	FR1	0	R1374T
1404.197	1.617	911535	WORD	n/a	wordpools/wordpool_short_EN.txt	HARP	2	9	[0, 0, 0]	n/a	FR1	0	R1374T
1405.814	0.766	913156	WORD_OFF	n/a	n/a	HARP	2	9	[0, 0, 0]	n/a	FR1	0	R1374T
1406.58	1.617	913924	WORD	n/a	wordpools/wordpool_short_EN.txt	PAN	3	9	[0, 0, 0]	n/a	FR1	0	R1374T
1408.197	0.949	915531	WORD_OFF	n/a	n/a	PAN	3	9	[0, 0, 0]	n/a	FR1	0	R1374T
1409.146	1.601	916481	WORD	n/a	wordpools/wordpool_short_EN.txt	WOOD	4	9	[0, 0, 0]	n/a	FR1	0	R1374T
1410.747	0.867	918088	WORD_OFF	n/a	n/a	WOOD	4	9	[0, 0, 0]	n/a	FR1	0	R1374T
1411.614	1.6	918954	WORD	n/a	wordpools/wordpool_short_EN.txt	GEESE	5	9	[0, 0, 0]	n/a	FR1	0	R1374T
1413.214	0.817	920547	WORD_OFF	n/a	n/a	GEESE	5	9	[0, 0, 0]	n/a	FR1	0	R1374T
1414.031	1.599	921371	WORD	n/a	wordpools/wordpool_short_EN.txt	BANK	6	9	[0, 0, 0]	n/a	FR1	0	R1374T
1415.63	0.817	922964	WORD_OFF	n/a	n/a	BANK	6	9	[0, 0, 0]	n/a	FR1	0	R1374T
1416.447	1.617	923788	WORD	n/a	wordpools/wordpool_short_EN.txt	PAINT	7	9	[0, 0, 0]	n/a	FR1	0	R1374T
1418.064	0.8	925395	WORD_OFF	n/a	n/a	PAINT	7	9	[0, 0, 0]	n/a	FR1	0	R1374T
1418.864	1.616	926205	WORD	n/a	wordpools/wordpool_short_EN.txt	DOG	8	9	[0, 0, 0]	n/a	FR1	0	R1374T
1420.48	0.9	927812	WORD_OFF	n/a	n/a	DOG	8	9	[0, 0, 0]	n/a	FR1	0	R1374T
1421.38	1.617	928720	WORD	n/a	wordpools/wordpool_short_EN.txt	STAIR	9	9	[0, 0, 0]	n/a	FR1	0	R1374T
1422.997	0.916	930341	WORD_OFF	n/a	n/a	STAIR	9	9	[0, 0, 0]	n/a	FR1	0	R1374T
1423.913	1.6	931249	WORD	n/a	wordpools/wordpool_short_EN.txt	SNAKE	10	9	[0, 0, 0]	n/a	FR1	0	R1374T
1425.513	0.917	932856	WORD_OFF	n/a	n/a	SNAKE	10	9	[0, 0, 0]	n/a	FR1	0	R1374T
1426.43	1.617	933764	WORD	n/a	wordpools/wordpool_short_EN.txt	FLEA	11	9	[0, 0, 0]	n/a	FR1	0	R1374T
1428.047	0.966	935385	WORD_OFF	n/a	n/a	FLEA	11	9	[0, 0, 0]	n/a	FR1	0	R1374T
1429.013	1.617	936349	WORD	n/a	wordpools/wordpool_short_EN.txt	BIRD	12	9	[0, 0, 0]	n/a	FR1	0	R1374T
1430.63	0.0	937969	PROB	0.0	n/a	n/a	-999	9	[5, 3, 1]	9	FR1	0	R1374T
1430.63	0.001	937970	WORD_OFF	n/a	n/a	BIRD	12	9	[0, 0, 0]	n/a	FR1	0	R1374T
1430.631	0.0	937970	ENCODING_END	n/a	n/a	n/a	-999	9	[0, 0, 0]	n/a	FR1	0	R1374T
1430.631	0.0	937970	DISTRACT_START	n/a	n/a	n/a	-999	9	[0, 0, 0]	n/a	FR1	0	R1374T
1430.631	10.134	937970	START	n/a	n/a	n/a	-999	9	[-999, -999, -999]	n/a	FR1	0	R1374T
1440.765	6.281	948104	PROB	6.281	n/a	n/a	-999	9	[7, 5, 5]	17	FR1	0	R1374T
1447.046	4.986	954385	PROB	4.986	n/a	n/a	-999	9	[2, 7, 2]	11	FR1	0	R1374T
1452.032	0.0	959370	STOP	n/a	n/a	n/a	-999	9	[-999, -999, -999]	n/a	FR1	0	R1374T
1452.032	1.365	959374	DISTRACT_END	n/a	n/a	n/a	-999	9	[0, 0, 0]	n/a	FR1	0	R1374T
1453.397	1.747	960730	REC_START	n/a	n/a	n/a	-999	9	[0, 0, 0]	n/a	FR1	0	R1374T
1455.144	0.851	962482	REC_WORD	0.851	n/a	BIRD	12	9	[0, 0, 0]	n/a	FR1	0	R1374T
1455.995	4.256	963333	REC_WORD	4.256	n/a	MAP	-999	9	[0, 0, 0]	n/a	FR1	0	R1374T
1460.251	7.135	967589	REC_WORD	7.135	n/a	INK	-999	9	[0, 0, 0]	n/a	FR1	0	R1374T
1467.386	1.981	974723	REC_WORD	1.981	n/a	STAIR	9	9	[0, 0, 0]	n/a	FR1	0	R1374T
1469.367	14.316	976704	REC_WORD	14.316	n/a	ROAD	-999	9	[0, 0, 0]	n/a	FR1	0	R1374T
1483.683	10.548	991021	REC_END	n/a	n/a	n/a	-999	9	[0, 0, 0]	n/a	FR1	0	R1374T
1494.231	10.35	1001569	COUNTDOWN_START	n/a	n/a	n/a	-999	10	[0, 0, 0]	n/a	FR1	0	R1374T
1504.581	0.0	1011908	COUNTDOWN_END	n/a	n/a	n/a	-999	10	[0, 0, 0]	n/a	FR1	0	R1374T
1504.581	1.949	1011922	ENCODING_START	n/a	n/a	n/a	-999	10	[0, 0, 0]	n/a	FR1	0	R1374T
1506.53	1.6	1013865	WORD	n/a	wordpools/wordpool_short_EN.txt	WEB	1	10	[0, 0, 0]	n/a	FR1	0	R1374T
1508.13	0.817	1015457	WORD_OFF	n/a	n/a	WEB	1	10	[0, 0, 0]	n/a	FR1	0	R1374T
1508.947	1.6	1016282	WORD	n/a	wordpools/wordpool_short_EN.txt	HOOF	2	10	[0, 0, 0]	n/a	FR1	0	R1374T
1510.547	0.983	1017874	WORD_OFF	n/a	n/a	HOOF	2	10	[0, 0, 0]	n/a	FR1	0	R1374T
1511.53	1.6	1018866	WORD	n/a	wordpools/wordpool_short_EN.txt	BAY	3	10	[0, 0, 0]	n/a	FR1	0	R1374T
1513.13	0.784	1020459	WORD_OFF	n/a	n/a	BAY	3	10	[0, 0, 0]	n/a	FR1	0	R1374T
1513.914	1.616	1021242	WORD	n/a	wordpools/wordpool_short_EN.txt	SLIME	4	10	[0, 0, 0]	n/a	FR1	0	R1374T
1515.53	0.817	1022862	WORD_OFF	n/a	n/a	SLIME	4	10	[0, 0, 0]	n/a	FR1	0	R1374T
1516.347	1.616	1023673	WORD	n/a	wordpools/wordpool_short_EN.txt	BADGE	5	10	[0, 0, 0]	n/a	FR1	0	R1374T
1517.963	0.884	1025293	WORD_OFF	n/a	n/a	BADGE	5	10	[0, 0, 0]	n/a	FR1	0	R1374T
1518.847	1.6	1026174	WORD	n/a	wordpools/wordpool_short_EN.txt	BAT	6	10	[0, 0, 0]	n/a	FR1	0	R1374T
1520.447	0.9	1027780	WORD_OFF	n/a	n/a	BAT	6	10	[0, 0, 0]	n/a	FR1	0	R1374T
1521.347	1.616	1028675	WORD	n/a	wordpools/wordpool_short_EN.txt	SHED	7	10	[0, 0, 0]	n/a	FR1	0	R1374T
1522.963	0.818	1030295	WORD_OFF	n/a	n/a	SHED	7	10	[0, 0, 0]	n/a	FR1	0	R1374T
1523.781	1.599	1031120	WORD	n/a	wordpools/wordpool_short_EN.txt	PORK	8	10	[0, 0, 0]	n/a	FR1	0	R1374T
1525.38	0.983	1032712	WORD_OFF	n/a	n/a	PORK	8	10	[0, 0, 0]	n/a	FR1	0	R1374T
1526.363	1.6	1033690	WORD	n/a	wordpools/wordpool_short_EN.txt	BOMB	9	10	[0, 0, 0]	n/a	FR1	0	R1374T
1527.963	0.933	1035297	WORD_OFF	n/a	n/a	BOMB	9	10	[0, 0, 0]	n/a	FR1	0	R1374T
1528.896	1.6	1036233	WORD	n/a	wordpools/wordpool_short_EN.txt	DIME	10	10	[0, 0, 0]	n/a	FR1	0	R1374T
1530.496	0.8	1037826	WORD_OFF	n/a	n/a	DIME	10	10	[0, 0, 0]	n/a	FR1	0	R1374T
1531.296	1.6	1038623	WORD	n/a	wordpools/wordpool_short_EN.txt	SLUSH	11	10	[0, 0, 0]	n/a	FR1	0	R1374T
1532.896	0.917	1040229	WORD_OFF	n/a	n/a	SLUSH	11	10	[0, 0, 0]	n/a	FR1	0	R1374T
1533.813	1.6	1041137	WORD	n/a	wordpools/wordpool_short_EN.txt	TRAIL	12	10	[0, 0, 0]	n/a	FR1	0	R1374T
1535.413	0.001	1042744	WORD_OFF	n/a	n/a	TRAIL	12	10	[0, 0, 0]	n/a	FR1	0	R1374T
1535.414	0.0	1042744	ENCODING_END	n/a	n/a	n/a	-999	10	[0, 0, 0]	n/a	FR1	0	R1374T
1535.414	0.0	1042744	DISTRACT_START	n/a	n/a	n/a	-999	10	[0, 0, 0]	n/a	FR1	0	R1374T
1535.413	0.001	1042747	PROB	0.001	n/a	n/a	-999	10	[1, 8, 3]	12	FR1	0	R1374T
1535.414	13.685	1042748	START	n/a	n/a	n/a	-999	10	[-999, -999, -999]	n/a	FR1	0	R1374T
1549.099	7.781	1056432	PROB	7.781	n/a	n/a	-999	10	[4, 6, 4]	14	FR1	0	R1374T
1556.88	0.0	1064205	DISTRACT_END	n/a	n/a	n/a	-999	10	[0, 0, 0]	n/a	FR1	0	R1374T
1556.88	1.251	1064213	STOP	n/a	n/a	n/a	-999	10	[-999, -999, -999]	n/a	FR1	0	R1374T
1558.131	5.304	1065462	REC_START	n/a	n/a	n/a	-999	10	[0, 0, 0]	n/a	FR1	0	R1374T
1563.435	1.95	1070768	REC_WORD	1.95	n/a	BADGE	5	10	[0, 0, 0]	n/a	FR1	0	R1374T
1565.385	4.69	1072717	REC_WORD	4.69	n/a	SLIME	4	10	[0, 0, 0]	n/a	FR1	0	R1374T
1570.075	2.81	1077407	REC_WORD	2.81	n/a	WORD	-999	10	[0, 0, 0]	n/a	FR1	0	R1374T
1572.885	15.527	1080217	REC_WORD	15.527	n/a	WORLD	-999	10	[0, 0, 0]	n/a	FR1	0	R1374T
1588.412	6.152	1095739	REC_END	n/a	n/a	n/a	-999	10	[0, 0, 0]	n/a	FR1	0	R1374T
1594.564	10.351	1101901	COUNTDOWN_START	n/a	n/a	n/a	-999	11	[0, 0, 0]	n/a	FR1	0	R1374T
1604.915	0.0	1112240	COUNTDOWN_END	n/a	n/a	n/a	-999	11	[0, 0, 0]	n/a	FR1	0	R1374T
1604.915	2.349	1112240	ENCODING_START	n/a	n/a	n/a	-999	11	[0, 0, 0]	n/a	FR1	0	R1374T
1607.264	1.6	1114587	WORD	n/a	wordpools/wordpool_short_EN.txt	VASE	1	11	[0, 0, 0]	n/a	FR1	0	R1374T
1608.864	0.849	1116194	WORD_OFF	n/a	n/a	VASE	1	11	[0, 0, 0]	n/a	FR1	0	R1374T
1609.713	1.6	1117046	WORD	n/a	wordpools/wordpool_short_EN.txt	JAW	2	11	[0, 0, 0]	n/a	FR1	0	R1374T
1611.313	1.001	1118639	WORD_OFF	n/a	n/a	JAW	2	11	[0, 0, 0]	n/a	FR1	0	R1374T
1612.314	1.617	1119645	WORD	n/a	wordpools/wordpool_short_EN.txt	BRANCH	3	11	[0, 0, 0]	n/a	FR1	0	R1374T
1613.931	0.816	1121252	WORD_OFF	n/a	n/a	BRANCH	3	11	[0, 0, 0]	n/a	FR1	0	R1374T
1614.747	1.6	1122076	WORD	n/a	wordpools/wordpool_short_EN.txt	WAVE	4	11	[0, 0, 0]	n/a	FR1	0	R1374T
1616.347	0.85	1123669	WORD_OFF	n/a	n/a	WAVE	4	11	[0, 0, 0]	n/a	FR1	0	R1374T
1617.197	1.6	1124521	WORD	n/a	wordpools/wordpool_short_EN.txt	MOUSE	5	11	[0, 0, 0]	n/a	FR1	0	R1374T
1618.797	0.867	1126128	WORD_OFF	n/a	n/a	MOUSE	5	11	[0, 0, 0]	n/a	FR1	0	R1374T
1619.664	1.617	1126994	WORD	n/a	wordpools/wordpool_short_EN.txt	NECK	6	11	[0, 0, 0]	n/a	FR1	0	R1374T
1621.281	0.883	1128601	WORD_OFF	n/a	n/a	NECK	6	11	[0, 0, 0]	n/a	FR1	0	R1374T
1622.164	1.616	1129495	WORD	n/a	wordpools/wordpool_short_EN.txt	PASTE	7	11	[0, 0, 0]	n/a	FR1	0	R1374T
1623.78	0.767	1131102	WORD_OFF	n/a	n/a	PASTE	7	11	[0, 0, 0]	n/a	FR1	0	R1374T
1624.547	1.6	1131870	WORD	n/a	wordpools/wordpool_short_EN.txt	PEA	8	11	[0, 0, 0]	n/a	FR1	0	R1374T
1626.147	0.833	1133477	WORD_OFF	n/a	n/a	PEA	8	11	[0, 0, 0]	n/a	FR1	0	R1374T
1626.98	1.6	1134302	WORD	n/a	wordpools/wordpool_short_EN.txt	DEW	9	11	[0, 0, 0]	n/a	FR1	0	R1374T
1628.58	0.833	1135908	WORD_OFF	n/a	n/a	DEW	9	11	[0, 0, 0]	n/a	FR1	0	R1374T
1629.413	1.6	1136747	WORD	n/a	wordpools/wordpool_short_EN.txt	BLOOD	10	11	[0, 0, 0]	n/a	FR1	0	R1374T
1631.013	0.918	1138339	WORD_OFF	n/a	n/a	BLOOD	10	11	[0, 0, 0]	n/a	FR1	0	R1374T
1631.931	1.616	1139262	WORD	n/a	wordpools/wordpool_short_EN.txt	SOUP	11	11	[0, 0, 0]	n/a	FR1	0	R1374T
1633.547	0.883	1140868	WORD_OFF	n/a	n/a	SOUP	11	11	[0, 0, 0]	n/a	FR1	0	R1374T
1634.43	1.617	1141762	WORD	n/a	wordpools/wordpool_short_EN.txt	SAUCE	12	11	[0, 0, 0]	n/a	FR1	0	R1374T
1636.047	0.002	1143369	WORD_OFF	n/a	n/a	SAUCE	12	11	[0, 0, 0]	n/a	FR1	0	R1374T
1636.049	0.0	1143369	ENCODING_END	n/a	n/a	n/a	-999	11	[0, 0, 0]	n/a	FR1	0	R1374T
1636.048	0.001	1143377	PROB	0.001	n/a	n/a	-999	11	[7, 3, 8]	18	FR1	0	R1374T
1636.049	0.0	1143378	START	n/a	n/a	n/a	-999	11	[-999, -999, -999]	n/a	FR1	0	R1374T
1636.049	12.132	1143383	DISTRACT_START	n/a	n/a	n/a	-999	11	[0, 0, 0]	n/a	FR1	0	R1374T
1648.181	6.75	1155509	PROB	6.75	n/a	n/a	-999	11	[7, 3, 6]	16	FR1	0	R1374T
1654.931	9.783	1162259	PROB	9.783	n/a	n/a	-999	11	[5, 6, 6]	17	FR1	0	R1374T
1664.714	0.0	1172039	DISTRACT_END	n/a	n/a	n/a	-999	11	[0, 0, 0]	n/a	FR1	0	R1374T
1664.714	1.333	1172041	STOP	n/a	n/a	n/a	-999	11	[-999, -999, -999]	n/a	FR1	0	R1374T
1666.047	2.088	1173381	REC_START	n/a	n/a	n/a	-999	11	[0, 0, 0]	n/a	FR1	0	R1374T
1668.135	5.767	1175462	REC_WORD	5.767	n/a	VASE	1	11	[0, 0, 0]	n/a	FR1	0	R1374T
1673.902	4.064	1181229	REC_WORD	4.064	n/a	JAR	-999	11	[0, 0, 0]	n/a	FR1	0	R1374T
1677.966	5.455	1185293	REC_WORD	5.455	n/a	STEM	-999	11	[0, 0, 0]	n/a	FR1	0	R1374T
1683.421	2.075	1190747	REC_WORD	2.075	n/a	BIRD	-999	11	[0, 0, 0]	n/a	FR1	0	R1374T
1685.496	10.824	1192822	REC_WORD	10.824	n/a	INK	-999	11	[0, 0, 0]	n/a	FR1	0	R1374T
1696.32	9.161	1203644	REC_END	n/a	n/a	n/a	-999	11	[0, 0, 0]	n/a	FR1	0	R1374T
1705.481	10.35	1212809	COUNTDOWN_START	n/a	n/a	n/a	-999	12	[0, 0, 0]	n/a	FR1	0	R1374T
1715.831	0.0	1223148	COUNTDOWN_END	n/a	n/a	n/a	-999	12	[0, 0, 0]	n/a	FR1	0	R1374T
1715.831	2.049	1223162	ENCODING_START	n/a	n/a	n/a	-999	12	[0, 0, 0]	n/a	FR1	0	R1374T
1717.88	1.6	1225202	WORD	n/a	wordpools/wordpool_short_EN.txt	WAX	1	12	[0, 0, 0]	n/a	FR1	0	R1374T
1719.48	0.884	1226809	WORD_OFF	n/a	n/a	WAX	1	12	[0, 0, 0]	n/a	FR1	0	R1374T
1720.364	1.616	1227689	WORD	n/a	wordpools/wordpool_short_EN.txt	SHORE	2	12	[0, 0, 0]	n/a	FR1	0	R1374T
1721.98	0.818	1229296	WORD_OFF	n/a	n/a	SHORE	2	12	[0, 0, 0]	n/a	FR1	0	R1374T
1722.798	1.615	1230120	WORD	n/a	wordpools/wordpool_short_EN.txt	STEEL	3	12	[0, 0, 0]	n/a	FR1	0	R1374T
1724.413	0.817	1231741	WORD_OFF	n/a	n/a	STEEL	3	12	[0, 0, 0]	n/a	FR1	0	R1374T
1725.23	1.6	1232551	WORD	n/a	wordpools/wordpool_short_EN.txt	CHALK	4	12	[0, 0, 0]	n/a	FR1	0	R1374T
1726.83	0.934	1234158	WORD_OFF	n/a	n/a	CHALK	4	12	[0, 0, 0]	n/a	FR1	0	R1374T
1727.764	1.616	1235080	WORD	n/a	wordpools/wordpool_short_EN.txt	MEAT	5	12	[0, 0, 0]	n/a	FR1	0	R1374T
1729.38	0.867	1236701	WORD_OFF	n/a	n/a	MEAT	5	12	[0, 0, 0]	n/a	FR1	0	R1374T
1730.247	1.6	1237567	WORD	n/a	wordpools/wordpool_short_EN.txt	HEEL	6	12	[0, 0, 0]	n/a	FR1	0	R1374T
1731.847	0.984	1239174	WORD_OFF	n/a	n/a	HEEL	6	12	[0, 0, 0]	n/a	FR1	0	R1374T
1732.831	1.6	1240152	WORD	n/a	wordpools/wordpool_short_EN.txt	COIN	7	12	[0, 0, 0]	n/a	FR1	0	R1374T
1734.431	1.0	1241759	WORD_OFF	n/a	n/a	COIN	7	12	[0, 0, 0]	n/a	FR1	0	R1374T
1735.431	1.6	1242751	WORD	n/a	wordpools/wordpool_short_EN.txt	PEARL	8	12	[0, 0, 0]	n/a	FR1	0	R1374T
1737.031	0.783	1244358	WORD_OFF	n/a	n/a	PEARL	8	12	[0, 0, 0]	n/a	FR1	0	R1374T
1737.814	1.6	1245140	WORD	n/a	wordpools/wordpool_short_EN.txt	OAR	9	12	[0, 0, 0]	n/a	FR1	0	R1374T
1739.414	0.866	1246733	WORD_OFF	n/a	n/a	OAR	9	12	[0, 0, 0]	n/a	FR1	0	R1374T
1740.28	1.6	1247599	WORD	n/a	wordpools/wordpool_short_EN.txt	NET	10	12	[0, 0, 0]	n/a	FR1	0	R1374T
1741.88	0.784	1249206	WORD_OFF	n/a	n/a	NET	10	12	[0, 0, 0]	n/a	FR1	0	R1374T
1742.664	1.6	1249988	WORD	n/a	wordpools/wordpool_short_EN.txt	CLOWN	11	12	[0, 0, 0]	n/a	FR1	0	R1374T
1744.264	0.883	1251581	WORD_OFF	n/a	n/a	CLOWN	11	12	[0, 0, 0]	n/a	FR1	0	R1374T
1745.147	1.617	1252461	WORD	n/a	wordpools/wordpool_short_EN.txt	LAND	12	12	[0, 0, 0]	n/a	FR1	0	R1374T
1746.764	0.001	1254082	WORD_OFF	n/a	n/a	LAND	12	12	[0, 0, 0]	n/a	FR1	0	R1374T
1746.765	0.0	1254082	ENCODING_END	n/a	n/a	n/a	-999	12	[0, 0, 0]	n/a	FR1	0	R1374T
1746.765	0.0	1254082	DISTRACT_START	n/a	n/a	n/a	-999	12	[0, 0, 0]	n/a	FR1	0	R1374T
1746.764	0.001	1254087	PROB	0.001	n/a	n/a	-999	12	[2, 5, 3]	10	FR1	0	R1374T
1746.765	11.266	1254088	START	n/a	n/a	n/a	-999	12	[-999, -999, -999]	n/a	FR1	0	R1374T
1758.031	7.317	1265354	PROB	7.317	n/a	n/a	-999	12	[5, 4, 8]	17	FR1	0	R1374T
1765.348	7.232	1272670	PROB	7.232	n/a	n/a	-999	12	[7, 1, 2]	10	FR1	0	R1374T
1772.58	0.0	1279902	DISTRACT_END	n/a	n/a	n/a	-999	12	[0, 0, 0]	n/a	FR1	0	R1374T
1772.58	1.134	1279902	STOP	n/a	n/a	n/a	-999	12	[-999, -999, -999]	n/a	FR1	0	R1374T
1773.714	3.022	1281034	REC_START	n/a	n/a	n/a	-999	12	[0, 0, 0]	n/a	FR1	0	R1374T
1776.736	0.88	1284058	REC_WORD	0.88	n/a	VASE	-999	12	[0, 0, 0]	n/a	FR1	0	R1374T
1777.616	1.494	1284938	REC_WORD	1.494	n/a	JAR	-999	12	[0, 0, 0]	n/a	FR1	0	R1374T
1779.11	5.449	1286431	REC_WORD	5.449	n/a	NECK	-999	12	[0, 0, 0]	n/a	FR1	0	R1374T
1784.559	1.878	1291880	REC_WORD	1.878	n/a	CLOWN	11	12	[0, 0, 0]	n/a	FR1	0	R1374T
1786.437	5.991	1293758	REC_WORD	5.991	n/a	HAND	-999	12	[0, 0, 0]	n/a	FR1	0	R1374T
1792.428	10.554	1299749	REC_WORD	10.554	n/a	STREAM	-999	12	[0, 0, 0]	n/a	FR1	0	R1374T
1802.982	1.012	1310302	REC_WORD	1.012	n/a	NECK	-999	12	[0, 0, 0]	n/a	FR1	0	R1374T
1803.994	0.0	1311311	REC_END	n/a	n/a	n/a	-999	12	[0, 0, 0]	n/a	FR1	0	R1374T
