onset	duration	sample	trial_type	response_time	stim_file	item_name	serialpos	list	test	answer	experiment	session	subject
0.0	78.361	75164	SESS_START	n/a	n/a	n/a	-999	-999	[0, 0, 0]	n/a	FR1	0	R1131M
78.361	10.428	114342	COUNTDOWN_START	n/a	n/a	n/a	-999	-999	[0, 0, 0]	n/a	FR1	0	R1131M
88.789	3.608	119555	COUNTDOWN_END	n/a	n/a	n/a	-999	-999	[0, 0, 0]	n/a	FR1	0	R1131M
92.397	2.568	121359	PRACTICE_WORD	n/a	n/a	BEAM	1	-1	[0, 0, 0]	n/a	FR1	0	R1131M
94.965	2.566	122643	PRACTICE_WORD	n/a	n/a	FLOOD	2	-1	[0, 0, 0]	n/a	FR1	0	R1131M
97.531	2.384	123926	PRACTICE_WORD	n/a	n/a	IRON	3	-1	[0, 0, 0]	n/a	FR1	0	R1131M
99.915	2.467	125118	PRACTICE_WORD	n/a	n/a	COTTON	4	-1	[0, 0, 0]	n/a	FR1	0	R1131M
102.382	2.568	126351	PRACTICE_WORD	n/a	n/a	RHINO	5	-1	[0, 0, 0]	n/a	FR1	0	R1131M
104.95	2.583	127635	PRACTICE_WORD	n/a	n/a	WAGON	6	-1	[0, 0, 0]	n/a	FR1	0	R1131M
107.533	2.517	128927	PRACTICE_WORD	n/a	n/a	ATTIC	7	-1	[0, 0, 0]	n/a	FR1	0	R1131M
110.05	2.417	130185	PRACTICE_WORD	n/a	n/a	RING	8	-1	[0, 0, 0]	n/a	FR1	0	R1131M
112.467	2.551	131393	PRACTICE_WORD	n/a	n/a	WATCH	9	-1	[0, 0, 0]	n/a	FR1	0	R1131M
115.018	2.5	132669	PRACTICE_WORD	n/a	n/a	TONGUE	10	-1	[0, 0, 0]	n/a	FR1	0	R1131M
117.518	2.517	133919	PRACTICE_WORD	n/a	n/a	CAMEL	11	-1	[0, 0, 0]	n/a	FR1	0	R1131M
120.035	1.617	135177	PRACTICE_WORD	n/a	n/a	CHEST	12	-1	[0, 0, 0]	n/a	FR1	0	R1131M
121.652	0.001	135986	PRACTICE_DISTRACT_START	n/a	n/a	n/a	-999	-1	[0, 0, 0]	n/a	FR1	0	R1131M
121.653	0.016	135986	START	n/a	n/a	n/a	-999	-1	[-999, -999, -999]	n/a	FR1	0	R1131M
121.669	8.468	135994	PROB	8.468	n/a	n/a	-999	-1	[3, 5, 9]	17	FR1	0	R1131M
130.137	11.91	140228	PROB	11.91	n/a	n/a	-999	-1	[1, 8, 4]	13	FR1	0	R1131M
142.047	0.009	146182	STOP	n/a	n/a	n/a	-999	-1	[-999, -999, -999]	n/a	FR1	0	R1131M
142.056	0.619	146187	PRACTICE_DISTRACT_END	n/a	n/a	n/a	-999	-1	[0, 0, 0]	n/a	FR1	0	R1131M
142.675	30.515	146496	PRACTICE_REC_START	n/a	n/a	n/a	-999	-1	[0, 0, 0]	n/a	FR1	0	R1131M
173.19	43.564	161753	PRACTICE_REC_END	n/a	n/a	n/a	-999	-1	[0, 0, 0]	n/a	FR1	0	R1131M
216.754	0.0	183533	TRIAL	n/a	n/a	n/a	-999	1	[0, 0, 0]	n/a	FR1	0	R1131M
216.754	10.428	183533	COUNTDOWN_START	n/a	n/a	n/a	-999	1	[0, 0, 0]	n/a	FR1	0	R1131M
227.182	0.007	188747	COUNTDOWN_END	n/a	n/a	n/a	-999	1	[0, 0, 0]	n/a	FR1	0	R1131M
227.189	2.501	188750	ORIENT	n/a	n/a	n/a	-999	1	[0, 0, 0]	n/a	FR1	0	R1131M
229.69	2.55	190001	WORD	n/a	wordpools/wordpool_EN.txt	CHALK	1	1	[0, 0, 0]	n/a	FR1	0	R1131M
232.24	2.568	191276	WORD	n/a	wordpools/wordpool_EN.txt	ICE	2	1	[0, 0, 0]	n/a	FR1	0	R1131M
234.808	2.417	192560	WORD	n/a	wordpools/wordpool_EN.txt	CONE	3	1	[0, 0, 0]	n/a	FR1	0	R1131M
237.225	2.55	193768	WORD	n/a	wordpools/wordpool_EN.txt	WEED	4	1	[0, 0, 0]	n/a	FR1	0	R1131M
239.775	2.401	195043	WORD	n/a	wordpools/wordpool_EN.txt	MULE	5	1	[0, 0, 0]	n/a	FR1	0	R1131M
242.176	2.433	196243	WORD	n/a	wordpools/wordpool_EN.txt	TAIL	6	1	[0, 0, 0]	n/a	FR1	0	R1131M
244.609	2.484	197460	WORD	n/a	wordpools/wordpool_EN.txt	SNOW	7	1	[0, 0, 0]	n/a	FR1	0	R1131M
247.093	2.401	198702	WORD	n/a	wordpools/wordpool_EN.txt	FOG	8	1	[0, 0, 0]	n/a	FR1	0	R1131M
249.494	2.55	199902	WORD	n/a	wordpools/wordpool_EN.txt	SHIELD	9	1	[0, 0, 0]	n/a	FR1	0	R1131M
252.044	2.534	201177	WORD	n/a	wordpools/wordpool_EN.txt	PARK	10	1	[0, 0, 0]	n/a	FR1	0	R1131M
254.578	2.467	202444	WORD	n/a	wordpools/wordpool_EN.txt	SIGN	11	1	[0, 0, 0]	n/a	FR1	0	R1131M
257.045	1.617	203677	WORD	n/a	wordpools/wordpool_EN.txt	SHIRT	12	1	[0, 0, 0]	n/a	FR1	0	R1131M
258.662	0.001	204486	DISTRACT_START	n/a	n/a	n/a	-999	1	[0, 0, 0]	n/a	FR1	0	R1131M
258.663	0.016	204486	START	n/a	n/a	n/a	-999	1	[-999, -999, -999]	n/a	FR1	0	R1131M
258.679	6.301	204494	PROB	6.301	n/a	n/a	-999	1	[3, 3, 9]	15	FR1	0	R1131M
264.98	5.001	207645	PROB	5.001	n/a	n/a	-999	1	[1, 4, 3]	8	FR1	0	R1131M
269.981	3.868	210145	PROB	3.868	n/a	n/a	-999	1	[8, 6, 3]	17	FR1	0	R1131M
273.849	3.634	212079	PROB	3.634	n/a	n/a	-999	1	[9, 2, 1]	12	FR1	0	R1131M
277.483	11.82	213896	PROB	11.82	n/a	n/a	-999	1	[3, 5, 9]	17	FR1	0	R1131M
289.303	0.015	219805	STOP	n/a	n/a	n/a	-999	1	[-999, -999, -999]	n/a	FR1	0	R1131M
289.318	1.151	219813	DISTRACT_END	n/a	n/a	n/a	-999	1	[0, 0, 0]	n/a	FR1	0	R1131M
290.469	4.788	220388	REC_START	n/a	n/a	n/a	-999	1	[0, 0, 0]	n/a	FR1	0	R1131M
295.257	0.548	222782	REC_WORD	0.548	n/a	MULE	-999	1	[0, 0, 0]	n/a	FR1	0	R1131M
295.805	4.244	223056	REC_WORD	4.244	n/a	TAIL	-999	1	[0, 0, 0]	n/a	FR1	0	R1131M
300.049	3.213	225178	REC_WORD	3.213	n/a	WEED	-999	1	[0, 0, 0]	n/a	FR1	0	R1131M
303.262	1.191	226784	REC_WORD	1.191	n/a	ICE	-999	1	[0, 0, 0]	n/a	FR1	0	R1131M
304.453	1.194	227380	REC_WORD	1.194	n/a	CONE	-999	1	[0, 0, 0]	n/a	FR1	0	R1131M
305.647	14.833	227977	REC_WORD	14.833	n/a	SNOW	-999	1	[0, 0, 0]	n/a	FR1	0	R1131M
320.48	4.495	235393	REC_END	n/a	n/a	n/a	-999	1	[0, 0, 0]	n/a	FR1	0	R1131M
324.975	0.0	237640	TRIAL	n/a	n/a	n/a	-999	2	[0, 0, 0]	n/a	FR1	0	R1131M
324.975	10.428	237640	COUNTDOWN_START	n/a	n/a	n/a	-999	2	[0, 0, 0]	n/a	FR1	0	R1131M
335.403	0.007	242854	COUNTDOWN_END	n/a	n/a	n/a	-999	2	[0, 0, 0]	n/a	FR1	0	R1131M
335.41	2.517	242857	ORIENT	n/a	n/a	n/a	-999	2	[0, 0, 0]	n/a	FR1	0	R1131M
337.927	2.384	244115	WORD	n/a	wordpools/wordpool_EN.txt	PANTS	1	2	[0, 0, 0]	n/a	FR1	0	R1131M
340.311	2.401	245307	WORD	n/a	wordpools/wordpool_EN.txt	PEN	2	2	[0, 0, 0]	n/a	FR1	0	R1131M
342.712	2.617	246508	WORD	n/a	wordpools/wordpool_EN.txt	SHEEP	3	2	[0, 0, 0]	n/a	FR1	0	R1131M
345.329	2.467	247816	WORD	n/a	wordpools/wordpool_EN.txt	BATH	4	2	[0, 0, 0]	n/a	FR1	0	R1131M
347.796	2.401	249050	WORD	n/a	wordpools/wordpool_EN.txt	BED	5	2	[0, 0, 0]	n/a	FR1	0	R1131M
350.197	2.517	250250	WORD	n/a	wordpools/wordpool_EN.txt	SMILE	6	2	[0, 0, 0]	n/a	FR1	0	R1131M
352.714	2.6	251508	WORD	n/a	wordpools/wordpool_EN.txt	RIB	7	2	[0, 0, 0]	n/a	FR1	0	R1131M
355.314	2.401	252808	WORD	n/a	wordpools/wordpool_EN.txt	FOAM	8	2	[0, 0, 0]	n/a	FR1	0	R1131M
357.715	2.417	254009	WORD	n/a	wordpools/wordpool_EN.txt	PIG	9	2	[0, 0, 0]	n/a	FR1	0	R1131M
360.132	2.484	255217	WORD	n/a	wordpools/wordpool_EN.txt	CROW	10	2	[0, 0, 0]	n/a	FR1	0	R1131M
362.616	2.533	256459	WORD	n/a	wordpools/wordpool_EN.txt	THREAD	11	2	[0, 0, 0]	n/a	FR1	0	R1131M
365.149	1.617	257726	WORD	n/a	wordpools/wordpool_EN.txt	TRAY	12	2	[0, 0, 0]	n/a	FR1	0	R1131M
366.766	0.001	258534	DISTRACT_START	n/a	n/a	n/a	-999	2	[0, 0, 0]	n/a	FR1	0	R1131M
366.767	0.016	258534	START	n/a	n/a	n/a	-999	2	[-999, -999, -999]	n/a	FR1	0	R1131M
366.783	6.118	258542	PROB	6.118	n/a	n/a	-999	2	[5, 4, 4]	13	FR1	0	R1131M
372.901	3.634	261601	PROB	3.634	n/a	n/a	-999	2	[5, 2, 3]	10	FR1	0	R1131M
376.535	4.701	263418	PROB	4.701	n/a	n/a	-999	2	[3, 5, 6]	14	FR1	0	R1131M
381.236	6.659	265768	PROB	6.659	n/a	n/a	-999	2	[9, 6, 7]	22	FR1	0	R1131M
387.895	0.009	269098	STOP	n/a	n/a	n/a	-999	2	[-999, -999, -999]	n/a	FR1	0	R1131M
387.904	1.117	269102	DISTRACT_END	n/a	n/a	n/a	-999	2	[0, 0, 0]	n/a	FR1	0	R1131M
389.021	0.0	269661	REC_START	n/a	n/a	n/a	-999	2	[0, 0, 0]	n/a	FR1	0	R1131M
389.021	30.012	269661	REC_WORD_VV	30.012	n/a	<>	-999	2	[0, 0, 0]	n/a	FR1	0	R1131M
419.033	6.328	284666	REC_END	n/a	n/a	n/a	-999	2	[0, 0, 0]	n/a	FR1	0	R1131M
425.361	0.0	287829	TRIAL	n/a	n/a	n/a	-999	3	[0, 0, 0]	n/a	FR1	0	R1131M
425.361	10.428	287829	COUNTDOWN_START	n/a	n/a	n/a	-999	3	[0, 0, 0]	n/a	FR1	0	R1131M
435.789	0.007	293043	COUNTDOWN_END	n/a	n/a	n/a	-999	3	[0, 0, 0]	n/a	FR1	0	R1131M
435.796	2.501	293047	ORIENT	n/a	n/a	n/a	-999	3	[0, 0, 0]	n/a	FR1	0	R1131M
438.297	2.55	294297	WORD	n/a	wordpools/wordpool_EN.txt	PASTE	1	3	[0, 0, 0]	n/a	FR1	0	R1131M
440.847	2.484	295572	WORD	n/a	wordpools/wordpool_EN.txt	SUIT	2	3	[0, 0, 0]	n/a	FR1	0	R1131M
443.331	2.417	296814	WORD	n/a	wordpools/wordpool_EN.txt	THUMB	3	3	[0, 0, 0]	n/a	FR1	0	R1131M
445.748	2.518	298022	WORD	n/a	wordpools/wordpool_EN.txt	CHIEF	4	3	[0, 0, 0]	n/a	FR1	0	R1131M
448.266	2.483	299281	WORD	n/a	wordpools/wordpool_EN.txt	JUDGE	5	3	[0, 0, 0]	n/a	FR1	0	R1131M
450.749	2.601	300523	WORD	n/a	wordpools/wordpool_EN.txt	BANK	6	3	[0, 0, 0]	n/a	FR1	0	R1131M
453.35	2.484	301823	WORD	n/a	wordpools/wordpool_EN.txt	CLIFF	7	3	[0, 0, 0]	n/a	FR1	0	R1131M
455.834	2.55	303065	WORD	n/a	wordpools/wordpool_EN.txt	SPEAR	8	3	[0, 0, 0]	n/a	FR1	0	R1131M
458.384	2.384	304340	WORD	n/a	wordpools/wordpool_EN.txt	COIN	9	3	[0, 0, 0]	n/a	FR1	0	R1131M
460.768	2.6	305532	WORD	n/a	wordpools/wordpool_EN.txt	BEAN	10	3	[0, 0, 0]	n/a	FR1	0	R1131M
463.368	2.418	306832	WORD	n/a	wordpools/wordpool_EN.txt	RICE	11	3	[0, 0, 0]	n/a	FR1	0	R1131M
465.786	1.617	308041	WORD	n/a	wordpools/wordpool_EN.txt	MOOSE	12	3	[0, 0, 0]	n/a	FR1	0	R1131M
467.403	0.0	308849	DISTRACT_START	n/a	n/a	n/a	-999	3	[0, 0, 0]	n/a	FR1	0	R1131M
467.403	0.016	308849	START	n/a	n/a	n/a	-999	3	[-999, -999, -999]	n/a	FR1	0	R1131M
467.419	4.751	308857	PROB	4.751	n/a	n/a	-999	3	[2, 5, 4]	11	FR1	0	R1131M
472.17	2.934	311232	PROB	2.934	n/a	n/a	-999	3	[7, 5, 1]	13	FR1	0	R1131M
475.104	3.751	312699	PROB	3.751	n/a	n/a	-999	3	[4, 7, 2]	13	FR1	0	R1131M
478.855	12.311	314575	PROB	12.311	n/a	n/a	-999	3	[7, 9, 4]	20	FR1	0	R1131M
491.166	0.008	320730	STOP	n/a	n/a	n/a	-999	3	[-999, -999, -999]	n/a	FR1	0	R1131M
491.174	1.084	320734	DISTRACT_END	n/a	n/a	n/a	-999	3	[0, 0, 0]	n/a	FR1	0	R1131M
492.258	2.775	321276	REC_START	n/a	n/a	n/a	-999	3	[0, 0, 0]	n/a	FR1	0	R1131M
495.033	27.236	322663	REC_WORD	27.236	n/a	BANK	-999	3	[0, 0, 0]	n/a	FR1	0	R1131M
522.269	6.545	336280	REC_END	n/a	n/a	n/a	-999	3	[0, 0, 0]	n/a	FR1	0	R1131M
528.814	0.001	339552	COUNTDOWN_START	n/a	n/a	n/a	-999	4	[0, 0, 0]	n/a	FR1	0	R1131M
528.815	10.427	339553	TRIAL	n/a	n/a	n/a	-999	4	[0, 0, 0]	n/a	FR1	0	R1131M
539.242	0.008	344766	COUNTDOWN_END	n/a	n/a	n/a	-999	4	[0, 0, 0]	n/a	FR1	0	R1131M
539.25	2.55	344770	ORIENT	n/a	n/a	n/a	-999	4	[0, 0, 0]	n/a	FR1	0	R1131M
541.8	2.617	346045	WORD	n/a	wordpools/wordpool_EN.txt	SPONGE	1	4	[0, 0, 0]	n/a	FR1	0	R1131M
544.417	2.568	347353	WORD	n/a	wordpools/wordpool_EN.txt	PIT	2	4	[0, 0, 0]	n/a	FR1	0	R1131M
546.985	2.5	348637	WORD	n/a	wordpools/wordpool_EN.txt	SNAIL	3	4	[0, 0, 0]	n/a	FR1	0	R1131M
549.485	2.517	349887	WORD	n/a	wordpools/wordpool_EN.txt	DEER	4	4	[0, 0, 0]	n/a	FR1	0	R1131M
552.002	2.551	351145	WORD	n/a	wordpools/wordpool_EN.txt	PALM	5	4	[0, 0, 0]	n/a	FR1	0	R1131M
554.553	2.567	352421	WORD	n/a	wordpools/wordpool_EN.txt	MUD	6	4	[0, 0, 0]	n/a	FR1	0	R1131M
557.12	2.6	353704	WORD	n/a	wordpools/wordpool_EN.txt	DART	7	4	[0, 0, 0]	n/a	FR1	0	R1131M
559.72	2.534	355004	WORD	n/a	wordpools/wordpool_EN.txt	TENT	8	4	[0, 0, 0]	n/a	FR1	0	R1131M
562.254	2.5	356271	WORD	n/a	wordpools/wordpool_EN.txt	FISH	9	4	[0, 0, 0]	n/a	FR1	0	R1131M
564.754	2.501	357521	WORD	n/a	wordpools/wordpool_EN.txt	SHRIMP	10	4	[0, 0, 0]	n/a	FR1	0	R1131M
567.255	2.601	358771	WORD	n/a	wordpools/wordpool_EN.txt	SNAKE	11	4	[0, 0, 0]	n/a	FR1	0	R1131M
569.856	1.617	360072	WORD	n/a	wordpools/wordpool_EN.txt	VINE	12	4	[0, 0, 0]	n/a	FR1	0	R1131M
571.473	0.001	360880	DISTRACT_START	n/a	n/a	n/a	-999	4	[0, 0, 0]	n/a	FR1	0	R1131M
571.474	0.015	360881	START	n/a	n/a	n/a	-999	4	[-999, -999, -999]	n/a	FR1	0	R1131M
571.489	5.651	360888	PROB	5.651	n/a	n/a	-999	4	[2, 4, 2]	8	FR1	0	R1131M
577.14	2.734	363714	PROB	2.734	n/a	n/a	-999	4	[8, 1, 2]	11	FR1	0	R1131M
579.874	3.618	365081	PROB	3.618	n/a	n/a	-999	4	[1, 6, 1]	8	FR1	0	R1131M
583.492	3.484	366889	PROB	3.484	n/a	n/a	-999	4	[6, 3, 5]	14	FR1	0	R1131M
586.976	3.584	368631	PROB	3.584	n/a	n/a	-999	4	[4, 3, 9]	16	FR1	0	R1131M
590.56	4.918	370423	PROB	4.918	n/a	n/a	-999	4	[8, 9, 8]	25	FR1	0	R1131M
595.478	0.016	372882	STOP	n/a	n/a	n/a	-999	4	[-999, -999, -999]	n/a	FR1	0	R1131M
595.494	1.051	372890	DISTRACT_END	n/a	n/a	n/a	-999	4	[0, 0, 0]	n/a	FR1	0	R1131M
596.545	2.219	373415	REC_START	n/a	n/a	n/a	-999	4	[0, 0, 0]	n/a	FR1	0	R1131M
598.764	2.544	374525	REC_WORD	2.544	n/a	FISH	-999	4	[0, 0, 0]	n/a	FR1	0	R1131M
601.308	1.216	375797	REC_WORD	1.216	n/a	SNAIL	-999	4	[0, 0, 0]	n/a	FR1	0	R1131M
602.524	6.533	376405	REC_WORD	6.533	n/a	MUD	-999	4	[0, 0, 0]	n/a	FR1	0	R1131M
609.057	17.497	379671	REC_WORD	17.497	n/a	SNAKE	-999	4	[0, 0, 0]	n/a	FR1	0	R1131M
626.554	3.613	388419	REC_END	n/a	n/a	n/a	-999	4	[0, 0, 0]	n/a	FR1	0	R1131M
630.167	0.0	390225	COUNTDOWN_START	n/a	n/a	n/a	-999	5	[0, 0, 0]	n/a	FR1	0	R1131M
630.167	10.428	390225	TRIAL	n/a	n/a	n/a	-999	5	[0, 0, 0]	n/a	FR1	0	R1131M
640.595	0.008	395439	COUNTDOWN_END	n/a	n/a	n/a	-999	5	[0, 0, 0]	n/a	FR1	0	R1131M
640.603	2.55	395443	ORIENT	n/a	n/a	n/a	-999	5	[0, 0, 0]	n/a	FR1	0	R1131M
643.153	2.417	396718	WORD	n/a	wordpools/wordpool_EN.txt	DRUM	1	5	[0, 0, 0]	n/a	FR1	0	R1131M
645.57	2.534	397926	WORD	n/a	wordpools/wordpool_EN.txt	HEART	2	5	[0, 0, 0]	n/a	FR1	0	R1131M
648.104	2.584	399193	WORD	n/a	wordpools/wordpool_EN.txt	SWORD	3	5	[0, 0, 0]	n/a	FR1	0	R1131M
650.688	2.5	400485	WORD	n/a	wordpools/wordpool_EN.txt	BENCH	4	5	[0, 0, 0]	n/a	FR1	0	R1131M
653.188	2.451	401735	WORD	n/a	wordpools/wordpool_EN.txt	PIPE	5	5	[0, 0, 0]	n/a	FR1	0	R1131M
655.639	2.584	402960	WORD	n/a	wordpools/wordpool_EN.txt	FAN	6	5	[0, 0, 0]	n/a	FR1	0	R1131M
658.223	2.5	404252	WORD	n/a	wordpools/wordpool_EN.txt	COUCH	7	5	[0, 0, 0]	n/a	FR1	0	R1131M
660.723	2.551	405502	WORD	n/a	wordpools/wordpool_EN.txt	KITE	8	5	[0, 0, 0]	n/a	FR1	0	R1131M
663.274	2.517	406778	WORD	n/a	wordpools/wordpool_EN.txt	LIP	9	5	[0, 0, 0]	n/a	FR1	0	R1131M
665.791	2.384	408036	WORD	n/a	wordpools/wordpool_EN.txt	LAWN	10	5	[0, 0, 0]	n/a	FR1	0	R1131M
668.175	2.517	409228	WORD	n/a	wordpools/wordpool_EN.txt	FORK	11	5	[0, 0, 0]	n/a	FR1	0	R1131M
670.692	1.617	410486	WORD	n/a	wordpools/wordpool_EN.txt	AXE	12	5	[0, 0, 0]	n/a	FR1	0	R1131M
672.309	0.0	411295	DISTRACT_START	n/a	n/a	n/a	-999	5	[0, 0, 0]	n/a	FR1	0	R1131M
672.309	0.016	411295	START	n/a	n/a	n/a	-999	5	[-999, -999, -999]	n/a	FR1	0	R1131M
672.325	5.752	411303	PROB	5.752	n/a	n/a	-999	5	[4, 8, 5]	17	FR1	0	R1131M
678.077	3.317	414179	PROB	3.317	n/a	n/a	-999	5	[7, 2, 7]	16	FR1	0	R1131M
681.394	3.234	415837	PROB	3.234	n/a	n/a	-999	5	[2, 3, 6]	11	FR1	0	R1131M
684.628	2.784	417454	PROB	2.784	n/a	n/a	-999	5	[9, 3, 4]	16	FR1	0	R1131M
687.412	7.859	418846	PROB	7.859	n/a	n/a	-999	5	[5, 7, 7]	19	FR1	0	R1131M
695.271	0.009	422775	STOP	n/a	n/a	n/a	-999	5	[-999, -999, -999]	n/a	FR1	0	R1131M
695.28	1.117	422779	DISTRACT_END	n/a	n/a	n/a	-999	5	[0, 0, 0]	n/a	FR1	0	R1131M
696.397	0.0	423338	REC_START	n/a	n/a	n/a	-999	5	[0, 0, 0]	n/a	FR1	0	R1131M
696.397	30.014	423338	REC_WORD_VV	30.014	n/a	<>	-999	5	[0, 0, 0]	n/a	FR1	0	R1131M
726.411	50.151	438344	REC_END	n/a	n/a	n/a	-999	5	[0, 0, 0]	n/a	FR1	0	R1131M
776.562	0.0	463418	TRIAL	n/a	n/a	n/a	-999	6	[0, 0, 0]	n/a	FR1	0	R1131M
776.562	10.428	463418	COUNTDOWN_START	n/a	n/a	n/a	-999	6	[0, 0, 0]	n/a	FR1	0	R1131M
786.99	0.008	468631	COUNTDOWN_END	n/a	n/a	n/a	-999	6	[0, 0, 0]	n/a	FR1	0	R1131M
786.998	2.5	468635	ORIENT	n/a	n/a	n/a	-999	6	[0, 0, 0]	n/a	FR1	0	R1131M
789.498	2.517	469885	WORD	n/a	wordpools/wordpool_EN.txt	COW	1	6	[0, 0, 0]	n/a	FR1	0	R1131M
792.015	2.551	471144	WORD	n/a	wordpools/wordpool_EN.txt	PHONE	2	6	[0, 0, 0]	n/a	FR1	0	R1131M
794.566	2.567	472419	WORD	n/a	wordpools/wordpool_EN.txt	BOY	3	6	[0, 0, 0]	n/a	FR1	0	R1131M
797.133	2.467	473702	WORD	n/a	wordpools/wordpool_EN.txt	PIE	4	6	[0, 0, 0]	n/a	FR1	0	R1131M
799.6	2.55	474936	WORD	n/a	wordpools/wordpool_EN.txt	BREAD	5	6	[0, 0, 0]	n/a	FR1	0	R1131M
802.15	2.518	476211	WORD	n/a	wordpools/wordpool_EN.txt	PURSE	6	6	[0, 0, 0]	n/a	FR1	0	R1131M
804.668	2.434	477470	WORD	n/a	wordpools/wordpool_EN.txt	WORLD	7	6	[0, 0, 0]	n/a	FR1	0	R1131M
807.102	2.583	478687	WORD	n/a	wordpools/wordpool_EN.txt	CLOCK	8	6	[0, 0, 0]	n/a	FR1	0	R1131M
809.685	2.6	479978	WORD	n/a	wordpools/wordpool_EN.txt	DRESS	9	6	[0, 0, 0]	n/a	FR1	0	R1131M
812.285	2.401	481278	WORD	n/a	wordpools/wordpool_EN.txt	SCHOOL	10	6	[0, 0, 0]	n/a	FR1	0	R1131M
814.686	2.517	482478	WORD	n/a	wordpools/wordpool_EN.txt	CHIN	11	6	[0, 0, 0]	n/a	FR1	0	R1131M
817.203	1.617	483737	WORD	n/a	wordpools/wordpool_EN.txt	FLOOR	12	6	[0, 0, 0]	n/a	FR1	0	R1131M
818.82	0.001	484545	DISTRACT_START	n/a	n/a	n/a	-999	6	[0, 0, 0]	n/a	FR1	0	R1131M
818.821	0.016	484546	START	n/a	n/a	n/a	-999	6	[-999, -999, -999]	n/a	FR1	0	R1131M
818.837	6.385	484554	PROB	6.385	n/a	n/a	-999	6	[7, 5, 4]	16	FR1	0	R1131M
825.222	8.018	487746	PROB	8.018	n/a	n/a	-999	6	[9, 3, 5]	17	FR1	0	R1131M
833.24	4.034	491755	PROB	4.034	n/a	n/a	-999	6	[7, 8, 1]	16	FR1	0	R1131M
837.274	4.26	493771	PROB	4.26	n/a	n/a	-999	6	[6, 3, 3]	12	FR1	0	R1131M
841.534	0.007	495901	STOP	n/a	n/a	n/a	-999	6	[-999, -999, -999]	n/a	FR1	0	R1131M
841.541	1.135	495905	DISTRACT_END	n/a	n/a	n/a	-999	6	[0, 0, 0]	n/a	FR1	0	R1131M
842.676	1.465	496472	REC_START	n/a	n/a	n/a	-999	6	[0, 0, 0]	n/a	FR1	0	R1131M
844.141	0.637	497205	REC_WORD	0.637	n/a	COW	-999	6	[0, 0, 0]	n/a	FR1	0	R1131M
844.778	7.665	497523	REC_WORD	7.665	n/a	BOY	-999	6	[0, 0, 0]	n/a	FR1	0	R1131M
852.443	2.934	501355	REC_WORD	2.934	n/a	SCHOOL	-999	6	[0, 0, 0]	n/a	FR1	0	R1131M
855.377	17.31	502822	REC_WORD	17.31	n/a	MOON	-999	6	[0, 0, 0]	n/a	FR1	0	R1131M
872.687	13.43	511477	REC_END	n/a	n/a	n/a	-999	6	[0, 0, 0]	n/a	FR1	0	R1131M
886.117	0.0	518191	TRIAL	n/a	n/a	n/a	-999	7	[0, 0, 0]	n/a	FR1	0	R1131M
886.117	10.428	518191	COUNTDOWN_START	n/a	n/a	n/a	-999	7	[0, 0, 0]	n/a	FR1	0	R1131M
896.545	0.007	523405	COUNTDOWN_END	n/a	n/a	n/a	-999	7	[0, 0, 0]	n/a	FR1	0	R1131M
896.552	2.584	523408	ORIENT	n/a	n/a	n/a	-999	7	[0, 0, 0]	n/a	FR1	0	R1131M
899.136	2.6	524700	WORD	n/a	wordpools/wordpool_EN.txt	CAPE	1	7	[0, 0, 0]	n/a	FR1	0	R1131M
901.736	2.618	526000	WORD	n/a	wordpools/wordpool_EN.txt	ROPE	2	7	[0, 0, 0]	n/a	FR1	0	R1131M
904.354	2.5	527309	WORD	n/a	wordpools/wordpool_EN.txt	DOCK	3	7	[0, 0, 0]	n/a	FR1	0	R1131M
906.854	2.401	528559	WORD	n/a	wordpools/wordpool_EN.txt	FORT	4	7	[0, 0, 0]	n/a	FR1	0	R1131M
909.255	2.483	529759	WORD	n/a	wordpools/wordpool_EN.txt	STEAM	5	7	[0, 0, 0]	n/a	FR1	0	R1131M
911.738	2.45	531001	WORD	n/a	wordpools/wordpool_EN.txt	SAIL	6	7	[0, 0, 0]	n/a	FR1	0	R1131M
914.188	2.568	532226	WORD	n/a	wordpools/wordpool_EN.txt	SLIME	7	7	[0, 0, 0]	n/a	FR1	0	R1131M
916.756	2.534	533510	WORD	n/a	wordpools/wordpool_EN.txt	HOOK	8	7	[0, 0, 0]	n/a	FR1	0	R1131M
919.29	2.5	534777	WORD	n/a	wordpools/wordpool_EN.txt	PRINCE	9	7	[0, 0, 0]	n/a	FR1	0	R1131M
921.79	2.517	536027	WORD	n/a	wordpools/wordpool_EN.txt	FLAG	10	7	[0, 0, 0]	n/a	FR1	0	R1131M
924.307	2.501	537285	WORD	n/a	wordpools/wordpool_EN.txt	SEA	11	7	[0, 0, 0]	n/a	FR1	0	R1131M
926.808	1.617	538535	WORD	n/a	wordpools/wordpool_EN.txt	HORN	12	7	[0, 0, 0]	n/a	FR1	0	R1131M
928.425	0.0	539344	DISTRACT_START	n/a	n/a	n/a	-999	7	[0, 0, 0]	n/a	FR1	0	R1131M
928.425	0.016	539344	START	n/a	n/a	n/a	-999	7	[-999, -999, -999]	n/a	FR1	0	R1131M
928.441	4.685	539352	PROB	4.685	n/a	n/a	-999	7	[2, 1, 1]	4	FR1	0	R1131M
933.126	4.05	541694	PROB	4.05	n/a	n/a	-999	7	[5, 1, 9]	15	FR1	0	R1131M
937.176	2.918	543719	PROB	2.918	n/a	n/a	-999	7	[5, 3, 1]	9	FR1	0	R1131M
940.094	3.917	545178	PROB	3.917	n/a	n/a	-999	7	[8, 3, 8]	19	FR1	0	R1131M
944.011	3.318	547136	PROB	3.318	n/a	n/a	-999	7	[2, 4, 4]	10	FR1	0	R1131M
947.329	3.99	548795	PROB	3.99	n/a	n/a	-999	7	[1, 9, 3]	13	FR1	0	R1131M
951.319	0.01	550790	STOP	n/a	n/a	n/a	-999	7	[-999, -999, -999]	n/a	FR1	0	R1131M
951.329	1.151	550795	DISTRACT_END	n/a	n/a	n/a	-999	7	[0, 0, 0]	n/a	FR1	0	R1131M
952.48	0.882	551370	REC_START	n/a	n/a	n/a	-999	7	[0, 0, 0]	n/a	FR1	0	R1131M
953.362	1.332	551811	REC_WORD	1.332	n/a	STEAM	-999	7	[0, 0, 0]	n/a	FR1	0	R1131M
954.694	27.795	552477	REC_WORD	27.795	n/a	SAIL	-999	7	[0, 0, 0]	n/a	FR1	0	R1131M
982.489	319.308	566374	REC_END	n/a	n/a	n/a	-999	7	[0, 0, 0]	n/a	FR1	0	R1131M
1301.797	0.0	726017	TRIAL	n/a	n/a	n/a	-999	8	[0, 0, 0]	n/a	FR1	0	R1131M
1301.797	10.428	726017	COUNTDOWN_START	n/a	n/a	n/a	-999	8	[0, 0, 0]	n/a	FR1	0	R1131M
1312.225	0.007	731230	COUNTDOWN_END	n/a	n/a	n/a	-999	8	[0, 0, 0]	n/a	FR1	0	R1131M
1312.232	2.434	731234	ORIENT	n/a	n/a	n/a	-999	8	[0, 0, 0]	n/a	FR1	0	R1131M
1314.666	2.617	732451	WORD	n/a	wordpools/wordpool_EN.txt	STEAK	1	8	[0, 0, 0]	n/a	FR1	0	R1131M
1317.283	2.467	733759	WORD	n/a	wordpools/wordpool_EN.txt	EGG	2	8	[0, 0, 0]	n/a	FR1	0	R1131M
1319.75	2.534	734993	WORD	n/a	wordpools/wordpool_EN.txt	BLOOM	3	8	[0, 0, 0]	n/a	FR1	0	R1131M
1322.284	2.617	736260	WORD	n/a	wordpools/wordpool_EN.txt	PEAR	4	8	[0, 0, 0]	n/a	FR1	0	R1131M
1324.901	2.517	737568	WORD	n/a	wordpools/wordpool_EN.txt	FOOD	5	8	[0, 0, 0]	n/a	FR1	0	R1131M
1327.418	2.434	738826	WORD	n/a	wordpools/wordpool_EN.txt	SLEEVE	6	8	[0, 0, 0]	n/a	FR1	0	R1131M
1329.852	2.467	740043	WORD	n/a	wordpools/wordpool_EN.txt	ELF	7	8	[0, 0, 0]	n/a	FR1	0	R1131M
1332.319	2.401	741277	WORD	n/a	wordpools/wordpool_EN.txt	GEESE	8	8	[0, 0, 0]	n/a	FR1	0	R1131M
1334.72	2.55	742477	WORD	n/a	wordpools/wordpool_EN.txt	BAG	9	8	[0, 0, 0]	n/a	FR1	0	R1131M
1337.27	2.617	743752	WORD	n/a	wordpools/wordpool_EN.txt	SPRING	10	8	[0, 0, 0]	n/a	FR1	0	R1131M
1339.887	2.518	745060	WORD	n/a	wordpools/wordpool_EN.txt	MILK	11	8	[0, 0, 0]	n/a	FR1	0	R1131M
1342.405	1.617	746319	WORD	n/a	wordpools/wordpool_EN.txt	FARM	12	8	[0, 0, 0]	n/a	FR1	0	R1131M
1344.022	0.0	747128	DISTRACT_START	n/a	n/a	n/a	-999	8	[0, 0, 0]	n/a	FR1	0	R1131M
1344.022	0.016	747128	START	n/a	n/a	n/a	-999	8	[-999, -999, -999]	n/a	FR1	0	R1131M
1344.038	6.201	747136	PROB	6.201	n/a	n/a	-999	8	[6, 3, 7]	16	FR1	0	R1131M
1350.239	5.585	750236	PROB	5.585	n/a	n/a	-999	8	[5, 6, 7]	18	FR1	0	R1131M
1355.824	6.034	753028	PROB	6.034	n/a	n/a	-999	8	[8, 5, 7]	20	FR1	0	R1131M
1361.858	3.844	756045	PROB	3.844	n/a	n/a	-999	8	[2, 6, 4]	12	FR1	0	R1131M
1365.702	0.007	757967	STOP	n/a	n/a	n/a	-999	8	[-999, -999, -999]	n/a	FR1	0	R1131M
1365.709	1.151	757970	DISTRACT_END	n/a	n/a	n/a	-999	8	[0, 0, 0]	n/a	FR1	0	R1131M
1366.86	1.863	758546	REC_START	n/a	n/a	n/a	-999	8	[0, 0, 0]	n/a	FR1	0	R1131M
1368.723	1.288	759477	REC_WORD	1.288	n/a	MILK	-999	8	[0, 0, 0]	n/a	FR1	0	R1131M
1370.011	3.125	760121	REC_WORD	3.125	n/a	BAG	-999	8	[0, 0, 0]	n/a	FR1	0	R1131M
1373.136	2.647	761684	REC_WORD	2.647	n/a	SPRING	-999	8	[0, 0, 0]	n/a	FR1	0	R1131M
1375.783	0.529	763007	REC_WORD	0.529	n/a	STEAK	-999	8	[0, 0, 0]	n/a	FR1	0	R1131M
1376.312	6.864	763272	REC_WORD	6.864	n/a	EGG	-999	8	[0, 0, 0]	n/a	FR1	0	R1131M
1383.176	5.485	766703	REC_WORD	5.485	n/a	BLOOM	-999	8	[0, 0, 0]	n/a	FR1	0	R1131M
1388.661	4.809	769446	REC_WORD	4.809	n/a	PEAR	-999	8	[0, 0, 0]	n/a	FR1	0	R1131M
1393.47	3.4	771850	REC_WORD	3.4	n/a	FOOD	-999	8	[0, 0, 0]	n/a	FR1	0	R1131M
1396.87	24.9	773550	REC_END	n/a	n/a	n/a	-999	8	[0, 0, 0]	n/a	FR1	0	R1131M
1421.77	0.0	785999	TRIAL	n/a	n/a	n/a	-999	9	[0, 0, 0]	n/a	FR1	0	R1131M
1421.77	10.428	785999	COUNTDOWN_START	n/a	n/a	n/a	-999	9	[0, 0, 0]	n/a	FR1	0	R1131M
1432.198	0.007	791213	COUNTDOWN_END	n/a	n/a	n/a	-999	9	[0, 0, 0]	n/a	FR1	0	R1131M
1432.205	2.584	791216	ORIENT	n/a	n/a	n/a	-999	9	[0, 0, 0]	n/a	FR1	0	R1131M
1434.789	2.434	792508	WORD	n/a	wordpools/wordpool_EN.txt	SUN	1	9	[0, 0, 0]	n/a	FR1	0	R1131M
1437.223	2.467	793725	WORD	n/a	wordpools/wordpool_EN.txt	FILM	2	9	[0, 0, 0]	n/a	FR1	0	R1131M
1439.69	2.567	794958	WORD	n/a	wordpools/wordpool_EN.txt	STAR	3	9	[0, 0, 0]	n/a	FR1	0	R1131M
1442.257	2.451	796242	WORD	n/a	wordpools/wordpool_EN.txt	GLOVE	4	9	[0, 0, 0]	n/a	FR1	0	R1131M
1444.708	2.517	797467	WORD	n/a	wordpools/wordpool_EN.txt	PLATE	5	9	[0, 0, 0]	n/a	FR1	0	R1131M
1447.225	2.384	798726	WORD	n/a	wordpools/wordpool_EN.txt	PEACH	6	9	[0, 0, 0]	n/a	FR1	0	R1131M
1449.609	2.384	799918	WORD	n/a	wordpools/wordpool_EN.txt	CLOUD	7	9	[0, 0, 0]	n/a	FR1	0	R1131M
1451.993	2.583	801109	WORD	n/a	wordpools/wordpool_EN.txt	ARK	8	9	[0, 0, 0]	n/a	FR1	0	R1131M
1454.576	2.534	802401	WORD	n/a	wordpools/wordpool_EN.txt	CLAY	9	9	[0, 0, 0]	n/a	FR1	0	R1131M
1457.11	2.484	803668	WORD	n/a	wordpools/wordpool_EN.txt	EAR	10	9	[0, 0, 0]	n/a	FR1	0	R1131M
1459.594	2.517	804910	WORD	n/a	wordpools/wordpool_EN.txt	WAVE	11	9	[0, 0, 0]	n/a	FR1	0	R1131M
1462.111	1.617	806168	WORD	n/a	wordpools/wordpool_EN.txt	MOON	12	9	[0, 0, 0]	n/a	FR1	0	R1131M
1463.728	0.001	806977	DISTRACT_START	n/a	n/a	n/a	-999	9	[0, 0, 0]	n/a	FR1	0	R1131M
1463.729	0.016	806977	START	n/a	n/a	n/a	-999	9	[-999, -999, -999]	n/a	FR1	0	R1131M
1463.745	10.285	806985	PROB	10.285	n/a	n/a	-999	9	[2, 4, 9]	15	FR1	0	R1131M
1474.03	3.617	812127	PROB	3.617	n/a	n/a	-999	9	[6, 6, 2]	14	FR1	0	R1131M
1477.647	2.168	813936	PROB	2.168	n/a	n/a	-999	9	[3, 1, 7]	11	FR1	0	R1131M
1479.815	3.5	815019	PROB	3.5	n/a	n/a	-999	9	[8, 2, 4]	14	FR1	0	R1131M
1483.315	2.755	816769	PROB	2.755	n/a	n/a	-999	9	[1, 7, 7]	15	FR1	0	R1131M
1486.07	0.012	818147	STOP	n/a	n/a	n/a	-999	9	[-999, -999, -999]	n/a	FR1	0	R1131M
1486.082	1.101	818153	DISTRACT_END	n/a	n/a	n/a	-999	9	[0, 0, 0]	n/a	FR1	0	R1131M
1487.183	1.104	818703	REC_START	n/a	n/a	n/a	-999	9	[0, 0, 0]	n/a	FR1	0	R1131M
1488.287	2.495	819255	REC_WORD	2.495	n/a	SUN	-999	9	[0, 0, 0]	n/a	FR1	0	R1131M
1490.782	1.809	820503	REC_WORD	1.809	n/a	ARK	-999	9	[0, 0, 0]	n/a	FR1	0	R1131M
1492.591	24.605	821407	REC_WORD	24.605	n/a	CLOUD	-999	9	[0, 0, 0]	n/a	FR1	0	R1131M
1517.196	10.995	833709	REC_END	n/a	n/a	n/a	-999	9	[0, 0, 0]	n/a	FR1	0	R1131M
1528.191	0.0	839206	TRIAL	n/a	n/a	n/a	-999	10	[0, 0, 0]	n/a	FR1	0	R1131M
1528.191	10.428	839206	COUNTDOWN_START	n/a	n/a	n/a	-999	10	[0, 0, 0]	n/a	FR1	0	R1131M
1538.619	0.007	844419	COUNTDOWN_END	n/a	n/a	n/a	-999	10	[0, 0, 0]	n/a	FR1	0	R1131M
1538.626	2.417	844423	ORIENT	n/a	n/a	n/a	-999	10	[0, 0, 0]	n/a	FR1	0	R1131M
1541.043	2.467	845631	WORD	n/a	wordpools/wordpool_EN.txt	JAR	1	10	[0, 0, 0]	n/a	FR1	0	R1131M
1543.51	2.452	846865	WORD	n/a	wordpools/wordpool_EN.txt	STORM	2	10	[0, 0, 0]	n/a	FR1	0	R1131M
1545.962	2.432	848091	WORD	n/a	wordpools/wordpool_EN.txt	OAR	3	10	[0, 0, 0]	n/a	FR1	0	R1131M
1548.394	2.451	849307	WORD	n/a	wordpools/wordpool_EN.txt	STAIR	4	10	[0, 0, 0]	n/a	FR1	0	R1131M
1550.845	2.467	850532	WORD	n/a	wordpools/wordpool_EN.txt	WORM	5	10	[0, 0, 0]	n/a	FR1	0	R1131M
1553.312	2.501	851765	WORD	n/a	wordpools/wordpool_EN.txt	MOTH	6	10	[0, 0, 0]	n/a	FR1	0	R1131M
1555.813	2.55	853016	WORD	n/a	wordpools/wordpool_EN.txt	SOAP	7	10	[0, 0, 0]	n/a	FR1	0	R1131M
1558.363	2.434	854291	WORD	n/a	wordpools/wordpool_EN.txt	CLOTH	8	10	[0, 0, 0]	n/a	FR1	0	R1131M
1560.797	2.517	855508	WORD	n/a	wordpools/wordpool_EN.txt	WEB	9	10	[0, 0, 0]	n/a	FR1	0	R1131M
1563.314	2.484	856766	WORD	n/a	wordpools/wordpool_EN.txt	DIME	10	10	[0, 0, 0]	n/a	FR1	0	R1131M
1565.798	2.484	858008	WORD	n/a	wordpools/wordpool_EN.txt	CRANE	11	10	[0, 0, 0]	n/a	FR1	0	R1131M
1568.282	1.617	859250	WORD	n/a	wordpools/wordpool_EN.txt	STRAW	12	10	[0, 0, 0]	n/a	FR1	0	R1131M
1569.899	0.0	860058	DISTRACT_START	n/a	n/a	n/a	-999	10	[0, 0, 0]	n/a	FR1	0	R1131M
1569.899	0.016	860058	START	n/a	n/a	n/a	-999	10	[-999, -999, -999]	n/a	FR1	0	R1131M
1569.915	5.785	860066	PROB	5.785	n/a	n/a	-999	10	[5, 7, 5]	17	FR1	0	R1131M
1575.7	3.45	862959	PROB	3.45	n/a	n/a	-999	10	[1, 5, 7]	13	FR1	0	R1131M
1579.15	3.368	864684	PROB	3.368	n/a	n/a	-999	10	[3, 7, 8]	18	FR1	0	R1131M
1582.518	3.484	866367	PROB	3.484	n/a	n/a	-999	10	[2, 1, 3]	6	FR1	0	R1131M
1586.002	3.916	868109	PROB	3.916	n/a	n/a	-999	10	[5, 6, 4]	15	FR1	0	R1131M
1589.918	0.018	870067	STOP	n/a	n/a	n/a	-999	10	[-999, -999, -999]	n/a	FR1	0	R1131M
1589.936	1.117	870076	DISTRACT_END	n/a	n/a	n/a	-999	10	[0, 0, 0]	n/a	FR1	0	R1131M
1591.053	1.357	870635	REC_START	n/a	n/a	n/a	-999	10	[0, 0, 0]	n/a	FR1	0	R1131M
1592.41	0.73	871313	REC_WORD	0.73	n/a	WEB	-999	10	[0, 0, 0]	n/a	FR1	0	R1131M
1593.14	27.927	871678	REC_WORD	27.927	n/a	DIME	-999	10	[0, 0, 0]	n/a	FR1	0	R1131M
1621.067	69.906	885641	REC_END	n/a	n/a	n/a	-999	10	[0, 0, 0]	n/a	FR1	0	R1131M
1690.973	0.001	920591	COUNTDOWN_START	n/a	n/a	n/a	-999	11	[0, 0, 0]	n/a	FR1	0	R1131M
1690.974	10.427	920592	TRIAL	n/a	n/a	n/a	-999	11	[0, 0, 0]	n/a	FR1	0	R1131M
1701.401	0.006	925805	COUNTDOWN_END	n/a	n/a	n/a	-999	11	[0, 0, 0]	n/a	FR1	0	R1131M
1701.407	2.417	925808	ORIENT	n/a	n/a	n/a	-999	11	[0, 0, 0]	n/a	FR1	0	R1131M
1703.824	2.384	927016	WORD	n/a	wordpools/wordpool_EN.txt	LOCK	1	11	[0, 0, 0]	n/a	FR1	0	R1131M
1706.208	2.434	928208	WORD	n/a	wordpools/wordpool_EN.txt	VEST	2	11	[0, 0, 0]	n/a	FR1	0	R1131M
1708.642	2.617	929425	WORD	n/a	wordpools/wordpool_EN.txt	HOUSE	3	11	[0, 0, 0]	n/a	FR1	0	R1131M
1711.259	2.501	930733	WORD	n/a	wordpools/wordpool_EN.txt	ROOM	4	11	[0, 0, 0]	n/a	FR1	0	R1131M
1713.76	2.5	931984	WORD	n/a	wordpools/wordpool_EN.txt	LAMB	5	11	[0, 0, 0]	n/a	FR1	0	R1131M
1716.26	2.501	933234	WORD	n/a	wordpools/wordpool_EN.txt	ROSE	6	11	[0, 0, 0]	n/a	FR1	0	R1131M
1718.761	2.467	934484	WORD	n/a	wordpools/wordpool_EN.txt	SKY	7	11	[0, 0, 0]	n/a	FR1	0	R1131M
1721.228	2.5	935718	WORD	n/a	wordpools/wordpool_EN.txt	MUG	8	11	[0, 0, 0]	n/a	FR1	0	R1131M
1723.728	2.518	936967	WORD	n/a	wordpools/wordpool_EN.txt	WALL	9	11	[0, 0, 0]	n/a	FR1	0	R1131M
1726.246	2.433	938226	WORD	n/a	wordpools/wordpool_EN.txt	TEA	10	11	[0, 0, 0]	n/a	FR1	0	R1131M
1728.679	2.601	939443	WORD	n/a	wordpools/wordpool_EN.txt	HOOF	11	11	[0, 0, 0]	n/a	FR1	0	R1131M
1731.28	1.617	940743	WORD	n/a	wordpools/wordpool_EN.txt	BOWL	12	11	[0, 0, 0]	n/a	FR1	0	R1131M
1732.897	0.001	941552	DISTRACT_START	n/a	n/a	n/a	-999	11	[0, 0, 0]	n/a	FR1	0	R1131M
1732.898	0.015	941552	START	n/a	n/a	n/a	-999	11	[-999, -999, -999]	n/a	FR1	0	R1131M
1732.913	5.618	941560	PROB	5.618	n/a	n/a	-999	11	[4, 5, 7]	16	FR1	0	R1131M
1738.531	5.618	944368	PROB	5.618	n/a	n/a	-999	11	[7, 7, 6]	20	FR1	0	R1131M
1744.149	5.284	947177	PROB	5.284	n/a	n/a	-999	11	[8, 9, 1]	18	FR1	0	R1131M
1749.433	4.237	949819	PROB	4.237	n/a	n/a	-999	11	[9, 8, 2]	19	FR1	0	R1131M
1753.67	0.014	951937	STOP	n/a	n/a	n/a	-999	11	[-999, -999, -999]	n/a	FR1	0	R1131M
1753.684	1.134	951944	DISTRACT_END	n/a	n/a	n/a	-999	11	[0, 0, 0]	n/a	FR1	0	R1131M
1754.818	1.584	952511	REC_START	n/a	n/a	n/a	-999	11	[0, 0, 0]	n/a	FR1	0	R1131M
1756.402	2.003	953303	REC_WORD	2.003	n/a	HOUSE	-999	11	[0, 0, 0]	n/a	FR1	0	R1131M
1758.405	1.393	954305	REC_WORD	1.393	n/a	ROOM	-999	11	[0, 0, 0]	n/a	FR1	0	R1131M
1759.798	1.849	955001	REC_WORD	1.849	n/a	LOCK	-999	11	[0, 0, 0]	n/a	FR1	0	R1131M
1761.647	2.786	955926	REC_WORD	2.786	n/a	LAMB	-999	11	[0, 0, 0]	n/a	FR1	0	R1131M
1764.433	17.223	957319	REC_WORD	17.223	n/a	WALL	-999	11	[0, 0, 0]	n/a	FR1	0	R1131M
1781.656	3.176	965929	REC_WORD	3.176	n/a	HOOF	-999	11	[0, 0, 0]	n/a	FR1	0	R1131M
1784.832	22.179	967517	REC_END	n/a	n/a	n/a	-999	11	[0, 0, 0]	n/a	FR1	0	R1131M
1807.011	0.0	978606	TRIAL	n/a	n/a	n/a	-999	12	[0, 0, 0]	n/a	FR1	0	R1131M
1807.011	10.428	978606	COUNTDOWN_START	n/a	n/a	n/a	-999	12	[0, 0, 0]	n/a	FR1	0	R1131M
1817.439	0.007	983820	COUNTDOWN_END	n/a	n/a	n/a	-999	12	[0, 0, 0]	n/a	FR1	0	R1131M
1817.446	2.468	983823	ORIENT	n/a	n/a	n/a	-999	12	[0, 0, 0]	n/a	FR1	0	R1131M
1819.914	2.55	985057	WORD	n/a	wordpools/wordpool_EN.txt	MAZE	1	12	[0, 0, 0]	n/a	FR1	0	R1131M
1822.464	2.601	986332	WORD	n/a	wordpools/wordpool_EN.txt	FACE	2	12	[0, 0, 0]	n/a	FR1	0	R1131M
1825.065	2.433	987632	WORD	n/a	wordpools/wordpool_EN.txt	VASE	3	12	[0, 0, 0]	n/a	FR1	0	R1131M
1827.498	2.401	988849	WORD	n/a	wordpools/wordpool_EN.txt	DITCH	4	12	[0, 0, 0]	n/a	FR1	0	R1131M
1829.899	2.417	990049	WORD	n/a	wordpools/wordpool_EN.txt	BAND	5	12	[0, 0, 0]	n/a	FR1	0	R1131M
1832.316	2.384	991258	WORD	n/a	wordpools/wordpool_EN.txt	BALL	6	12	[0, 0, 0]	n/a	FR1	0	R1131M
1834.7	2.4	992450	WORD	n/a	wordpools/wordpool_EN.txt	SQUARE	7	12	[0, 0, 0]	n/a	FR1	0	R1131M
1837.1	2.484	993649	WORD	n/a	wordpools/wordpool_EN.txt	CHAIR	8	12	[0, 0, 0]	n/a	FR1	0	R1131M
1839.584	2.484	994891	WORD	n/a	wordpools/wordpool_EN.txt	STRING	9	12	[0, 0, 0]	n/a	FR1	0	R1131M
1842.068	2.434	996133	WORD	n/a	wordpools/wordpool_EN.txt	BOARD	10	12	[0, 0, 0]	n/a	FR1	0	R1131M
1844.502	2.483	997350	WORD	n/a	wordpools/wordpool_EN.txt	SLUSH	11	12	[0, 0, 0]	n/a	FR1	0	R1131M
1846.985	1.617	998592	WORD	n/a	wordpools/wordpool_EN.txt	BAT	12	12	[0, 0, 0]	n/a	FR1	0	R1131M
1848.602	0.001	999400	DISTRACT_START	n/a	n/a	n/a	-999	12	[0, 0, 0]	n/a	FR1	0	R1131M
1848.603	0.016	999401	START	n/a	n/a	n/a	-999	12	[-999, -999, -999]	n/a	FR1	0	R1131M
1848.619	4.634	999409	PROB	4.634	n/a	n/a	-999	12	[1, 4, 4]	9	FR1	0	R1131M
1853.253	30.025	1001725	PROB	30.025	n/a	n/a	-999	12	[9, 8, 6]	25	FR1	0	R1131M
1883.278	0.015	1016737	STOP	n/a	n/a	n/a	-999	12	[-999, -999, -999]	n/a	FR1	0	R1131M
1883.293	1.2	1016744	DISTRACT_END	n/a	n/a	n/a	-999	12	[0, 0, 0]	n/a	FR1	0	R1131M
1884.493	0.0	1017344	REC_START	n/a	n/a	n/a	-999	12	[0, 0, 0]	n/a	FR1	0	R1131M
1884.493	30.017	1017344	REC_WORD_VV	30.017	n/a	<>	-999	12	[0, 0, 0]	n/a	FR1	0	R1131M
1914.51	213.946	1032352	REC_END	n/a	n/a	n/a	-999	12	[0, 0, 0]	n/a	FR1	0	R1131M
2128.456	0.001	1139317	COUNTDOWN_START	n/a	n/a	n/a	-999	13	[0, 0, 0]	n/a	FR1	0	R1131M
2128.457	10.427	1139318	TRIAL	n/a	n/a	n/a	-999	13	[0, 0, 0]	n/a	FR1	0	R1131M
2138.884	0.008	1144531	COUNTDOWN_END	n/a	n/a	n/a	-999	13	[0, 0, 0]	n/a	FR1	0	R1131M
2138.892	2.417	1144535	ORIENT	n/a	n/a	n/a	-999	13	[0, 0, 0]	n/a	FR1	0	R1131M
2141.309	2.483	1145743	WORD	n/a	wordpools/wordpool_EN.txt	LEAF	1	13	[0, 0, 0]	n/a	FR1	0	R1131M
2143.792	2.451	1146985	WORD	n/a	wordpools/wordpool_EN.txt	POOL	2	13	[0, 0, 0]	n/a	FR1	0	R1131M
2146.243	2.551	1148210	WORD	n/a	wordpools/wordpool_EN.txt	CART	3	13	[0, 0, 0]	n/a	FR1	0	R1131M
2148.794	2.433	1149486	WORD	n/a	wordpools/wordpool_EN.txt	BARN	4	13	[0, 0, 0]	n/a	FR1	0	R1131M
2151.227	2.451	1150702	WORD	n/a	wordpools/wordpool_EN.txt	STOVE	5	13	[0, 0, 0]	n/a	FR1	0	R1131M
2153.678	2.534	1151927	WORD	n/a	wordpools/wordpool_EN.txt	FENCE	6	13	[0, 0, 0]	n/a	FR1	0	R1131M
2156.212	2.417	1153194	WORD	n/a	wordpools/wordpool_EN.txt	HORSE	7	13	[0, 0, 0]	n/a	FR1	0	R1131M
2158.629	2.417	1154403	WORD	n/a	wordpools/wordpool_EN.txt	POND	8	13	[0, 0, 0]	n/a	FR1	0	R1131M
2161.046	2.417	1155611	WORD	n/a	wordpools/wordpool_EN.txt	HAWK	9	13	[0, 0, 0]	n/a	FR1	0	R1131M
2163.463	2.401	1156820	WORD	n/a	wordpools/wordpool_EN.txt	INK	10	13	[0, 0, 0]	n/a	FR1	0	R1131M
2165.864	2.517	1158020	WORD	n/a	wordpools/wordpool_EN.txt	NEST	11	13	[0, 0, 0]	n/a	FR1	0	R1131M
2168.381	1.617	1159278	WORD	n/a	wordpools/wordpool_EN.txt	FLUTE	12	13	[0, 0, 0]	n/a	FR1	0	R1131M
2169.998	0.001	1160087	DISTRACT_START	n/a	n/a	n/a	-999	13	[0, 0, 0]	n/a	FR1	0	R1131M
2169.999	0.015	1160087	START	n/a	n/a	n/a	-999	13	[-999, -999, -999]	n/a	FR1	0	R1131M
2170.014	7.852	1160095	PROB	7.852	n/a	n/a	-999	13	[8, 3, 4]	15	FR1	0	R1131M
2177.866	4.451	1164021	PROB	4.451	n/a	n/a	-999	13	[6, 6, 6]	18	FR1	0	R1131M
2182.317	5.668	1166246	PROB	5.668	n/a	n/a	-999	13	[4, 2, 4]	10	FR1	0	R1131M
2187.985	4.461	1169080	PROB	4.461	n/a	n/a	-999	13	[9, 2, 7]	18	FR1	0	R1131M
2192.446	0.006	1171310	STOP	n/a	n/a	n/a	-999	13	[-999, -999, -999]	n/a	FR1	0	R1131M
2192.452	1.034	1171313	DISTRACT_END	n/a	n/a	n/a	-999	13	[0, 0, 0]	n/a	FR1	0	R1131M
2193.486	1.798	1171830	REC_START	n/a	n/a	n/a	-999	13	[0, 0, 0]	n/a	FR1	0	R1131M
2195.284	1.186	1172729	REC_WORD	1.186	n/a	HAWK	-999	13	[0, 0, 0]	n/a	FR1	0	R1131M
2196.47	2.334	1173322	REC_WORD	2.334	n/a	NEST	-999	13	[0, 0, 0]	n/a	FR1	0	R1131M
2198.804	1.83	1174489	REC_WORD	1.83	n/a	HORSE	-999	13	[0, 0, 0]	n/a	FR1	0	R1131M
2200.634	2.192	1175404	REC_WORD	2.192	n/a	FENCE	-999	13	[0, 0, 0]	n/a	FR1	0	R1131M
2202.826	4.632	1176500	REC_WORD	4.632	n/a	BARN	-999	13	[0, 0, 0]	n/a	FR1	0	R1131M
2207.458	2.119	1178815	REC_WORD	2.119	n/a	POOL	-999	13	[0, 0, 0]	n/a	FR1	0	R1131M
2209.577	1.962	1179875	REC_WORD	1.962	n/a	LEAVES	-999	13	[0, 0, 0]	n/a	FR1	0	R1131M
2211.539	2.598	1180856	REC_WORD	2.598	n/a	CART	-999	13	[0, 0, 0]	n/a	FR1	0	R1131M
2214.137	9.366	1182155	REC_WORD	9.366	n/a	STOVE	-999	13	[0, 0, 0]	n/a	FR1	0	R1131M
2223.503	25.26	1186837	REC_END	n/a	n/a	n/a	-999	13	[0, 0, 0]	n/a	FR1	0	R1131M
2248.763	0.0	1199467	TRIAL	n/a	n/a	n/a	-999	14	[0, 0, 0]	n/a	FR1	0	R1131M
2248.763	10.428	1199467	COUNTDOWN_START	n/a	n/a	n/a	-999	14	[0, 0, 0]	n/a	FR1	0	R1131M
2259.191	0.007	1204680	COUNTDOWN_END	n/a	n/a	n/a	-999	14	[0, 0, 0]	n/a	FR1	0	R1131M
2259.198	2.501	1204684	ORIENT	n/a	n/a	n/a	-999	14	[0, 0, 0]	n/a	FR1	0	R1131M
2261.699	2.467	1205934	WORD	n/a	wordpools/wordpool_EN.txt	STICK	1	14	[0, 0, 0]	n/a	FR1	0	R1131M
2264.166	2.567	1207168	WORD	n/a	wordpools/wordpool_EN.txt	PEARL	2	14	[0, 0, 0]	n/a	FR1	0	R1131M
2266.733	2.55	1208451	WORD	n/a	wordpools/wordpool_EN.txt	NAIL	3	14	[0, 0, 0]	n/a	FR1	0	R1131M
2269.283	2.401	1209726	WORD	n/a	wordpools/wordpool_EN.txt	BEAK	4	14	[0, 0, 0]	n/a	FR1	0	R1131M
2271.684	2.584	1210926	WORD	n/a	wordpools/wordpool_EN.txt	SEAL	5	14	[0, 0, 0]	n/a	FR1	0	R1131M
2274.268	2.417	1212218	WORD	n/a	wordpools/wordpool_EN.txt	PIN	6	14	[0, 0, 0]	n/a	FR1	0	R1131M
2276.685	2.6	1213427	WORD	n/a	wordpools/wordpool_EN.txt	WOLF	7	14	[0, 0, 0]	n/a	FR1	0	R1131M
2279.285	2.484	1214726	WORD	n/a	wordpools/wordpool_EN.txt	HAND	8	14	[0, 0, 0]	n/a	FR1	0	R1131M
2281.769	2.467	1215968	WORD	n/a	wordpools/wordpool_EN.txt	BOX	9	14	[0, 0, 0]	n/a	FR1	0	R1131M
2284.236	2.618	1217202	WORD	n/a	wordpools/wordpool_EN.txt	CAVE	10	14	[0, 0, 0]	n/a	FR1	0	R1131M
2286.854	2.45	1218511	WORD	n/a	wordpools/wordpool_EN.txt	ZOO	11	14	[0, 0, 0]	n/a	FR1	0	R1131M
2289.304	1.617	1219736	WORD	n/a	wordpools/wordpool_EN.txt	CALF	12	14	[0, 0, 0]	n/a	FR1	0	R1131M
2290.921	0.001	1220544	DISTRACT_START	n/a	n/a	n/a	-999	14	[0, 0, 0]	n/a	FR1	0	R1131M
2290.922	0.016	1220545	START	n/a	n/a	n/a	-999	14	[-999, -999, -999]	n/a	FR1	0	R1131M
2290.938	9.102	1220553	PROB	9.102	n/a	n/a	-999	14	[1, 2, 7]	10	FR1	0	R1131M
2300.04	16.07	1225103	PROB	16.07	n/a	n/a	-999	14	[6, 9, 9]	24	FR1	0	R1131M
2316.11	0.016	1233138	STOP	n/a	n/a	n/a	-999	14	[-999, -999, -999]	n/a	FR1	0	R1131M
2316.126	1.035	1233146	DISTRACT_END	n/a	n/a	n/a	-999	14	[0, 0, 0]	n/a	FR1	0	R1131M
2317.161	2.049	1233663	REC_START	n/a	n/a	n/a	-999	14	[0, 0, 0]	n/a	FR1	0	R1131M
2319.21	2.358	1234688	REC_WORD	2.358	n/a	CALF	-999	14	[0, 0, 0]	n/a	FR1	0	R1131M
2321.568	25.604	1235866	REC_WORD	25.604	n/a	WOLF	-999	14	[0, 0, 0]	n/a	FR1	0	R1131M
2347.172	20.714	1248668	REC_END	n/a	n/a	n/a	-999	14	[0, 0, 0]	n/a	FR1	0	R1131M
2367.886	0.0	1259024	COUNTDOWN_START	n/a	n/a	n/a	-999	15	[0, 0, 0]	n/a	FR1	0	R1131M
2367.886	10.428	1259024	TRIAL	n/a	n/a	n/a	-999	15	[0, 0, 0]	n/a	FR1	0	R1131M
2378.314	0.007	1264238	COUNTDOWN_END	n/a	n/a	n/a	-999	15	[0, 0, 0]	n/a	FR1	0	R1131M
2378.321	2.451	1264241	ORIENT	n/a	n/a	n/a	-999	15	[0, 0, 0]	n/a	FR1	0	R1131M
2380.772	2.5	1265466	WORD	n/a	wordpools/wordpool_EN.txt	RUG	1	15	[0, 0, 0]	n/a	FR1	0	R1131M
2383.272	2.417	1266716	WORD	n/a	wordpools/wordpool_EN.txt	YARD	2	15	[0, 0, 0]	n/a	FR1	0	R1131M
2385.689	2.451	1267925	WORD	n/a	wordpools/wordpool_EN.txt	HOLE	3	15	[0, 0, 0]	n/a	FR1	0	R1131M
2388.14	2.45	1269150	WORD	n/a	wordpools/wordpool_EN.txt	WHALE	4	15	[0, 0, 0]	n/a	FR1	0	R1131M
2390.59	2.501	1270375	WORD	n/a	wordpools/wordpool_EN.txt	HILL	5	15	[0, 0, 0]	n/a	FR1	0	R1131M
2393.091	2.384	1271625	WORD	n/a	wordpools/wordpool_EN.txt	ROOF	6	15	[0, 0, 0]	n/a	FR1	0	R1131M
2395.475	2.567	1272817	WORD	n/a	wordpools/wordpool_EN.txt	ANT	7	15	[0, 0, 0]	n/a	FR1	0	R1131M
2398.042	2.45	1274101	WORD	n/a	wordpools/wordpool_EN.txt	CAGE	8	15	[0, 0, 0]	n/a	FR1	0	R1131M
2400.492	2.601	1275326	WORD	n/a	wordpools/wordpool_EN.txt	TOAD	9	15	[0, 0, 0]	n/a	FR1	0	R1131M
2403.093	2.6	1276626	WORD	n/a	wordpools/wordpool_EN.txt	MOUTH	10	15	[0, 0, 0]	n/a	FR1	0	R1131M
2405.693	2.584	1277926	WORD	n/a	wordpools/wordpool_EN.txt	MOLE	11	15	[0, 0, 0]	n/a	FR1	0	R1131M
2408.277	1.617	1279218	WORD	n/a	wordpools/wordpool_EN.txt	SHELL	12	15	[0, 0, 0]	n/a	FR1	0	R1131M
2409.894	0.001	1280026	DISTRACT_START	n/a	n/a	n/a	-999	15	[0, 0, 0]	n/a	FR1	0	R1131M
2409.895	0.016	1280027	START	n/a	n/a	n/a	-999	15	[-999, -999, -999]	n/a	FR1	0	R1131M
2409.911	3.967	1280035	PROB	3.967	n/a	n/a	-999	15	[1, 5, 5]	11	FR1	0	R1131M
2413.878	4.051	1282018	PROB	4.051	n/a	n/a	-999	15	[6, 4, 4]	14	FR1	0	R1131M
2417.929	4.234	1284044	PROB	4.234	n/a	n/a	-999	15	[6, 8, 1]	15	FR1	0	R1131M
2422.163	4.834	1286160	PROB	4.834	n/a	n/a	-999	15	[3, 2, 8]	13	FR1	0	R1131M
2426.997	5.37	1288577	PROB	5.37	n/a	n/a	-999	15	[7, 4, 5]	16	FR1	0	R1131M
2432.367	0.015	1291262	STOP	n/a	n/a	n/a	-999	15	[-999, -999, -999]	n/a	FR1	0	R1131M
2432.382	1.067	1291270	DISTRACT_END	n/a	n/a	n/a	-999	15	[0, 0, 0]	n/a	FR1	0	R1131M
2433.449	1.194	1291803	REC_START	n/a	n/a	n/a	-999	15	[0, 0, 0]	n/a	FR1	0	R1131M
2434.643	1.574	1292400	REC_WORD	1.574	n/a	HOLE	-999	15	[0, 0, 0]	n/a	FR1	0	R1131M
2436.217	2.018	1293187	REC_WORD	2.018	n/a	YARD	-999	15	[0, 0, 0]	n/a	FR1	0	R1131M
2438.235	2.062	1294196	REC_WORD	2.062	n/a	ROOF	-999	15	[0, 0, 0]	n/a	FR1	0	R1131M
2440.297	4.98	1295227	REC_WORD	4.98	n/a	MOLE	-999	15	[0, 0, 0]	n/a	FR1	0	R1131M
2445.277	18.187	1297717	REC_WORD	18.187	n/a	HILL	-999	15	[0, 0, 0]	n/a	FR1	0	R1131M
2463.464	12.093	1306810	REC_END	n/a	n/a	n/a	-999	15	[0, 0, 0]	n/a	FR1	0	R1131M
2475.557	0.0	1312856	TRIAL	n/a	n/a	n/a	-999	16	[0, 0, 0]	n/a	FR1	0	R1131M
2475.557	10.428	1312856	COUNTDOWN_START	n/a	n/a	n/a	-999	16	[0, 0, 0]	n/a	FR1	0	R1131M
2485.985	0.007	1318069	COUNTDOWN_END	n/a	n/a	n/a	-999	16	[0, 0, 0]	n/a	FR1	0	R1131M
2485.992	2.467	1318073	ORIENT	n/a	n/a	n/a	-999	16	[0, 0, 0]	n/a	FR1	0	R1131M
2488.459	2.534	1319306	WORD	n/a	wordpools/wordpool_EN.txt	SKI	1	16	[0, 0, 0]	n/a	FR1	0	R1131M
2490.993	2.534	1320573	WORD	n/a	wordpools/wordpool_EN.txt	BIRD	2	16	[0, 0, 0]	n/a	FR1	0	R1131M
2493.527	2.4	1321840	WORD	n/a	wordpools/wordpool_EN.txt	DOOR	3	16	[0, 0, 0]	n/a	FR1	0	R1131M
2495.927	2.451	1323040	WORD	n/a	wordpools/wordpool_EN.txt	OWL	4	16	[0, 0, 0]	n/a	FR1	0	R1131M
2498.378	2.5	1324265	WORD	n/a	wordpools/wordpool_EN.txt	SOUP	5	16	[0, 0, 0]	n/a	FR1	0	R1131M
2500.878	2.484	1325515	WORD	n/a	wordpools/wordpool_EN.txt	STONE	6	16	[0, 0, 0]	n/a	FR1	0	R1131M
2503.362	2.517	1326757	WORD	n/a	wordpools/wordpool_EN.txt	MOUSE	7	16	[0, 0, 0]	n/a	FR1	0	R1131M
2505.879	2.451	1328016	WORD	n/a	wordpools/wordpool_EN.txt	CAKE	8	16	[0, 0, 0]	n/a	FR1	0	R1131M
2508.33	2.467	1329241	WORD	n/a	wordpools/wordpool_EN.txt	BROOM	9	16	[0, 0, 0]	n/a	FR1	0	R1131M
2510.797	2.417	1330474	WORD	n/a	wordpools/wordpool_EN.txt	SEED	10	16	[0, 0, 0]	n/a	FR1	0	R1131M
2513.214	2.501	1331683	WORD	n/a	wordpools/wordpool_EN.txt	GATE	11	16	[0, 0, 0]	n/a	FR1	0	R1131M
2515.715	1.617	1332933	WORD	n/a	wordpools/wordpool_EN.txt	WAND	12	16	[0, 0, 0]	n/a	FR1	0	R1131M
2517.332	0.0	1333742	DISTRACT_START	n/a	n/a	n/a	-999	16	[0, 0, 0]	n/a	FR1	0	R1131M
2517.332	0.016	1333742	START	n/a	n/a	n/a	-999	16	[-999, -999, -999]	n/a	FR1	0	R1131M
2517.348	5.518	1333750	PROB	5.518	n/a	n/a	-999	16	[9, 2, 7]	18	FR1	0	R1131M
2522.866	4.085	1336508	PROB	4.085	n/a	n/a	-999	16	[1, 7, 7]	15	FR1	0	R1131M
2526.951	4.483	1338551	PROB	4.483	n/a	n/a	-999	16	[4, 9, 3]	16	FR1	0	R1131M
2531.434	4.418	1340792	PROB	4.418	n/a	n/a	-999	16	[1, 3, 4]	8	FR1	0	R1131M
2535.852	7.058	1343001	PROB	7.058	n/a	n/a	-999	16	[6, 7, 5]	18	FR1	0	R1131M
2542.91	0.01	1346530	STOP	n/a	n/a	n/a	-999	16	[-999, -999, -999]	n/a	FR1	0	R1131M
2542.92	1.067	1346535	DISTRACT_END	n/a	n/a	n/a	-999	16	[0, 0, 0]	n/a	FR1	0	R1131M
2543.987	1.263	1347068	REC_START	n/a	n/a	n/a	-999	16	[0, 0, 0]	n/a	FR1	0	R1131M
2545.25	2.849	1347700	REC_WORD	2.849	n/a	WAND	-999	16	[0, 0, 0]	n/a	FR1	0	R1131M
2548.099	1.75	1349124	REC_WORD	1.75	n/a	OWL	-999	16	[0, 0, 0]	n/a	FR1	0	R1131M
2549.849	2.489	1349999	REC_WORD	2.489	n/a	BIRD	-999	16	[0, 0, 0]	n/a	FR1	0	R1131M
2552.338	3.325	1351243	REC_WORD	3.325	n/a	MOUSE	-999	16	[0, 0, 0]	n/a	FR1	0	R1131M
2555.663	18.336	1352906	REC_WORD	18.336	n/a	NEST	-999	16	[0, 0, 0]	n/a	FR1	0	R1131M
2573.999	25.348	1362073	REC_END	n/a	n/a	n/a	-999	16	[0, 0, 0]	n/a	FR1	0	R1131M
2599.347	0.001	1374746	COUNTDOWN_START	n/a	n/a	n/a	-999	17	[0, 0, 0]	n/a	FR1	0	R1131M
2599.348	10.427	1374747	TRIAL	n/a	n/a	n/a	-999	17	[0, 0, 0]	n/a	FR1	0	R1131M
2609.775	0.008	1379960	COUNTDOWN_END	n/a	n/a	n/a	-999	17	[0, 0, 0]	n/a	FR1	0	R1131M
2609.783	2.517	1379964	ORIENT	n/a	n/a	n/a	-999	17	[0, 0, 0]	n/a	FR1	0	R1131M
2612.3	2.6	1381222	WORD	n/a	wordpools/wordpool_EN.txt	RAKE	1	17	[0, 0, 0]	n/a	FR1	0	R1131M
2614.9	2.568	1382522	WORD	n/a	wordpools/wordpool_EN.txt	CROWN	2	17	[0, 0, 0]	n/a	FR1	0	R1131M
2617.468	2.433	1383806	WORD	n/a	wordpools/wordpool_EN.txt	TOOTH	3	17	[0, 0, 0]	n/a	FR1	0	R1131M
2619.901	2.584	1385023	WORD	n/a	wordpools/wordpool_EN.txt	TOE	4	17	[0, 0, 0]	n/a	FR1	0	R1131M
2622.485	2.5	1386314	WORD	n/a	wordpools/wordpool_EN.txt	CORN	5	17	[0, 0, 0]	n/a	FR1	0	R1131M
2624.985	2.484	1387564	WORD	n/a	wordpools/wordpool_EN.txt	GUARD	6	17	[0, 0, 0]	n/a	FR1	0	R1131M
2627.469	2.567	1388806	WORD	n/a	wordpools/wordpool_EN.txt	DESK	7	17	[0, 0, 0]	n/a	FR1	0	R1131M
2630.036	2.434	1390090	WORD	n/a	wordpools/wordpool_EN.txt	TEETH	8	17	[0, 0, 0]	n/a	FR1	0	R1131M
2632.47	2.401	1391307	WORD	n/a	wordpools/wordpool_EN.txt	TOOL	9	17	[0, 0, 0]	n/a	FR1	0	R1131M
2634.871	2.6	1392507	WORD	n/a	wordpools/wordpool_EN.txt	BRIDGE	10	17	[0, 0, 0]	n/a	FR1	0	R1131M
2637.471	2.434	1393807	WORD	n/a	wordpools/wordpool_EN.txt	WHEEL	11	17	[0, 0, 0]	n/a	FR1	0	R1131M
2639.905	1.617	1395024	WORD	n/a	wordpools/wordpool_EN.txt	CUBE	12	17	[0, 0, 0]	n/a	FR1	0	R1131M
2641.522	0.001	1395832	DISTRACT_START	n/a	n/a	n/a	-999	17	[0, 0, 0]	n/a	FR1	0	R1131M
2641.523	0.016	1395833	START	n/a	n/a	n/a	-999	17	[-999, -999, -999]	n/a	FR1	0	R1131M
2641.539	5.818	1395841	PROB	5.818	n/a	n/a	-999	17	[7, 8, 2]	17	FR1	0	R1131M
2647.357	3.601	1398750	PROB	3.601	n/a	n/a	-999	17	[3, 2, 2]	7	FR1	0	R1131M
2650.958	4.784	1400550	PROB	4.784	n/a	n/a	-999	17	[2, 1, 7]	10	FR1	0	R1131M
2655.742	3.467	1402942	PROB	3.467	n/a	n/a	-999	17	[8, 2, 4]	14	FR1	0	R1131M
2659.209	2.51	1404675	PROB	2.51	n/a	n/a	-999	17	[1, 3, 2]	6	FR1	0	R1131M
2661.719	0.007	1405930	STOP	n/a	n/a	n/a	-999	17	[-999, -999, -999]	n/a	FR1	0	R1131M
2661.726	1.134	1405934	DISTRACT_END	n/a	n/a	n/a	-999	17	[0, 0, 0]	n/a	FR1	0	R1131M
2662.86	0.702	1406501	REC_START	n/a	n/a	n/a	-999	17	[0, 0, 0]	n/a	FR1	0	R1131M
2663.562	0.93	1406852	REC_WORD	0.93	n/a	TOOTH	-999	17	[0, 0, 0]	n/a	FR1	0	R1131M
2664.492	1.819	1407316	REC_WORD	1.819	n/a	TOE	-999	17	[0, 0, 0]	n/a	FR1	0	R1131M
2666.311	5.364	1408226	REC_WORD	5.364	n/a	TEETH	-999	17	[0, 0, 0]	n/a	FR1	0	R1131M
2671.675	21.202	1410908	REC_WORD	21.202	n/a	RAKE	-999	17	[0, 0, 0]	n/a	FR1	0	R1131M
2692.877	19.459	1421508	REC_END	n/a	n/a	n/a	-999	17	[0, 0, 0]	n/a	FR1	0	R1131M
2712.336	0.0	1431237	TRIAL	n/a	n/a	n/a	-999	18	[0, 0, 0]	n/a	FR1	0	R1131M
2712.336	10.428	1431237	COUNTDOWN_START	n/a	n/a	n/a	-999	18	[0, 0, 0]	n/a	FR1	0	R1131M
2722.764	0.007	1436450	COUNTDOWN_END	n/a	n/a	n/a	-999	18	[0, 0, 0]	n/a	FR1	0	R1131M
2722.771	2.451	1436454	ORIENT	n/a	n/a	n/a	-999	18	[0, 0, 0]	n/a	FR1	0	R1131M
2725.222	2.384	1437679	WORD	n/a	wordpools/wordpool_EN.txt	TANK	1	18	[0, 0, 0]	n/a	FR1	0	R1131M
2727.606	2.417	1438871	WORD	n/a	wordpools/wordpool_EN.txt	PLANT	2	18	[0, 0, 0]	n/a	FR1	0	R1131M
2730.023	2.6	1440080	WORD	n/a	wordpools/wordpool_EN.txt	JET	3	18	[0, 0, 0]	n/a	FR1	0	R1131M
2732.623	2.584	1441380	WORD	n/a	wordpools/wordpool_EN.txt	BEACH	4	18	[0, 0, 0]	n/a	FR1	0	R1131M
2735.207	2.517	1442671	WORD	n/a	wordpools/wordpool_EN.txt	VAN	5	18	[0, 0, 0]	n/a	FR1	0	R1131M
2737.724	2.451	1443930	WORD	n/a	wordpools/wordpool_EN.txt	WING	6	18	[0, 0, 0]	n/a	FR1	0	R1131M
2740.175	2.6	1445155	WORD	n/a	wordpools/wordpool_EN.txt	BOAT	7	18	[0, 0, 0]	n/a	FR1	0	R1131M
2742.775	2.401	1446455	WORD	n/a	wordpools/wordpool_EN.txt	SHARK	8	18	[0, 0, 0]	n/a	FR1	0	R1131M
2745.176	2.467	1447656	WORD	n/a	wordpools/wordpool_EN.txt	LAMP	9	18	[0, 0, 0]	n/a	FR1	0	R1131M
2747.643	2.5	1448889	WORD	n/a	wordpools/wordpool_EN.txt	CUP	10	18	[0, 0, 0]	n/a	FR1	0	R1131M
2750.143	2.451	1450139	WORD	n/a	wordpools/wordpool_EN.txt	FLAME	11	18	[0, 0, 0]	n/a	FR1	0	R1131M
2752.594	1.617	1451364	WORD	n/a	wordpools/wordpool_EN.txt	GLASS	12	18	[0, 0, 0]	n/a	FR1	0	R1131M
2754.211	0.0	1452173	DISTRACT_START	n/a	n/a	n/a	-999	18	[0, 0, 0]	n/a	FR1	0	R1131M
2754.211	0.016	1452173	START	n/a	n/a	n/a	-999	18	[-999, -999, -999]	n/a	FR1	0	R1131M
2754.227	6.852	1452181	PROB	6.852	n/a	n/a	-999	18	[1, 3, 9]	13	FR1	0	R1131M
2761.079	4.684	1455607	PROB	4.684	n/a	n/a	-999	18	[9, 2, 9]	20	FR1	0	R1131M
2765.763	5.784	1457948	PROB	5.784	n/a	n/a	-999	18	[2, 6, 5]	13	FR1	0	R1131M
2771.547	5.627	1460840	PROB	5.627	n/a	n/a	-999	18	[7, 6, 6]	19	FR1	0	R1131M
2777.174	0.008	1463654	STOP	n/a	n/a	n/a	-999	18	[-999, -999, -999]	n/a	FR1	0	R1131M
2777.182	1.117	1463658	DISTRACT_END	n/a	n/a	n/a	-999	18	[0, 0, 0]	n/a	FR1	0	R1131M
2778.299	1.077	1464216	REC_START	n/a	n/a	n/a	-999	18	[0, 0, 0]	n/a	FR1	0	R1131M
2779.376	1.197	1464754	REC_WORD	1.197	n/a	CUP	-999	18	[0, 0, 0]	n/a	FR1	0	R1131M
2780.573	1.922	1465353	REC_WORD	1.922	n/a	FLAME	-999	18	[0, 0, 0]	n/a	FR1	0	R1131M
2782.495	25.823	1466314	REC_WORD	25.823	n/a	GLASS	-999	18	[0, 0, 0]	n/a	FR1	0	R1131M
2808.318	329.95	1479224	REC_END	n/a	n/a	n/a	-999	18	[0, 0, 0]	n/a	FR1	0	R1131M
3138.268	0.0	1644188	TRIAL	n/a	n/a	n/a	-999	19	[0, 0, 0]	n/a	FR1	0	R1131M
3138.268	0.0	1644188	COUNTDOWN_START	n/a	n/a	n/a	-999	19	[0, 0, 0]	n/a	FR1	0	R1131M
