onset	duration	sample	trial_type	response_time	stim_file	item_name	serialpos	list	test	answer	experiment	session	subject
0.0	429.123	618	INSTRUCT_START	n/a	n/a	n/a	-999	-999	[0, 0, 0]	n/a	FR1	2	R1350D
429.123	1.583	429719	INSTRUCT_END	n/a	n/a	n/a	-999	-999	[0, 0, 0]	n/a	FR1	2	R1350D
430.706	9.207	431302	MIC TEST_START	n/a	n/a	n/a	-999	-999	[0, 0, 0]	n/a	FR1	2	R1350D
439.913	0.011	440508	MIC TEST_END	n/a	n/a	n/a	-999	-999	[0, 0, 0]	n/a	FR1	2	R1350D
439.924	0.0	440519	TRIAL_START	n/a	n/a	n/a	-999	-1	[0, 0, 0]	n/a	FR1	2	R1350D
439.924	0.0	440519	TRIAL	n/a	n/a	n/a	-999	-1	[0, 0, 0]	n/a	FR1	2	R1350D
439.924	4.302	440519	WAITING_START	n/a	n/a	n/a	-999	-1	[0, 0, 0]	n/a	FR1	2	R1350D
444.226	0.0	444821	WAITING_END	n/a	n/a	n/a	-999	-1	[0, 0, 0]	n/a	FR1	2	R1350D
444.226	10.429	444821	COUNTDOWN_START	n/a	n/a	n/a	-999	-1	[0, 0, 0]	n/a	FR1	2	R1350D
454.655	0.001	455249	COUNTDOWN_END	n/a	n/a	n/a	-999	-1	[0, 0, 0]	n/a	FR1	2	R1350D
454.656	1.071	455250	ORIENT_START	n/a	n/a	n/a	-999	-1	[0, 0, 0]	n/a	FR1	2	R1350D
455.727	0.0	456321	ORIENT_END	n/a	n/a	n/a	-999	-1	[0, 0, 0]	n/a	FR1	2	R1350D
455.727	0.755	456321	ENCODING_START	n/a	n/a	n/a	-999	-1	[0, 0, 0]	n/a	FR1	2	R1350D
456.482	1.63	457076	WORD	n/a	n/a	WAGON	1	-1	[0, 0, 0]	n/a	FR1	2	R1350D
458.112	1.061	458706	WORD_OFF	n/a	n/a	WAGON	1	-1	[0, 0, 0]	n/a	FR1	2	R1350D
459.173	1.622	459767	WORD	n/a	n/a	IMAGE	2	-1	[0, 0, 0]	n/a	FR1	2	R1350D
460.795	0.797	461389	WORD_OFF	n/a	n/a	IMAGE	2	-1	[0, 0, 0]	n/a	FR1	2	R1350D
461.592	1.637	462186	WORD	n/a	n/a	BABY	3	-1	[0, 0, 0]	n/a	FR1	2	R1350D
463.229	0.857	463823	WORD_OFF	n/a	n/a	BABY	3	-1	[0, 0, 0]	n/a	FR1	2	R1350D
464.086	1.626	464680	WORD	n/a	n/a	WATCH	4	-1	[0, 0, 0]	n/a	FR1	2	R1350D
465.712	0.814	466306	WORD_OFF	n/a	n/a	WATCH	4	-1	[0, 0, 0]	n/a	FR1	2	R1350D
466.526	1.621	467120	WORD	n/a	n/a	CHEST	5	-1	[0, 0, 0]	n/a	FR1	2	R1350D
468.147	0.781	468741	WORD_OFF	n/a	n/a	CHEST	5	-1	[0, 0, 0]	n/a	FR1	2	R1350D
468.928	1.635	469522	WORD	n/a	n/a	TONGUE	6	-1	[0, 0, 0]	n/a	FR1	2	R1350D
470.563	1.127	471157	WORD_OFF	n/a	n/a	TONGUE	6	-1	[0, 0, 0]	n/a	FR1	2	R1350D
471.69	1.608	472284	WORD	n/a	n/a	CAMEL	7	-1	[0, 0, 0]	n/a	FR1	2	R1350D
473.298	0.785	473892	WORD_OFF	n/a	n/a	CAMEL	7	-1	[0, 0, 0]	n/a	FR1	2	R1350D
474.083	1.631	474676	WORD	n/a	n/a	RHINO	8	-1	[0, 0, 0]	n/a	FR1	2	R1350D
475.714	0.956	476307	WORD_OFF	n/a	n/a	RHINO	8	-1	[0, 0, 0]	n/a	FR1	2	R1350D
476.67	1.629	477263	WORD	n/a	n/a	COTTON	9	-1	[0, 0, 0]	n/a	FR1	2	R1350D
478.299	0.827	478892	WORD_OFF	n/a	n/a	COTTON	9	-1	[0, 0, 0]	n/a	FR1	2	R1350D
479.126	1.622	479719	WORD	n/a	n/a	FLOOD	10	-1	[0, 0, 0]	n/a	FR1	2	R1350D
480.748	1.132	481341	WORD_OFF	n/a	n/a	FLOOD	10	-1	[0, 0, 0]	n/a	FR1	2	R1350D
481.88	1.636	482473	WORD	n/a	n/a	RING	11	-1	[0, 0, 0]	n/a	FR1	2	R1350D
483.516	1.025	484109	WORD_OFF	n/a	n/a	RING	11	-1	[0, 0, 0]	n/a	FR1	2	R1350D
484.541	1.626	485134	WORD	n/a	n/a	BEAM	12	-1	[0, 0, 0]	n/a	FR1	2	R1350D
486.167	0.0	486760	WORD_OFF	n/a	n/a	BEAM	12	-1	[0, 0, 0]	n/a	FR1	2	R1350D
486.167	0.001	486760	ENCODING_END	n/a	n/a	n/a	-999	-1	[0, 0, 0]	n/a	FR1	2	R1350D
486.168	0.0	486761	DISTRACT_START	n/a	n/a	n/a	-999	-1	[0, 0, 0]	n/a	FR1	2	R1350D
486.168	0.015	486761	START	n/a	n/a	n/a	-999	-1	[-999, -999, -999]	n/a	FR1	2	R1350D
486.183	4.383	486776	PROB	4.383	n/a	n/a	-999	-1	[3, 7, 4]	14	FR1	2	R1350D
490.566	3.351	491159	PROB	3.351	n/a	n/a	-999	-1	[4, 3, 6]	13	FR1	2	R1350D
493.917	2.385	494509	PROB	2.385	n/a	n/a	-999	-1	[8, 1, 2]	11	FR1	2	R1350D
496.302	2.85	496894	PROB	2.85	n/a	n/a	-999	-1	[4, 2, 9]	15	FR1	2	R1350D
499.152	3.234	499744	PROB	3.234	n/a	n/a	-999	-1	[5, 3, 2]	10	FR1	2	R1350D
502.386	2.767	502978	PROB	2.767	n/a	n/a	-999	-1	[6, 3, 3]	12	FR1	2	R1350D
505.153	3.787	505745	PROB	3.787	n/a	n/a	-999	-1	[4, 7, 4]	15	FR1	2	R1350D
508.94	0.013	509532	STOP	n/a	n/a	n/a	-999	-1	[-999, -999, -999]	n/a	FR1	2	R1350D
508.953	0.683	509545	DISTRACT_END	n/a	n/a	n/a	-999	-1	[0, 0, 0]	n/a	FR1	2	R1350D
509.636	1.552	510228	RETRIEVAL_ORIENT_START	n/a	n/a	n/a	-999	-1	[0, 0, 0]	n/a	FR1	2	R1350D
511.188	0.0	511780	RETRIEVAL_ORIENT_END	n/a	n/a	n/a	-999	-1	[0, 0, 0]	n/a	FR1	2	R1350D
511.188	0.0	511780	REC_START	n/a	n/a	n/a	-999	-1	[0, 0, 0]	n/a	FR1	2	R1350D
511.188	30.014	511780	REC_WORD_VV	30.014	n/a	<>	-999	-1	[0, 0, 0]	n/a	FR1	2	R1350D
541.202	0.0	541792	PRACTICE_POST_INSTRUCT_START	n/a	n/a	n/a	-999	-1	[0, 0, 0]	n/a	FR1	2	R1350D
541.202	5.576	541792	REC_END	n/a	n/a	n/a	-999	-1	[0, 0, 0]	n/a	FR1	2	R1350D
546.778	0.0	547368	PRACTICE_POST_INSTRUCT_END	n/a	n/a	n/a	-999	-1	[0, 0, 0]	n/a	FR1	2	R1350D
546.778	0.018	547368	TRIAL_END	n/a	n/a	n/a	-999	-1	[0, 0, 0]	n/a	FR1	2	R1350D
546.796	0.0	547386	TRIAL_START	n/a	n/a	n/a	-999	1	[0, 0, 0]	n/a	FR1	2	R1350D
546.796	0.0	547386	TRIAL	n/a	n/a	n/a	-999	1	[0, 0, 0]	n/a	FR1	2	R1350D
546.796	1.399	547386	WAITING_START	n/a	n/a	n/a	-999	1	[0, 0, 0]	n/a	FR1	2	R1350D
548.195	0.0	548785	WAITING_END	n/a	n/a	n/a	-999	1	[0, 0, 0]	n/a	FR1	2	R1350D
548.195	10.43	548785	COUNTDOWN_START	n/a	n/a	n/a	-999	1	[0, 0, 0]	n/a	FR1	2	R1350D
558.625	0.001	559214	COUNTDOWN_END	n/a	n/a	n/a	-999	1	[0, 0, 0]	n/a	FR1	2	R1350D
558.626	1.203	559215	ORIENT_START	n/a	n/a	n/a	-999	1	[0, 0, 0]	n/a	FR1	2	R1350D
559.829	0.001	560418	ORIENT_END	n/a	n/a	n/a	-999	1	[0, 0, 0]	n/a	FR1	2	R1350D
559.83	1.063	560419	ENCODING_START	n/a	n/a	n/a	-999	1	[0, 0, 0]	n/a	FR1	2	R1350D
560.893	1.637	561482	WORD	n/a	n/a	CHAIR	1	1	[0, 0, 0]	n/a	FR1	2	R1350D
562.53	0.841	563119	WORD_OFF	n/a	n/a	CHAIR	1	1	[0, 0, 0]	n/a	FR1	2	R1350D
563.371	1.626	563960	WORD	n/a	n/a	DOCK	2	1	[0, 0, 0]	n/a	FR1	2	R1350D
564.997	0.966	565586	WORD_OFF	n/a	n/a	DOCK	2	1	[0, 0, 0]	n/a	FR1	2	R1350D
565.963	1.634	566552	WORD	n/a	n/a	HEN	3	1	[0, 0, 0]	n/a	FR1	2	R1350D
567.597	0.857	568186	WORD_OFF	n/a	n/a	HEN	3	1	[0, 0, 0]	n/a	FR1	2	R1350D
568.454	1.628	569043	WORD	n/a	n/a	LAKE	4	1	[0, 0, 0]	n/a	FR1	2	R1350D
570.082	0.77	570671	WORD_OFF	n/a	n/a	LAKE	4	1	[0, 0, 0]	n/a	FR1	2	R1350D
570.852	1.631	571441	WORD	n/a	n/a	PEAR	5	1	[0, 0, 0]	n/a	FR1	2	R1350D
572.483	0.801	573071	WORD_OFF	n/a	n/a	PEAR	5	1	[0, 0, 0]	n/a	FR1	2	R1350D
573.284	1.631	573872	WORD	n/a	n/a	FISH	6	1	[0, 0, 0]	n/a	FR1	2	R1350D
574.915	0.998	575503	WORD_OFF	n/a	n/a	FISH	6	1	[0, 0, 0]	n/a	FR1	2	R1350D
575.913	1.636	576501	WORD	n/a	n/a	ROOM	7	1	[0, 0, 0]	n/a	FR1	2	R1350D
577.549	0.909	578137	WORD_OFF	n/a	n/a	ROOM	7	1	[0, 0, 0]	n/a	FR1	2	R1350D
578.458	1.626	579046	WORD	n/a	n/a	AXE	8	1	[0, 0, 0]	n/a	FR1	2	R1350D
580.084	0.988	580672	WORD_OFF	n/a	n/a	AXE	8	1	[0, 0, 0]	n/a	FR1	2	R1350D
581.072	1.628	581660	WORD	n/a	n/a	PURSE	9	1	[0, 0, 0]	n/a	FR1	2	R1350D
582.7	0.964	583288	WORD_OFF	n/a	n/a	PURSE	9	1	[0, 0, 0]	n/a	FR1	2	R1350D
583.664	1.638	584252	WORD	n/a	n/a	BOAT	10	1	[0, 0, 0]	n/a	FR1	2	R1350D
585.302	0.973	585890	WORD_OFF	n/a	n/a	BOAT	10	1	[0, 0, 0]	n/a	FR1	2	R1350D
586.275	1.626	586863	WORD	n/a	n/a	SKUNK	11	1	[0, 0, 0]	n/a	FR1	2	R1350D
587.901	1.125	588489	WORD_OFF	n/a	n/a	SKUNK	11	1	[0, 0, 0]	n/a	FR1	2	R1350D
589.026	1.626	589614	WORD	n/a	n/a	ROPE	12	1	[0, 0, 0]	n/a	FR1	2	R1350D
590.652	0.0	591239	WORD_OFF	n/a	n/a	ROPE	12	1	[0, 0, 0]	n/a	FR1	2	R1350D
590.652	0.0	591239	ENCODING_END	n/a	n/a	n/a	-999	1	[0, 0, 0]	n/a	FR1	2	R1350D
590.652	0.001	591239	DISTRACT_START	n/a	n/a	n/a	-999	1	[0, 0, 0]	n/a	FR1	2	R1350D
590.653	0.015	591240	START	n/a	n/a	n/a	-999	1	[-999, -999, -999]	n/a	FR1	2	R1350D
590.668	2.951	591255	PROB	2.951	n/a	n/a	-999	1	[2, 2, 1]	5	FR1	2	R1350D
593.619	2.568	594206	PROB	2.568	n/a	n/a	-999	1	[4, 2, 2]	8	FR1	2	R1350D
596.187	1.9	596774	PROB	1.9	n/a	n/a	-999	1	[3, 3, 3]	9	FR1	2	R1350D
598.087	3.417	598674	PROB	3.417	n/a	n/a	-999	1	[3, 9, 9]	21	FR1	2	R1350D
601.504	3.367	602091	PROB	3.367	n/a	n/a	-999	1	[8, 4, 3]	15	FR1	2	R1350D
604.871	5.101	605458	PROB	5.101	n/a	n/a	-999	1	[8, 3, 5]	16	FR1	2	R1350D
609.972	3.627	610558	PROB	3.627	n/a	n/a	-999	1	[8, 3, 5]	16	FR1	2	R1350D
613.599	0.007	614185	STOP	n/a	n/a	n/a	-999	1	[-999, -999, -999]	n/a	FR1	2	R1350D
613.606	0.539	614192	DISTRACT_END	n/a	n/a	n/a	-999	1	[0, 0, 0]	n/a	FR1	2	R1350D
614.145	1.695	614731	RETRIEVAL_ORIENT_START	n/a	n/a	n/a	-999	1	[0, 0, 0]	n/a	FR1	2	R1350D
615.84	0.0	616426	RETRIEVAL_ORIENT_END	n/a	n/a	n/a	-999	1	[0, 0, 0]	n/a	FR1	2	R1350D
615.84	2.264	616426	REC_START	n/a	n/a	n/a	-999	1	[0, 0, 0]	n/a	FR1	2	R1350D
618.104	0.634	618690	REC_WORD_VV	0.634	n/a	<>	-999	1	[0, 0, 0]	n/a	FR1	2	R1350D
618.738	2.744	619324	REC_WORD	2.744	n/a	DOCK	2	1	[0, 0, 0]	n/a	FR1	2	R1350D
621.482	1.521	622068	REC_WORD	1.521	n/a	POND	-999	1	[0, 0, 0]	n/a	FR1	2	R1350D
623.003	2.124	623589	REC_WORD	2.124	n/a	FISH	6	1	[0, 0, 0]	n/a	FR1	2	R1350D
625.127	1.758	625713	REC_WORD	1.758	n/a	BOAT	10	1	[0, 0, 0]	n/a	FR1	2	R1350D
626.885	3.477	627471	REC_WORD	3.477	n/a	HEN	3	1	[0, 0, 0]	n/a	FR1	2	R1350D
630.362	15.49	630947	REC_WORD_VV	15.49	n/a	<>	-999	1	[0, 0, 0]	n/a	FR1	2	R1350D
645.852	0.001	646437	REC_END	n/a	n/a	n/a	-999	1	[0, 0, 0]	n/a	FR1	2	R1350D
645.853	0.016	646438	TRIAL_END	n/a	n/a	n/a	-999	1	[0, 0, 0]	n/a	FR1	2	R1350D
645.869	0.0	646454	TRIAL_START	n/a	n/a	n/a	-999	2	[0, 0, 0]	n/a	FR1	2	R1350D
645.869	0.0	646454	TRIAL	n/a	n/a	n/a	-999	2	[0, 0, 0]	n/a	FR1	2	R1350D
645.869	1.859	646454	WAITING_START	n/a	n/a	n/a	-999	2	[0, 0, 0]	n/a	FR1	2	R1350D
647.728	0.001	648313	WAITING_END	n/a	n/a	n/a	-999	2	[0, 0, 0]	n/a	FR1	2	R1350D
647.729	10.428	648314	COUNTDOWN_START	n/a	n/a	n/a	-999	2	[0, 0, 0]	n/a	FR1	2	R1350D
658.157	0.001	658741	COUNTDOWN_END	n/a	n/a	n/a	-999	2	[0, 0, 0]	n/a	FR1	2	R1350D
658.158	1.207	658742	ORIENT_START	n/a	n/a	n/a	-999	2	[0, 0, 0]	n/a	FR1	2	R1350D
659.365	0.001	659949	ORIENT_END	n/a	n/a	n/a	-999	2	[0, 0, 0]	n/a	FR1	2	R1350D
659.366	1.135	659950	ENCODING_START	n/a	n/a	n/a	-999	2	[0, 0, 0]	n/a	FR1	2	R1350D
660.501	1.631	661085	WORD	n/a	n/a	HORN	1	2	[0, 0, 0]	n/a	FR1	2	R1350D
662.132	0.944	662716	WORD_OFF	n/a	n/a	HORN	1	2	[0, 0, 0]	n/a	FR1	2	R1350D
663.076	1.622	663660	WORD	n/a	n/a	BARN	2	2	[0, 0, 0]	n/a	FR1	2	R1350D
664.698	0.767	665282	WORD_OFF	n/a	n/a	BARN	2	2	[0, 0, 0]	n/a	FR1	2	R1350D
665.465	1.635	666049	WORD	n/a	n/a	GOAT	3	2	[0, 0, 0]	n/a	FR1	2	R1350D
667.1	0.992	667684	WORD_OFF	n/a	n/a	GOAT	3	2	[0, 0, 0]	n/a	FR1	2	R1350D
668.092	1.624	668676	WORD	n/a	n/a	SPONGE	4	2	[0, 0, 0]	n/a	FR1	2	R1350D
669.716	0.921	670299	WORD_OFF	n/a	n/a	SPONGE	4	2	[0, 0, 0]	n/a	FR1	2	R1350D
670.637	1.614	671220	WORD	n/a	n/a	MAIL	5	2	[0, 0, 0]	n/a	FR1	2	R1350D
672.251	0.982	672834	WORD_OFF	n/a	n/a	MAIL	5	2	[0, 0, 0]	n/a	FR1	2	R1350D
673.233	1.634	673816	WORD	n/a	n/a	BROOM	6	2	[0, 0, 0]	n/a	FR1	2	R1350D
674.867	0.911	675450	WORD_OFF	n/a	n/a	BROOM	6	2	[0, 0, 0]	n/a	FR1	2	R1350D
675.778	1.624	676361	WORD	n/a	n/a	OAK	7	2	[0, 0, 0]	n/a	FR1	2	R1350D
677.402	0.809	677985	WORD_OFF	n/a	n/a	OAK	7	2	[0, 0, 0]	n/a	FR1	2	R1350D
678.211	1.624	678794	WORD	n/a	n/a	STRING	8	2	[0, 0, 0]	n/a	FR1	2	R1350D
679.835	1.035	680418	WORD_OFF	n/a	n/a	STRING	8	2	[0, 0, 0]	n/a	FR1	2	R1350D
680.87	1.616	681453	WORD	n/a	n/a	SHEET	9	2	[0, 0, 0]	n/a	FR1	2	R1350D
682.486	1.09	683069	WORD_OFF	n/a	n/a	SHEET	9	2	[0, 0, 0]	n/a	FR1	2	R1350D
683.576	1.61	684159	WORD	n/a	n/a	MAZE	10	2	[0, 0, 0]	n/a	FR1	2	R1350D
685.186	0.76	685769	WORD_OFF	n/a	n/a	MAZE	10	2	[0, 0, 0]	n/a	FR1	2	R1350D
685.946	1.623	686529	WORD	n/a	n/a	DITCH	11	2	[0, 0, 0]	n/a	FR1	2	R1350D
687.569	0.825	688152	WORD_OFF	n/a	n/a	DITCH	11	2	[0, 0, 0]	n/a	FR1	2	R1350D
688.394	1.626	688976	WORD	n/a	n/a	TREE	12	2	[0, 0, 0]	n/a	FR1	2	R1350D
690.02	0.0	690602	WORD_OFF	n/a	n/a	TREE	12	2	[0, 0, 0]	n/a	FR1	2	R1350D
690.02	0.0	690602	ENCODING_END	n/a	n/a	n/a	-999	2	[0, 0, 0]	n/a	FR1	2	R1350D
690.02	0.0	690602	DISTRACT_START	n/a	n/a	n/a	-999	2	[0, 0, 0]	n/a	FR1	2	R1350D
690.02	0.016	690602	START	n/a	n/a	n/a	-999	2	[-999, -999, -999]	n/a	FR1	2	R1350D
690.036	2.984	690618	PROB	2.984	n/a	n/a	-999	2	[3, 1, 1]	5	FR1	2	R1350D
693.02	2.584	693602	PROB	2.584	n/a	n/a	-999	2	[3, 6, 2]	11	FR1	2	R1350D
695.604	4.017	696186	PROB	4.017	n/a	n/a	-999	2	[6, 6, 1]	13	FR1	2	R1350D
699.621	3.117	700203	PROB	3.117	n/a	n/a	-999	2	[2, 9, 6]	17	FR1	2	R1350D
702.738	3.619	703320	PROB	3.619	n/a	n/a	-999	2	[3, 9, 7]	19	FR1	2	R1350D
706.357	2.917	706939	PROB	2.917	n/a	n/a	-999	2	[8, 8, 6]	22	FR1	2	R1350D
709.274	3.335	709855	PROB	3.335	n/a	n/a	-999	2	[4, 8, 3]	15	FR1	2	R1350D
712.609	0.015	713190	STOP	n/a	n/a	n/a	-999	2	[-999, -999, -999]	n/a	FR1	2	R1350D
712.624	0.565	713205	DISTRACT_END	n/a	n/a	n/a	-999	2	[0, 0, 0]	n/a	FR1	2	R1350D
713.189	1.635	713770	RETRIEVAL_ORIENT_START	n/a	n/a	n/a	-999	2	[0, 0, 0]	n/a	FR1	2	R1350D
714.824	0.0	715405	RETRIEVAL_ORIENT_END	n/a	n/a	n/a	-999	2	[0, 0, 0]	n/a	FR1	2	R1350D
714.824	3.645	715405	REC_START	n/a	n/a	n/a	-999	2	[0, 0, 0]	n/a	FR1	2	R1350D
718.469	1.411	719050	REC_WORD	1.411	n/a	BARN	2	2	[0, 0, 0]	n/a	FR1	2	R1350D
719.88	1.5	720461	REC_WORD	1.5	n/a	HORN	1	2	[0, 0, 0]	n/a	FR1	2	R1350D
721.38	1.695	721961	REC_WORD	1.695	n/a	GOAT	3	2	[0, 0, 0]	n/a	FR1	2	R1350D
723.075	4.243	723656	REC_WORD	4.243	n/a	OAK	7	2	[0, 0, 0]	n/a	FR1	2	R1350D
727.318	1.204	727898	REC_WORD	1.204	n/a	BROOM	6	2	[0, 0, 0]	n/a	FR1	2	R1350D
728.522	3.257	729102	REC_WORD	3.257	n/a	STRING	8	2	[0, 0, 0]	n/a	FR1	2	R1350D
731.779	4.871	732359	REC_WORD	4.871	n/a	MAZE	10	2	[0, 0, 0]	n/a	FR1	2	R1350D
736.65	0.53	737230	REC_WORD	0.53	n/a	TREE	12	2	[0, 0, 0]	n/a	FR1	2	R1350D
737.18	7.659	737760	REC_WORD_VV	7.659	n/a	<>	-999	2	[0, 0, 0]	n/a	FR1	2	R1350D
744.839	0.0	745419	REC_END	n/a	n/a	n/a	-999	2	[0, 0, 0]	n/a	FR1	2	R1350D
744.839	0.014	745419	TRIAL_END	n/a	n/a	n/a	-999	2	[0, 0, 0]	n/a	FR1	2	R1350D
744.853	0.001	745433	TRIAL_START	n/a	n/a	n/a	-999	3	[0, 0, 0]	n/a	FR1	2	R1350D
744.854	0.0	745434	WAITING_START	n/a	n/a	n/a	-999	3	[0, 0, 0]	n/a	FR1	2	R1350D
744.854	1.594	745434	TRIAL	n/a	n/a	n/a	-999	3	[0, 0, 0]	n/a	FR1	2	R1350D
746.448	0.0	747027	WAITING_END	n/a	n/a	n/a	-999	3	[0, 0, 0]	n/a	FR1	2	R1350D
746.448	10.428	747027	COUNTDOWN_START	n/a	n/a	n/a	-999	3	[0, 0, 0]	n/a	FR1	2	R1350D
756.876	0.001	757455	COUNTDOWN_END	n/a	n/a	n/a	-999	3	[0, 0, 0]	n/a	FR1	2	R1350D
756.877	1.172	757456	ORIENT_START	n/a	n/a	n/a	-999	3	[0, 0, 0]	n/a	FR1	2	R1350D
758.049	0.0	758628	ORIENT_END	n/a	n/a	n/a	-999	3	[0, 0, 0]	n/a	FR1	2	R1350D
758.049	0.774	758628	ENCODING_START	n/a	n/a	n/a	-999	3	[0, 0, 0]	n/a	FR1	2	R1350D
758.823	1.611	759402	WORD	n/a	n/a	BIRD	1	3	[0, 0, 0]	n/a	FR1	2	R1350D
760.434	0.796	761013	WORD_OFF	n/a	n/a	BIRD	1	3	[0, 0, 0]	n/a	FR1	2	R1350D
761.23	1.62	761809	WORD	n/a	n/a	CLAY	2	3	[0, 0, 0]	n/a	FR1	2	R1350D
762.85	1.14	763429	WORD_OFF	n/a	n/a	CLAY	2	3	[0, 0, 0]	n/a	FR1	2	R1350D
763.99	1.627	764569	WORD	n/a	n/a	SNAIL	3	3	[0, 0, 0]	n/a	FR1	2	R1350D
765.617	1.126	766195	WORD_OFF	n/a	n/a	SNAIL	3	3	[0, 0, 0]	n/a	FR1	2	R1350D
766.743	1.625	767321	WORD	n/a	n/a	PEN	4	3	[0, 0, 0]	n/a	FR1	2	R1350D
768.368	0.94	768946	WORD_OFF	n/a	n/a	PEN	4	3	[0, 0, 0]	n/a	FR1	2	R1350D
769.308	1.627	769886	WORD	n/a	n/a	TEA	5	3	[0, 0, 0]	n/a	FR1	2	R1350D
770.935	0.861	771513	WORD_OFF	n/a	n/a	TEA	5	3	[0, 0, 0]	n/a	FR1	2	R1350D
771.796	1.623	772374	WORD	n/a	n/a	FLAME	6	3	[0, 0, 0]	n/a	FR1	2	R1350D
773.419	0.853	773997	WORD_OFF	n/a	n/a	FLAME	6	3	[0, 0, 0]	n/a	FR1	2	R1350D
774.272	1.63	774850	WORD	n/a	n/a	SUN	7	3	[0, 0, 0]	n/a	FR1	2	R1350D
775.902	0.754	776480	WORD_OFF	n/a	n/a	SUN	7	3	[0, 0, 0]	n/a	FR1	2	R1350D
776.656	1.631	777234	WORD	n/a	n/a	WAND	8	3	[0, 0, 0]	n/a	FR1	2	R1350D
778.287	1.06	778865	WORD_OFF	n/a	n/a	WAND	8	3	[0, 0, 0]	n/a	FR1	2	R1350D
779.347	1.623	779925	WORD	n/a	n/a	MOUTH	9	3	[0, 0, 0]	n/a	FR1	2	R1350D
780.97	0.885	781548	WORD_OFF	n/a	n/a	MOUTH	9	3	[0, 0, 0]	n/a	FR1	2	R1350D
781.855	1.616	782433	WORD	n/a	n/a	APE	10	3	[0, 0, 0]	n/a	FR1	2	R1350D
783.471	1.058	784049	WORD_OFF	n/a	n/a	APE	10	3	[0, 0, 0]	n/a	FR1	2	R1350D
784.529	1.626	785107	WORD	n/a	n/a	RUG	11	3	[0, 0, 0]	n/a	FR1	2	R1350D
786.155	0.935	786732	WORD_OFF	n/a	n/a	RUG	11	3	[0, 0, 0]	n/a	FR1	2	R1350D
787.09	1.631	787667	WORD	n/a	n/a	BRANCH	12	3	[0, 0, 0]	n/a	FR1	2	R1350D
788.721	0.001	789298	WORD_OFF	n/a	n/a	BRANCH	12	3	[0, 0, 0]	n/a	FR1	2	R1350D
788.722	0.0	789299	ENCODING_END	n/a	n/a	n/a	-999	3	[0, 0, 0]	n/a	FR1	2	R1350D
788.722	0.0	789299	DISTRACT_START	n/a	n/a	n/a	-999	3	[0, 0, 0]	n/a	FR1	2	R1350D
788.722	0.016	789299	START	n/a	n/a	n/a	-999	3	[-999, -999, -999]	n/a	FR1	2	R1350D
788.738	6.334	789315	PROB	6.334	n/a	n/a	-999	3	[9, 8, 9]	25	FR1	2	R1350D
795.072	3.068	795649	PROB	3.068	n/a	n/a	-999	3	[6, 5, 5]	16	FR1	2	R1350D
798.14	3.184	798717	PROB	3.184	n/a	n/a	-999	3	[9, 4, 2]	14	FR1	2	R1350D
801.324	3.683	801901	PROB	3.683	n/a	n/a	-999	3	[3, 8, 9]	20	FR1	2	R1350D
805.007	3.518	805583	PROB	3.518	n/a	n/a	-999	3	[3, 9, 4]	16	FR1	2	R1350D
808.525	3.534	809101	PROB	3.534	n/a	n/a	-999	3	[6, 1, 9]	16	FR1	2	R1350D
812.059	0.016	812635	STOP	n/a	n/a	n/a	-999	3	[-999, -999, -999]	n/a	FR1	2	R1350D
812.075	0.613	812651	DISTRACT_END	n/a	n/a	n/a	-999	3	[0, 0, 0]	n/a	FR1	2	R1350D
812.688	1.622	813264	RETRIEVAL_ORIENT_START	n/a	n/a	n/a	-999	3	[0, 0, 0]	n/a	FR1	2	R1350D
814.31	0.0	814886	REC_START	n/a	n/a	n/a	-999	3	[0, 0, 0]	n/a	FR1	2	R1350D
814.31	2.237	814886	RETRIEVAL_ORIENT_END	n/a	n/a	n/a	-999	3	[0, 0, 0]	n/a	FR1	2	R1350D
816.547	1.006	817123	REC_WORD	1.006	n/a	RUG	11	3	[0, 0, 0]	n/a	FR1	2	R1350D
817.553	7.345	818129	REC_WORD	7.345	n/a	APE	10	3	[0, 0, 0]	n/a	FR1	2	R1350D
824.898	1.281	825473	REC_WORD	1.281	n/a	SNAIL	3	3	[0, 0, 0]	n/a	FR1	2	R1350D
826.179	1.139	826754	REC_WORD	1.139	n/a	BIRD	1	3	[0, 0, 0]	n/a	FR1	2	R1350D
827.318	14.808	827893	REC_WORD	14.808	n/a	CLAY	2	3	[0, 0, 0]	n/a	FR1	2	R1350D
842.126	2.197	842701	REC_WORD	2.197	n/a	PEN	4	3	[0, 0, 0]	n/a	FR1	2	R1350D
844.323	0.0	844897	REC_END	n/a	n/a	n/a	-999	3	[0, 0, 0]	n/a	FR1	2	R1350D
844.323	0.017	844897	TRIAL_END	n/a	n/a	n/a	-999	3	[0, 0, 0]	n/a	FR1	2	R1350D
844.34	0.0	844914	WAITING_START	n/a	n/a	n/a	-999	4	[0, 0, 0]	n/a	FR1	2	R1350D
844.34	0.0	844914	TRIAL	n/a	n/a	n/a	-999	4	[0, 0, 0]	n/a	FR1	2	R1350D
844.34	1.658	844914	TRIAL_START	n/a	n/a	n/a	-999	4	[0, 0, 0]	n/a	FR1	2	R1350D
845.998	0.001	846572	WAITING_END	n/a	n/a	n/a	-999	4	[0, 0, 0]	n/a	FR1	2	R1350D
845.999	10.429	846573	COUNTDOWN_START	n/a	n/a	n/a	-999	4	[0, 0, 0]	n/a	FR1	2	R1350D
856.428	0.0	857002	COUNTDOWN_END	n/a	n/a	n/a	-999	4	[0, 0, 0]	n/a	FR1	2	R1350D
856.428	1.139	857002	ORIENT_START	n/a	n/a	n/a	-999	4	[0, 0, 0]	n/a	FR1	2	R1350D
857.567	0.0	858141	ORIENT_END	n/a	n/a	n/a	-999	4	[0, 0, 0]	n/a	FR1	2	R1350D
857.567	1.083	858141	ENCODING_START	n/a	n/a	n/a	-999	4	[0, 0, 0]	n/a	FR1	2	R1350D
858.65	1.635	859224	WORD	n/a	n/a	BRUSH	1	4	[0, 0, 0]	n/a	FR1	2	R1350D
860.285	0.769	860859	WORD_OFF	n/a	n/a	BRUSH	1	4	[0, 0, 0]	n/a	FR1	2	R1350D
861.054	1.631	861628	WORD	n/a	n/a	BLUSH	2	4	[0, 0, 0]	n/a	FR1	2	R1350D
862.685	1.02	863259	WORD_OFF	n/a	n/a	BLUSH	2	4	[0, 0, 0]	n/a	FR1	2	R1350D
863.705	1.631	864278	WORD	n/a	n/a	TENT	3	4	[0, 0, 0]	n/a	FR1	2	R1350D
865.336	0.987	865909	WORD_OFF	n/a	n/a	TENT	3	4	[0, 0, 0]	n/a	FR1	2	R1350D
866.323	1.629	866896	WORD	n/a	n/a	ARK	4	4	[0, 0, 0]	n/a	FR1	2	R1350D
867.952	0.763	868525	WORD_OFF	n/a	n/a	ARK	4	4	[0, 0, 0]	n/a	FR1	2	R1350D
868.715	1.605	869288	WORD	n/a	n/a	BOY	5	4	[0, 0, 0]	n/a	FR1	2	R1350D
870.32	1.034	870893	WORD_OFF	n/a	n/a	BOY	5	4	[0, 0, 0]	n/a	FR1	2	R1350D
871.354	1.632	871927	WORD	n/a	n/a	TOOL	6	4	[0, 0, 0]	n/a	FR1	2	R1350D
872.986	1.139	873559	WORD_OFF	n/a	n/a	TOOL	6	4	[0, 0, 0]	n/a	FR1	2	R1350D
874.125	1.629	874698	WORD	n/a	n/a	FROG	7	4	[0, 0, 0]	n/a	FR1	2	R1350D
875.754	1.004	876327	WORD_OFF	n/a	n/a	FROG	7	4	[0, 0, 0]	n/a	FR1	2	R1350D
876.758	1.63	877331	WORD	n/a	n/a	NAIL	8	4	[0, 0, 0]	n/a	FR1	2	R1350D
878.388	1.087	878961	WORD_OFF	n/a	n/a	NAIL	8	4	[0, 0, 0]	n/a	FR1	2	R1350D
879.475	1.614	880048	WORD	n/a	n/a	POOL	9	4	[0, 0, 0]	n/a	FR1	2	R1350D
881.089	0.919	881662	WORD_OFF	n/a	n/a	POOL	9	4	[0, 0, 0]	n/a	FR1	2	R1350D
882.008	1.631	882581	WORD	n/a	n/a	WEED	10	4	[0, 0, 0]	n/a	FR1	2	R1350D
883.639	0.905	884211	WORD_OFF	n/a	n/a	WEED	10	4	[0, 0, 0]	n/a	FR1	2	R1350D
884.544	1.629	885116	WORD	n/a	n/a	BAT	11	4	[0, 0, 0]	n/a	FR1	2	R1350D
886.173	1.123	886745	WORD_OFF	n/a	n/a	BAT	11	4	[0, 0, 0]	n/a	FR1	2	R1350D
887.296	1.627	887868	WORD	n/a	n/a	CHALK	12	4	[0, 0, 0]	n/a	FR1	2	R1350D
888.923	0.0	889495	WORD_OFF	n/a	n/a	CHALK	12	4	[0, 0, 0]	n/a	FR1	2	R1350D
888.923	0.0	889495	ENCODING_END	n/a	n/a	n/a	-999	4	[0, 0, 0]	n/a	FR1	2	R1350D
888.923	0.0	889495	DISTRACT_START	n/a	n/a	n/a	-999	4	[0, 0, 0]	n/a	FR1	2	R1350D
888.923	0.016	889495	START	n/a	n/a	n/a	-999	4	[-999, -999, -999]	n/a	FR1	2	R1350D
888.939	4.569	889511	PROB	4.569	n/a	n/a	-999	4	[8, 7, 8]	23	FR1	2	R1350D
893.508	3.9	894080	PROB	3.9	n/a	n/a	-999	4	[7, 5, 9]	21	FR1	2	R1350D
897.408	2.55	897980	PROB	2.55	n/a	n/a	-999	4	[9, 2, 1]	12	FR1	2	R1350D
899.958	2.65	900530	PROB	2.65	n/a	n/a	-999	4	[4, 1, 6]	11	FR1	2	R1350D
902.608	5.235	903179	PROB	5.235	n/a	n/a	-999	4	[1, 6, 7]	14	FR1	2	R1350D
907.843	3.709	908414	PROB	3.709	n/a	n/a	-999	4	[7, 3, 8]	18	FR1	2	R1350D
911.552	0.008	912123	STOP	n/a	n/a	n/a	-999	4	[-999, -999, -999]	n/a	FR1	2	R1350D
911.56	0.637	912131	DISTRACT_END	n/a	n/a	n/a	-999	4	[0, 0, 0]	n/a	FR1	2	R1350D
912.197	1.58	912768	RETRIEVAL_ORIENT_START	n/a	n/a	n/a	-999	4	[0, 0, 0]	n/a	FR1	2	R1350D
913.777	0.0	914348	RETRIEVAL_ORIENT_END	n/a	n/a	n/a	-999	4	[0, 0, 0]	n/a	FR1	2	R1350D
913.777	3.329	914348	REC_START	n/a	n/a	n/a	-999	4	[0, 0, 0]	n/a	FR1	2	R1350D
917.106	6.922	917677	REC_WORD_VV	6.922	n/a	<>	-999	4	[0, 0, 0]	n/a	FR1	2	R1350D
924.028	1.052	924598	REC_WORD	1.052	n/a	NAIL	8	4	[0, 0, 0]	n/a	FR1	2	R1350D
925.08	7.762	925650	REC_WORD	7.762	n/a	POOL	9	4	[0, 0, 0]	n/a	FR1	2	R1350D
932.842	0.523	933412	REC_WORD_VV	0.523	n/a	<>	-999	4	[0, 0, 0]	n/a	FR1	2	R1350D
933.365	0.363	933935	REC_WORD	0.363	n/a	RUG	-999	4	[0, 0, 0]	n/a	FR1	2	R1350D
933.728	10.062	934298	REC_WORD	10.062	n/a	APE	-999	4	[0, 0, 0]	n/a	FR1	2	R1350D
943.79	0.0	944359	REC_END	n/a	n/a	n/a	-999	4	[0, 0, 0]	n/a	FR1	2	R1350D
943.79	0.017	944359	TRIAL_END	n/a	n/a	n/a	-999	4	[0, 0, 0]	n/a	FR1	2	R1350D
943.807	0.0	944376	TRIAL	n/a	n/a	n/a	-999	5	[0, 0, 0]	n/a	FR1	2	R1350D
943.807	0.001	944376	TRIAL_START	n/a	n/a	n/a	-999	5	[0, 0, 0]	n/a	FR1	2	R1350D
943.808	1.858	944377	WAITING_START	n/a	n/a	n/a	-999	5	[0, 0, 0]	n/a	FR1	2	R1350D
945.666	0.001	946235	WAITING_END	n/a	n/a	n/a	-999	5	[0, 0, 0]	n/a	FR1	2	R1350D
945.667	10.429	946236	COUNTDOWN_START	n/a	n/a	n/a	-999	5	[0, 0, 0]	n/a	FR1	2	R1350D
956.096	0.001	956665	COUNTDOWN_END	n/a	n/a	n/a	-999	5	[0, 0, 0]	n/a	FR1	2	R1350D
956.097	1.056	956666	ORIENT_START	n/a	n/a	n/a	-999	5	[0, 0, 0]	n/a	FR1	2	R1350D
957.153	0.0	957722	ORIENT_END	n/a	n/a	n/a	-999	5	[0, 0, 0]	n/a	FR1	2	R1350D
957.153	0.9	957722	ENCODING_START	n/a	n/a	n/a	-999	5	[0, 0, 0]	n/a	FR1	2	R1350D
958.053	1.633	958622	WORD	n/a	n/a	CHEEK	1	5	[0, 0, 0]	n/a	FR1	2	R1350D
959.686	0.976	960255	WORD_OFF	n/a	n/a	CHEEK	1	5	[0, 0, 0]	n/a	FR1	2	R1350D
960.662	1.625	961230	WORD	n/a	n/a	SIGN	2	5	[0, 0, 0]	n/a	FR1	2	R1350D
962.287	1.073	962855	WORD_OFF	n/a	n/a	SIGN	2	5	[0, 0, 0]	n/a	FR1	2	R1350D
963.36	1.627	963928	WORD	n/a	n/a	LAND	3	5	[0, 0, 0]	n/a	FR1	2	R1350D
964.987	1.115	965555	WORD_OFF	n/a	n/a	LAND	3	5	[0, 0, 0]	n/a	FR1	2	R1350D
966.102	1.635	966670	WORD	n/a	n/a	POND	4	5	[0, 0, 0]	n/a	FR1	2	R1350D
967.737	1.118	968305	WORD_OFF	n/a	n/a	POND	4	5	[0, 0, 0]	n/a	FR1	2	R1350D
968.855	1.634	969423	WORD	n/a	n/a	STOVE	5	5	[0, 0, 0]	n/a	FR1	2	R1350D
970.489	1.013	971057	WORD_OFF	n/a	n/a	STOVE	5	5	[0, 0, 0]	n/a	FR1	2	R1350D
971.502	1.637	972070	WORD	n/a	n/a	BEAK	6	5	[0, 0, 0]	n/a	FR1	2	R1350D
973.139	0.793	973707	WORD_OFF	n/a	n/a	BEAK	6	5	[0, 0, 0]	n/a	FR1	2	R1350D
973.932	1.623	974500	WORD	n/a	n/a	PLATE	7	5	[0, 0, 0]	n/a	FR1	2	R1350D
975.555	1.144	976123	WORD_OFF	n/a	n/a	PLATE	7	5	[0, 0, 0]	n/a	FR1	2	R1350D
976.699	1.624	977267	WORD	n/a	n/a	FOOD	8	5	[0, 0, 0]	n/a	FR1	2	R1350D
978.323	0.755	978891	WORD_OFF	n/a	n/a	FOOD	8	5	[0, 0, 0]	n/a	FR1	2	R1350D
979.078	1.628	979646	WORD	n/a	n/a	BEAN	9	5	[0, 0, 0]	n/a	FR1	2	R1350D
980.706	0.965	981273	WORD_OFF	n/a	n/a	BEAN	9	5	[0, 0, 0]	n/a	FR1	2	R1350D
981.671	1.62	982238	WORD	n/a	n/a	PIT	10	5	[0, 0, 0]	n/a	FR1	2	R1350D
983.291	1.149	983858	WORD_OFF	n/a	n/a	PIT	10	5	[0, 0, 0]	n/a	FR1	2	R1350D
984.44	1.634	985007	WORD	n/a	n/a	COUCH	11	5	[0, 0, 0]	n/a	FR1	2	R1350D
986.074	1.01	986641	WORD_OFF	n/a	n/a	COUCH	11	5	[0, 0, 0]	n/a	FR1	2	R1350D
987.084	1.624	987651	WORD	n/a	n/a	ELF	12	5	[0, 0, 0]	n/a	FR1	2	R1350D
988.708	0.0	989275	WORD_OFF	n/a	n/a	ELF	12	5	[0, 0, 0]	n/a	FR1	2	R1350D
988.708	0.0	989275	ENCODING_END	n/a	n/a	n/a	-999	5	[0, 0, 0]	n/a	FR1	2	R1350D
988.708	0.0	989275	DISTRACT_START	n/a	n/a	n/a	-999	5	[0, 0, 0]	n/a	FR1	2	R1350D
988.708	0.016	989275	START	n/a	n/a	n/a	-999	5	[-999, -999, -999]	n/a	FR1	2	R1350D
988.724	4.602	989291	PROB	4.602	n/a	n/a	-999	5	[2, 4, 4]	10	FR1	2	R1350D
993.326	2.85	993893	PROB	2.85	n/a	n/a	-999	5	[9, 5, 5]	19	FR1	2	R1350D
996.176	3.417	996743	PROB	3.417	n/a	n/a	-999	5	[8, 6, 2]	16	FR1	2	R1350D
999.593	3.635	1000159	PROB	3.635	n/a	n/a	-999	5	[9, 7, 3]	19	FR1	2	R1350D
1003.228	3.649	1003794	PROB	3.649	n/a	n/a	-999	5	[8, 3, 4]	15	FR1	2	R1350D
1006.877	3.97	1007443	PROB	3.97	n/a	n/a	-999	5	[9, 4, 2]	15	FR1	2	R1350D
1010.847	0.015	1011413	STOP	n/a	n/a	n/a	-999	5	[-999, -999, -999]	n/a	FR1	2	R1350D
1010.862	0.67	1011428	DISTRACT_END	n/a	n/a	n/a	-999	5	[0, 0, 0]	n/a	FR1	2	R1350D
1011.532	1.698	1012098	RETRIEVAL_ORIENT_START	n/a	n/a	n/a	-999	5	[0, 0, 0]	n/a	FR1	2	R1350D
1013.23	0.0	1013796	RETRIEVAL_ORIENT_END	n/a	n/a	n/a	-999	5	[0, 0, 0]	n/a	FR1	2	R1350D
1013.23	5.95	1013796	REC_START	n/a	n/a	n/a	-999	5	[0, 0, 0]	n/a	FR1	2	R1350D
1019.18	24.064	1019745	REC_WORD_VV	24.064	n/a	<>	-999	5	[0, 0, 0]	n/a	FR1	2	R1350D
1043.244	0.0	1043808	REC_END	n/a	n/a	n/a	-999	5	[0, 0, 0]	n/a	FR1	2	R1350D
1043.244	0.016	1043808	TRIAL_END	n/a	n/a	n/a	-999	5	[0, 0, 0]	n/a	FR1	2	R1350D
1043.26	0.0	1043824	TRIAL_START	n/a	n/a	n/a	-999	6	[0, 0, 0]	n/a	FR1	2	R1350D
1043.26	0.0	1043824	TRIAL	n/a	n/a	n/a	-999	6	[0, 0, 0]	n/a	FR1	2	R1350D
1043.26	1.892	1043824	WAITING_START	n/a	n/a	n/a	-999	6	[0, 0, 0]	n/a	FR1	2	R1350D
1045.152	0.001	1045716	WAITING_END	n/a	n/a	n/a	-999	6	[0, 0, 0]	n/a	FR1	2	R1350D
1045.153	10.429	1045717	COUNTDOWN_START	n/a	n/a	n/a	-999	6	[0, 0, 0]	n/a	FR1	2	R1350D
1055.582	0.001	1056146	COUNTDOWN_END	n/a	n/a	n/a	-999	6	[0, 0, 0]	n/a	FR1	2	R1350D
1055.583	1.237	1056147	ORIENT_START	n/a	n/a	n/a	-999	6	[0, 0, 0]	n/a	FR1	2	R1350D
1056.82	0.001	1057384	ORIENT_END	n/a	n/a	n/a	-999	6	[0, 0, 0]	n/a	FR1	2	R1350D
1056.821	1.073	1057385	ENCODING_START	n/a	n/a	n/a	-999	6	[0, 0, 0]	n/a	FR1	2	R1350D
1057.894	1.611	1058457	WORD	n/a	n/a	LAWN	1	6	[0, 0, 0]	n/a	FR1	2	R1350D
1059.505	0.757	1060068	WORD_OFF	n/a	n/a	LAWN	1	6	[0, 0, 0]	n/a	FR1	2	R1350D
1060.262	1.625	1060825	WORD	n/a	n/a	SMOKE	2	6	[0, 0, 0]	n/a	FR1	2	R1350D
1061.887	0.914	1062450	WORD_OFF	n/a	n/a	SMOKE	2	6	[0, 0, 0]	n/a	FR1	2	R1350D
1062.801	1.621	1063364	WORD	n/a	n/a	BOARD	3	6	[0, 0, 0]	n/a	FR1	2	R1350D
1064.422	0.787	1064985	WORD_OFF	n/a	n/a	BOARD	3	6	[0, 0, 0]	n/a	FR1	2	R1350D
1065.209	1.629	1065772	WORD	n/a	n/a	TANK	4	6	[0, 0, 0]	n/a	FR1	2	R1350D
1066.838	0.976	1067401	WORD_OFF	n/a	n/a	TANK	4	6	[0, 0, 0]	n/a	FR1	2	R1350D
1067.814	1.609	1068377	WORD	n/a	n/a	BATH	5	6	[0, 0, 0]	n/a	FR1	2	R1350D
1069.423	0.875	1069986	WORD_OFF	n/a	n/a	BATH	5	6	[0, 0, 0]	n/a	FR1	2	R1350D
1070.298	1.625	1070861	WORD	n/a	n/a	SQUARE	6	6	[0, 0, 0]	n/a	FR1	2	R1350D
1071.923	1.051	1072486	WORD_OFF	n/a	n/a	SQUARE	6	6	[0, 0, 0]	n/a	FR1	2	R1350D
1072.974	1.633	1073537	WORD	n/a	n/a	SHEEP	7	6	[0, 0, 0]	n/a	FR1	2	R1350D
1074.607	1.132	1075170	WORD_OFF	n/a	n/a	SHEEP	7	6	[0, 0, 0]	n/a	FR1	2	R1350D
1075.739	1.636	1076302	WORD	n/a	n/a	FLEA	8	6	[0, 0, 0]	n/a	FR1	2	R1350D
1077.375	0.756	1077937	WORD_OFF	n/a	n/a	FLEA	8	6	[0, 0, 0]	n/a	FR1	2	R1350D
1078.131	1.627	1078693	WORD	n/a	n/a	CHIN	9	6	[0, 0, 0]	n/a	FR1	2	R1350D
1079.758	1.052	1080320	WORD_OFF	n/a	n/a	CHIN	9	6	[0, 0, 0]	n/a	FR1	2	R1350D
1080.81	1.615	1081372	WORD	n/a	n/a	CANE	10	6	[0, 0, 0]	n/a	FR1	2	R1350D
1082.425	1.07	1082987	WORD_OFF	n/a	n/a	CANE	10	6	[0, 0, 0]	n/a	FR1	2	R1350D
1083.495	1.631	1084057	WORD	n/a	n/a	ROOT	11	6	[0, 0, 0]	n/a	FR1	2	R1350D
1085.126	0.992	1085688	WORD_OFF	n/a	n/a	ROOT	11	6	[0, 0, 0]	n/a	FR1	2	R1350D
1086.118	1.624	1086680	WORD	n/a	n/a	CUP	12	6	[0, 0, 0]	n/a	FR1	2	R1350D
1087.742	0.001	1088304	WORD_OFF	n/a	n/a	CUP	12	6	[0, 0, 0]	n/a	FR1	2	R1350D
1087.743	0.0	1088305	ENCODING_END	n/a	n/a	n/a	-999	6	[0, 0, 0]	n/a	FR1	2	R1350D
1087.743	0.0	1088305	DISTRACT_START	n/a	n/a	n/a	-999	6	[0, 0, 0]	n/a	FR1	2	R1350D
1087.743	0.016	1088305	START	n/a	n/a	n/a	-999	6	[-999, -999, -999]	n/a	FR1	2	R1350D
1087.759	3.834	1088321	PROB	3.834	n/a	n/a	-999	6	[5, 6, 7]	18	FR1	2	R1350D
1091.593	4.067	1092155	PROB	4.067	n/a	n/a	-999	6	[8, 6, 2]	16	FR1	2	R1350D
1095.66	3.502	1096222	PROB	3.502	n/a	n/a	-999	6	[3, 7, 6]	16	FR1	2	R1350D
1099.162	3.267	1099723	PROB	3.267	n/a	n/a	-999	6	[8, 3, 4]	15	FR1	2	R1350D
1102.429	2.934	1102990	PROB	2.934	n/a	n/a	-999	6	[3, 5, 1]	9	FR1	2	R1350D
1105.363	2.402	1105924	PROB	2.402	n/a	n/a	-999	6	[4, 5, 2]	11	FR1	2	R1350D
1107.765	0.014	1108326	STOP	n/a	n/a	n/a	-999	6	[-999, -999, -999]	n/a	FR1	2	R1350D
1107.779	0.578	1108340	DISTRACT_END	n/a	n/a	n/a	-999	6	[0, 0, 0]	n/a	FR1	2	R1350D
1108.357	1.589	1108918	RETRIEVAL_ORIENT_START	n/a	n/a	n/a	-999	6	[0, 0, 0]	n/a	FR1	2	R1350D
1109.946	0.001	1110507	RETRIEVAL_ORIENT_END	n/a	n/a	n/a	-999	6	[0, 0, 0]	n/a	FR1	2	R1350D
1109.947	2.415	1110508	REC_START	n/a	n/a	n/a	-999	6	[0, 0, 0]	n/a	FR1	2	R1350D
1112.362	0.442	1112923	REC_WORD_VV	0.442	n/a	<>	-999	6	[0, 0, 0]	n/a	FR1	2	R1350D
1112.804	1.367	1113365	REC_WORD	1.367	n/a	SHEEP	7	6	[0, 0, 0]	n/a	FR1	2	R1350D
1114.171	2.301	1114732	REC_WORD	2.301	n/a	SQUARE	6	6	[0, 0, 0]	n/a	FR1	2	R1350D
1116.472	23.488	1117032	REC_WORD	23.488	n/a	FLEA	8	6	[0, 0, 0]	n/a	FR1	2	R1350D
1139.96	0.001	1140519	REC_END	n/a	n/a	n/a	-999	6	[0, 0, 0]	n/a	FR1	2	R1350D
1139.961	0.014	1140520	TRIAL_END	n/a	n/a	n/a	-999	6	[0, 0, 0]	n/a	FR1	2	R1350D
1139.975	0.0	1140534	TRIAL_START	n/a	n/a	n/a	-999	7	[0, 0, 0]	n/a	FR1	2	R1350D
1139.975	0.0	1140534	TRIAL	n/a	n/a	n/a	-999	7	[0, 0, 0]	n/a	FR1	2	R1350D
1139.975	1.56	1140534	WAITING_START	n/a	n/a	n/a	-999	7	[0, 0, 0]	n/a	FR1	2	R1350D
1141.535	0.001	1142094	WAITING_END	n/a	n/a	n/a	-999	7	[0, 0, 0]	n/a	FR1	2	R1350D
1141.536	10.428	1142095	COUNTDOWN_START	n/a	n/a	n/a	-999	7	[0, 0, 0]	n/a	FR1	2	R1350D
1151.964	0.001	1152523	COUNTDOWN_END	n/a	n/a	n/a	-999	7	[0, 0, 0]	n/a	FR1	2	R1350D
1151.965	1.14	1152524	ORIENT_START	n/a	n/a	n/a	-999	7	[0, 0, 0]	n/a	FR1	2	R1350D
1153.105	0.001	1153664	ORIENT_END	n/a	n/a	n/a	-999	7	[0, 0, 0]	n/a	FR1	2	R1350D
1153.106	1.083	1153665	ENCODING_START	n/a	n/a	n/a	-999	7	[0, 0, 0]	n/a	FR1	2	R1350D
1154.189	1.633	1154748	WORD	n/a	n/a	SKY	1	7	[0, 0, 0]	n/a	FR1	2	R1350D
1155.822	0.892	1156380	WORD_OFF	n/a	n/a	SKY	1	7	[0, 0, 0]	n/a	FR1	2	R1350D
1156.714	1.609	1157272	WORD	n/a	n/a	FAN	2	7	[0, 0, 0]	n/a	FR1	2	R1350D
1158.323	1.052	1158881	WORD_OFF	n/a	n/a	FAN	2	7	[0, 0, 0]	n/a	FR1	2	R1350D
1159.375	1.631	1159933	WORD	n/a	n/a	THREAD	3	7	[0, 0, 0]	n/a	FR1	2	R1350D
1161.006	1.101	1161564	WORD_OFF	n/a	n/a	THREAD	3	7	[0, 0, 0]	n/a	FR1	2	R1350D
1162.107	1.633	1162665	WORD	n/a	n/a	FOAM	4	7	[0, 0, 0]	n/a	FR1	2	R1350D
1163.74	1.131	1164298	WORD_OFF	n/a	n/a	FOAM	4	7	[0, 0, 0]	n/a	FR1	2	R1350D
1164.871	1.637	1165429	WORD	n/a	n/a	BOX	5	7	[0, 0, 0]	n/a	FR1	2	R1350D
1166.508	0.973	1167066	WORD_OFF	n/a	n/a	BOX	5	7	[0, 0, 0]	n/a	FR1	2	R1350D
1167.481	1.627	1168039	WORD	n/a	n/a	GATE	6	7	[0, 0, 0]	n/a	FR1	2	R1350D
1169.108	0.759	1169666	WORD_OFF	n/a	n/a	GATE	6	7	[0, 0, 0]	n/a	FR1	2	R1350D
1169.867	1.625	1170425	WORD	n/a	n/a	SEAL	7	7	[0, 0, 0]	n/a	FR1	2	R1350D
1171.492	1.019	1172050	WORD_OFF	n/a	n/a	SEAL	7	7	[0, 0, 0]	n/a	FR1	2	R1350D
1172.511	1.631	1173069	WORD	n/a	n/a	STOOL	8	7	[0, 0, 0]	n/a	FR1	2	R1350D
1174.142	0.904	1174699	WORD_OFF	n/a	n/a	STOOL	8	7	[0, 0, 0]	n/a	FR1	2	R1350D
1175.046	1.629	1175603	WORD	n/a	n/a	BLOOM	9	7	[0, 0, 0]	n/a	FR1	2	R1350D
1176.675	0.847	1177232	WORD_OFF	n/a	n/a	BLOOM	9	7	[0, 0, 0]	n/a	FR1	2	R1350D
1177.522	1.621	1178079	WORD	n/a	n/a	JUDGE	10	7	[0, 0, 0]	n/a	FR1	2	R1350D
1179.143	0.77	1179700	WORD_OFF	n/a	n/a	JUDGE	10	7	[0, 0, 0]	n/a	FR1	2	R1350D
1179.913	1.63	1180470	WORD	n/a	n/a	DESK	11	7	[0, 0, 0]	n/a	FR1	2	R1350D
1181.543	1.043	1182100	WORD_OFF	n/a	n/a	DESK	11	7	[0, 0, 0]	n/a	FR1	2	R1350D
1182.586	1.625	1183143	WORD	n/a	n/a	MOON	12	7	[0, 0, 0]	n/a	FR1	2	R1350D
1184.211	0.0	1184768	WORD_OFF	n/a	n/a	MOON	12	7	[0, 0, 0]	n/a	FR1	2	R1350D
1184.211	0.001	1184768	ENCODING_END	n/a	n/a	n/a	-999	7	[0, 0, 0]	n/a	FR1	2	R1350D
1184.212	0.0	1184769	DISTRACT_START	n/a	n/a	n/a	-999	7	[0, 0, 0]	n/a	FR1	2	R1350D
1184.212	0.015	1184769	START	n/a	n/a	n/a	-999	7	[-999, -999, -999]	n/a	FR1	2	R1350D
1184.227	3.733	1184784	PROB	3.733	n/a	n/a	-999	7	[2, 2, 3]	7	FR1	2	R1350D
1187.96	2.734	1188517	PROB	2.734	n/a	n/a	-999	7	[3, 9, 9]	21	FR1	2	R1350D
1190.694	3.785	1191251	PROB	3.785	n/a	n/a	-999	7	[6, 3, 8]	17	FR1	2	R1350D
1194.479	3.583	1195035	PROB	3.583	n/a	n/a	-999	7	[2, 6, 9]	16	FR1	2	R1350D
1198.062	4.235	1198618	PROB	4.235	n/a	n/a	-999	7	[5, 6, 6]	17	FR1	2	R1350D
1202.297	3.094	1202853	PROB	3.094	n/a	n/a	-999	7	[8, 2, 8]	18	FR1	2	R1350D
1205.391	0.007	1205947	STOP	n/a	n/a	n/a	-999	7	[-999, -999, -999]	n/a	FR1	2	R1350D
1205.398	0.687	1205954	DISTRACT_END	n/a	n/a	n/a	-999	7	[0, 0, 0]	n/a	FR1	2	R1350D
1206.085	1.629	1206641	RETRIEVAL_ORIENT_START	n/a	n/a	n/a	-999	7	[0, 0, 0]	n/a	FR1	2	R1350D
1207.714	0.001	1208270	RETRIEVAL_ORIENT_END	n/a	n/a	n/a	-999	7	[0, 0, 0]	n/a	FR1	2	R1350D
1207.715	7.847	1208271	REC_START	n/a	n/a	n/a	-999	7	[0, 0, 0]	n/a	FR1	2	R1350D
1215.562	1.736	1216117	REC_WORD	1.736	n/a	SKY	1	7	[0, 0, 0]	n/a	FR1	2	R1350D
1217.298	2.385	1217853	REC_WORD	2.385	n/a	FAN	2	7	[0, 0, 0]	n/a	FR1	2	R1350D
1219.683	2.039	1220238	REC_WORD	2.039	n/a	THREAD	3	7	[0, 0, 0]	n/a	FR1	2	R1350D
1221.722	3.466	1222277	REC_WORD	3.466	n/a	BOX	5	7	[0, 0, 0]	n/a	FR1	2	R1350D
1225.188	4.767	1225743	REC_WORD_VV	4.767	n/a	<>	-999	7	[0, 0, 0]	n/a	FR1	2	R1350D
1229.955	7.772	1230510	REC_WORD_VV	7.772	n/a	<>	-999	7	[0, 0, 0]	n/a	FR1	2	R1350D
1237.727	0.0	1238281	REC_END	n/a	n/a	n/a	-999	7	[0, 0, 0]	n/a	FR1	2	R1350D
1237.727	0.014	1238281	TRIAL_END	n/a	n/a	n/a	-999	7	[0, 0, 0]	n/a	FR1	2	R1350D
1237.741	0.001	1238295	TRIAL_START	n/a	n/a	n/a	-999	8	[0, 0, 0]	n/a	FR1	2	R1350D
1237.742	0.0	1238296	TRIAL	n/a	n/a	n/a	-999	8	[0, 0, 0]	n/a	FR1	2	R1350D
1237.742	106.615	1238296	WAITING_START	n/a	n/a	n/a	-999	8	[0, 0, 0]	n/a	FR1	2	R1350D
1344.357	0.0	1344906	WAITING_END	n/a	n/a	n/a	-999	8	[0, 0, 0]	n/a	FR1	2	R1350D
1344.357	10.428	1344906	COUNTDOWN_START	n/a	n/a	n/a	-999	8	[0, 0, 0]	n/a	FR1	2	R1350D
1354.785	0.0	1355333	COUNTDOWN_END	n/a	n/a	n/a	-999	8	[0, 0, 0]	n/a	FR1	2	R1350D
1354.785	1.173	1355333	ORIENT_START	n/a	n/a	n/a	-999	8	[0, 0, 0]	n/a	FR1	2	R1350D
1355.958	0.0	1356506	ENCODING_START	n/a	n/a	n/a	-999	8	[0, 0, 0]	n/a	FR1	2	R1350D
1355.958	1.075	1356506	ORIENT_END	n/a	n/a	n/a	-999	8	[0, 0, 0]	n/a	FR1	2	R1350D
1357.033	1.625	1357581	WORD	n/a	n/a	CORD	1	8	[0, 0, 0]	n/a	FR1	2	R1350D
1358.658	0.759	1359206	WORD_OFF	n/a	n/a	CORD	1	8	[0, 0, 0]	n/a	FR1	2	R1350D
1359.417	1.625	1359965	WORD	n/a	n/a	FRUIT	2	8	[0, 0, 0]	n/a	FR1	2	R1350D
1361.042	0.945	1361590	WORD_OFF	n/a	n/a	FRUIT	2	8	[0, 0, 0]	n/a	FR1	2	R1350D
1361.987	1.622	1362535	WORD	n/a	n/a	SEA	3	8	[0, 0, 0]	n/a	FR1	2	R1350D
1363.609	0.87	1364157	WORD_OFF	n/a	n/a	SEA	3	8	[0, 0, 0]	n/a	FR1	2	R1350D
1364.479	1.632	1365027	WORD	n/a	n/a	CONE	4	8	[0, 0, 0]	n/a	FR1	2	R1350D
1366.111	1.047	1366659	WORD_OFF	n/a	n/a	CONE	4	8	[0, 0, 0]	n/a	FR1	2	R1350D
1367.158	1.636	1367706	WORD	n/a	n/a	LEAF	5	8	[0, 0, 0]	n/a	FR1	2	R1350D
1368.794	1.095	1369341	WORD_OFF	n/a	n/a	LEAF	5	8	[0, 0, 0]	n/a	FR1	2	R1350D
1369.889	1.623	1370436	WORD	n/a	n/a	STAIR	6	8	[0, 0, 0]	n/a	FR1	2	R1350D
1371.512	1.148	1372059	WORD_OFF	n/a	n/a	STAIR	6	8	[0, 0, 0]	n/a	FR1	2	R1350D
1372.66	1.619	1373207	WORD	n/a	n/a	SHIP	7	8	[0, 0, 0]	n/a	FR1	2	R1350D
1374.279	0.76	1374826	WORD_OFF	n/a	n/a	SHIP	7	8	[0, 0, 0]	n/a	FR1	2	R1350D
1375.039	1.623	1375586	WORD	n/a	n/a	THUMB	8	8	[0, 0, 0]	n/a	FR1	2	R1350D
1376.662	1.137	1377209	WORD_OFF	n/a	n/a	THUMB	8	8	[0, 0, 0]	n/a	FR1	2	R1350D
1377.799	1.631	1378346	WORD	n/a	n/a	CORN	9	8	[0, 0, 0]	n/a	FR1	2	R1350D
1379.43	1.057	1379977	WORD_OFF	n/a	n/a	CORN	9	8	[0, 0, 0]	n/a	FR1	2	R1350D
1380.487	1.627	1381034	WORD	n/a	n/a	CLIFF	10	8	[0, 0, 0]	n/a	FR1	2	R1350D
1382.114	0.857	1382661	WORD_OFF	n/a	n/a	CLIFF	10	8	[0, 0, 0]	n/a	FR1	2	R1350D
1382.971	1.626	1383518	WORD	n/a	n/a	OAR	11	8	[0, 0, 0]	n/a	FR1	2	R1350D
1384.597	1.092	1385144	WORD_OFF	n/a	n/a	OAR	11	8	[0, 0, 0]	n/a	FR1	2	R1350D
1385.689	1.626	1386236	WORD	n/a	n/a	JUICE	12	8	[0, 0, 0]	n/a	FR1	2	R1350D
1387.315	0.0	1387862	WORD_OFF	n/a	n/a	JUICE	12	8	[0, 0, 0]	n/a	FR1	2	R1350D
1387.315	0.001	1387862	ENCODING_END	n/a	n/a	n/a	-999	8	[0, 0, 0]	n/a	FR1	2	R1350D
1387.316	0.0	1387863	DISTRACT_START	n/a	n/a	n/a	-999	8	[0, 0, 0]	n/a	FR1	2	R1350D
1387.316	0.015	1387863	START	n/a	n/a	n/a	-999	8	[-999, -999, -999]	n/a	FR1	2	R1350D
1387.331	4.583	1387878	PROB	4.583	n/a	n/a	-999	8	[1, 5, 6]	12	FR1	2	R1350D
1391.914	3.818	1392460	PROB	3.818	n/a	n/a	-999	8	[6, 5, 9]	20	FR1	2	R1350D
1395.732	2.834	1396278	PROB	2.834	n/a	n/a	-999	8	[1, 5, 4]	10	FR1	2	R1350D
1398.566	3.868	1399112	PROB	3.868	n/a	n/a	-999	8	[5, 6, 4]	15	FR1	2	R1350D
1402.434	3.084	1402980	PROB	3.084	n/a	n/a	-999	8	[9, 2, 2]	13	FR1	2	R1350D
1405.518	3.44	1406064	PROB	3.44	n/a	n/a	-999	8	[5, 7, 8]	20	FR1	2	R1350D
1408.958	0.01	1409503	STOP	n/a	n/a	n/a	-999	8	[-999, -999, -999]	n/a	FR1	2	R1350D
1408.968	0.562	1409513	DISTRACT_END	n/a	n/a	n/a	-999	8	[0, 0, 0]	n/a	FR1	2	R1350D
1409.53	1.556	1410075	RETRIEVAL_ORIENT_START	n/a	n/a	n/a	-999	8	[0, 0, 0]	n/a	FR1	2	R1350D
1411.086	0.0	1411631	RETRIEVAL_ORIENT_END	n/a	n/a	n/a	-999	8	[0, 0, 0]	n/a	FR1	2	R1350D
1411.086	4.932	1411631	REC_START	n/a	n/a	n/a	-999	8	[0, 0, 0]	n/a	FR1	2	R1350D
1416.018	0.715	1416563	REC_WORD_VV	0.715	n/a	<>	-999	8	[0, 0, 0]	n/a	FR1	2	R1350D
1416.733	1.421	1417278	REC_WORD	1.421	n/a	OAR	11	8	[0, 0, 0]	n/a	FR1	2	R1350D
1418.154	1.577	1418699	REC_WORD	1.577	n/a	JUICE	12	8	[0, 0, 0]	n/a	FR1	2	R1350D
1419.731	21.368	1420276	REC_WORD	21.368	n/a	THUMB	8	8	[0, 0, 0]	n/a	FR1	2	R1350D
1441.099	0.0	1441643	REC_END	n/a	n/a	n/a	-999	8	[0, 0, 0]	n/a	FR1	2	R1350D
1441.099	0.014	1441643	TRIAL_END	n/a	n/a	n/a	-999	8	[0, 0, 0]	n/a	FR1	2	R1350D
1441.113	0.0	1441657	TRIAL_START	n/a	n/a	n/a	-999	9	[0, 0, 0]	n/a	FR1	2	R1350D
1441.113	0.0	1441657	TRIAL	n/a	n/a	n/a	-999	9	[0, 0, 0]	n/a	FR1	2	R1350D
1441.113	1.928	1441657	WAITING_START	n/a	n/a	n/a	-999	9	[0, 0, 0]	n/a	FR1	2	R1350D
1443.041	0.0	1443585	WAITING_END	n/a	n/a	n/a	-999	9	[0, 0, 0]	n/a	FR1	2	R1350D
1443.041	10.428	1443585	COUNTDOWN_START	n/a	n/a	n/a	-999	9	[0, 0, 0]	n/a	FR1	2	R1350D
1453.469	0.0	1454012	COUNTDOWN_END	n/a	n/a	n/a	-999	9	[0, 0, 0]	n/a	FR1	2	R1350D
1453.469	1.207	1454012	ORIENT_START	n/a	n/a	n/a	-999	9	[0, 0, 0]	n/a	FR1	2	R1350D
1454.676	0.0	1455219	ENCODING_START	n/a	n/a	n/a	-999	9	[0, 0, 0]	n/a	FR1	2	R1350D
1454.676	1.084	1455219	ORIENT_END	n/a	n/a	n/a	-999	9	[0, 0, 0]	n/a	FR1	2	R1350D
1455.76	1.618	1456303	WORD	n/a	n/a	TOE	1	9	[0, 0, 0]	n/a	FR1	2	R1350D
1457.378	1.007	1457921	WORD_OFF	n/a	n/a	TOE	1	9	[0, 0, 0]	n/a	FR1	2	R1350D
1458.385	1.625	1458928	WORD	n/a	n/a	BOOK	2	9	[0, 0, 0]	n/a	FR1	2	R1350D
1460.01	0.83	1460553	WORD_OFF	n/a	n/a	BOOK	2	9	[0, 0, 0]	n/a	FR1	2	R1350D
1460.84	1.638	1461383	WORD	n/a	n/a	LOCK	3	9	[0, 0, 0]	n/a	FR1	2	R1350D
1462.478	0.888	1463021	WORD_OFF	n/a	n/a	LOCK	3	9	[0, 0, 0]	n/a	FR1	2	R1350D
1463.366	1.629	1463909	WORD	n/a	n/a	RICE	4	9	[0, 0, 0]	n/a	FR1	2	R1350D
1464.995	0.955	1465538	WORD_OFF	n/a	n/a	RICE	4	9	[0, 0, 0]	n/a	FR1	2	R1350D
1465.95	1.628	1466492	WORD	n/a	n/a	TOY	5	9	[0, 0, 0]	n/a	FR1	2	R1350D
1467.578	0.776	1468120	WORD_OFF	n/a	n/a	TOY	5	9	[0, 0, 0]	n/a	FR1	2	R1350D
1468.354	1.625	1468896	WORD	n/a	n/a	GLOVE	6	9	[0, 0, 0]	n/a	FR1	2	R1350D
1469.979	0.879	1470521	WORD_OFF	n/a	n/a	GLOVE	6	9	[0, 0, 0]	n/a	FR1	2	R1350D
1470.858	1.605	1471400	WORD	n/a	n/a	CAR	7	9	[0, 0, 0]	n/a	FR1	2	R1350D
1472.463	1.04	1473005	WORD_OFF	n/a	n/a	CAR	7	9	[0, 0, 0]	n/a	FR1	2	R1350D
1473.503	1.628	1474045	WORD	n/a	n/a	FLOOR	8	9	[0, 0, 0]	n/a	FR1	2	R1350D
1475.131	1.072	1475673	WORD_OFF	n/a	n/a	FLOOR	8	9	[0, 0, 0]	n/a	FR1	2	R1350D
1476.203	1.627	1476745	WORD	n/a	n/a	SLUSH	9	9	[0, 0, 0]	n/a	FR1	2	R1350D
1477.83	0.829	1478372	WORD_OFF	n/a	n/a	SLUSH	9	9	[0, 0, 0]	n/a	FR1	2	R1350D
1478.659	1.623	1479201	WORD	n/a	n/a	CLOCK	10	9	[0, 0, 0]	n/a	FR1	2	R1350D
1480.282	1.01	1480824	WORD_OFF	n/a	n/a	CLOCK	10	9	[0, 0, 0]	n/a	FR1	2	R1350D
1481.292	1.623	1481834	WORD	n/a	n/a	RAT	11	9	[0, 0, 0]	n/a	FR1	2	R1350D
1482.915	0.887	1483457	WORD_OFF	n/a	n/a	RAT	11	9	[0, 0, 0]	n/a	FR1	2	R1350D
1483.802	1.631	1484344	WORD	n/a	n/a	STICK	12	9	[0, 0, 0]	n/a	FR1	2	R1350D
1485.433	0.0	1485974	WORD_OFF	n/a	n/a	STICK	12	9	[0, 0, 0]	n/a	FR1	2	R1350D
1485.433	0.0	1485974	ENCODING_END	n/a	n/a	n/a	-999	9	[0, 0, 0]	n/a	FR1	2	R1350D
1485.433	0.001	1485974	DISTRACT_START	n/a	n/a	n/a	-999	9	[0, 0, 0]	n/a	FR1	2	R1350D
1485.434	0.015	1485975	START	n/a	n/a	n/a	-999	9	[-999, -999, -999]	n/a	FR1	2	R1350D
1485.449	2.967	1485990	PROB	2.967	n/a	n/a	-999	9	[3, 3, 2]	8	FR1	2	R1350D
1488.416	3.567	1488957	PROB	3.567	n/a	n/a	-999	9	[2, 5, 3]	10	FR1	2	R1350D
1491.983	3.084	1492524	PROB	3.084	n/a	n/a	-999	9	[1, 1, 4]	6	FR1	2	R1350D
1495.067	7.302	1495608	PROB	7.302	n/a	n/a	-999	9	[7, 6, 8]	23	FR1	2	R1350D
1502.369	3.253	1502910	PROB	3.253	n/a	n/a	-999	9	[6, 1, 3]	10	FR1	2	R1350D
1505.622	0.013	1506162	STOP	n/a	n/a	n/a	-999	9	[-999, -999, -999]	n/a	FR1	2	R1350D
1505.635	0.656	1506175	DISTRACT_END	n/a	n/a	n/a	-999	9	[0, 0, 0]	n/a	FR1	2	R1350D
1506.291	1.545	1506831	RETRIEVAL_ORIENT_START	n/a	n/a	n/a	-999	9	[0, 0, 0]	n/a	FR1	2	R1350D
1507.836	0.0	1508376	RETRIEVAL_ORIENT_END	n/a	n/a	n/a	-999	9	[0, 0, 0]	n/a	FR1	2	R1350D
1507.836	3.336	1508376	REC_START	n/a	n/a	n/a	-999	9	[0, 0, 0]	n/a	FR1	2	R1350D
1511.172	1.864	1511712	REC_WORD	1.864	n/a	SLUSH	9	9	[0, 0, 0]	n/a	FR1	2	R1350D
1513.036	1.382	1513576	REC_WORD	1.382	n/a	CAR	7	9	[0, 0, 0]	n/a	FR1	2	R1350D
1514.418	1.99	1514958	REC_WORD	1.99	n/a	FLOOR	8	9	[0, 0, 0]	n/a	FR1	2	R1350D
1516.408	18.189	1516948	REC_WORD	18.189	n/a	TOE	1	9	[0, 0, 0]	n/a	FR1	2	R1350D
1534.597	1.114	1535136	REC_WORD	1.114	n/a	LOCK	3	9	[0, 0, 0]	n/a	FR1	2	R1350D
1535.711	2.139	1536250	REC_WORD	2.139	n/a	BOOK	2	9	[0, 0, 0]	n/a	FR1	2	R1350D
1537.85	0.001	1538389	REC_END	n/a	n/a	n/a	-999	9	[0, 0, 0]	n/a	FR1	2	R1350D
1537.851	0.014	1538390	TRIAL_END	n/a	n/a	n/a	-999	9	[0, 0, 0]	n/a	FR1	2	R1350D
1537.865	0.0	1538404	TRIAL_START	n/a	n/a	n/a	-999	10	[0, 0, 0]	n/a	FR1	2	R1350D
1537.865	0.0	1538404	TRIAL	n/a	n/a	n/a	-999	10	[0, 0, 0]	n/a	FR1	2	R1350D
1537.865	2.143	1538404	WAITING_START	n/a	n/a	n/a	-999	10	[0, 0, 0]	n/a	FR1	2	R1350D
1540.008	0.001	1540547	WAITING_END	n/a	n/a	n/a	-999	10	[0, 0, 0]	n/a	FR1	2	R1350D
1540.009	10.429	1540548	COUNTDOWN_START	n/a	n/a	n/a	-999	10	[0, 0, 0]	n/a	FR1	2	R1350D
1550.438	0.0	1550976	COUNTDOWN_END	n/a	n/a	n/a	-999	10	[0, 0, 0]	n/a	FR1	2	R1350D
1550.438	1.156	1550976	ORIENT_START	n/a	n/a	n/a	-999	10	[0, 0, 0]	n/a	FR1	2	R1350D
1551.594	0.0	1552132	ENCODING_START	n/a	n/a	n/a	-999	10	[0, 0, 0]	n/a	FR1	2	R1350D
1551.594	0.984	1552132	ORIENT_END	n/a	n/a	n/a	-999	10	[0, 0, 0]	n/a	FR1	2	R1350D
1552.578	1.617	1553116	WORD	n/a	n/a	SLIME	1	10	[0, 0, 0]	n/a	FR1	2	R1350D
1554.195	1.113	1554733	WORD_OFF	n/a	n/a	SLIME	1	10	[0, 0, 0]	n/a	FR1	2	R1350D
1555.308	1.637	1555846	WORD	n/a	n/a	CALF	2	10	[0, 0, 0]	n/a	FR1	2	R1350D
1556.945	1.106	1557483	WORD_OFF	n/a	n/a	CALF	2	10	[0, 0, 0]	n/a	FR1	2	R1350D
1558.051	1.628	1558589	WORD	n/a	n/a	FOX	3	10	[0, 0, 0]	n/a	FR1	2	R1350D
1559.679	0.768	1560217	WORD_OFF	n/a	n/a	FOX	3	10	[0, 0, 0]	n/a	FR1	2	R1350D
1560.447	1.632	1560985	WORD	n/a	n/a	PLANE	4	10	[0, 0, 0]	n/a	FR1	2	R1350D
1562.079	0.765	1562617	WORD_OFF	n/a	n/a	PLANE	4	10	[0, 0, 0]	n/a	FR1	2	R1350D
1562.844	1.62	1563382	WORD	n/a	n/a	PET	5	10	[0, 0, 0]	n/a	FR1	2	R1350D
1564.464	1.002	1565001	WORD_OFF	n/a	n/a	PET	5	10	[0, 0, 0]	n/a	FR1	2	R1350D
1565.466	1.632	1566003	WORD	n/a	n/a	ICE	6	10	[0, 0, 0]	n/a	FR1	2	R1350D
1567.098	1.088	1567635	WORD_OFF	n/a	n/a	ICE	6	10	[0, 0, 0]	n/a	FR1	2	R1350D
1568.186	1.628	1568723	WORD	n/a	n/a	WEB	7	10	[0, 0, 0]	n/a	FR1	2	R1350D
1569.814	0.938	1570351	WORD_OFF	n/a	n/a	WEB	7	10	[0, 0, 0]	n/a	FR1	2	R1350D
1570.752	1.63	1571289	WORD	n/a	n/a	HILL	8	10	[0, 0, 0]	n/a	FR1	2	R1350D
1572.382	0.859	1572919	WORD_OFF	n/a	n/a	HILL	8	10	[0, 0, 0]	n/a	FR1	2	R1350D
1573.241	1.624	1573778	WORD	n/a	n/a	ZOO	9	10	[0, 0, 0]	n/a	FR1	2	R1350D
1574.865	1.028	1575402	WORD_OFF	n/a	n/a	ZOO	9	10	[0, 0, 0]	n/a	FR1	2	R1350D
1575.893	1.607	1576430	WORD	n/a	n/a	MUG	10	10	[0, 0, 0]	n/a	FR1	2	R1350D
1577.5	0.841	1578037	WORD_OFF	n/a	n/a	MUG	10	10	[0, 0, 0]	n/a	FR1	2	R1350D
1578.341	1.625	1578878	WORD	n/a	n/a	CUBE	11	10	[0, 0, 0]	n/a	FR1	2	R1350D
1579.966	0.768	1580503	WORD_OFF	n/a	n/a	CUBE	11	10	[0, 0, 0]	n/a	FR1	2	R1350D
1580.734	1.616	1581271	WORD	n/a	n/a	FORT	12	10	[0, 0, 0]	n/a	FR1	2	R1350D
1582.35	0.0	1582887	WORD_OFF	n/a	n/a	FORT	12	10	[0, 0, 0]	n/a	FR1	2	R1350D
1582.35	0.001	1582887	ENCODING_END	n/a	n/a	n/a	-999	10	[0, 0, 0]	n/a	FR1	2	R1350D
1582.351	0.0	1582888	DISTRACT_START	n/a	n/a	n/a	-999	10	[0, 0, 0]	n/a	FR1	2	R1350D
1582.351	0.016	1582888	START	n/a	n/a	n/a	-999	10	[-999, -999, -999]	n/a	FR1	2	R1350D
1582.367	5.583	1582904	PROB	5.583	n/a	n/a	-999	10	[7, 9, 1]	17	FR1	2	R1350D
1587.95	2.867	1588486	PROB	2.867	n/a	n/a	-999	10	[3, 7, 4]	14	FR1	2	R1350D
1590.817	3.718	1591353	PROB	3.718	n/a	n/a	-999	10	[2, 4, 3]	9	FR1	2	R1350D
1594.535	3.134	1595071	PROB	3.134	n/a	n/a	-999	10	[8, 7, 8]	22	FR1	2	R1350D
1597.669	3.05	1598205	PROB	3.05	n/a	n/a	-999	10	[7, 6, 1]	14	FR1	2	R1350D
1600.719	3.073	1601255	PROB	3.073	n/a	n/a	-999	10	[3, 4, 9]	16	FR1	2	R1350D
1603.792	0.011	1604327	STOP	n/a	n/a	n/a	-999	10	[-999, -999, -999]	n/a	FR1	2	R1350D
1603.803	0.55	1604338	DISTRACT_END	n/a	n/a	n/a	-999	10	[0, 0, 0]	n/a	FR1	2	R1350D
1604.353	1.534	1604888	RETRIEVAL_ORIENT_START	n/a	n/a	n/a	-999	10	[0, 0, 0]	n/a	FR1	2	R1350D
1605.887	0.0	1606422	RETRIEVAL_ORIENT_END	n/a	n/a	n/a	-999	10	[0, 0, 0]	n/a	FR1	2	R1350D
1605.887	4.372	1606422	REC_START	n/a	n/a	n/a	-999	10	[0, 0, 0]	n/a	FR1	2	R1350D
1610.259	1.059	1610794	REC_WORD_VV	1.059	n/a	<>	-999	10	[0, 0, 0]	n/a	FR1	2	R1350D
1611.318	24.583	1611853	REC_WORD	24.583	n/a	SLIME	1	10	[0, 0, 0]	n/a	FR1	2	R1350D
1635.901	0.0	1636435	TRIAL_END	n/a	n/a	n/a	-999	10	[0, 0, 0]	n/a	FR1	2	R1350D
1635.901	0.015	1636435	REC_END	n/a	n/a	n/a	-999	10	[0, 0, 0]	n/a	FR1	2	R1350D
1635.916	0.0	1636450	TRIAL_START	n/a	n/a	n/a	-999	11	[0, 0, 0]	n/a	FR1	2	R1350D
1635.916	0.0	1636450	TRIAL	n/a	n/a	n/a	-999	11	[0, 0, 0]	n/a	FR1	2	R1350D
1635.916	1.66	1636450	WAITING_START	n/a	n/a	n/a	-999	11	[0, 0, 0]	n/a	FR1	2	R1350D
1637.576	0.001	1638110	WAITING_END	n/a	n/a	n/a	-999	11	[0, 0, 0]	n/a	FR1	2	R1350D
1637.577	10.428	1638111	COUNTDOWN_START	n/a	n/a	n/a	-999	11	[0, 0, 0]	n/a	FR1	2	R1350D
1648.005	0.0	1648538	COUNTDOWN_END	n/a	n/a	n/a	-999	11	[0, 0, 0]	n/a	FR1	2	R1350D
1648.005	1.073	1648538	ORIENT_START	n/a	n/a	n/a	-999	11	[0, 0, 0]	n/a	FR1	2	R1350D
1649.078	0.001	1649611	ORIENT_END	n/a	n/a	n/a	-999	11	[0, 0, 0]	n/a	FR1	2	R1350D
1649.079	0.822	1649612	ENCODING_START	n/a	n/a	n/a	-999	11	[0, 0, 0]	n/a	FR1	2	R1350D
1649.901	1.628	1650434	WORD	n/a	n/a	GLASS	1	11	[0, 0, 0]	n/a	FR1	2	R1350D
1651.529	0.775	1652062	WORD_OFF	n/a	n/a	GLASS	1	11	[0, 0, 0]	n/a	FR1	2	R1350D
1652.304	1.625	1652837	WORD	n/a	n/a	TOAD	2	11	[0, 0, 0]	n/a	FR1	2	R1350D
1653.929	1.037	1654462	WORD_OFF	n/a	n/a	TOAD	2	11	[0, 0, 0]	n/a	FR1	2	R1350D
1654.966	1.63	1655499	WORD	n/a	n/a	VEST	3	11	[0, 0, 0]	n/a	FR1	2	R1350D
1656.596	0.755	1657129	WORD_OFF	n/a	n/a	VEST	3	11	[0, 0, 0]	n/a	FR1	2	R1350D
1657.351	1.629	1657884	WORD	n/a	n/a	SHELL	4	11	[0, 0, 0]	n/a	FR1	2	R1350D
1658.98	1.125	1659513	WORD_OFF	n/a	n/a	SHELL	4	11	[0, 0, 0]	n/a	FR1	2	R1350D
1660.105	1.626	1660638	WORD	n/a	n/a	MOUSE	5	11	[0, 0, 0]	n/a	FR1	2	R1350D
1661.731	0.838	1662263	WORD_OFF	n/a	n/a	MOUSE	5	11	[0, 0, 0]	n/a	FR1	2	R1350D
1662.569	1.63	1663101	WORD	n/a	n/a	HOUSE	6	11	[0, 0, 0]	n/a	FR1	2	R1350D
1664.199	0.948	1664731	WORD_OFF	n/a	n/a	HOUSE	6	11	[0, 0, 0]	n/a	FR1	2	R1350D
1665.147	1.635	1665679	WORD	n/a	n/a	SALT	7	11	[0, 0, 0]	n/a	FR1	2	R1350D
1666.782	0.968	1667314	WORD_OFF	n/a	n/a	SALT	7	11	[0, 0, 0]	n/a	FR1	2	R1350D
1667.75	1.633	1668282	WORD	n/a	n/a	HAWK	8	11	[0, 0, 0]	n/a	FR1	2	R1350D
1669.383	1.089	1669915	WORD_OFF	n/a	n/a	HAWK	8	11	[0, 0, 0]	n/a	FR1	2	R1350D
1670.472	1.628	1671004	WORD	n/a	n/a	ROOF	9	11	[0, 0, 0]	n/a	FR1	2	R1350D
1672.1	0.914	1672632	WORD_OFF	n/a	n/a	ROOF	9	11	[0, 0, 0]	n/a	FR1	2	R1350D
1673.014	1.636	1673546	WORD	n/a	n/a	BEE	10	11	[0, 0, 0]	n/a	FR1	2	R1350D
1674.65	0.832	1675182	WORD_OFF	n/a	n/a	BEE	10	11	[0, 0, 0]	n/a	FR1	2	R1350D
1675.482	1.636	1676014	WORD	n/a	n/a	SWORD	11	11	[0, 0, 0]	n/a	FR1	2	R1350D
1677.118	0.767	1677650	WORD_OFF	n/a	n/a	SWORD	11	11	[0, 0, 0]	n/a	FR1	2	R1350D
1677.885	1.616	1678417	WORD	n/a	n/a	SOUP	12	11	[0, 0, 0]	n/a	FR1	2	R1350D
1679.501	0.001	1680033	WORD_OFF	n/a	n/a	SOUP	12	11	[0, 0, 0]	n/a	FR1	2	R1350D
1679.502	0.0	1680034	DISTRACT_START	n/a	n/a	n/a	-999	11	[0, 0, 0]	n/a	FR1	2	R1350D
1679.502	0.0	1680034	ENCODING_END	n/a	n/a	n/a	-999	11	[0, 0, 0]	n/a	FR1	2	R1350D
1679.502	0.016	1680034	START	n/a	n/a	n/a	-999	11	[-999, -999, -999]	n/a	FR1	2	R1350D
1679.518	3.634	1680050	PROB	3.634	n/a	n/a	-999	11	[6, 5, 4]	15	FR1	2	R1350D
1683.152	3.616	1683683	PROB	3.616	n/a	n/a	-999	11	[1, 8, 6]	15	FR1	2	R1350D
1686.768	4.834	1687299	PROB	4.834	n/a	n/a	-999	11	[3, 5, 9]	17	FR1	2	R1350D
1691.602	2.351	1692133	PROB	2.351	n/a	n/a	-999	11	[1, 5, 3]	9	FR1	2	R1350D
1693.953	4.817	1694484	PROB	4.817	n/a	n/a	-999	11	[5, 6, 8]	19	FR1	2	R1350D
1698.77	4.334	1699301	PROB	4.334	n/a	n/a	-999	11	[9, 6, 7]	22	FR1	2	R1350D
1703.104	0.019	1703634	STOP	n/a	n/a	n/a	-999	11	[-999, -999, -999]	n/a	FR1	2	R1350D
1703.123	0.555	1703653	DISTRACT_END	n/a	n/a	n/a	-999	11	[0, 0, 0]	n/a	FR1	2	R1350D
1703.678	1.562	1704208	RETRIEVAL_ORIENT_START	n/a	n/a	n/a	-999	11	[0, 0, 0]	n/a	FR1	2	R1350D
1705.24	0.0	1705770	RETRIEVAL_ORIENT_END	n/a	n/a	n/a	-999	11	[0, 0, 0]	n/a	FR1	2	R1350D
1705.24	2.707	1705770	REC_START	n/a	n/a	n/a	-999	11	[0, 0, 0]	n/a	FR1	2	R1350D
1707.947	2.826	1708477	REC_WORD	2.826	n/a	GLASS	1	11	[0, 0, 0]	n/a	FR1	2	R1350D
1710.773	2.589	1711303	REC_WORD	2.589	n/a	TOAD	2	11	[0, 0, 0]	n/a	FR1	2	R1350D
1713.362	1.01	1713892	REC_WORD	1.01	n/a	SHELL	4	11	[0, 0, 0]	n/a	FR1	2	R1350D
1714.372	20.88	1714902	REC_WORD	20.88	n/a	MOUSE	5	11	[0, 0, 0]	n/a	FR1	2	R1350D
1735.252	0.001	1735781	REC_END	n/a	n/a	n/a	-999	11	[0, 0, 0]	n/a	FR1	2	R1350D
1735.253	0.046	1735782	TRIAL_END	n/a	n/a	n/a	-999	11	[0, 0, 0]	n/a	FR1	2	R1350D
1735.299	0.0	1735828	TRIAL	n/a	n/a	n/a	-999	12	[0, 0, 0]	n/a	FR1	2	R1350D
1735.299	0.0	1735828	WAITING_START	n/a	n/a	n/a	-999	12	[0, 0, 0]	n/a	FR1	2	R1350D
1735.299	1.279	1735828	TRIAL_START	n/a	n/a	n/a	-999	12	[0, 0, 0]	n/a	FR1	2	R1350D
1736.578	0.0	1737107	WAITING_END	n/a	n/a	n/a	-999	12	[0, 0, 0]	n/a	FR1	2	R1350D
1736.578	10.428	1737107	COUNTDOWN_START	n/a	n/a	n/a	-999	12	[0, 0, 0]	n/a	FR1	2	R1350D
1747.006	0.001	1747534	COUNTDOWN_END	n/a	n/a	n/a	-999	12	[0, 0, 0]	n/a	FR1	2	R1350D
1747.007	1.14	1747535	ORIENT_START	n/a	n/a	n/a	-999	12	[0, 0, 0]	n/a	FR1	2	R1350D
1748.147	0.001	1748675	ORIENT_END	n/a	n/a	n/a	-999	12	[0, 0, 0]	n/a	FR1	2	R1350D
1748.148	0.968	1748676	ENCODING_START	n/a	n/a	n/a	-999	12	[0, 0, 0]	n/a	FR1	2	R1350D
1749.116	1.631	1749644	WORD	n/a	n/a	HORSE	1	12	[0, 0, 0]	n/a	FR1	2	R1350D
1750.747	0.753	1751275	WORD_OFF	n/a	n/a	HORSE	1	12	[0, 0, 0]	n/a	FR1	2	R1350D
1751.5	1.632	1752028	WORD	n/a	n/a	CART	2	12	[0, 0, 0]	n/a	FR1	2	R1350D
1753.132	1.026	1753660	WORD_OFF	n/a	n/a	CART	2	12	[0, 0, 0]	n/a	FR1	2	R1350D
1754.158	1.623	1754686	WORD	n/a	n/a	WHEEL	3	12	[0, 0, 0]	n/a	FR1	2	R1350D
1755.781	1.14	1756309	WORD_OFF	n/a	n/a	WHEEL	3	12	[0, 0, 0]	n/a	FR1	2	R1350D
1756.921	1.627	1757449	WORD	n/a	n/a	ROSE	4	12	[0, 0, 0]	n/a	FR1	2	R1350D
1758.548	1.081	1759075	WORD_OFF	n/a	n/a	ROSE	4	12	[0, 0, 0]	n/a	FR1	2	R1350D
1759.629	1.638	1760156	WORD	n/a	n/a	PARK	5	12	[0, 0, 0]	n/a	FR1	2	R1350D
1761.267	1.083	1761794	WORD_OFF	n/a	n/a	PARK	5	12	[0, 0, 0]	n/a	FR1	2	R1350D
1762.35	1.633	1762877	WORD	n/a	n/a	SPARK	6	12	[0, 0, 0]	n/a	FR1	2	R1350D
1763.983	0.965	1764510	WORD_OFF	n/a	n/a	SPARK	6	12	[0, 0, 0]	n/a	FR1	2	R1350D
1764.948	1.635	1765475	WORD	n/a	n/a	MOLE	7	12	[0, 0, 0]	n/a	FR1	2	R1350D
1766.583	0.856	1767110	WORD_OFF	n/a	n/a	MOLE	7	12	[0, 0, 0]	n/a	FR1	2	R1350D
1767.439	1.628	1767966	WORD	n/a	n/a	DRUM	8	12	[0, 0, 0]	n/a	FR1	2	R1350D
1769.067	0.909	1769594	WORD_OFF	n/a	n/a	DRUM	8	12	[0, 0, 0]	n/a	FR1	2	R1350D
1769.976	1.625	1770503	WORD	n/a	n/a	SHIELD	9	12	[0, 0, 0]	n/a	FR1	2	R1350D
1771.601	0.831	1772128	WORD_OFF	n/a	n/a	SHIELD	9	12	[0, 0, 0]	n/a	FR1	2	R1350D
1772.432	1.636	1772959	WORD	n/a	n/a	BADGE	10	12	[0, 0, 0]	n/a	FR1	2	R1350D
1774.068	0.893	1774595	WORD_OFF	n/a	n/a	BADGE	10	12	[0, 0, 0]	n/a	FR1	2	R1350D
1774.961	1.624	1775488	WORD	n/a	n/a	VASE	11	12	[0, 0, 0]	n/a	FR1	2	R1350D
1776.585	0.889	1777112	WORD_OFF	n/a	n/a	VASE	11	12	[0, 0, 0]	n/a	FR1	2	R1350D
1777.474	1.629	1778000	WORD	n/a	n/a	HEART	12	12	[0, 0, 0]	n/a	FR1	2	R1350D
1779.103	0.001	1779629	WORD_OFF	n/a	n/a	HEART	12	12	[0, 0, 0]	n/a	FR1	2	R1350D
1779.104	0.0	1779630	ENCODING_END	n/a	n/a	n/a	-999	12	[0, 0, 0]	n/a	FR1	2	R1350D
1779.104	0.0	1779630	DISTRACT_START	n/a	n/a	n/a	-999	12	[0, 0, 0]	n/a	FR1	2	R1350D
1779.104	0.016	1779630	START	n/a	n/a	n/a	-999	12	[-999, -999, -999]	n/a	FR1	2	R1350D
1779.12	4.2	1779646	PROB	4.2	n/a	n/a	-999	12	[8, 7, 5]	20	FR1	2	R1350D
1783.32	2.884	1783846	PROB	2.884	n/a	n/a	-999	12	[8, 5, 5]	18	FR1	2	R1350D
1786.204	5.234	1786730	PROB	5.234	n/a	n/a	-999	12	[9, 5, 6]	20	FR1	2	R1350D
1791.438	3.317	1791964	PROB	3.317	n/a	n/a	-999	12	[6, 9, 1]	16	FR1	2	R1350D
1794.755	4.605	1795281	PROB	4.605	n/a	n/a	-999	12	[5, 7, 1]	13	FR1	2	R1350D
1799.36	0.014	1799885	STOP	n/a	n/a	n/a	-999	12	[-999, -999, -999]	n/a	FR1	2	R1350D
1799.374	0.575	1799899	DISTRACT_END	n/a	n/a	n/a	-999	12	[0, 0, 0]	n/a	FR1	2	R1350D
1799.949	1.607	1800474	RETRIEVAL_ORIENT_START	n/a	n/a	n/a	-999	12	[0, 0, 0]	n/a	FR1	2	R1350D
1801.556	0.001	1802081	RETRIEVAL_ORIENT_END	n/a	n/a	n/a	-999	12	[0, 0, 0]	n/a	FR1	2	R1350D
1801.557	4.467	1802082	REC_START	n/a	n/a	n/a	-999	12	[0, 0, 0]	n/a	FR1	2	R1350D
1806.024	1.183	1806549	REC_WORD	1.183	n/a	HORSE	1	12	[0, 0, 0]	n/a	FR1	2	R1350D
1807.207	2.315	1807732	REC_WORD	2.315	n/a	CART	2	12	[0, 0, 0]	n/a	FR1	2	R1350D
1809.522	1.401	1810047	REC_WORD	1.401	n/a	WHEEL	3	12	[0, 0, 0]	n/a	FR1	2	R1350D
1810.923	2.117	1811448	REC_WORD	2.117	n/a	PARK	5	12	[0, 0, 0]	n/a	FR1	2	R1350D
1813.04	4.283	1813565	REC_WORD	4.283	n/a	ROSE	4	12	[0, 0, 0]	n/a	FR1	2	R1350D
1817.323	0.437	1817847	REC_WORD_VV	0.437	n/a	<>	-999	12	[0, 0, 0]	n/a	FR1	2	R1350D
1817.76	5.898	1818284	REC_WORD	5.898	n/a	VASE	11	12	[0, 0, 0]	n/a	FR1	2	R1350D
1823.658	7.911	1824182	REC_WORD	7.911	n/a	MULE	-999	12	[0, 0, 0]	n/a	FR1	2	R1350D
1831.569	0.0	1832093	TRIAL_END	n/a	n/a	n/a	-999	12	[0, 0, 0]	n/a	FR1	2	R1350D
1831.569	0.016	1832093	REC_END	n/a	n/a	n/a	-999	12	[0, 0, 0]	n/a	FR1	2	R1350D
1831.585	0.0	1832109	TRIAL_START	n/a	n/a	n/a	-999	13	[0, 0, 0]	n/a	FR1	2	R1350D
1831.585	0.0	1832109	TRIAL	n/a	n/a	n/a	-999	13	[0, 0, 0]	n/a	FR1	2	R1350D
1831.585	0.778	1832109	WAITING_START	n/a	n/a	n/a	-999	13	[0, 0, 0]	n/a	FR1	2	R1350D
1832.363	0.0	1832887	WAITING_END	n/a	n/a	n/a	-999	13	[0, 0, 0]	n/a	FR1	2	R1350D
1832.363	10.428	1832887	COUNTDOWN_START	n/a	n/a	n/a	-999	13	[0, 0, 0]	n/a	FR1	2	R1350D
1842.791	0.0	1843314	COUNTDOWN_END	n/a	n/a	n/a	-999	13	[0, 0, 0]	n/a	FR1	2	R1350D
1842.791	1.223	1843314	ORIENT_START	n/a	n/a	n/a	-999	13	[0, 0, 0]	n/a	FR1	2	R1350D
1844.014	0.0	1844537	ORIENT_END	n/a	n/a	n/a	-999	13	[0, 0, 0]	n/a	FR1	2	R1350D
1844.014	1.042	1844537	ENCODING_START	n/a	n/a	n/a	-999	13	[0, 0, 0]	n/a	FR1	2	R1350D
1845.056	1.625	1845579	WORD	n/a	n/a	PEACH	1	13	[0, 0, 0]	n/a	FR1	2	R1350D
1846.681	1.049	1847204	WORD_OFF	n/a	n/a	PEACH	1	13	[0, 0, 0]	n/a	FR1	2	R1350D
1847.73	1.636	1848253	WORD	n/a	n/a	CLOTH	2	13	[0, 0, 0]	n/a	FR1	2	R1350D
1849.366	0.921	1849889	WORD_OFF	n/a	n/a	CLOTH	2	13	[0, 0, 0]	n/a	FR1	2	R1350D
1850.287	1.628	1850810	WORD	n/a	n/a	SHARK	3	13	[0, 0, 0]	n/a	FR1	2	R1350D
1851.915	0.76	1852438	WORD_OFF	n/a	n/a	SHARK	3	13	[0, 0, 0]	n/a	FR1	2	R1350D
1852.675	1.625	1853198	WORD	n/a	n/a	PEARL	4	13	[0, 0, 0]	n/a	FR1	2	R1350D
1854.3	0.903	1854823	WORD_OFF	n/a	n/a	PEARL	4	13	[0, 0, 0]	n/a	FR1	2	R1350D
1855.203	1.63	1855725	WORD	n/a	n/a	BOOT	5	13	[0, 0, 0]	n/a	FR1	2	R1350D
1856.833	1.059	1857355	WORD_OFF	n/a	n/a	BOOT	5	13	[0, 0, 0]	n/a	FR1	2	R1350D
1857.892	1.626	1858414	WORD	n/a	n/a	JET	6	13	[0, 0, 0]	n/a	FR1	2	R1350D
1859.518	0.914	1860040	WORD_OFF	n/a	n/a	JET	6	13	[0, 0, 0]	n/a	FR1	2	R1350D
1860.432	1.635	1860954	WORD	n/a	n/a	WOLF	7	13	[0, 0, 0]	n/a	FR1	2	R1350D
1862.067	0.779	1862589	WORD_OFF	n/a	n/a	WOLF	7	13	[0, 0, 0]	n/a	FR1	2	R1350D
1862.846	1.606	1863368	WORD	n/a	n/a	BOMB	8	13	[0, 0, 0]	n/a	FR1	2	R1350D
1864.452	1.082	1864974	WORD_OFF	n/a	n/a	BOMB	8	13	[0, 0, 0]	n/a	FR1	2	R1350D
1865.534	1.635	1866056	WORD	n/a	n/a	JAR	9	13	[0, 0, 0]	n/a	FR1	2	R1350D
1867.169	1.095	1867691	WORD_OFF	n/a	n/a	JAR	9	13	[0, 0, 0]	n/a	FR1	2	R1350D
1868.264	1.621	1868786	WORD	n/a	n/a	CAGE	10	13	[0, 0, 0]	n/a	FR1	2	R1350D
1869.885	0.865	1870407	WORD_OFF	n/a	n/a	CAGE	10	13	[0, 0, 0]	n/a	FR1	2	R1350D
1870.75	1.637	1871272	WORD	n/a	n/a	SAIL	11	13	[0, 0, 0]	n/a	FR1	2	R1350D
1872.387	1.14	1872909	WORD_OFF	n/a	n/a	SAIL	11	13	[0, 0, 0]	n/a	FR1	2	R1350D
1873.527	1.627	1874049	WORD	n/a	n/a	BEAR	12	13	[0, 0, 0]	n/a	FR1	2	R1350D
1875.154	0.001	1875675	WORD_OFF	n/a	n/a	BEAR	12	13	[0, 0, 0]	n/a	FR1	2	R1350D
1875.155	0.0	1875676	DISTRACT_START	n/a	n/a	n/a	-999	13	[0, 0, 0]	n/a	FR1	2	R1350D
1875.155	0.0	1875676	ENCODING_END	n/a	n/a	n/a	-999	13	[0, 0, 0]	n/a	FR1	2	R1350D
1875.155	0.016	1875676	START	n/a	n/a	n/a	-999	13	[-999, -999, -999]	n/a	FR1	2	R1350D
1875.171	3.716	1875692	PROB	3.716	n/a	n/a	-999	13	[6, 4, 6]	16	FR1	2	R1350D
1878.887	4.001	1879408	PROB	4.001	n/a	n/a	-999	13	[9, 5, 2]	16	FR1	2	R1350D
1882.888	2.917	1883409	PROB	2.917	n/a	n/a	-999	13	[7, 1, 2]	10	FR1	2	R1350D
1885.805	4.468	1886326	PROB	4.468	n/a	n/a	-999	13	[2, 6, 4]	12	FR1	2	R1350D
1890.273	5.604	1890794	PROB	5.604	n/a	n/a	-999	13	[8, 5, 4]	18	FR1	2	R1350D
1895.877	0.013	1896397	STOP	n/a	n/a	n/a	-999	13	[-999, -999, -999]	n/a	FR1	2	R1350D
1895.89	0.66	1896410	DISTRACT_END	n/a	n/a	n/a	-999	13	[0, 0, 0]	n/a	FR1	2	R1350D
1896.55	1.692	1897070	RETRIEVAL_ORIENT_START	n/a	n/a	n/a	-999	13	[0, 0, 0]	n/a	FR1	2	R1350D
1898.242	0.0	1898762	RETRIEVAL_ORIENT_END	n/a	n/a	n/a	-999	13	[0, 0, 0]	n/a	FR1	2	R1350D
1898.242	3.004	1898762	REC_START	n/a	n/a	n/a	-999	13	[0, 0, 0]	n/a	FR1	2	R1350D
1901.246	1.35	1901766	REC_WORD	1.35	n/a	WOLF	7	13	[0, 0, 0]	n/a	FR1	2	R1350D
1902.596	2.204	1903116	REC_WORD	2.204	n/a	BOOT	5	13	[0, 0, 0]	n/a	FR1	2	R1350D
1904.8	2.999	1905320	REC_WORD	2.999	n/a	JET	6	13	[0, 0, 0]	n/a	FR1	2	R1350D
1907.799	3.084	1908319	REC_WORD	3.084	n/a	CAGE	10	13	[0, 0, 0]	n/a	FR1	2	R1350D
1910.883	17.372	1911403	REC_WORD	17.372	n/a	BAT	-999	13	[0, 0, 0]	n/a	FR1	2	R1350D
1928.255	0.0	1928774	TRIAL_END	n/a	n/a	n/a	-999	13	[0, 0, 0]	n/a	FR1	2	R1350D
1928.255	0.015	1928774	REC_END	n/a	n/a	n/a	-999	13	[0, 0, 0]	n/a	FR1	2	R1350D
1928.27	0.0	1928789	TRIAL_START	n/a	n/a	n/a	-999	14	[0, 0, 0]	n/a	FR1	2	R1350D
1928.27	0.0	1928789	TRIAL	n/a	n/a	n/a	-999	14	[0, 0, 0]	n/a	FR1	2	R1350D
1928.27	1.576	1928789	WAITING_START	n/a	n/a	n/a	-999	14	[0, 0, 0]	n/a	FR1	2	R1350D
1929.846	0.001	1930365	WAITING_END	n/a	n/a	n/a	-999	14	[0, 0, 0]	n/a	FR1	2	R1350D
1929.847	10.429	1930366	COUNTDOWN_START	n/a	n/a	n/a	-999	14	[0, 0, 0]	n/a	FR1	2	R1350D
1940.276	0.0	1940794	COUNTDOWN_END	n/a	n/a	n/a	-999	14	[0, 0, 0]	n/a	FR1	2	R1350D
1940.276	1.157	1940794	ORIENT_START	n/a	n/a	n/a	-999	14	[0, 0, 0]	n/a	FR1	2	R1350D
1941.433	0.0	1941951	ORIENT_END	n/a	n/a	n/a	-999	14	[0, 0, 0]	n/a	FR1	2	R1350D
1941.433	0.771	1941951	ENCODING_START	n/a	n/a	n/a	-999	14	[0, 0, 0]	n/a	FR1	2	R1350D
1942.204	1.628	1942722	WORD	n/a	n/a	NEST	1	14	[0, 0, 0]	n/a	FR1	2	R1350D
1943.832	0.896	1944350	WORD_OFF	n/a	n/a	NEST	1	14	[0, 0, 0]	n/a	FR1	2	R1350D
1944.728	1.606	1945246	WORD	n/a	n/a	KEY	2	14	[0, 0, 0]	n/a	FR1	2	R1350D
1946.334	1.107	1946852	WORD_OFF	n/a	n/a	KEY	2	14	[0, 0, 0]	n/a	FR1	2	R1350D
1947.441	1.626	1947959	WORD	n/a	n/a	STEAM	3	14	[0, 0, 0]	n/a	FR1	2	R1350D
1949.067	1.056	1949585	WORD_OFF	n/a	n/a	STEAM	3	14	[0, 0, 0]	n/a	FR1	2	R1350D
1950.123	1.627	1950641	WORD	n/a	n/a	EEL	4	14	[0, 0, 0]	n/a	FR1	2	R1350D
1951.75	0.966	1952268	WORD_OFF	n/a	n/a	EEL	4	14	[0, 0, 0]	n/a	FR1	2	R1350D
1952.716	1.636	1953233	WORD	n/a	n/a	SNOW	5	14	[0, 0, 0]	n/a	FR1	2	R1350D
1954.352	0.79	1954869	WORD_OFF	n/a	n/a	SNOW	5	14	[0, 0, 0]	n/a	FR1	2	R1350D
1955.142	1.626	1955659	WORD	n/a	n/a	HOOF	6	14	[0, 0, 0]	n/a	FR1	2	R1350D
1956.768	0.993	1957285	WORD_OFF	n/a	n/a	HOOF	6	14	[0, 0, 0]	n/a	FR1	2	R1350D
1957.761	1.625	1958278	WORD	n/a	n/a	FACE	7	14	[0, 0, 0]	n/a	FR1	2	R1350D
1959.386	1.099	1959903	WORD_OFF	n/a	n/a	FACE	7	14	[0, 0, 0]	n/a	FR1	2	R1350D
1960.485	1.635	1961002	WORD	n/a	n/a	COIN	8	14	[0, 0, 0]	n/a	FR1	2	R1350D
1962.12	0.886	1962637	WORD_OFF	n/a	n/a	COIN	8	14	[0, 0, 0]	n/a	FR1	2	R1350D
1963.006	1.63	1963523	WORD	n/a	n/a	WALL	9	14	[0, 0, 0]	n/a	FR1	2	R1350D
1964.636	0.992	1965153	WORD_OFF	n/a	n/a	WALL	9	14	[0, 0, 0]	n/a	FR1	2	R1350D
1965.628	1.626	1966145	WORD	n/a	n/a	OWL	10	14	[0, 0, 0]	n/a	FR1	2	R1350D
1967.254	0.805	1967771	WORD_OFF	n/a	n/a	OWL	10	14	[0, 0, 0]	n/a	FR1	2	R1350D
1968.059	1.628	1968576	WORD	n/a	n/a	SLEEVE	11	14	[0, 0, 0]	n/a	FR1	2	R1350D
1969.687	1.041	1970204	WORD_OFF	n/a	n/a	SLEEVE	11	14	[0, 0, 0]	n/a	FR1	2	R1350D
1970.728	1.627	1971245	WORD	n/a	n/a	BRIDGE	12	14	[0, 0, 0]	n/a	FR1	2	R1350D
1972.355	0.001	1972871	WORD_OFF	n/a	n/a	BRIDGE	12	14	[0, 0, 0]	n/a	FR1	2	R1350D
1972.356	0.0	1972872	ENCODING_END	n/a	n/a	n/a	-999	14	[0, 0, 0]	n/a	FR1	2	R1350D
1972.356	0.0	1972872	DISTRACT_START	n/a	n/a	n/a	-999	14	[0, 0, 0]	n/a	FR1	2	R1350D
1972.356	0.016	1972872	START	n/a	n/a	n/a	-999	14	[-999, -999, -999]	n/a	FR1	2	R1350D
1972.372	2.983	1972888	PROB	2.983	n/a	n/a	-999	14	[9, 9, 4]	22	FR1	2	R1350D
1975.355	2.717	1975871	PROB	2.717	n/a	n/a	-999	14	[1, 9, 5]	15	FR1	2	R1350D
1978.072	2.6	1978588	PROB	2.6	n/a	n/a	-999	14	[5, 6, 5]	16	FR1	2	R1350D
1980.672	2.917	1981188	PROB	2.917	n/a	n/a	-999	14	[5, 6, 3]	14	FR1	2	R1350D
1983.589	3.184	1984105	PROB	3.184	n/a	n/a	-999	14	[6, 3, 7]	16	FR1	2	R1350D
1986.773	3.017	1987289	PROB	3.017	n/a	n/a	-999	14	[7, 9, 7]	23	FR1	2	R1350D
1989.79	3.538	1990306	PROB	3.538	n/a	n/a	-999	14	[9, 8, 4]	21	FR1	2	R1350D
1993.328	0.014	1993843	STOP	n/a	n/a	n/a	-999	14	[-999, -999, -999]	n/a	FR1	2	R1350D
1993.342	0.545	1993857	DISTRACT_END	n/a	n/a	n/a	-999	14	[0, 0, 0]	n/a	FR1	2	R1350D
1993.887	1.606	1994402	RETRIEVAL_ORIENT_START	n/a	n/a	n/a	-999	14	[0, 0, 0]	n/a	FR1	2	R1350D
1995.493	0.0	1996008	RETRIEVAL_ORIENT_END	n/a	n/a	n/a	-999	14	[0, 0, 0]	n/a	FR1	2	R1350D
1995.493	2.468	1996008	REC_START	n/a	n/a	n/a	-999	14	[0, 0, 0]	n/a	FR1	2	R1350D
1997.961	2.202	1998476	REC_WORD	2.202	n/a	STEAM	3	14	[0, 0, 0]	n/a	FR1	2	R1350D
2000.163	6.829	2000678	REC_WORD	6.829	n/a	EEL	4	14	[0, 0, 0]	n/a	FR1	2	R1350D
2006.992	0.628	2007507	REC_WORD	0.628	n/a	BARN	-999	14	[0, 0, 0]	n/a	FR1	2	R1350D
2007.62	5.588	2008135	REC_WORD	5.588	n/a	BOOK	-999	14	[0, 0, 0]	n/a	FR1	2	R1350D
2013.208	12.297	2013722	REC_WORD	12.297	n/a	FACE	7	14	[0, 0, 0]	n/a	FR1	2	R1350D
2025.505	0.001	2026019	REC_END	n/a	n/a	n/a	-999	14	[0, 0, 0]	n/a	FR1	2	R1350D
2025.506	0.015	2026020	TRIAL_END	n/a	n/a	n/a	-999	14	[0, 0, 0]	n/a	FR1	2	R1350D
2025.521	0.0	2026035	TRIAL_START	n/a	n/a	n/a	-999	15	[0, 0, 0]	n/a	FR1	2	R1350D
2025.521	0.0	2026035	TRIAL	n/a	n/a	n/a	-999	15	[0, 0, 0]	n/a	FR1	2	R1350D
2025.521	1.41	2026035	WAITING_START	n/a	n/a	n/a	-999	15	[0, 0, 0]	n/a	FR1	2	R1350D
2026.931	0.0	2027445	WAITING_END	n/a	n/a	n/a	-999	15	[0, 0, 0]	n/a	FR1	2	R1350D
2026.931	10.428	2027445	COUNTDOWN_START	n/a	n/a	n/a	-999	15	[0, 0, 0]	n/a	FR1	2	R1350D
2037.359	0.001	2037872	COUNTDOWN_END	n/a	n/a	n/a	-999	15	[0, 0, 0]	n/a	FR1	2	R1350D
2037.36	1.091	2037873	ORIENT_START	n/a	n/a	n/a	-999	15	[0, 0, 0]	n/a	FR1	2	R1350D
2038.451	0.0	2038964	ORIENT_END	n/a	n/a	n/a	-999	15	[0, 0, 0]	n/a	FR1	2	R1350D
2038.451	1.13	2038964	ENCODING_START	n/a	n/a	n/a	-999	15	[0, 0, 0]	n/a	FR1	2	R1350D
2039.581	1.637	2040094	WORD	n/a	n/a	SPOON	1	15	[0, 0, 0]	n/a	FR1	2	R1350D
2041.218	0.823	2041731	WORD_OFF	n/a	n/a	SPOON	1	15	[0, 0, 0]	n/a	FR1	2	R1350D
2042.041	1.626	2042554	WORD	n/a	n/a	TOAST	2	15	[0, 0, 0]	n/a	FR1	2	R1350D
2043.667	0.929	2044180	WORD_OFF	n/a	n/a	TOAST	2	15	[0, 0, 0]	n/a	FR1	2	R1350D
2044.596	1.623	2045109	WORD	n/a	n/a	PIN	3	15	[0, 0, 0]	n/a	FR1	2	R1350D
2046.219	0.782	2046732	WORD_OFF	n/a	n/a	PIN	3	15	[0, 0, 0]	n/a	FR1	2	R1350D
2047.001	1.634	2047514	WORD	n/a	n/a	DART	4	15	[0, 0, 0]	n/a	FR1	2	R1350D
2048.635	0.924	2049148	WORD_OFF	n/a	n/a	DART	4	15	[0, 0, 0]	n/a	FR1	2	R1350D
2049.559	1.627	2050072	WORD	n/a	n/a	BANK	5	15	[0, 0, 0]	n/a	FR1	2	R1350D
2051.186	0.787	2051698	WORD_OFF	n/a	n/a	BANK	5	15	[0, 0, 0]	n/a	FR1	2	R1350D
2051.973	1.629	2052485	WORD	n/a	n/a	HOSE	6	15	[0, 0, 0]	n/a	FR1	2	R1350D
2053.602	0.896	2054114	WORD_OFF	n/a	n/a	HOSE	6	15	[0, 0, 0]	n/a	FR1	2	R1350D
2054.498	1.623	2055010	WORD	n/a	n/a	BENCH	7	15	[0, 0, 0]	n/a	FR1	2	R1350D
2056.121	1.067	2056633	WORD_OFF	n/a	n/a	BENCH	7	15	[0, 0, 0]	n/a	FR1	2	R1350D
2057.188	1.632	2057700	WORD	n/a	n/a	INK	8	15	[0, 0, 0]	n/a	FR1	2	R1350D
2058.82	1.115	2059332	WORD_OFF	n/a	n/a	INK	8	15	[0, 0, 0]	n/a	FR1	2	R1350D
2059.935	1.635	2060447	WORD	n/a	n/a	VINE	9	15	[0, 0, 0]	n/a	FR1	2	R1350D
2061.57	0.776	2062082	WORD_OFF	n/a	n/a	VINE	9	15	[0, 0, 0]	n/a	FR1	2	R1350D
2062.346	1.625	2062858	WORD	n/a	n/a	JAIL	10	15	[0, 0, 0]	n/a	FR1	2	R1350D
2063.971	0.861	2064483	WORD_OFF	n/a	n/a	JAIL	10	15	[0, 0, 0]	n/a	FR1	2	R1350D
2064.832	1.624	2065344	WORD	n/a	n/a	LEG	11	15	[0, 0, 0]	n/a	FR1	2	R1350D
2066.456	1.137	2066968	WORD_OFF	n/a	n/a	LEG	11	15	[0, 0, 0]	n/a	FR1	2	R1350D
2067.593	1.63	2068105	WORD	n/a	n/a	STEAK	12	15	[0, 0, 0]	n/a	FR1	2	R1350D
2069.223	0.0	2069734	ENCODING_END	n/a	n/a	n/a	-999	15	[0, 0, 0]	n/a	FR1	2	R1350D
2069.223	0.001	2069734	WORD_OFF	n/a	n/a	STEAK	12	15	[0, 0, 0]	n/a	FR1	2	R1350D
2069.224	0.0	2069735	DISTRACT_START	n/a	n/a	n/a	-999	15	[0, 0, 0]	n/a	FR1	2	R1350D
2069.224	0.015	2069735	START	n/a	n/a	n/a	-999	15	[-999, -999, -999]	n/a	FR1	2	R1350D
2069.239	5.235	2069750	PROB	5.235	n/a	n/a	-999	15	[3, 2, 6]	11	FR1	2	R1350D
2074.474	4.583	2074985	PROB	4.583	n/a	n/a	-999	15	[3, 4, 4]	11	FR1	2	R1350D
2079.057	3.318	2079568	PROB	3.318	n/a	n/a	-999	15	[5, 3, 8]	16	FR1	2	R1350D
2082.375	3.183	2082886	PROB	3.183	n/a	n/a	-999	15	[1, 8, 6]	15	FR1	2	R1350D
2085.558	4.435	2086069	PROB	4.435	n/a	n/a	-999	15	[6, 3, 9]	18	FR1	2	R1350D
2089.993	0.016	2090503	STOP	n/a	n/a	n/a	-999	15	[-999, -999, -999]	n/a	FR1	2	R1350D
2090.009	0.607	2090519	DISTRACT_END	n/a	n/a	n/a	-999	15	[0, 0, 0]	n/a	FR1	2	R1350D
2090.616	1.644	2091126	RETRIEVAL_ORIENT_START	n/a	n/a	n/a	-999	15	[0, 0, 0]	n/a	FR1	2	R1350D
2092.26	0.001	2092770	RETRIEVAL_ORIENT_END	n/a	n/a	n/a	-999	15	[0, 0, 0]	n/a	FR1	2	R1350D
2092.261	2.747	2092771	REC_START	n/a	n/a	n/a	-999	15	[0, 0, 0]	n/a	FR1	2	R1350D
2095.008	1.892	2095518	REC_WORD	1.892	n/a	SPOON	1	15	[0, 0, 0]	n/a	FR1	2	R1350D
2096.9	2.724	2097410	REC_WORD	2.724	n/a	TOAST	2	15	[0, 0, 0]	n/a	FR1	2	R1350D
2099.624	22.649	2100134	REC_WORD	22.649	n/a	DART	4	15	[0, 0, 0]	n/a	FR1	2	R1350D
2122.273	0.001	2122782	REC_END	n/a	n/a	n/a	-999	15	[0, 0, 0]	n/a	FR1	2	R1350D
2122.274	0.014	2122783	TRIAL_END	n/a	n/a	n/a	-999	15	[0, 0, 0]	n/a	FR1	2	R1350D
2122.288	0.0	2122797	TRIAL	n/a	n/a	n/a	-999	16	[0, 0, 0]	n/a	FR1	2	R1350D
2122.288	0.0	2122797	TRIAL_START	n/a	n/a	n/a	-999	16	[0, 0, 0]	n/a	FR1	2	R1350D
2122.288	0.0	2122797	WAITING_START	n/a	n/a	n/a	-999	16	[0, 0, 0]	n/a	FR1	2	R1350D
