onset	duration	sample	trial_type	response_time	stim_file	item_name	serialpos	list	test	answer	experiment	session	subject
0.0	2.416	7157	INSTRUCT_START	n/a	n/a	n/a	-999	-999	[0, 0, 0]	n/a	FR1	1	R1379E
2.416	62.415	9568	INSTRUCT_END	n/a	n/a	n/a	-999	-999	[0, 0, 0]	n/a	FR1	1	R1379E
64.831	10.35	71978	COUNTDOWN_START	n/a	n/a	n/a	-999	-999	[0, 0, 0]	n/a	FR1	1	R1379E
75.181	0.001	82335	COUNTDOWN_END	n/a	n/a	n/a	-999	-999	[0, 0, 0]	n/a	FR1	1	R1379E
75.182	2.266	82335	ENCODING_START	n/a	n/a	n/a	-999	-1	[0, 0, 0]	n/a	FR1	1	R1379E
77.448	1.6	84597	WORD	n/a	n/a	CAMEL	1	-1	[0, 0, 0]	n/a	FR1	1	R1379E
79.048	1.0	86197	WORD_OFF	n/a	n/a	CAMEL	1	-1	[0, 0, 0]	n/a	FR1	1	R1379E
80.048	1.6	87199	WORD	n/a	n/a	RING	2	-1	[0, 0, 0]	n/a	FR1	1	R1379E
81.648	0.817	88799	WORD_OFF	n/a	n/a	RING	2	-1	[0, 0, 0]	n/a	FR1	1	R1379E
82.465	1.6	89610	WORD	n/a	n/a	WATCH	3	-1	[0, 0, 0]	n/a	FR1	1	R1379E
84.065	0.967	91210	WORD_OFF	n/a	n/a	WATCH	3	-1	[0, 0, 0]	n/a	FR1	1	R1379E
85.032	1.617	92181	WORD	n/a	n/a	TONGUE	4	-1	[0, 0, 0]	n/a	FR1	1	R1379E
86.649	0.984	93802	WORD_OFF	n/a	n/a	TONGUE	4	-1	[0, 0, 0]	n/a	FR1	1	R1379E
87.633	1.615	94783	WORD	n/a	n/a	FLOOD	5	-1	[0, 0, 0]	n/a	FR1	1	R1379E
89.248	0.8	96394	WORD_OFF	n/a	n/a	FLOOD	5	-1	[0, 0, 0]	n/a	FR1	1	R1379E
90.048	1.617	97194	WORD	n/a	n/a	COTTON	6	-1	[0, 0, 0]	n/a	FR1	1	R1379E
91.665	0.982	98815	WORD_OFF	n/a	n/a	COTTON	6	-1	[0, 0, 0]	n/a	FR1	1	R1379E
92.647	1.602	99797	WORD	n/a	n/a	BEAM	7	-1	[0, 0, 0]	n/a	FR1	1	R1379E
94.249	0.883	101397	WORD_OFF	n/a	n/a	BEAM	7	-1	[0, 0, 0]	n/a	FR1	1	R1379E
95.132	1.617	102282	WORD	n/a	n/a	RHINO	8	-1	[0, 0, 0]	n/a	FR1	1	R1379E
96.749	0.865	103893	WORD_OFF	n/a	n/a	RHINO	8	-1	[0, 0, 0]	n/a	FR1	1	R1379E
97.614	1.601	104767	WORD	n/a	n/a	BABY	9	-1	[0, 0, 0]	n/a	FR1	1	R1379E
99.215	0.833	106367	WORD_OFF	n/a	n/a	BABY	9	-1	[0, 0, 0]	n/a	FR1	1	R1379E
100.048	1.617	107199	WORD	n/a	n/a	IMAGE	10	-1	[0, 0, 0]	n/a	FR1	1	R1379E
101.665	0.85	108810	WORD_OFF	n/a	n/a	IMAGE	10	-1	[0, 0, 0]	n/a	FR1	1	R1379E
102.515	1.6	109663	WORD	n/a	n/a	CHEST	11	-1	[0, 0, 0]	n/a	FR1	1	R1379E
104.115	0.916	111263	WORD_OFF	n/a	n/a	CHEST	11	-1	[0, 0, 0]	n/a	FR1	1	R1379E
105.031	1.602	112181	WORD	n/a	n/a	WAGON	12	-1	[0, 0, 0]	n/a	FR1	1	R1379E
106.633	0.0	113780	PROB	0.0	n/a	n/a	-999	-1	[8, 3, 7]	18	FR1	1	R1379E
106.632	0.001	113781	WORD_OFF	n/a	n/a	WAGON	12	-1	[0, 0, 0]	n/a	FR1	1	R1379E
106.633	0.001	113781	ENCODING_END	n/a	n/a	n/a	-999	-1	[0, 0, 0]	n/a	FR1	1	R1379E
106.634	0.0	113781	DISTRACT_START	n/a	n/a	n/a	-999	-1	[0, 0, 0]	n/a	FR1	1	R1379E
106.634	3.98	113781	START	n/a	n/a	n/a	-999	-1	[-999, -999, -999]	n/a	FR1	1	R1379E
110.614	2.168	117761	PROB	2.168	n/a	n/a	-999	-1	[1, 8, 6]	15	FR1	1	R1379E
112.782	1.45	119928	PROB	1.45	n/a	n/a	-999	-1	[5, 5, 1]	11	FR1	1	R1379E
114.232	1.55	121378	PROB	1.55	n/a	n/a	-999	-1	[5, 5, 2]	12	FR1	1	R1379E
115.782	2.516	122928	PROB	2.516	n/a	n/a	-999	-1	[7, 3, 8]	18	FR1	1	R1379E
118.298	2.534	125444	PROB	2.534	n/a	n/a	-999	-1	[8, 5, 3]	16	FR1	1	R1379E
120.832	2.75	127978	PROB	2.75	n/a	n/a	-999	-1	[5, 6, 4]	15	FR1	1	R1379E
123.582	2.4	130728	PROB	2.4	n/a	n/a	-999	-1	[4, 8, 8]	20	FR1	1	R1379E
125.982	2.15	133128	PROB	2.15	n/a	n/a	-999	-1	[1, 1, 2]	4	FR1	1	R1379E
128.132	0.0	135274	DISTRACT_END	n/a	n/a	n/a	-999	-1	[0, 0, 0]	n/a	FR1	1	R1379E
128.132	1.701	135278	STOP	n/a	n/a	n/a	-999	-1	[-999, -999, -999]	n/a	FR1	1	R1379E
129.833	2.32	136979	REC_START	n/a	n/a	n/a	-999	-1	[0, 0, 0]	n/a	FR1	1	R1379E
132.153	1.044	139299	REC_WORD	1.044	n/a	WING	-999	-1	[0, 0, 0]	n/a	FR1	1	R1379E
133.197	1.527	140343	REC_WORD	1.527	n/a	WATCH	3	-1	[0, 0, 0]	n/a	FR1	1	R1379E
134.724	3.191	141870	REC_WORD	3.191	n/a	RHINO	8	-1	[0, 0, 0]	n/a	FR1	1	R1379E
137.915	22.227	145061	REC_WORD	22.227	n/a	WAGON	12	-1	[0, 0, 0]	n/a	FR1	1	R1379E
160.142	3.172	167283	REC_END	n/a	n/a	n/a	-999	-1	[0, 0, 0]	n/a	FR1	1	R1379E
163.314	10.351	170463	COUNTDOWN_START	n/a	n/a	n/a	-999	1	[0, 0, 0]	n/a	FR1	1	R1379E
173.665	0.0	180810	COUNTDOWN_END	n/a	n/a	n/a	-999	1	[0, 0, 0]	n/a	FR1	1	R1379E
173.665	2.066	180810	ENCODING_START	n/a	n/a	n/a	-999	1	[0, 0, 0]	n/a	FR1	1	R1379E
175.731	1.601	182879	WORD	n/a	n/a	MOON	1	1	[0, 0, 0]	n/a	FR1	1	R1379E
177.332	0.816	184479	WORD_OFF	n/a	n/a	MOON	1	1	[0, 0, 0]	n/a	FR1	1	R1379E
178.148	1.601	185290	WORD	n/a	n/a	SLIME	2	1	[0, 0, 0]	n/a	FR1	1	R1379E
179.749	0.833	186890	WORD_OFF	n/a	n/a	SLIME	2	1	[0, 0, 0]	n/a	FR1	1	R1379E
180.582	1.616	187733	WORD	n/a	n/a	THREAD	3	1	[0, 0, 0]	n/a	FR1	1	R1379E
182.198	0.867	189343	WORD_OFF	n/a	n/a	THREAD	3	1	[0, 0, 0]	n/a	FR1	1	R1379E
183.065	1.616	190207	WORD	n/a	n/a	TOY	4	1	[0, 0, 0]	n/a	FR1	1	R1379E
184.681	0.817	191829	WORD_OFF	n/a	n/a	TOY	4	1	[0, 0, 0]	n/a	FR1	1	R1379E
185.498	1.618	192639	WORD	n/a	n/a	PLATE	5	1	[0, 0, 0]	n/a	FR1	1	R1379E
187.116	0.948	194261	WORD_OFF	n/a	n/a	PLATE	5	1	[0, 0, 0]	n/a	FR1	1	R1379E
188.064	1.601	195210	WORD	n/a	n/a	WAX	6	1	[0, 0, 0]	n/a	FR1	1	R1379E
189.665	0.967	196810	WORD_OFF	n/a	n/a	WAX	6	1	[0, 0, 0]	n/a	FR1	1	R1379E
190.632	1.615	197781	WORD	n/a	n/a	LAMP	7	1	[0, 0, 0]	n/a	FR1	1	R1379E
192.247	0.883	199391	WORD_OFF	n/a	n/a	LAMP	7	1	[0, 0, 0]	n/a	FR1	1	R1379E
193.13	1.602	200277	WORD	n/a	n/a	TANK	8	1	[0, 0, 0]	n/a	FR1	1	R1379E
194.732	0.8	201887	WORD_OFF	n/a	n/a	TANK	8	1	[0, 0, 0]	n/a	FR1	1	R1379E
195.532	1.6	202677	WORD	n/a	n/a	GLOBE	9	1	[0, 0, 0]	n/a	FR1	1	R1379E
197.132	0.866	204277	WORD_OFF	n/a	n/a	GLOBE	9	1	[0, 0, 0]	n/a	FR1	1	R1379E
197.998	1.617	205141	WORD	n/a	n/a	NECK	10	1	[0, 0, 0]	n/a	FR1	1	R1379E
199.615	0.933	206762	WORD_OFF	n/a	n/a	NECK	10	1	[0, 0, 0]	n/a	FR1	1	R1379E
200.548	1.6	207690	WORD	n/a	n/a	SHIELD	11	1	[0, 0, 0]	n/a	FR1	1	R1379E
202.148	0.984	209290	WORD_OFF	n/a	n/a	SHIELD	11	1	[0, 0, 0]	n/a	FR1	1	R1379E
203.132	1.6	210271	WORD	n/a	n/a	PAINT	12	1	[0, 0, 0]	n/a	FR1	1	R1379E
204.732	0.0	211871	WORD_OFF	n/a	n/a	PAINT	12	1	[0, 0, 0]	n/a	FR1	1	R1379E
204.732	0.001	211875	PROB	0.001	n/a	n/a	-999	1	[7, 6, 5]	18	FR1	1	R1379E
204.733	0.0	211876	START	n/a	n/a	n/a	-999	1	[-999, -999, -999]	n/a	FR1	1	R1379E
204.733	0.0	211882	ENCODING_END	n/a	n/a	n/a	-999	1	[0, 0, 0]	n/a	FR1	1	R1379E
204.733	2.649	211882	DISTRACT_START	n/a	n/a	n/a	-999	1	[0, 0, 0]	n/a	FR1	1	R1379E
207.382	2.1	214525	PROB	2.1	n/a	n/a	-999	1	[8, 6, 6]	20	FR1	1	R1379E
209.482	2.467	216625	PROB	2.467	n/a	n/a	-999	1	[5, 1, 6]	12	FR1	1	R1379E
211.949	2.3	219092	PROB	2.3	n/a	n/a	-999	1	[2, 4, 3]	9	FR1	1	R1379E
214.249	3.084	221392	PROB	3.084	n/a	n/a	-999	1	[7, 4, 6]	17	FR1	1	R1379E
217.333	2.849	224476	PROB	2.849	n/a	n/a	-999	1	[7, 2, 6]	15	FR1	1	R1379E
220.182	2.217	227325	PROB	2.217	n/a	n/a	-999	1	[2, 8, 6]	16	FR1	1	R1379E
222.399	3.266	229542	PROB	3.266	n/a	n/a	-999	1	[4, 2, 7]	13	FR1	1	R1379E
225.665	0.0	232808	STOP	n/a	n/a	n/a	-999	1	[-999, -999, -999]	n/a	FR1	1	R1379E
225.665	1.633	232810	DISTRACT_END	n/a	n/a	n/a	-999	1	[0, 0, 0]	n/a	FR1	1	R1379E
227.298	1.899	234441	REC_START	n/a	n/a	n/a	-999	1	[0, 0, 0]	n/a	FR1	1	R1379E
229.197	0.964	236339	REC_WORD	0.964	n/a	MOON	1	1	[0, 0, 0]	n/a	FR1	1	R1379E
230.161	1.0	237303	REC_WORD	1.0	n/a	TOY	4	1	[0, 0, 0]	n/a	FR1	1	R1379E
231.161	3.142	238303	REC_WORD	3.142	n/a	PLATE	5	1	[0, 0, 0]	n/a	FR1	1	R1379E
234.303	7.338	241445	REC_WORD	7.338	n/a	SUN	-999	1	[0, 0, 0]	n/a	FR1	1	R1379E
241.641	15.979	248783	REC_WORD	15.979	n/a	SLIME	2	1	[0, 0, 0]	n/a	FR1	1	R1379E
257.62	1.562	264766	REC_END	n/a	n/a	n/a	-999	1	[0, 0, 0]	n/a	FR1	1	R1379E
259.182	10.35	266325	COUNTDOWN_START	n/a	n/a	n/a	-999	2	[0, 0, 0]	n/a	FR1	1	R1379E
269.532	0.0	276671	COUNTDOWN_END	n/a	n/a	n/a	-999	2	[0, 0, 0]	n/a	FR1	1	R1379E
269.532	2.249	276671	ENCODING_START	n/a	n/a	n/a	-999	2	[0, 0, 0]	n/a	FR1	1	R1379E
271.781	1.6	278922	WORD	n/a	n/a	GRASS	1	2	[0, 0, 0]	n/a	FR1	1	R1379E
273.381	0.984	280522	WORD_OFF	n/a	n/a	GRASS	1	2	[0, 0, 0]	n/a	FR1	1	R1379E
274.365	1.617	281503	WORD	n/a	n/a	STEW	2	2	[0, 0, 0]	n/a	FR1	1	R1379E
275.982	0.949	283125	WORD_OFF	n/a	n/a	STEW	2	2	[0, 0, 0]	n/a	FR1	1	R1379E
276.931	1.617	284074	WORD	n/a	n/a	SHORE	3	2	[0, 0, 0]	n/a	FR1	1	R1379E
278.548	0.799	285695	WORD_OFF	n/a	n/a	SHORE	3	2	[0, 0, 0]	n/a	FR1	1	R1379E
279.347	1.601	286485	WORD	n/a	n/a	STORM	4	2	[0, 0, 0]	n/a	FR1	1	R1379E
280.948	0.8	288095	WORD_OFF	n/a	n/a	STORM	4	2	[0, 0, 0]	n/a	FR1	1	R1379E
281.748	1.6	288895	WORD	n/a	n/a	HEEL	5	2	[0, 0, 0]	n/a	FR1	1	R1379E
283.348	0.967	290495	WORD_OFF	n/a	n/a	HEEL	5	2	[0, 0, 0]	n/a	FR1	1	R1379E
284.315	1.6	291455	WORD	n/a	n/a	MOOSE	6	2	[0, 0, 0]	n/a	FR1	1	R1379E
285.915	0.817	293055	WORD_OFF	n/a	n/a	MOOSE	6	2	[0, 0, 0]	n/a	FR1	1	R1379E
286.732	1.6	293877	WORD	n/a	n/a	SHELL	7	2	[0, 0, 0]	n/a	FR1	1	R1379E
288.332	0.983	295477	WORD_OFF	n/a	n/a	SHELL	7	2	[0, 0, 0]	n/a	FR1	1	R1379E
289.315	1.6	296458	WORD	n/a	n/a	APE	8	2	[0, 0, 0]	n/a	FR1	1	R1379E
290.915	0.95	298058	WORD_OFF	n/a	n/a	APE	8	2	[0, 0, 0]	n/a	FR1	1	R1379E
291.865	1.6	299007	WORD	n/a	n/a	MEN	9	2	[0, 0, 0]	n/a	FR1	1	R1379E
293.465	0.983	300607	WORD_OFF	n/a	n/a	MEN	9	2	[0, 0, 0]	n/a	FR1	1	R1379E
294.448	1.6	301589	WORD	n/a	n/a	PEARL	10	2	[0, 0, 0]	n/a	FR1	1	R1379E
296.048	0.883	303189	WORD_OFF	n/a	n/a	PEARL	10	2	[0, 0, 0]	n/a	FR1	1	R1379E
296.931	1.601	304074	WORD	n/a	n/a	BRIDGE	11	2	[0, 0, 0]	n/a	FR1	1	R1379E
298.532	0.999	305674	WORD_OFF	n/a	n/a	BRIDGE	11	2	[0, 0, 0]	n/a	FR1	1	R1379E
299.531	1.601	306677	WORD	n/a	n/a	BIRD	12	2	[0, 0, 0]	n/a	FR1	1	R1379E
301.132	0.001	308272	PROB	0.001	n/a	n/a	-999	2	[8, 6, 2]	16	FR1	1	R1379E
301.133	0.0	308273	START	n/a	n/a	n/a	-999	2	[-999, -999, -999]	n/a	FR1	1	R1379E
301.131	0.002	308277	WORD_OFF	n/a	n/a	BIRD	12	2	[0, 0, 0]	n/a	FR1	1	R1379E
301.133	0.0	308277	ENCODING_END	n/a	n/a	n/a	-999	2	[0, 0, 0]	n/a	FR1	1	R1379E
301.133	2.783	308277	DISTRACT_START	n/a	n/a	n/a	-999	2	[0, 0, 0]	n/a	FR1	1	R1379E
303.916	2.033	311056	PROB	2.033	n/a	n/a	-999	2	[4, 3, 6]	13	FR1	1	R1379E
305.949	1.85	313089	PROB	1.85	n/a	n/a	-999	2	[3, 3, 6]	12	FR1	1	R1379E
307.799	1.75	314939	PROB	1.75	n/a	n/a	-999	2	[7, 7, 1]	15	FR1	1	R1379E
309.549	1.567	316689	PROB	1.567	n/a	n/a	-999	2	[1, 4, 1]	6	FR1	1	R1379E
311.116	1.933	318256	PROB	1.933	n/a	n/a	-999	2	[1, 1, 5]	6	FR1	1	R1379E
313.049	2.949	320189	PROB	2.949	n/a	n/a	-999	2	[4, 8, 6]	18	FR1	1	R1379E
315.998	2.233	323138	PROB	2.233	n/a	n/a	-999	2	[3, 8, 3]	14	FR1	1	R1379E
318.231	1.534	325370	PROB	1.534	n/a	n/a	-999	2	[2, 1, 1]	4	FR1	1	R1379E
319.765	4.316	326904	PROB	4.316	n/a	n/a	-999	2	[7, 8, 8]	23	FR1	1	R1379E
324.081	0.0	331220	STOP	n/a	n/a	n/a	-999	2	[-999, -999, -999]	n/a	FR1	1	R1379E
324.081	1.717	331221	DISTRACT_END	n/a	n/a	n/a	-999	2	[0, 0, 0]	n/a	FR1	1	R1379E
325.798	4.486	332937	REC_START	n/a	n/a	n/a	-999	2	[0, 0, 0]	n/a	FR1	1	R1379E
330.284	1.577	337423	REC_WORD	1.577	n/a	FOOT	-999	2	[0, 0, 0]	n/a	FR1	1	R1379E
331.861	9.445	339000	REC_WORD	9.445	n/a	SHELL	7	2	[0, 0, 0]	n/a	FR1	1	R1379E
341.306	14.798	348445	REC_WORD	14.798	n/a	TOY	-999	2	[0, 0, 0]	n/a	FR1	1	R1379E
356.104	1.444	363241	REC_END	n/a	n/a	n/a	-999	2	[0, 0, 0]	n/a	FR1	1	R1379E
357.548	10.35	364693	COUNTDOWN_START	n/a	n/a	n/a	-999	3	[0, 0, 0]	n/a	FR1	1	R1379E
367.898	0.0	375039	COUNTDOWN_END	n/a	n/a	n/a	-999	3	[0, 0, 0]	n/a	FR1	1	R1379E
367.898	2.217	375039	ENCODING_START	n/a	n/a	n/a	-999	3	[0, 0, 0]	n/a	FR1	1	R1379E
370.115	1.616	377258	WORD	n/a	n/a	SOIL	1	3	[0, 0, 0]	n/a	FR1	1	R1379E
371.731	0.783	378869	WORD_OFF	n/a	n/a	SOIL	1	3	[0, 0, 0]	n/a	FR1	1	R1379E
372.514	1.601	379647	WORD	n/a	n/a	POLE	2	3	[0, 0, 0]	n/a	FR1	1	R1379E
374.115	0.833	381258	WORD_OFF	n/a	n/a	POLE	2	3	[0, 0, 0]	n/a	FR1	1	R1379E
374.948	1.6	382090	WORD	n/a	n/a	CAT	3	3	[0, 0, 0]	n/a	FR1	1	R1379E
376.548	0.967	383690	WORD_OFF	n/a	n/a	CAT	3	3	[0, 0, 0]	n/a	FR1	1	R1379E
377.515	1.6	384650	WORD	n/a	n/a	POND	4	3	[0, 0, 0]	n/a	FR1	1	R1379E
379.115	0.85	386250	WORD_OFF	n/a	n/a	POND	4	3	[0, 0, 0]	n/a	FR1	1	R1379E
379.965	1.6	387103	WORD	n/a	n/a	JUDGE	5	3	[0, 0, 0]	n/a	FR1	1	R1379E
381.565	0.9	388703	WORD_OFF	n/a	n/a	JUDGE	5	3	[0, 0, 0]	n/a	FR1	1	R1379E
382.465	1.617	389599	WORD	n/a	n/a	JAW	6	3	[0, 0, 0]	n/a	FR1	1	R1379E
384.082	0.966	391221	WORD_OFF	n/a	n/a	JAW	6	3	[0, 0, 0]	n/a	FR1	1	R1379E
385.048	1.617	392191	WORD	n/a	n/a	STEAM	7	3	[0, 0, 0]	n/a	FR1	1	R1379E
386.665	0.983	393802	WORD_OFF	n/a	n/a	STEAM	7	3	[0, 0, 0]	n/a	FR1	1	R1379E
387.648	1.617	394783	WORD	n/a	n/a	MAP	8	3	[0, 0, 0]	n/a	FR1	1	R1379E
389.265	0.933	396405	WORD_OFF	n/a	n/a	MAP	8	3	[0, 0, 0]	n/a	FR1	1	R1379E
390.198	1.6	397333	WORD	n/a	n/a	SNAKE	9	3	[0, 0, 0]	n/a	FR1	1	R1379E
391.798	0.884	398933	WORD_OFF	n/a	n/a	SNAKE	9	3	[0, 0, 0]	n/a	FR1	1	R1379E
392.682	1.616	399818	WORD	n/a	n/a	SPICE	10	3	[0, 0, 0]	n/a	FR1	1	R1379E
394.298	0.934	401439	WORD_OFF	n/a	n/a	SPICE	10	3	[0, 0, 0]	n/a	FR1	1	R1379E
395.232	1.616	402367	WORD	n/a	n/a	LOCK	11	3	[0, 0, 0]	n/a	FR1	1	R1379E
396.848	0.966	403989	WORD_OFF	n/a	n/a	LOCK	11	3	[0, 0, 0]	n/a	FR1	1	R1379E
397.814	1.601	404949	WORD	n/a	n/a	TEETH	12	3	[0, 0, 0]	n/a	FR1	1	R1379E
399.415	0.001	406549	WORD_OFF	n/a	n/a	TEETH	12	3	[0, 0, 0]	n/a	FR1	1	R1379E
399.416	0.0	406553	START	n/a	n/a	n/a	-999	3	[-999, -999, -999]	n/a	FR1	1	R1379E
399.416	0.0	406553	PROB	0.0	n/a	n/a	-999	3	[3, 8, 3]	14	FR1	1	R1379E
399.416	0.0	406559	ENCODING_END	n/a	n/a	n/a	-999	3	[0, 0, 0]	n/a	FR1	1	R1379E
399.416	2.633	406559	DISTRACT_START	n/a	n/a	n/a	-999	3	[0, 0, 0]	n/a	FR1	1	R1379E
402.049	2.034	409186	PROB	2.034	n/a	n/a	-999	3	[1, 2, 7]	10	FR1	1	R1379E
404.083	2.366	411220	PROB	2.366	n/a	n/a	-999	3	[8, 4, 1]	13	FR1	1	R1379E
406.449	1.717	413585	PROB	1.717	n/a	n/a	-999	3	[6, 5, 4]	15	FR1	1	R1379E
408.166	3.282	415302	PROB	3.282	n/a	n/a	-999	3	[3, 5, 8]	16	FR1	1	R1379E
411.448	2.968	418584	PROB	2.968	n/a	n/a	-999	3	[4, 2, 8]	14	FR1	1	R1379E
414.416	2.532	421552	PROB	2.532	n/a	n/a	-999	3	[2, 2, 3]	7	FR1	1	R1379E
416.948	2.267	424084	PROB	2.267	n/a	n/a	-999	3	[5, 3, 4]	12	FR1	1	R1379E
419.215	1.433	426351	PROB	1.433	n/a	n/a	-999	3	[1, 5, 5]	11	FR1	1	R1379E
420.648	0.0	427784	STOP	n/a	n/a	n/a	-999	3	[-999, -999, -999]	n/a	FR1	1	R1379E
420.648	1.667	427786	DISTRACT_END	n/a	n/a	n/a	-999	3	[0, 0, 0]	n/a	FR1	1	R1379E
422.315	5.579	429449	REC_START	n/a	n/a	n/a	-999	3	[0, 0, 0]	n/a	FR1	1	R1379E
427.894	8.136	435030	REC_WORD	8.136	n/a	SHELL	-999	3	[0, 0, 0]	n/a	FR1	1	R1379E
436.03	16.588	443165	REC_WORD	16.588	n/a	SOIL	1	3	[0, 0, 0]	n/a	FR1	1	R1379E
452.618	1.046	459753	REC_END	n/a	n/a	n/a	-999	3	[0, 0, 0]	n/a	FR1	1	R1379E
453.664	10.351	460799	COUNTDOWN_START	n/a	n/a	n/a	-999	4	[0, 0, 0]	n/a	FR1	1	R1379E
464.015	0.0	471146	COUNTDOWN_END	n/a	n/a	n/a	-999	4	[0, 0, 0]	n/a	FR1	1	R1379E
464.015	1.884	471157	ENCODING_START	n/a	n/a	n/a	-999	4	[0, 0, 0]	n/a	FR1	1	R1379E
465.899	1.616	473034	WORD	n/a	n/a	PET	1	4	[0, 0, 0]	n/a	FR1	1	R1379E
467.515	0.833	474655	WORD_OFF	n/a	n/a	PET	1	4	[0, 0, 0]	n/a	FR1	1	R1379E
468.348	1.6	475487	WORD	n/a	n/a	COIN	2	4	[0, 0, 0]	n/a	FR1	1	R1379E
469.948	0.867	477087	WORD_OFF	n/a	n/a	COIN	2	4	[0, 0, 0]	n/a	FR1	1	R1379E
470.815	1.6	477951	WORD	n/a	n/a	GOLD	3	4	[0, 0, 0]	n/a	FR1	1	R1379E
472.415	0.95	479551	WORD_OFF	n/a	n/a	GOLD	3	4	[0, 0, 0]	n/a	FR1	1	R1379E
473.365	1.6	480501	WORD	n/a	n/a	RAKE	4	4	[0, 0, 0]	n/a	FR1	1	R1379E
474.965	0.917	482100	WORD_OFF	n/a	n/a	RAKE	4	4	[0, 0, 0]	n/a	FR1	1	R1379E
475.882	1.616	483018	WORD	n/a	n/a	SQUARE	5	4	[0, 0, 0]	n/a	FR1	1	R1379E
477.498	0.833	484628	WORD_OFF	n/a	n/a	SQUARE	5	4	[0, 0, 0]	n/a	FR1	1	R1379E
478.331	1.617	485471	WORD	n/a	n/a	MOUTH	6	4	[0, 0, 0]	n/a	FR1	1	R1379E
479.948	1.0	487082	WORD_OFF	n/a	n/a	MOUTH	6	4	[0, 0, 0]	n/a	FR1	1	R1379E
480.948	1.6	488084	WORD	n/a	n/a	STEEL	7	4	[0, 0, 0]	n/a	FR1	1	R1379E
482.548	0.9	489684	WORD_OFF	n/a	n/a	STEEL	7	4	[0, 0, 0]	n/a	FR1	1	R1379E
483.448	1.6	490580	WORD	n/a	n/a	SALT	8	4	[0, 0, 0]	n/a	FR1	1	R1379E
485.048	0.983	492180	WORD_OFF	n/a	n/a	SALT	8	4	[0, 0, 0]	n/a	FR1	1	R1379E
486.031	1.601	493162	WORD	n/a	n/a	SAUCE	9	4	[0, 0, 0]	n/a	FR1	1	R1379E
487.632	0.816	494762	WORD_OFF	n/a	n/a	SAUCE	9	4	[0, 0, 0]	n/a	FR1	1	R1379E
488.448	1.6	495583	WORD	n/a	n/a	CORK	10	4	[0, 0, 0]	n/a	FR1	1	R1379E
490.048	0.85	497183	WORD_OFF	n/a	n/a	CORK	10	4	[0, 0, 0]	n/a	FR1	1	R1379E
490.898	1.6	498036	WORD	n/a	n/a	SOUP	11	4	[0, 0, 0]	n/a	FR1	1	R1379E
492.498	0.9	499636	WORD_OFF	n/a	n/a	SOUP	11	4	[0, 0, 0]	n/a	FR1	1	R1379E
493.398	1.6	500532	WORD	n/a	n/a	BANK	12	4	[0, 0, 0]	n/a	FR1	1	R1379E
494.998	0.001	502132	WORD_OFF	n/a	n/a	BANK	12	4	[0, 0, 0]	n/a	FR1	1	R1379E
494.999	0.008	502132	PROB	0.008	n/a	n/a	-999	4	[6, 7, 4]	17	FR1	1	R1379E
495.007	0.0	502140	START	n/a	n/a	n/a	-999	4	[-999, -999, -999]	n/a	FR1	1	R1379E
495.006	0.001	502143	ENCODING_END	n/a	n/a	n/a	-999	4	[0, 0, 0]	n/a	FR1	1	R1379E
495.007	4.576	502143	DISTRACT_START	n/a	n/a	n/a	-999	4	[0, 0, 0]	n/a	FR1	1	R1379E
499.583	1.966	506716	PROB	1.966	n/a	n/a	-999	4	[1, 7, 5]	13	FR1	1	R1379E
501.549	4.783	508682	PROB	4.783	n/a	n/a	-999	4	[8, 5, 8]	21	FR1	1	R1379E
506.332	4.5	513465	PROB	4.5	n/a	n/a	-999	4	[8, 3, 6]	17	FR1	1	R1379E
510.832	2.033	517965	PROB	2.033	n/a	n/a	-999	4	[3, 3, 6]	12	FR1	1	R1379E
512.865	2.166	519998	PROB	2.166	n/a	n/a	-999	4	[6, 2, 3]	11	FR1	1	R1379E
515.031	0.0	522164	DISTRACT_END	n/a	n/a	n/a	-999	4	[0, 0, 0]	n/a	FR1	1	R1379E
515.031	1.783	522164	STOP	n/a	n/a	n/a	-999	4	[-999, -999, -999]	n/a	FR1	1	R1379E
516.814	17.2	523944	REC_START	n/a	n/a	n/a	-999	4	[0, 0, 0]	n/a	FR1	1	R1379E
534.014	13.087	541146	REC_WORD	13.087	n/a	COIN	2	4	[0, 0, 0]	n/a	FR1	1	R1379E
547.101	1.381	554238	REC_END	n/a	n/a	n/a	-999	4	[0, 0, 0]	n/a	FR1	1	R1379E
548.482	10.35	555615	COUNTDOWN_START	n/a	n/a	n/a	-999	5	[0, 0, 0]	n/a	FR1	1	R1379E
558.832	0.0	565962	COUNTDOWN_END	n/a	n/a	n/a	-999	5	[0, 0, 0]	n/a	FR1	1	R1379E
558.832	1.966	565962	ENCODING_START	n/a	n/a	n/a	-999	5	[0, 0, 0]	n/a	FR1	1	R1379E
560.798	1.617	567935	WORD	n/a	n/a	CREAM	1	5	[0, 0, 0]	n/a	FR1	1	R1379E
562.415	0.833	569546	WORD_OFF	n/a	n/a	CREAM	1	5	[0, 0, 0]	n/a	FR1	1	R1379E
563.248	1.6	570378	WORD	n/a	n/a	GUN	2	5	[0, 0, 0]	n/a	FR1	1	R1379E
564.848	0.817	571978	WORD_OFF	n/a	n/a	GUN	2	5	[0, 0, 0]	n/a	FR1	1	R1379E
565.665	1.617	572799	WORD	n/a	n/a	ASH	3	5	[0, 0, 0]	n/a	FR1	1	R1379E
567.282	0.983	574410	WORD_OFF	n/a	n/a	ASH	3	5	[0, 0, 0]	n/a	FR1	1	R1379E
568.265	1.6	575402	WORD	n/a	n/a	FACE	4	5	[0, 0, 0]	n/a	FR1	1	R1379E
569.865	0.95	577002	WORD_OFF	n/a	n/a	FACE	4	5	[0, 0, 0]	n/a	FR1	1	R1379E
570.815	1.616	577951	WORD	n/a	n/a	TENT	5	5	[0, 0, 0]	n/a	FR1	1	R1379E
572.431	0.783	579562	WORD_OFF	n/a	n/a	TENT	5	5	[0, 0, 0]	n/a	FR1	1	R1379E
573.214	1.601	580340	WORD	n/a	n/a	HAY	6	5	[0, 0, 0]	n/a	FR1	1	R1379E
574.815	1.0	581951	WORD_OFF	n/a	n/a	HAY	6	5	[0, 0, 0]	n/a	FR1	1	R1379E
575.815	1.6	582943	WORD	n/a	n/a	LENS	7	5	[0, 0, 0]	n/a	FR1	1	R1379E
577.415	0.95	584543	WORD_OFF	n/a	n/a	LENS	7	5	[0, 0, 0]	n/a	FR1	1	R1379E
578.365	1.6	585492	WORD	n/a	n/a	SEA	8	5	[0, 0, 0]	n/a	FR1	1	R1379E
579.965	1.0	587092	WORD_OFF	n/a	n/a	SEA	8	5	[0, 0, 0]	n/a	FR1	1	R1379E
580.965	1.6	588095	WORD	n/a	n/a	WHEAT	9	5	[0, 0, 0]	n/a	FR1	1	R1379E
582.565	0.782	589695	WORD_OFF	n/a	n/a	WHEAT	9	5	[0, 0, 0]	n/a	FR1	1	R1379E
583.347	1.601	590484	WORD	n/a	n/a	WING	10	5	[0, 0, 0]	n/a	FR1	1	R1379E
584.948	0.834	592084	WORD_OFF	n/a	n/a	WING	10	5	[0, 0, 0]	n/a	FR1	1	R1379E
585.782	1.616	592916	WORD	n/a	n/a	PURSE	11	5	[0, 0, 0]	n/a	FR1	1	R1379E
587.398	0.934	594527	WORD_OFF	n/a	n/a	PURSE	11	5	[0, 0, 0]	n/a	FR1	1	R1379E
588.332	1.615	595466	WORD	n/a	n/a	BRUSH	12	5	[0, 0, 0]	n/a	FR1	1	R1379E
589.947	0.001	597076	WORD_OFF	n/a	n/a	BRUSH	12	5	[0, 0, 0]	n/a	FR1	1	R1379E
589.948	0.0	597076	ENCODING_END	n/a	n/a	n/a	-999	5	[0, 0, 0]	n/a	FR1	1	R1379E
589.947	0.001	597077	PROB	0.001	n/a	n/a	-999	5	[1, 6, 7]	14	FR1	1	R1379E
589.948	0.0	597078	START	n/a	n/a	n/a	-999	5	[-999, -999, -999]	n/a	FR1	1	R1379E
589.948	3.384	597087	DISTRACT_START	n/a	n/a	n/a	-999	5	[0, 0, 0]	n/a	FR1	1	R1379E
593.332	2.8	600462	PROB	2.8	n/a	n/a	-999	5	[2, 3, 4]	9	FR1	1	R1379E
596.132	1.967	603262	PROB	1.967	n/a	n/a	-999	5	[7, 3, 8]	18	FR1	1	R1379E
598.099	1.849	605229	PROB	1.849	n/a	n/a	-999	5	[2, 3, 6]	12	FR1	1	R1379E
599.948	2.204	607078	PROB	2.204	n/a	n/a	-999	5	[1, 8, 8]	17	FR1	1	R1379E
602.152	2.03	609282	PROB	2.03	n/a	n/a	-999	5	[5, 2, 5]	12	FR1	1	R1379E
604.182	3.083	611312	PROB	3.083	n/a	n/a	-999	5	[7, 6, 2]	15	FR1	1	R1379E
607.265	3.649	614395	PROB	3.649	n/a	n/a	-999	5	[3, 7, 5]	15	FR1	1	R1379E
610.914	0.0	618043	STOP	n/a	n/a	n/a	-999	5	[-999, -999, -999]	n/a	FR1	1	R1379E
610.914	1.834	618047	DISTRACT_END	n/a	n/a	n/a	-999	5	[0, 0, 0]	n/a	FR1	1	R1379E
612.748	23.385	619880	REC_START	n/a	n/a	n/a	-999	5	[0, 0, 0]	n/a	FR1	1	R1379E
636.133	6.903	643262	REC_WORD	6.903	n/a	TOE	-999	5	[0, 0, 0]	n/a	FR1	1	R1379E
643.036	1.562	650163	REC_END	n/a	n/a	n/a	-999	5	[0, 0, 0]	n/a	FR1	1	R1379E
644.598	10.353	651732	COUNTDOWN_START	n/a	n/a	n/a	-999	6	[0, 0, 0]	n/a	FR1	1	R1379E
654.951	0.0	662079	COUNTDOWN_END	n/a	n/a	n/a	-999	6	[0, 0, 0]	n/a	FR1	1	R1379E
654.951	2.18	662079	ENCODING_START	n/a	n/a	n/a	-999	6	[0, 0, 0]	n/a	FR1	1	R1379E
657.131	1.601	664255	WORD	n/a	n/a	HOOF	1	6	[0, 0, 0]	n/a	FR1	1	R1379E
658.732	0.833	665859	WORD_OFF	n/a	n/a	HOOF	1	6	[0, 0, 0]	n/a	FR1	1	R1379E
659.565	1.6	666698	WORD	n/a	n/a	CHEEK	2	6	[0, 0, 0]	n/a	FR1	1	R1379E
661.165	0.817	668298	WORD_OFF	n/a	n/a	CHEEK	2	6	[0, 0, 0]	n/a	FR1	1	R1379E
661.982	1.616	669108	WORD	n/a	n/a	CHIN	3	6	[0, 0, 0]	n/a	FR1	1	R1379E
663.598	0.933	670730	WORD_OFF	n/a	n/a	CHIN	3	6	[0, 0, 0]	n/a	FR1	1	R1379E
664.531	1.617	671658	WORD	n/a	n/a	STREET	4	6	[0, 0, 0]	n/a	FR1	1	R1379E
666.148	0.917	673279	WORD_OFF	n/a	n/a	STREET	4	6	[0, 0, 0]	n/a	FR1	1	R1379E
667.065	1.617	674196	WORD	n/a	n/a	COKE	5	6	[0, 0, 0]	n/a	FR1	1	R1379E
668.682	0.899	675807	WORD_OFF	n/a	n/a	COKE	5	6	[0, 0, 0]	n/a	FR1	1	R1379E
669.581	1.601	676714	WORD	n/a	n/a	POOL	6	6	[0, 0, 0]	n/a	FR1	1	R1379E
671.182	0.883	678314	WORD_OFF	n/a	n/a	POOL	6	6	[0, 0, 0]	n/a	FR1	1	R1379E
672.065	1.6	679188	WORD	n/a	n/a	WOLF	7	6	[0, 0, 0]	n/a	FR1	1	R1379E
673.665	0.933	680799	WORD_OFF	n/a	n/a	WOLF	7	6	[0, 0, 0]	n/a	FR1	1	R1379E
674.598	1.617	681727	WORD	n/a	n/a	FOX	8	6	[0, 0, 0]	n/a	FR1	1	R1379E
676.215	0.933	683348	WORD_OFF	n/a	n/a	FOX	8	6	[0, 0, 0]	n/a	FR1	1	R1379E
677.148	1.6	684276	WORD	n/a	n/a	YARD	9	6	[0, 0, 0]	n/a	FR1	1	R1379E
678.748	0.834	685876	WORD_OFF	n/a	n/a	YARD	9	6	[0, 0, 0]	n/a	FR1	1	R1379E
679.582	1.6	686708	WORD	n/a	n/a	HILL	10	6	[0, 0, 0]	n/a	FR1	1	R1379E
681.182	0.933	688308	WORD_OFF	n/a	n/a	HILL	10	6	[0, 0, 0]	n/a	FR1	1	R1379E
682.115	1.6	689247	WORD	n/a	n/a	CHIEF	11	6	[0, 0, 0]	n/a	FR1	1	R1379E
683.715	0.766	690847	WORD_OFF	n/a	n/a	CHIEF	11	6	[0, 0, 0]	n/a	FR1	1	R1379E
684.481	1.601	691604	WORD	n/a	n/a	BENCH	12	6	[0, 0, 0]	n/a	FR1	1	R1379E
686.082	0.0	693204	WORD_OFF	n/a	n/a	BENCH	12	6	[0, 0, 0]	n/a	FR1	1	R1379E
686.082	0.001	693209	PROB	0.001	n/a	n/a	-999	6	[4, 6, 4]	14	FR1	1	R1379E
686.083	0.0	693210	START	n/a	n/a	n/a	-999	6	[-999, -999, -999]	n/a	FR1	1	R1379E
686.083	0.0	693215	ENCODING_END	n/a	n/a	n/a	-999	6	[0, 0, 0]	n/a	FR1	1	R1379E
686.083	2.582	693215	DISTRACT_START	n/a	n/a	n/a	-999	6	[0, 0, 0]	n/a	FR1	1	R1379E
688.665	2.05	695792	PROB	2.05	n/a	n/a	-999	6	[2, 7, 5]	14	FR1	1	R1379E
690.715	2.353	697842	PROB	2.353	n/a	n/a	-999	6	[6, 6, 8]	20	FR1	1	R1379E
693.068	3.897	700195	PROB	3.897	n/a	n/a	-999	6	[8, 5, 7]	20	FR1	1	R1379E
696.965	2.551	704092	PROB	2.551	n/a	n/a	-999	6	[4, 7, 1]	12	FR1	1	R1379E
699.516	1.25	706642	PROB	1.25	n/a	n/a	-999	6	[1, 1, 1]	3	FR1	1	R1379E
700.766	2.016	707892	PROB	2.016	n/a	n/a	-999	6	[5, 1, 8]	14	FR1	1	R1379E
702.782	3.782	709908	PROB	3.782	n/a	n/a	-999	6	[6, 8, 4]	18	FR1	1	R1379E
706.564	0.0	713690	STOP	n/a	n/a	n/a	-999	6	[-999, -999, -999]	n/a	FR1	1	R1379E
706.564	1.784	713695	DISTRACT_END	n/a	n/a	n/a	-999	6	[0, 0, 0]	n/a	FR1	1	R1379E
708.348	1.469	715475	REC_START	n/a	n/a	n/a	-999	6	[0, 0, 0]	n/a	FR1	1	R1379E
709.817	0.611	716943	REC_WORD	0.611	n/a	CHEEK	2	6	[0, 0, 0]	n/a	FR1	1	R1379E
710.428	1.807	717554	REC_WORD	1.807	n/a	CHIN	3	6	[0, 0, 0]	n/a	FR1	1	R1379E
712.235	2.604	719361	REC_WORD	2.604	n/a	YARD	9	6	[0, 0, 0]	n/a	FR1	1	R1379E
714.839	4.732	721965	REC_WORD	4.732	n/a	HEN	-999	6	[0, 0, 0]	n/a	FR1	1	R1379E
719.571	5.089	726697	REC_WORD	5.089	n/a	FOX	8	6	[0, 0, 0]	n/a	FR1	1	R1379E
724.66	13.989	731786	REC_WORD	13.989	n/a	FOOT	-999	6	[0, 0, 0]	n/a	FR1	1	R1379E
738.649	1.316	745779	REC_END	n/a	n/a	n/a	-999	6	[0, 0, 0]	n/a	FR1	1	R1379E
739.965	10.351	747092	COUNTDOWN_START	n/a	n/a	n/a	-999	7	[0, 0, 0]	n/a	FR1	1	R1379E
750.316	0.0	757439	COUNTDOWN_END	n/a	n/a	n/a	-999	7	[0, 0, 0]	n/a	FR1	1	R1379E
750.316	1.982	757439	ENCODING_START	n/a	n/a	n/a	-999	7	[0, 0, 0]	n/a	FR1	1	R1379E
752.298	1.617	759423	WORD	n/a	n/a	FUR	1	7	[0, 0, 0]	n/a	FR1	1	R1379E
753.915	0.95	761044	WORD_OFF	n/a	n/a	FUR	1	7	[0, 0, 0]	n/a	FR1	1	R1379E
754.865	1.617	761994	WORD	n/a	n/a	VASE	2	7	[0, 0, 0]	n/a	FR1	1	R1379E
756.482	0.8	763604	WORD_OFF	n/a	n/a	VASE	2	7	[0, 0, 0]	n/a	FR1	1	R1379E
757.282	1.616	764404	WORD	n/a	n/a	CHAIN	3	7	[0, 0, 0]	n/a	FR1	1	R1379E
758.898	0.95	766026	WORD_OFF	n/a	n/a	CHAIN	3	7	[0, 0, 0]	n/a	FR1	1	R1379E
759.848	1.6	766975	WORD	n/a	n/a	SLUSH	4	7	[0, 0, 0]	n/a	FR1	1	R1379E
761.448	0.817	768575	WORD_OFF	n/a	n/a	SLUSH	4	7	[0, 0, 0]	n/a	FR1	1	R1379E
762.265	1.6	769386	WORD	n/a	n/a	FLAME	5	7	[0, 0, 0]	n/a	FR1	1	R1379E
763.865	0.966	770986	WORD_OFF	n/a	n/a	FLAME	5	7	[0, 0, 0]	n/a	FR1	1	R1379E
764.831	1.617	771956	WORD	n/a	n/a	DOCK	6	7	[0, 0, 0]	n/a	FR1	1	R1379E
766.448	0.767	773578	WORD_OFF	n/a	n/a	DOCK	6	7	[0, 0, 0]	n/a	FR1	1	R1379E
767.215	1.617	774335	WORD	n/a	n/a	SKI	7	7	[0, 0, 0]	n/a	FR1	1	R1379E
768.832	0.983	775956	WORD_OFF	n/a	n/a	SKI	7	7	[0, 0, 0]	n/a	FR1	1	R1379E
769.815	1.616	776938	WORD	n/a	n/a	PRIZE	8	7	[0, 0, 0]	n/a	FR1	1	R1379E
771.431	0.934	778559	WORD_OFF	n/a	n/a	PRIZE	8	7	[0, 0, 0]	n/a	FR1	1	R1379E
772.365	1.616	779487	WORD	n/a	n/a	BAT	9	7	[0, 0, 0]	n/a	FR1	1	R1379E
773.981	0.867	781108	WORD_OFF	n/a	n/a	BAT	9	7	[0, 0, 0]	n/a	FR1	1	R1379E
774.848	1.6	781972	WORD	n/a	n/a	SPRING	10	7	[0, 0, 0]	n/a	FR1	1	R1379E
776.448	0.9	783572	WORD_OFF	n/a	n/a	SPRING	10	7	[0, 0, 0]	n/a	FR1	1	R1379E
777.348	1.6	784468	WORD	n/a	n/a	BOWL	11	7	[0, 0, 0]	n/a	FR1	1	R1379E
778.948	0.984	786068	WORD_OFF	n/a	n/a	BOWL	11	7	[0, 0, 0]	n/a	FR1	1	R1379E
779.932	1.6	787060	WORD	n/a	n/a	LIMB	12	7	[0, 0, 0]	n/a	FR1	1	R1379E
781.532	0.001	788656	PROB	0.001	n/a	n/a	-999	7	[7, 3, 3]	13	FR1	1	R1379E
781.533	0.0	788657	START	n/a	n/a	n/a	-999	7	[-999, -999, -999]	n/a	FR1	1	R1379E
781.532	0.001	788660	WORD_OFF	n/a	n/a	LIMB	12	7	[0, 0, 0]	n/a	FR1	1	R1379E
781.533	0.0	788660	ENCODING_END	n/a	n/a	n/a	-999	7	[0, 0, 0]	n/a	FR1	1	R1379E
781.533	2.649	788660	DISTRACT_START	n/a	n/a	n/a	-999	7	[0, 0, 0]	n/a	FR1	1	R1379E
784.182	2.25	791306	PROB	2.25	n/a	n/a	-999	7	[8, 3, 6]	20	FR1	1	R1379E
786.432	1.917	793555	PROB	1.917	n/a	n/a	-999	7	[8, 7, 1]	16	FR1	1	R1379E
788.349	3.882	795472	PROB	3.882	n/a	n/a	-999	7	[8, 1, 6]	15	FR1	1	R1379E
792.231	2.567	799354	PROB	2.567	n/a	n/a	-999	7	[6, 1, 2]	9	FR1	1	R1379E
794.798	1.667	801921	PROB	1.667	n/a	n/a	-999	7	[7, 6, 4]	14	FR1	1	R1379E
796.465	3.416	803588	PROB	3.416	n/a	n/a	-999	7	[8, 2, 8]	18	FR1	1	R1379E
799.881	2.833	807004	PROB	2.833	n/a	n/a	-999	7	[3, 8, 4]	15	FR1	1	R1379E
802.714	0.0	809834	DISTRACT_END	n/a	n/a	n/a	-999	7	[0, 0, 0]	n/a	FR1	1	R1379E
802.714	1.667	809837	STOP	n/a	n/a	n/a	-999	7	[-999, -999, -999]	n/a	FR1	1	R1379E
804.381	3.297	811507	REC_START	n/a	n/a	n/a	-999	7	[0, 0, 0]	n/a	FR1	1	R1379E
807.678	6.078	814801	REC_WORD	6.078	n/a	FLAME	5	7	[0, 0, 0]	n/a	FR1	1	R1379E
813.756	8.904	820879	REC_WORD	8.904	n/a	FUR	1	7	[0, 0, 0]	n/a	FR1	1	R1379E
822.66	6.541	829782	REC_WORD	6.541	n/a	LIMB	12	7	[0, 0, 0]	n/a	FR1	1	R1379E
829.201	5.486	836323	REC_WORD	5.486	n/a	FOX	-999	7	[0, 0, 0]	n/a	FR1	1	R1379E
834.687	1.578	841811	REC_END	n/a	n/a	n/a	-999	7	[0, 0, 0]	n/a	FR1	1	R1379E
836.265	10.351	843391	COUNTDOWN_START	n/a	n/a	n/a	-999	8	[0, 0, 0]	n/a	FR1	1	R1379E
846.616	0.0	853738	COUNTDOWN_END	n/a	n/a	n/a	-999	8	[0, 0, 0]	n/a	FR1	1	R1379E
846.616	1.882	853738	ENCODING_START	n/a	n/a	n/a	-999	8	[0, 0, 0]	n/a	FR1	1	R1379E
848.498	1.617	855626	WORD	n/a	n/a	BONE	1	8	[0, 0, 0]	n/a	FR1	1	R1379E
850.115	0.833	857236	WORD_OFF	n/a	n/a	BONE	1	8	[0, 0, 0]	n/a	FR1	1	R1379E
850.948	1.6	858068	WORD	n/a	n/a	EGG	2	8	[0, 0, 0]	n/a	FR1	1	R1379E
852.548	0.917	859668	WORD_OFF	n/a	n/a	EGG	2	8	[0, 0, 0]	n/a	FR1	1	R1379E
853.465	1.616	860586	WORD	n/a	n/a	CONE	3	8	[0, 0, 0]	n/a	FR1	1	R1379E
855.081	0.95	862207	WORD_OFF	n/a	n/a	CONE	3	8	[0, 0, 0]	n/a	FR1	1	R1379E
856.031	1.6	863156	WORD	n/a	n/a	BOY	4	8	[0, 0, 0]	n/a	FR1	1	R1379E
857.631	0.983	864756	WORD_OFF	n/a	n/a	BOY	4	8	[0, 0, 0]	n/a	FR1	1	R1379E
858.614	1.601	865738	WORD	n/a	n/a	HOLE	5	8	[0, 0, 0]	n/a	FR1	1	R1379E
860.215	0.917	867338	WORD_OFF	n/a	n/a	HOLE	5	8	[0, 0, 0]	n/a	FR1	1	R1379E
861.132	1.615	868255	WORD	n/a	n/a	OWL	6	8	[0, 0, 0]	n/a	FR1	1	R1379E
862.747	0.851	869866	WORD_OFF	n/a	n/a	OWL	6	8	[0, 0, 0]	n/a	FR1	1	R1379E
863.598	1.6	870719	WORD	n/a	n/a	BLOOD	7	8	[0, 0, 0]	n/a	FR1	1	R1379E
865.198	0.9	872319	WORD_OFF	n/a	n/a	BLOOD	7	8	[0, 0, 0]	n/a	FR1	1	R1379E
866.098	1.6	873215	WORD	n/a	n/a	RAT	8	8	[0, 0, 0]	n/a	FR1	1	R1379E
867.698	0.933	874815	WORD_OFF	n/a	n/a	RAT	8	8	[0, 0, 0]	n/a	FR1	1	R1379E
868.631	1.601	875754	WORD	n/a	n/a	SHEET	9	8	[0, 0, 0]	n/a	FR1	1	R1379E
870.232	0.932	877354	WORD_OFF	n/a	n/a	SHEET	9	8	[0, 0, 0]	n/a	FR1	1	R1379E
871.164	1.601	878282	WORD	n/a	n/a	TRAY	10	8	[0, 0, 0]	n/a	FR1	1	R1379E
872.765	0.8	879882	WORD_OFF	n/a	n/a	TRAY	10	8	[0, 0, 0]	n/a	FR1	1	R1379E
873.565	1.616	880682	WORD	n/a	n/a	GLASS	11	8	[0, 0, 0]	n/a	FR1	1	R1379E
875.181	0.8	882303	WORD_OFF	n/a	n/a	GLASS	11	8	[0, 0, 0]	n/a	FR1	1	R1379E
875.981	1.601	883103	WORD	n/a	n/a	MOSS	12	8	[0, 0, 0]	n/a	FR1	1	R1379E
877.582	0.0	884702	PROB	0.0	n/a	n/a	-999	8	[4, 7, 8]	19	FR1	1	R1379E
877.581	0.002	884703	WORD_OFF	n/a	n/a	MOSS	12	8	[0, 0, 0]	n/a	FR1	1	R1379E
877.583	0.0	884703	ENCODING_END	n/a	n/a	n/a	-999	8	[0, 0, 0]	n/a	FR1	1	R1379E
877.583	0.0	884703	DISTRACT_START	n/a	n/a	n/a	-999	8	[0, 0, 0]	n/a	FR1	1	R1379E
877.583	2.932	884703	START	n/a	n/a	n/a	-999	8	[-999, -999, -999]	n/a	FR1	1	R1379E
880.515	2.45	887635	PROB	2.45	n/a	n/a	-999	8	[7, 2, 8]	17	FR1	1	R1379E
882.965	1.652	890085	PROB	1.652	n/a	n/a	-999	8	[1, 8, 6]	15	FR1	1	R1379E
884.617	3.414	891737	PROB	3.414	n/a	n/a	-999	8	[8, 8, 5]	21	FR1	1	R1379E
888.031	4.517	895151	PROB	4.517	n/a	n/a	-999	8	[2, 5, 4]	9	FR1	1	R1379E
892.548	2.266	899668	PROB	2.266	n/a	n/a	-999	8	[5, 1, 7]	13	FR1	1	R1379E
894.814	2.601	901934	PROB	2.601	n/a	n/a	-999	8	[7, 4, 7]	18	FR1	1	R1379E
897.415	2.066	904535	PROB	2.066	n/a	n/a	-999	8	[1, 7, 4]	12	FR1	1	R1379E
899.481	0.0	906601	STOP	n/a	n/a	n/a	-999	8	[-999, -999, -999]	n/a	FR1	1	R1379E
899.481	1.616	906602	DISTRACT_END	n/a	n/a	n/a	-999	8	[0, 0, 0]	n/a	FR1	1	R1379E
901.097	8.216	908222	REC_START	n/a	n/a	n/a	-999	8	[0, 0, 0]	n/a	FR1	1	R1379E
909.313	5.503	916432	REC_WORD	5.503	n/a	BLOOD	7	8	[0, 0, 0]	n/a	FR1	1	R1379E
914.816	5.421	921935	REC_WORD	5.421	n/a	SHEET	9	8	[0, 0, 0]	n/a	FR1	1	R1379E
920.237	9.947	927356	REC_WORD	9.947	n/a	FACE	-999	8	[0, 0, 0]	n/a	FR1	1	R1379E
930.184	1.231	937303	REC_WORD	1.231	n/a	CONE	3	8	[0, 0, 0]	n/a	FR1	1	R1379E
931.415	1.466	938536	REC_END	n/a	n/a	n/a	-999	8	[0, 0, 0]	n/a	FR1	1	R1379E
932.881	10.351	939999	COUNTDOWN_START	n/a	n/a	n/a	-999	9	[0, 0, 0]	n/a	FR1	1	R1379E
943.232	0.0	950356	COUNTDOWN_END	n/a	n/a	n/a	-999	9	[0, 0, 0]	n/a	FR1	1	R1379E
943.232	2.115	950356	ENCODING_START	n/a	n/a	n/a	-999	9	[0, 0, 0]	n/a	FR1	1	R1379E
945.347	1.601	952468	WORD	n/a	n/a	TRAIL	1	9	[0, 0, 0]	n/a	FR1	1	R1379E
946.948	0.9	954068	WORD_OFF	n/a	n/a	TRAIL	1	9	[0, 0, 0]	n/a	FR1	1	R1379E
947.848	1.6	954964	WORD	n/a	n/a	SAIL	2	9	[0, 0, 0]	n/a	FR1	1	R1379E
949.448	1.0	956564	WORD_OFF	n/a	n/a	SAIL	2	9	[0, 0, 0]	n/a	FR1	1	R1379E
950.448	1.617	957567	WORD	n/a	n/a	TRASH	3	9	[0, 0, 0]	n/a	FR1	1	R1379E
952.065	0.95	959188	WORD_OFF	n/a	n/a	TRASH	3	9	[0, 0, 0]	n/a	FR1	1	R1379E
953.015	1.616	960138	WORD	n/a	n/a	ELF	4	9	[0, 0, 0]	n/a	FR1	1	R1379E
954.631	0.851	961748	WORD_OFF	n/a	n/a	ELF	4	9	[0, 0, 0]	n/a	FR1	1	R1379E
955.482	1.6	962601	WORD	n/a	n/a	CUBE	5	9	[0, 0, 0]	n/a	FR1	1	R1379E
957.082	0.95	964201	WORD_OFF	n/a	n/a	CUBE	5	9	[0, 0, 0]	n/a	FR1	1	R1379E
958.032	1.616	965151	WORD	n/a	n/a	MINK	6	9	[0, 0, 0]	n/a	FR1	1	R1379E
959.648	0.934	966772	WORD_OFF	n/a	n/a	MINK	6	9	[0, 0, 0]	n/a	FR1	1	R1379E
960.582	1.616	967700	WORD	n/a	n/a	BREAST	7	9	[0, 0, 0]	n/a	FR1	1	R1379E
962.198	0.867	969321	WORD_OFF	n/a	n/a	BREAST	7	9	[0, 0, 0]	n/a	FR1	1	R1379E
963.065	1.6	970185	WORD	n/a	n/a	NURSE	8	9	[0, 0, 0]	n/a	FR1	1	R1379E
964.665	0.9	971785	WORD_OFF	n/a	n/a	NURSE	8	9	[0, 0, 0]	n/a	FR1	1	R1379E
965.565	1.616	972681	WORD	n/a	n/a	BEAN	9	9	[0, 0, 0]	n/a	FR1	1	R1379E
967.181	0.784	974303	WORD_OFF	n/a	n/a	BEAN	9	9	[0, 0, 0]	n/a	FR1	1	R1379E
967.965	1.616	975081	WORD	n/a	n/a	CLAY	10	9	[0, 0, 0]	n/a	FR1	1	R1379E
969.581	0.917	976703	WORD_OFF	n/a	n/a	CLAY	10	9	[0, 0, 0]	n/a	FR1	1	R1379E
970.498	1.6	977620	WORD	n/a	n/a	STAR	11	9	[0, 0, 0]	n/a	FR1	1	R1379E
972.098	0.983	979220	WORD_OFF	n/a	n/a	STAR	11	9	[0, 0, 0]	n/a	FR1	1	R1379E
973.081	1.601	980201	WORD	n/a	n/a	BLOOM	12	9	[0, 0, 0]	n/a	FR1	1	R1379E
974.682	0.001	981799	PROB	0.001	n/a	n/a	-999	9	[6, 1, 5]	12	FR1	1	R1379E
974.683	0.0	981800	START	n/a	n/a	n/a	-999	9	[-999, -999, -999]	n/a	FR1	1	R1379E
974.681	0.002	981801	WORD_OFF	n/a	n/a	BLOOM	12	9	[0, 0, 0]	n/a	FR1	1	R1379E
974.683	0.0	981801	ENCODING_END	n/a	n/a	n/a	-999	9	[0, 0, 0]	n/a	FR1	1	R1379E
974.683	2.866	981801	DISTRACT_START	n/a	n/a	n/a	-999	9	[0, 0, 0]	n/a	FR1	1	R1379E
977.549	1.119	984666	PROB	1.119	n/a	n/a	-999	9	[1, 1, 1]	3	FR1	1	R1379E
978.668	2.164	985785	PROB	2.164	n/a	n/a	-999	9	[5, 7, 6]	18	FR1	1	R1379E
980.832	1.783	987949	PROB	1.783	n/a	n/a	-999	9	[3, 6, 6]	15	FR1	1	R1379E
982.615	4.3	989732	PROB	4.3	n/a	n/a	-999	9	[6, 5, 8]	19	FR1	1	R1379E
986.915	2.799	994032	PROB	2.799	n/a	n/a	-999	9	[2, 5, 6]	13	FR1	1	R1379E
989.714	3.054	996831	PROB	3.054	n/a	n/a	-999	9	[7, 5, 8]	20	FR1	1	R1379E
992.768	3.062	999884	PROB	3.062	n/a	n/a	-999	9	[8, 4, 6]	18	FR1	1	R1379E
995.83	0.0	1002943	DISTRACT_END	n/a	n/a	n/a	-999	9	[0, 0, 0]	n/a	FR1	1	R1379E
995.83	1.867	1002946	STOP	n/a	n/a	n/a	-999	9	[-999, -999, -999]	n/a	FR1	1	R1379E
997.697	1.54	1004819	REC_START	n/a	n/a	n/a	-999	9	[0, 0, 0]	n/a	FR1	1	R1379E
999.237	0.936	1006353	REC_WORD	0.936	n/a	NURSE	8	9	[0, 0, 0]	n/a	FR1	1	R1379E
1000.173	6.482	1007289	REC_WORD	6.482	n/a	BEAN	9	9	[0, 0, 0]	n/a	FR1	1	R1379E
1006.655	21.332	1013771	REC_WORD	21.332	n/a	TRAIL	1	9	[0, 0, 0]	n/a	FR1	1	R1379E
1027.987	1.845	1035101	REC_END	n/a	n/a	n/a	-999	9	[0, 0, 0]	n/a	FR1	1	R1379E
1029.832	10.35	1036948	COUNTDOWN_START	n/a	n/a	n/a	-999	10	[0, 0, 0]	n/a	FR1	1	R1379E
1040.182	0.0	1047295	COUNTDOWN_END	n/a	n/a	n/a	-999	10	[0, 0, 0]	n/a	FR1	1	R1379E
1040.182	2.233	1047295	ENCODING_START	n/a	n/a	n/a	-999	10	[0, 0, 0]	n/a	FR1	1	R1379E
1042.415	1.6	1049535	WORD	n/a	n/a	LANE	1	10	[0, 0, 0]	n/a	FR1	1	R1379E
1044.015	0.85	1051135	WORD_OFF	n/a	n/a	LANE	1	10	[0, 0, 0]	n/a	FR1	1	R1379E
1044.865	1.6	1051977	WORD	n/a	n/a	BUSH	2	10	[0, 0, 0]	n/a	FR1	1	R1379E
1046.465	0.967	1053577	WORD_OFF	n/a	n/a	BUSH	2	10	[0, 0, 0]	n/a	FR1	1	R1379E
1047.432	1.616	1054548	WORD	n/a	n/a	SEAL	3	10	[0, 0, 0]	n/a	FR1	1	R1379E
1049.048	0.767	1056159	WORD_OFF	n/a	n/a	SEAL	3	10	[0, 0, 0]	n/a	FR1	1	R1379E
1049.815	1.617	1056927	WORD	n/a	n/a	JAIL	4	10	[0, 0, 0]	n/a	FR1	1	R1379E
1051.432	0.966	1058548	WORD_OFF	n/a	n/a	JAIL	4	10	[0, 0, 0]	n/a	FR1	1	R1379E
1052.398	1.617	1059508	WORD	n/a	n/a	SPONGE	5	10	[0, 0, 0]	n/a	FR1	1	R1379E
1054.015	0.917	1061129	WORD_OFF	n/a	n/a	SPONGE	5	10	[0, 0, 0]	n/a	FR1	1	R1379E
1054.932	1.616	1062047	WORD	n/a	n/a	RUG	6	10	[0, 0, 0]	n/a	FR1	1	R1379E
1056.548	0.767	1063668	WORD_OFF	n/a	n/a	RUG	6	10	[0, 0, 0]	n/a	FR1	1	R1379E
1057.315	1.6	1064425	WORD	n/a	n/a	BROOM	7	10	[0, 0, 0]	n/a	FR1	1	R1379E
1058.915	0.983	1066025	WORD_OFF	n/a	n/a	BROOM	7	10	[0, 0, 0]	n/a	FR1	1	R1379E
1059.898	1.6	1067017	WORD	n/a	n/a	SKUNK	8	10	[0, 0, 0]	n/a	FR1	1	R1379E
1061.498	0.917	1068617	WORD_OFF	n/a	n/a	SKUNK	8	10	[0, 0, 0]	n/a	FR1	1	R1379E
1062.415	1.616	1069524	WORD	n/a	n/a	PIN	9	10	[0, 0, 0]	n/a	FR1	1	R1379E
1064.031	0.8	1071145	WORD_OFF	n/a	n/a	PIN	9	10	[0, 0, 0]	n/a	FR1	1	R1379E
1064.831	1.6	1071945	WORD	n/a	n/a	ZOO	10	10	[0, 0, 0]	n/a	FR1	1	R1379E
1066.431	0.984	1073545	WORD_OFF	n/a	n/a	ZOO	10	10	[0, 0, 0]	n/a	FR1	1	R1379E
1067.415	1.6	1074527	WORD	n/a	n/a	BEEF	11	10	[0, 0, 0]	n/a	FR1	1	R1379E
1069.015	0.933	1076127	WORD_OFF	n/a	n/a	BEEF	11	10	[0, 0, 0]	n/a	FR1	1	R1379E
1069.948	1.6	1077065	WORD	n/a	n/a	ICE	12	10	[0, 0, 0]	n/a	FR1	1	R1379E
1071.548	0.001	1078662	PROB	0.001	n/a	n/a	-999	10	[8, 2, 8]	18	FR1	1	R1379E
1071.549	0.0	1078663	START	n/a	n/a	n/a	-999	10	[-999, -999, -999]	n/a	FR1	1	R1379E
1071.548	0.001	1078665	WORD_OFF	n/a	n/a	ICE	12	10	[0, 0, 0]	n/a	FR1	1	R1379E
1071.549	0.0	1078665	ENCODING_END	n/a	n/a	n/a	-999	10	[0, 0, 0]	n/a	FR1	1	R1379E
1071.549	2.4	1078665	DISTRACT_START	n/a	n/a	n/a	-999	10	[0, 0, 0]	n/a	FR1	1	R1379E
1073.949	2.183	1081063	PROB	2.183	n/a	n/a	-999	10	[7, 7, 5]	19	FR1	1	R1379E
1076.132	1.849	1083246	PROB	1.849	n/a	n/a	-999	10	[5, 3, 7]	15	FR1	1	R1379E
1077.981	1.5	1085095	PROB	1.5	n/a	n/a	-999	10	[1, 5, 2]	8	FR1	1	R1379E
1079.481	3.25	1086594	PROB	3.25	n/a	n/a	-999	10	[7, 1, 6]	14	FR1	1	R1379E
1082.731	2.001	1089844	PROB	2.001	n/a	n/a	-999	10	[6, 5, 8]	19	FR1	1	R1379E
1084.732	1.832	1091845	PROB	1.832	n/a	n/a	-999	10	[8, 4, 2]	15	FR1	1	R1379E
1086.564	3.75	1093677	PROB	3.75	n/a	n/a	-999	10	[8, 7, 4]	19	FR1	1	R1379E
1090.314	3.6	1097427	PROB	3.6	n/a	n/a	-999	10	[8, 8, 8]	24	FR1	1	R1379E
1093.914	0.0	1101023	DISTRACT_END	n/a	n/a	n/a	-999	10	[0, 0, 0]	n/a	FR1	1	R1379E
1093.914	1.8	1101027	STOP	n/a	n/a	n/a	-999	10	[-999, -999, -999]	n/a	FR1	1	R1379E
1095.714	2.843	1102824	REC_START	n/a	n/a	n/a	-999	10	[0, 0, 0]	n/a	FR1	1	R1379E
1098.557	0.93	1105670	REC_WORD	0.93	n/a	BROOM	7	10	[0, 0, 0]	n/a	FR1	1	R1379E
1099.487	1.814	1106600	REC_WORD	1.814	n/a	SKUNK	8	10	[0, 0, 0]	n/a	FR1	1	R1379E
1101.301	2.372	1108414	REC_WORD	2.372	n/a	LANE	1	10	[0, 0, 0]	n/a	FR1	1	R1379E
1103.673	22.328	1110786	REC_WORD	22.328	n/a	BUSH	2	10	[0, 0, 0]	n/a	FR1	1	R1379E
1126.001	1.297	1133117	REC_END	n/a	n/a	n/a	-999	10	[0, 0, 0]	n/a	FR1	1	R1379E
1127.298	10.351	1134409	COUNTDOWN_START	n/a	n/a	n/a	-999	11	[0, 0, 0]	n/a	FR1	1	R1379E
1137.649	0.0	1144756	COUNTDOWN_END	n/a	n/a	n/a	-999	11	[0, 0, 0]	n/a	FR1	1	R1379E
1137.649	1.899	1144767	ENCODING_START	n/a	n/a	n/a	-999	11	[0, 0, 0]	n/a	FR1	1	R1379E
1139.548	1.617	1146665	WORD	n/a	n/a	SUN	1	11	[0, 0, 0]	n/a	FR1	1	R1379E
1141.165	0.816	1148276	WORD_OFF	n/a	n/a	SUN	1	11	[0, 0, 0]	n/a	FR1	1	R1379E
1141.981	1.601	1149097	WORD	n/a	n/a	BATH	2	11	[0, 0, 0]	n/a	FR1	1	R1379E
1143.582	0.816	1150697	WORD_OFF	n/a	n/a	BATH	2	11	[0, 0, 0]	n/a	FR1	1	R1379E
1144.398	1.6	1151508	WORD	n/a	n/a	FRUIT	3	11	[0, 0, 0]	n/a	FR1	1	R1379E
1145.998	0.817	1153108	WORD_OFF	n/a	n/a	FRUIT	3	11	[0, 0, 0]	n/a	FR1	1	R1379E
1146.815	1.6	1153929	WORD	n/a	n/a	HOUSE	4	11	[0, 0, 0]	n/a	FR1	1	R1379E
1148.415	0.883	1155529	WORD_OFF	n/a	n/a	HOUSE	4	11	[0, 0, 0]	n/a	FR1	1	R1379E
1149.298	1.6	1156415	WORD	n/a	n/a	CHALK	5	11	[0, 0, 0]	n/a	FR1	1	R1379E
1150.898	0.999	1158015	WORD_OFF	n/a	n/a	CHALK	5	11	[0, 0, 0]	n/a	FR1	1	R1379E
1151.897	1.601	1159007	WORD	n/a	n/a	HEART	6	11	[0, 0, 0]	n/a	FR1	1	R1379E
1153.498	0.817	1160607	WORD_OFF	n/a	n/a	HEART	6	11	[0, 0, 0]	n/a	FR1	1	R1379E
1154.315	1.6	1161428	WORD	n/a	n/a	BIN	7	11	[0, 0, 0]	n/a	FR1	1	R1379E
1155.915	0.833	1163028	WORD_OFF	n/a	n/a	BIN	7	11	[0, 0, 0]	n/a	FR1	1	R1379E
1156.748	1.616	1163860	WORD	n/a	n/a	STOOL	8	11	[0, 0, 0]	n/a	FR1	1	R1379E
1158.364	0.851	1165481	WORD_OFF	n/a	n/a	STOOL	8	11	[0, 0, 0]	n/a	FR1	1	R1379E
1159.215	1.6	1166324	WORD	n/a	n/a	SCHOOL	9	11	[0, 0, 0]	n/a	FR1	1	R1379E
1160.815	0.783	1167924	WORD_OFF	n/a	n/a	SCHOOL	9	11	[0, 0, 0]	n/a	FR1	1	R1379E
1161.598	1.6	1168713	WORD	n/a	n/a	GLOVE	10	11	[0, 0, 0]	n/a	FR1	1	R1379E
1163.198	0.867	1170313	WORD_OFF	n/a	n/a	GLOVE	10	11	[0, 0, 0]	n/a	FR1	1	R1379E
1164.065	1.6	1171177	WORD	n/a	n/a	INK	11	11	[0, 0, 0]	n/a	FR1	1	R1379E
1165.665	1.0	1172777	WORD_OFF	n/a	n/a	INK	11	11	[0, 0, 0]	n/a	FR1	1	R1379E
1166.665	1.616	1173780	WORD	n/a	n/a	PALM	12	11	[0, 0, 0]	n/a	FR1	1	R1379E
1168.281	0.001	1175391	WORD_OFF	n/a	n/a	PALM	12	11	[0, 0, 0]	n/a	FR1	1	R1379E
1168.282	0.001	1175391	ENCODING_END	n/a	n/a	n/a	-999	11	[0, 0, 0]	n/a	FR1	1	R1379E
1168.283	0.0	1175391	DISTRACT_START	n/a	n/a	n/a	-999	11	[0, 0, 0]	n/a	FR1	1	R1379E
1168.282	0.001	1175392	PROB	0.001	n/a	n/a	-999	11	[7, 6, 3]	16	FR1	1	R1379E
1168.283	2.698	1175393	START	n/a	n/a	n/a	-999	11	[-999, -999, -999]	n/a	FR1	1	R1379E
1170.981	1.7	1178091	PROB	1.7	n/a	n/a	-999	11	[5, 3, 5]	13	FR1	1	R1379E
1172.681	4.151	1179791	PROB	4.151	n/a	n/a	-999	11	[2, 2, 4]	6	FR1	1	R1379E
1176.832	1.666	1183942	PROB	1.666	n/a	n/a	-999	11	[7, 4, 1]	12	FR1	1	R1379E
1178.498	1.733	1185608	PROB	1.733	n/a	n/a	-999	11	[1, 8, 4]	14	FR1	1	R1379E
1180.231	2.304	1187341	PROB	2.304	n/a	n/a	-999	11	[6, 6, 5]	17	FR1	1	R1379E
1182.535	2.862	1189645	PROB	2.862	n/a	n/a	-999	11	[3, 8, 5]	16	FR1	1	R1379E
1185.397	2.534	1192507	PROB	2.534	n/a	n/a	-999	11	[8, 3, 7]	18	FR1	1	R1379E
1187.931	3.0	1195041	PROB	3.0	n/a	n/a	-999	11	[2, 8, 6]	16	FR1	1	R1379E
1190.931	0.0	1198041	STOP	n/a	n/a	n/a	-999	11	[-999, -999, -999]	n/a	FR1	1	R1379E
1190.931	1.767	1198046	DISTRACT_END	n/a	n/a	n/a	-999	11	[0, 0, 0]	n/a	FR1	1	R1379E
1192.698	2.464	1199805	REC_START	n/a	n/a	n/a	-999	11	[0, 0, 0]	n/a	FR1	1	R1379E
1195.162	0.594	1202272	REC_WORD	0.594	n/a	STOOL	8	11	[0, 0, 0]	n/a	FR1	1	R1379E
1195.756	8.435	1202866	REC_WORD	8.435	n/a	SCHOOL	9	11	[0, 0, 0]	n/a	FR1	1	R1379E
1204.191	15.143	1211300	REC_WORD	15.143	n/a	SUN	1	11	[0, 0, 0]	n/a	FR1	1	R1379E
1219.334	3.669	1226443	REC_WORD	3.669	n/a	BROOM	-999	11	[0, 0, 0]	n/a	FR1	1	R1379E
1223.003	1.045	1230109	REC_END	n/a	n/a	n/a	-999	11	[0, 0, 0]	n/a	FR1	1	R1379E
1224.048	10.351	1231156	COUNTDOWN_START	n/a	n/a	n/a	-999	12	[0, 0, 0]	n/a	FR1	1	R1379E
1234.399	0.0	1241513	COUNTDOWN_END	n/a	n/a	n/a	-999	12	[0, 0, 0]	n/a	FR1	1	R1379E
1234.399	2.149	1241513	ENCODING_START	n/a	n/a	n/a	-999	12	[0, 0, 0]	n/a	FR1	1	R1379E
1236.548	1.618	1243657	WORD	n/a	n/a	EARTH	1	12	[0, 0, 0]	n/a	FR1	1	R1379E
1238.166	0.966	1245279	WORD_OFF	n/a	n/a	EARTH	1	12	[0, 0, 0]	n/a	FR1	1	R1379E
1239.132	1.616	1246239	WORD	n/a	n/a	FORT	2	12	[0, 0, 0]	n/a	FR1	1	R1379E
1240.748	0.85	1247860	WORD_OFF	n/a	n/a	FORT	2	12	[0, 0, 0]	n/a	FR1	1	R1379E
1241.598	1.617	1248703	WORD	n/a	n/a	FOOD	3	12	[0, 0, 0]	n/a	FR1	1	R1379E
1243.215	0.817	1250324	WORD_OFF	n/a	n/a	FOOD	3	12	[0, 0, 0]	n/a	FR1	1	R1379E
1244.032	1.599	1251145	WORD	n/a	n/a	DIME	4	12	[0, 0, 0]	n/a	FR1	1	R1379E
1245.631	0.817	1252745	WORD_OFF	n/a	n/a	DIME	4	12	[0, 0, 0]	n/a	FR1	1	R1379E
1246.448	1.6	1253556	WORD	n/a	n/a	LIP	5	12	[0, 0, 0]	n/a	FR1	1	R1379E
1248.048	0.967	1255156	WORD_OFF	n/a	n/a	LIP	5	12	[0, 0, 0]	n/a	FR1	1	R1379E
1249.015	1.616	1256127	WORD	n/a	n/a	JAR	6	12	[0, 0, 0]	n/a	FR1	1	R1379E
1250.631	0.784	1257737	WORD_OFF	n/a	n/a	JAR	6	12	[0, 0, 0]	n/a	FR1	1	R1379E
1251.415	1.6	1258527	WORD	n/a	n/a	NEST	7	12	[0, 0, 0]	n/a	FR1	1	R1379E
1253.015	0.983	1260127	WORD_OFF	n/a	n/a	NEST	7	12	[0, 0, 0]	n/a	FR1	1	R1379E
1253.998	1.617	1261108	WORD	n/a	n/a	ARK	8	12	[0, 0, 0]	n/a	FR1	1	R1379E
1255.615	0.833	1262719	WORD_OFF	n/a	n/a	ARK	8	12	[0, 0, 0]	n/a	FR1	1	R1379E
1256.448	1.617	1263561	WORD	n/a	n/a	NAIL	9	12	[0, 0, 0]	n/a	FR1	1	R1379E
1258.065	0.766	1265172	WORD_OFF	n/a	n/a	NAIL	9	12	[0, 0, 0]	n/a	FR1	1	R1379E
1258.831	1.6	1265940	WORD	n/a	n/a	CLOTH	10	12	[0, 0, 0]	n/a	FR1	1	R1379E
1260.431	0.95	1267540	WORD_OFF	n/a	n/a	CLOTH	10	12	[0, 0, 0]	n/a	FR1	1	R1379E
1261.381	1.617	1268489	WORD	n/a	n/a	SOAP	11	12	[0, 0, 0]	n/a	FR1	1	R1379E
1262.998	0.916	1270111	WORD_OFF	n/a	n/a	SOAP	11	12	[0, 0, 0]	n/a	FR1	1	R1379E
1263.914	1.6	1271028	WORD	n/a	n/a	SEAT	12	12	[0, 0, 0]	n/a	FR1	1	R1379E
1265.514	0.001	1272617	WORD_OFF	n/a	n/a	SEAT	12	12	[0, 0, 0]	n/a	FR1	1	R1379E
1265.515	0.001	1272622	PROB	0.001	n/a	n/a	-999	12	[4, 3, 2]	9	FR1	1	R1379E
1265.516	0.0	1272623	START	n/a	n/a	n/a	-999	12	[-999, -999, -999]	n/a	FR1	1	R1379E
1265.516	0.0	1272628	ENCODING_END	n/a	n/a	n/a	-999	12	[0, 0, 0]	n/a	FR1	1	R1379E
1265.516	6.265	1272628	DISTRACT_START	n/a	n/a	n/a	-999	12	[0, 0, 0]	n/a	FR1	1	R1379E
1271.781	2.001	1278888	PROB	2.001	n/a	n/a	-999	12	[3, 5, 3]	11	FR1	1	R1379E
1273.782	2.566	1280889	PROB	2.566	n/a	n/a	-999	12	[3, 5, 1]	9	FR1	1	R1379E
1276.348	3.717	1283455	PROB	3.717	n/a	n/a	-999	12	[3, 6, 4]	13	FR1	1	R1379E
1280.065	2.266	1287172	PROB	2.266	n/a	n/a	-999	12	[4, 5, 1]	10	FR1	1	R1379E
1282.331	2.268	1289438	PROB	2.268	n/a	n/a	-999	12	[4, 1, 8]	13	FR1	1	R1379E
1284.599	2.283	1291706	PROB	2.283	n/a	n/a	-999	12	[4, 3, 3]	11	FR1	1	R1379E
1286.882	0.0	1293988	STOP	n/a	n/a	n/a	-999	12	[-999, -999, -999]	n/a	FR1	1	R1379E
1286.882	1.835	1293993	DISTRACT_END	n/a	n/a	n/a	-999	12	[0, 0, 0]	n/a	FR1	1	R1379E
1288.717	3.996	1295827	REC_START	n/a	n/a	n/a	-999	12	[0, 0, 0]	n/a	FR1	1	R1379E
1292.713	26.311	1299819	REC_WORD	26.311	n/a	EARTH	1	12	[0, 0, 0]	n/a	FR1	1	R1379E
1319.024	0.0	1326131	REC_END	n/a	n/a	n/a	-999	12	[0, 0, 0]	n/a	FR1	1	R1379E
