onset	duration	sample	trial_type	response_time	stim_file	item_name	serialpos	list	test	answer	experiment	session	subject
0.0	13.669	375713	SESS_START	n/a	n/a	n/a	-999	-999	[0, 0, 0]	n/a	FR1	0	R1044J
13.669	10.428	389381	COUNTDOWN_START	n/a	n/a	n/a	-999	-999	[0, 0, 0]	n/a	FR1	0	R1044J
24.097	3.896	399809	COUNTDOWN_END	n/a	n/a	n/a	-999	-999	[0, 0, 0]	n/a	FR1	0	R1044J
27.993	2.387	403705	PRACTICE_WORD	n/a	n/a	CAMEL	1	-1	[0, 0, 0]	n/a	FR1	0	R1044J
30.38	2.388	406092	PRACTICE_WORD	n/a	n/a	COTTON	2	-1	[0, 0, 0]	n/a	FR1	0	R1044J
32.768	2.454	408480	PRACTICE_WORD	n/a	n/a	IRON	3	-1	[0, 0, 0]	n/a	FR1	0	R1044J
35.222	2.438	410934	PRACTICE_WORD	n/a	n/a	RING	4	-1	[0, 0, 0]	n/a	FR1	0	R1044J
37.66	2.437	413371	PRACTICE_WORD	n/a	n/a	BEAM	5	-1	[0, 0, 0]	n/a	FR1	0	R1044J
40.097	2.621	415808	PRACTICE_WORD	n/a	n/a	WATCH	6	-1	[0, 0, 0]	n/a	FR1	0	R1044J
42.718	2.421	418429	PRACTICE_WORD	n/a	n/a	TONGUE	7	-1	[0, 0, 0]	n/a	FR1	0	R1044J
45.139	2.437	420850	PRACTICE_WORD	n/a	n/a	FLOOD	8	-1	[0, 0, 0]	n/a	FR1	0	R1044J
47.576	2.455	423287	PRACTICE_WORD	n/a	n/a	RHINO	9	-1	[0, 0, 0]	n/a	FR1	0	R1044J
50.031	2.52	425742	PRACTICE_WORD	n/a	n/a	CHEST	10	-1	[0, 0, 0]	n/a	FR1	0	R1044J
52.551	2.605	428262	PRACTICE_WORD	n/a	n/a	ATTIC	11	-1	[0, 0, 0]	n/a	FR1	0	R1044J
55.156	1.619	430867	PRACTICE_WORD	n/a	n/a	WAGON	12	-1	[0, 0, 0]	n/a	FR1	0	R1044J
56.775	0.001	432486	PRACTICE_DISTRACT_START	n/a	n/a	n/a	-999	-1	[0, 0, 0]	n/a	FR1	0	R1044J
56.776	0.032	432487	START	n/a	n/a	n/a	-999	-1	[-999, -999, -999]	n/a	FR1	0	R1044J
56.808	13.924	432519	PROB	13.924	n/a	n/a	-999	-1	[1, 4, 7]	12	FR1	0	R1044J
70.732	9.149	446442	PROB	9.149	n/a	n/a	-999	-1	[8, 1, 6]	15	FR1	0	R1044J
79.881	0.016	455591	STOP	n/a	n/a	n/a	-999	-1	[-999, -999, -999]	n/a	FR1	0	R1044J
79.897	0.569	455607	PRACTICE_DISTRACT_END	n/a	n/a	n/a	-999	-1	[0, 0, 0]	n/a	FR1	0	R1044J
80.466	30.517	456176	PRACTICE_REC_START	n/a	n/a	n/a	-999	-1	[0, 0, 0]	n/a	FR1	0	R1044J
110.983	26.477	486692	PRACTICE_REC_END	n/a	n/a	n/a	-999	-1	[0, 0, 0]	n/a	FR1	0	R1044J
137.46	0.0	513168	TRIAL	n/a	n/a	n/a	-999	1	[0, 0, 0]	n/a	FR1	0	R1044J
137.46	10.428	513168	COUNTDOWN_START	n/a	n/a	n/a	-999	1	[0, 0, 0]	n/a	FR1	0	R1044J
147.888	0.007	523595	COUNTDOWN_END	n/a	n/a	n/a	-999	1	[0, 0, 0]	n/a	FR1	0	R1044J
147.895	2.47	523602	ORIENT	n/a	n/a	n/a	-999	1	[0, 0, 0]	n/a	FR1	0	R1044J
150.365	2.388	526072	WORD	n/a	wordpools/wordpool_EN.txt	OAK	1	1	[0, 0, 0]	n/a	FR1	0	R1044J
152.753	2.405	528460	WORD	n/a	wordpools/wordpool_EN.txt	CUP	2	1	[0, 0, 0]	n/a	FR1	0	R1044J
155.158	2.605	530865	WORD	n/a	wordpools/wordpool_EN.txt	MUG	3	1	[0, 0, 0]	n/a	FR1	0	R1044J
157.763	2.403	533470	WORD	n/a	wordpools/wordpool_EN.txt	SHELL	4	1	[0, 0, 0]	n/a	FR1	0	R1044J
160.166	2.387	535873	WORD	n/a	wordpools/wordpool_EN.txt	PASTE	5	1	[0, 0, 0]	n/a	FR1	0	R1044J
162.553	2.588	538260	WORD	n/a	wordpools/wordpool_EN.txt	EGG	6	1	[0, 0, 0]	n/a	FR1	0	R1044J
165.141	2.455	540848	WORD	n/a	wordpools/wordpool_EN.txt	WAND	7	1	[0, 0, 0]	n/a	FR1	0	R1044J
167.596	2.537	543303	WORD	n/a	wordpools/wordpool_EN.txt	SPOON	8	1	[0, 0, 0]	n/a	FR1	0	R1044J
170.133	2.57	545840	WORD	n/a	wordpools/wordpool_EN.txt	HEN	9	1	[0, 0, 0]	n/a	FR1	0	R1044J
172.703	2.388	548410	WORD	n/a	wordpools/wordpool_EN.txt	LAMB	10	1	[0, 0, 0]	n/a	FR1	0	R1044J
175.091	2.436	550797	WORD	n/a	wordpools/wordpool_EN.txt	WOOD	11	1	[0, 0, 0]	n/a	FR1	0	R1044J
177.527	1.604	553233	WORD	n/a	wordpools/wordpool_EN.txt	PEACH	12	1	[0, 0, 0]	n/a	FR1	0	R1044J
179.131	0.001	554837	DISTRACT_START	n/a	n/a	n/a	-999	1	[0, 0, 0]	n/a	FR1	0	R1044J
179.132	0.016	554838	START	n/a	n/a	n/a	-999	1	[-999, -999, -999]	n/a	FR1	0	R1044J
179.148	11.018	554854	PROB	11.018	n/a	n/a	-999	1	[6, 2, 7]	15	FR1	0	R1044J
190.166	38.926	565872	PROB	38.926	n/a	n/a	-999	1	[8, 3, 4]	15	FR1	0	R1044J
229.092	0.006	604797	STOP	n/a	n/a	n/a	-999	1	[-999, -999, -999]	n/a	FR1	0	R1044J
229.098	1.893	604803	DISTRACT_END	n/a	n/a	n/a	-999	1	[0, 0, 0]	n/a	FR1	0	R1044J
230.991	10.702	606695	REC_START	n/a	n/a	n/a	-999	1	[0, 0, 0]	n/a	FR1	0	R1044J
241.693	1.161	617397	REC_WORD_VV	1.161	n/a	<>	-999	1	[0, 0, 0]	n/a	FR1	0	R1044J
242.854	2.303	618558	REC_WORD_VV	2.303	n/a	<>	-999	1	[0, 0, 0]	n/a	FR1	0	R1044J
245.157	7.842	620861	REC_WORD_VV	7.842	n/a	<>	-999	1	[0, 0, 0]	n/a	FR1	0	R1044J
252.999	0.789	628703	REC_WORD_VV	0.789	n/a	<>	-999	1	[0, 0, 0]	n/a	FR1	0	R1044J
253.788	0.952	629492	REC_WORD_VV	0.952	n/a	<>	-999	1	[0, 0, 0]	n/a	FR1	0	R1044J
254.74	1.138	630444	REC_WORD_VV	1.138	n/a	<>	-999	1	[0, 0, 0]	n/a	FR1	0	R1044J
255.878	1.811	631582	REC_WORD_VV	1.811	n/a	<>	-999	1	[0, 0, 0]	n/a	FR1	0	R1044J
257.689	1.045	633393	REC_WORD_VV	1.045	n/a	<>	-999	1	[0, 0, 0]	n/a	FR1	0	R1044J
258.734	1.441	634437	REC_WORD_VV	1.441	n/a	<>	-999	1	[0, 0, 0]	n/a	FR1	0	R1044J
260.175	5.535	635878	REC_END	n/a	n/a	n/a	-999	1	[0, 0, 0]	n/a	FR1	0	R1044J
265.71	0.0	641413	TRIAL	n/a	n/a	n/a	-999	2	[0, 0, 0]	n/a	FR1	0	R1044J
265.71	10.428	641413	COUNTDOWN_START	n/a	n/a	n/a	-999	2	[0, 0, 0]	n/a	FR1	0	R1044J
276.138	0.006	651841	COUNTDOWN_END	n/a	n/a	n/a	-999	2	[0, 0, 0]	n/a	FR1	0	R1044J
276.144	2.438	651847	ORIENT	n/a	n/a	n/a	-999	2	[0, 0, 0]	n/a	FR1	0	R1044J
278.582	2.438	654285	WORD	n/a	wordpools/wordpool_EN.txt	FLAME	1	2	[0, 0, 0]	n/a	FR1	0	R1044J
281.02	2.62	656723	WORD	n/a	wordpools/wordpool_EN.txt	SKI	2	2	[0, 0, 0]	n/a	FR1	0	R1044J
283.64	2.471	659343	WORD	n/a	wordpools/wordpool_EN.txt	PIN	3	2	[0, 0, 0]	n/a	FR1	0	R1044J
286.111	2.604	661814	WORD	n/a	wordpools/wordpool_EN.txt	APE	4	2	[0, 0, 0]	n/a	FR1	0	R1044J
288.715	2.505	664417	WORD	n/a	wordpools/wordpool_EN.txt	WAVE	5	2	[0, 0, 0]	n/a	FR1	0	R1044J
291.22	2.637	666922	WORD	n/a	wordpools/wordpool_EN.txt	BROOM	6	2	[0, 0, 0]	n/a	FR1	0	R1044J
293.857	2.62	669559	WORD	n/a	wordpools/wordpool_EN.txt	FUR	7	2	[0, 0, 0]	n/a	FR1	0	R1044J
296.477	2.406	672179	WORD	n/a	wordpools/wordpool_EN.txt	SNOW	8	2	[0, 0, 0]	n/a	FR1	0	R1044J
298.883	2.586	674585	WORD	n/a	wordpools/wordpool_EN.txt	FOG	9	2	[0, 0, 0]	n/a	FR1	0	R1044J
301.469	2.505	677171	WORD	n/a	wordpools/wordpool_EN.txt	BEACH	10	2	[0, 0, 0]	n/a	FR1	0	R1044J
303.974	2.588	679676	WORD	n/a	wordpools/wordpool_EN.txt	DRUM	11	2	[0, 0, 0]	n/a	FR1	0	R1044J
306.562	1.62	682264	WORD	n/a	wordpools/wordpool_EN.txt	LIP	12	2	[0, 0, 0]	n/a	FR1	0	R1044J
308.182	0.0	683884	DISTRACT_START	n/a	n/a	n/a	-999	2	[0, 0, 0]	n/a	FR1	0	R1044J
308.182	0.016	683884	START	n/a	n/a	n/a	-999	2	[-999, -999, -999]	n/a	FR1	0	R1044J
308.198	6.394	683900	PROB	6.394	n/a	n/a	-999	2	[1, 6, 5]	12	FR1	0	R1044J
314.592	33.819	690293	PROB	33.819	n/a	n/a	-999	2	[1, 3, 5]	9	FR1	0	R1044J
348.411	0.021	724111	STOP	n/a	n/a	n/a	-999	2	[-999, -999, -999]	n/a	FR1	0	R1044J
348.432	1.186	724132	DISTRACT_END	n/a	n/a	n/a	-999	2	[0, 0, 0]	n/a	FR1	0	R1044J
349.618	11.236	725318	REC_START	n/a	n/a	n/a	-999	2	[0, 0, 0]	n/a	FR1	0	R1044J
360.854	0.455	736554	REC_WORD_VV	0.455	n/a	<>	-999	2	[0, 0, 0]	n/a	FR1	0	R1044J
361.309	0.616	737009	REC_WORD	0.616	n/a	FLAME	-999	2	[0, 0, 0]	n/a	FR1	0	R1044J
361.925	1.516	737625	REC_WORD	1.516	n/a	KEY	-999	2	[0, 0, 0]	n/a	FR1	0	R1044J
363.441	1.912	739141	REC_WORD_VV	1.912	n/a	<>	-999	2	[0, 0, 0]	n/a	FR1	0	R1044J
365.353	2.503	741053	REC_WORD	2.503	n/a	SKIN	-999	2	[0, 0, 0]	n/a	FR1	0	R1044J
367.856	0.801	743556	REC_WORD_VV	0.801	n/a	<>	-999	2	[0, 0, 0]	n/a	FR1	0	R1044J
368.657	0.975	744357	REC_WORD_VV	0.975	n/a	<>	-999	2	[0, 0, 0]	n/a	FR1	0	R1044J
369.632	4.108	745332	REC_WORD_VV	4.108	n/a	<>	-999	2	[0, 0, 0]	n/a	FR1	0	R1044J
373.74	1.853	749439	REC_WORD_VV	1.853	n/a	<>	-999	2	[0, 0, 0]	n/a	FR1	0	R1044J
375.593	1.486	751292	REC_WORD_VV	1.486	n/a	<>	-999	2	[0, 0, 0]	n/a	FR1	0	R1044J
377.079	2.56	752778	REC_WORD_VV	2.56	n/a	<>	-999	2	[0, 0, 0]	n/a	FR1	0	R1044J
379.639	14.787	755338	REC_END	n/a	n/a	n/a	-999	2	[0, 0, 0]	n/a	FR1	0	R1044J
394.426	0.0	770125	TRIAL	n/a	n/a	n/a	-999	3	[0, 0, 0]	n/a	FR1	0	R1044J
394.426	10.428	770125	COUNTDOWN_START	n/a	n/a	n/a	-999	3	[0, 0, 0]	n/a	FR1	0	R1044J
404.854	0.007	780552	COUNTDOWN_END	n/a	n/a	n/a	-999	3	[0, 0, 0]	n/a	FR1	0	R1044J
404.861	2.62	780559	ORIENT	n/a	n/a	n/a	-999	3	[0, 0, 0]	n/a	FR1	0	R1044J
407.481	2.572	783179	WORD	n/a	wordpools/wordpool_EN.txt	STORM	1	3	[0, 0, 0]	n/a	FR1	0	R1044J
410.053	2.604	785751	WORD	n/a	wordpools/wordpool_EN.txt	FOAM	2	3	[0, 0, 0]	n/a	FR1	0	R1044J
412.657	2.555	788355	WORD	n/a	wordpools/wordpool_EN.txt	STRAW	3	3	[0, 0, 0]	n/a	FR1	0	R1044J
415.212	2.487	790910	WORD	n/a	wordpools/wordpool_EN.txt	TRASH	4	3	[0, 0, 0]	n/a	FR1	0	R1044J
417.699	2.454	793397	WORD	n/a	wordpools/wordpool_EN.txt	CLIFF	5	3	[0, 0, 0]	n/a	FR1	0	R1044J
420.153	2.471	795851	WORD	n/a	wordpools/wordpool_EN.txt	STAIR	6	3	[0, 0, 0]	n/a	FR1	0	R1044J
422.624	2.488	798322	WORD	n/a	wordpools/wordpool_EN.txt	GLASS	7	3	[0, 0, 0]	n/a	FR1	0	R1044J
425.112	2.403	800810	WORD	n/a	wordpools/wordpool_EN.txt	WHALE	8	3	[0, 0, 0]	n/a	FR1	0	R1044J
427.515	2.555	803212	WORD	n/a	wordpools/wordpool_EN.txt	BRICK	9	3	[0, 0, 0]	n/a	FR1	0	R1044J
430.07	2.453	805767	WORD	n/a	wordpools/wordpool_EN.txt	SMOKE	10	3	[0, 0, 0]	n/a	FR1	0	R1044J
432.523	2.388	808220	WORD	n/a	wordpools/wordpool_EN.txt	ROPE	11	3	[0, 0, 0]	n/a	FR1	0	R1044J
434.911	1.619	810608	WORD	n/a	wordpools/wordpool_EN.txt	ROCK	12	3	[0, 0, 0]	n/a	FR1	0	R1044J
436.53	0.001	812227	DISTRACT_START	n/a	n/a	n/a	-999	3	[0, 0, 0]	n/a	FR1	0	R1044J
436.531	0.016	812228	START	n/a	n/a	n/a	-999	3	[-999, -999, -999]	n/a	FR1	0	R1044J
436.547	11.27	812244	PROB	11.27	n/a	n/a	-999	3	[5, 3, 7]	15	FR1	0	R1044J
447.817	13.71	823514	PROB	13.71	n/a	n/a	-999	3	[5, 5, 7]	17	FR1	0	R1044J
461.527	0.011	837223	STOP	n/a	n/a	n/a	-999	3	[-999, -999, -999]	n/a	FR1	0	R1044J
461.538	1.138	837234	DISTRACT_END	n/a	n/a	n/a	-999	3	[0, 0, 0]	n/a	FR1	0	R1044J
462.676	8.545	838372	REC_START	n/a	n/a	n/a	-999	3	[0, 0, 0]	n/a	FR1	0	R1044J
471.221	0.492	846917	REC_WORD	0.492	n/a	STORM	-999	3	[0, 0, 0]	n/a	FR1	0	R1044J
471.713	0.486	847409	REC_WORD	0.486	n/a	FLAW	-999	3	[0, 0, 0]	n/a	FR1	0	R1044J
472.199	0.678	847895	REC_WORD	0.678	n/a	CLISH	-999	3	[0, 0, 0]	n/a	FR1	0	R1044J
472.877	0.511	848573	REC_WORD	0.511	n/a	CLIFF	-999	3	[0, 0, 0]	n/a	FR1	0	R1044J
473.388	3.964	849084	REC_WORD	3.964	n/a	TRASH	-999	3	[0, 0, 0]	n/a	FR1	0	R1044J
477.352	5.088	853048	REC_WORD_VV	5.088	n/a	<>	-999	3	[0, 0, 0]	n/a	FR1	0	R1044J
482.44	10.249	858135	REC_WORD_VV	10.249	n/a	<>	-999	3	[0, 0, 0]	n/a	FR1	0	R1044J
492.689	15.629	868384	REC_END	n/a	n/a	n/a	-999	3	[0, 0, 0]	n/a	FR1	0	R1044J
508.318	0.001	884013	COUNTDOWN_START	n/a	n/a	n/a	-999	4	[0, 0, 0]	n/a	FR1	0	R1044J
508.319	10.427	884014	TRIAL	n/a	n/a	n/a	-999	4	[0, 0, 0]	n/a	FR1	0	R1044J
518.746	0.006	894440	COUNTDOWN_END	n/a	n/a	n/a	-999	4	[0, 0, 0]	n/a	FR1	0	R1044J
518.752	2.404	894446	ORIENT	n/a	n/a	n/a	-999	4	[0, 0, 0]	n/a	FR1	0	R1044J
521.156	2.455	896850	WORD	n/a	wordpools/wordpool_EN.txt	TENT	1	4	[0, 0, 0]	n/a	FR1	0	R1044J
523.611	2.554	899305	WORD	n/a	wordpools/wordpool_EN.txt	STOOL	2	4	[0, 0, 0]	n/a	FR1	0	R1044J
526.165	2.437	901859	WORD	n/a	wordpools/wordpool_EN.txt	HORN	3	4	[0, 0, 0]	n/a	FR1	0	R1044J
528.602	2.388	904296	WORD	n/a	wordpools/wordpool_EN.txt	SHIRT	4	4	[0, 0, 0]	n/a	FR1	0	R1044J
530.99	2.47	906684	WORD	n/a	wordpools/wordpool_EN.txt	YARD	5	4	[0, 0, 0]	n/a	FR1	0	R1044J
533.46	2.388	909154	WORD	n/a	wordpools/wordpool_EN.txt	BOWL	6	4	[0, 0, 0]	n/a	FR1	0	R1044J
535.848	2.62	911542	WORD	n/a	wordpools/wordpool_EN.txt	SEAT	7	4	[0, 0, 0]	n/a	FR1	0	R1044J
538.468	2.555	914161	WORD	n/a	wordpools/wordpool_EN.txt	SLUSH	8	4	[0, 0, 0]	n/a	FR1	0	R1044J
541.023	2.538	916716	WORD	n/a	wordpools/wordpool_EN.txt	CHALK	9	4	[0, 0, 0]	n/a	FR1	0	R1044J
543.561	2.487	919254	WORD	n/a	wordpools/wordpool_EN.txt	PLATE	10	4	[0, 0, 0]	n/a	FR1	0	R1044J
546.048	2.605	921741	WORD	n/a	wordpools/wordpool_EN.txt	PANTS	11	4	[0, 0, 0]	n/a	FR1	0	R1044J
548.653	1.619	924346	WORD	n/a	wordpools/wordpool_EN.txt	BAND	12	4	[0, 0, 0]	n/a	FR1	0	R1044J
550.272	0.001	925965	DISTRACT_START	n/a	n/a	n/a	-999	4	[0, 0, 0]	n/a	FR1	0	R1044J
550.273	0.016	925966	START	n/a	n/a	n/a	-999	4	[-999, -999, -999]	n/a	FR1	0	R1044J
550.289	5.91	925982	PROB	5.91	n/a	n/a	-999	4	[2, 5, 7]	14	FR1	0	R1044J
556.199	4.124	931892	PROB	4.124	n/a	n/a	-999	4	[1, 1, 9]	11	FR1	0	R1044J
560.323	10.067	936016	PROB	10.067	n/a	n/a	-999	4	[3, 6, 5]	14	FR1	0	R1044J
570.39	0.015	946082	STOP	n/a	n/a	n/a	-999	4	[-999, -999, -999]	n/a	FR1	0	R1044J
570.405	1.237	946097	DISTRACT_END	n/a	n/a	n/a	-999	4	[0, 0, 0]	n/a	FR1	0	R1044J
571.642	4.275	947334	REC_START	n/a	n/a	n/a	-999	4	[0, 0, 0]	n/a	FR1	0	R1044J
575.917	0.459	951609	REC_WORD	0.459	n/a	TENT	-999	4	[0, 0, 0]	n/a	FR1	0	R1044J
576.376	0.602	952068	REC_WORD	0.602	n/a	STOOL	-999	4	[0, 0, 0]	n/a	FR1	0	R1044J
576.978	0.457	952670	REC_WORD	0.457	n/a	HORN	-999	4	[0, 0, 0]	n/a	FR1	0	R1044J
577.435	6.465	953127	REC_WORD	6.465	n/a	BOWL	-999	4	[0, 0, 0]	n/a	FR1	0	R1044J
583.9	16.075	959592	REC_WORD_VV	16.075	n/a	<>	-999	4	[0, 0, 0]	n/a	FR1	0	R1044J
599.975	0.976	975666	REC_WORD_VV	0.976	n/a	<>	-999	4	[0, 0, 0]	n/a	FR1	0	R1044J
600.951	0.704	976642	REC_WORD_VV	0.704	n/a	<>	-999	4	[0, 0, 0]	n/a	FR1	0	R1044J
601.655	15.546	977346	REC_END	n/a	n/a	n/a	-999	4	[0, 0, 0]	n/a	FR1	0	R1044J
617.201	0.001	992892	COUNTDOWN_START	n/a	n/a	n/a	-999	5	[0, 0, 0]	n/a	FR1	0	R1044J
617.202	10.427	992893	TRIAL	n/a	n/a	n/a	-999	5	[0, 0, 0]	n/a	FR1	0	R1044J
627.629	0.007	1003319	COUNTDOWN_END	n/a	n/a	n/a	-999	5	[0, 0, 0]	n/a	FR1	0	R1044J
627.636	2.555	1003326	ORIENT	n/a	n/a	n/a	-999	5	[0, 0, 0]	n/a	FR1	0	R1044J
630.191	2.438	1005881	WORD	n/a	wordpools/wordpool_EN.txt	HAWK	1	5	[0, 0, 0]	n/a	FR1	0	R1044J
632.629	2.486	1008319	WORD	n/a	wordpools/wordpool_EN.txt	MAIL	2	5	[0, 0, 0]	n/a	FR1	0	R1044J
635.115	2.42	1010805	WORD	n/a	wordpools/wordpool_EN.txt	BOOK	3	5	[0, 0, 0]	n/a	FR1	0	R1044J
637.535	2.622	1013225	WORD	n/a	wordpools/wordpool_EN.txt	STORE	4	5	[0, 0, 0]	n/a	FR1	0	R1044J
640.157	2.554	1015847	WORD	n/a	wordpools/wordpool_EN.txt	HORSE	5	5	[0, 0, 0]	n/a	FR1	0	R1044J
642.711	2.554	1018401	WORD	n/a	wordpools/wordpool_EN.txt	CORD	6	5	[0, 0, 0]	n/a	FR1	0	R1044J
645.265	2.505	1020955	WORD	n/a	wordpools/wordpool_EN.txt	BAT	7	5	[0, 0, 0]	n/a	FR1	0	R1044J
647.77	2.537	1023460	WORD	n/a	wordpools/wordpool_EN.txt	PEA	8	5	[0, 0, 0]	n/a	FR1	0	R1044J
650.307	2.605	1025996	WORD	n/a	wordpools/wordpool_EN.txt	JET	9	5	[0, 0, 0]	n/a	FR1	0	R1044J
652.912	2.519	1028601	WORD	n/a	wordpools/wordpool_EN.txt	JAIL	10	5	[0, 0, 0]	n/a	FR1	0	R1044J
655.431	2.472	1031120	WORD	n/a	wordpools/wordpool_EN.txt	TOOL	11	5	[0, 0, 0]	n/a	FR1	0	R1044J
657.903	1.619	1033592	WORD	n/a	wordpools/wordpool_EN.txt	SHEET	12	5	[0, 0, 0]	n/a	FR1	0	R1044J
659.522	0.0	1035211	DISTRACT_START	n/a	n/a	n/a	-999	5	[0, 0, 0]	n/a	FR1	0	R1044J
659.522	0.016	1035211	START	n/a	n/a	n/a	-999	5	[-999, -999, -999]	n/a	FR1	0	R1044J
659.538	7.28	1035227	PROB	7.28	n/a	n/a	-999	5	[9, 7, 2]	18	FR1	0	R1044J
666.818	6.962	1042507	PROB	6.962	n/a	n/a	-999	5	[3, 9, 6]	18	FR1	0	R1044J
673.78	4.573	1049469	PROB	4.573	n/a	n/a	-999	5	[2, 3, 9]	14	FR1	0	R1044J
678.353	6.961	1054041	PROB	6.961	n/a	n/a	-999	5	[1, 3, 5]	9	FR1	0	R1044J
685.314	0.018	1061002	STOP	n/a	n/a	n/a	-999	5	[-999, -999, -999]	n/a	FR1	0	R1044J
685.332	1.152	1061020	DISTRACT_END	n/a	n/a	n/a	-999	5	[0, 0, 0]	n/a	FR1	0	R1044J
686.484	10.998	1062172	REC_START	n/a	n/a	n/a	-999	5	[0, 0, 0]	n/a	FR1	0	R1044J
697.482	0.578	1073170	REC_WORD	0.578	n/a	HAWK	-999	5	[0, 0, 0]	n/a	FR1	0	R1044J
698.06	0.67	1073748	REC_WORD	0.67	n/a	MAIL	-999	5	[0, 0, 0]	n/a	FR1	0	R1044J
698.73	0.396	1074418	REC_WORD	0.396	n/a	BOOK	-999	5	[0, 0, 0]	n/a	FR1	0	R1044J
699.126	2.737	1074814	REC_WORD	2.737	n/a	STORE	-999	5	[0, 0, 0]	n/a	FR1	0	R1044J
701.863	7.387	1077551	REC_WORD_VV	7.387	n/a	<>	-999	5	[0, 0, 0]	n/a	FR1	0	R1044J
709.25	0.549	1084937	REC_WORD	0.549	n/a	CORD	-999	5	[0, 0, 0]	n/a	FR1	0	R1044J
709.799	0.616	1085486	REC_WORD	0.616	n/a	COURSE	-999	5	[0, 0, 0]	n/a	FR1	0	R1044J
710.415	1.214	1086102	REC_WORD_VV	1.214	n/a	<>	-999	5	[0, 0, 0]	n/a	FR1	0	R1044J
711.629	0.972	1087316	REC_WORD_VV	0.972	n/a	<>	-999	5	[0, 0, 0]	n/a	FR1	0	R1044J
712.601	3.111	1088288	REC_WORD_VV	3.111	n/a	<>	-999	5	[0, 0, 0]	n/a	FR1	0	R1044J
715.712	0.793	1091399	REC_WORD_VV	0.793	n/a	<>	-999	5	[0, 0, 0]	n/a	FR1	0	R1044J
716.505	19.313	1092192	REC_END	n/a	n/a	n/a	-999	5	[0, 0, 0]	n/a	FR1	0	R1044J
735.818	0.0	1111504	TRIAL	n/a	n/a	n/a	-999	6	[0, 0, 0]	n/a	FR1	0	R1044J
735.818	10.428	1111504	COUNTDOWN_START	n/a	n/a	n/a	-999	6	[0, 0, 0]	n/a	FR1	0	R1044J
746.246	0.006	1121932	COUNTDOWN_END	n/a	n/a	n/a	-999	6	[0, 0, 0]	n/a	FR1	0	R1044J
746.252	2.571	1121938	ORIENT	n/a	n/a	n/a	-999	6	[0, 0, 0]	n/a	FR1	0	R1044J
748.823	2.471	1124509	WORD	n/a	wordpools/wordpool_EN.txt	MOUTH	1	6	[0, 0, 0]	n/a	FR1	0	R1044J
751.294	2.42	1126980	WORD	n/a	wordpools/wordpool_EN.txt	DOLL	2	6	[0, 0, 0]	n/a	FR1	0	R1044J
753.714	2.572	1129400	WORD	n/a	wordpools/wordpool_EN.txt	SEAL	3	6	[0, 0, 0]	n/a	FR1	0	R1044J
756.286	2.504	1131972	WORD	n/a	wordpools/wordpool_EN.txt	WEED	4	6	[0, 0, 0]	n/a	FR1	0	R1044J
758.79	2.454	1134476	WORD	n/a	wordpools/wordpool_EN.txt	CLOWN	5	6	[0, 0, 0]	n/a	FR1	0	R1044J
761.244	2.604	1136929	WORD	n/a	wordpools/wordpool_EN.txt	TIE	6	6	[0, 0, 0]	n/a	FR1	0	R1044J
763.848	2.52	1139533	WORD	n/a	wordpools/wordpool_EN.txt	PET	7	6	[0, 0, 0]	n/a	FR1	0	R1044J
766.368	2.473	1142053	WORD	n/a	wordpools/wordpool_EN.txt	CLOTH	8	6	[0, 0, 0]	n/a	FR1	0	R1044J
768.841	2.487	1144526	WORD	n/a	wordpools/wordpool_EN.txt	FAN	9	6	[0, 0, 0]	n/a	FR1	0	R1044J
771.328	2.454	1147013	WORD	n/a	wordpools/wordpool_EN.txt	WOLF	10	6	[0, 0, 0]	n/a	FR1	0	R1044J
773.782	2.553	1149467	WORD	n/a	wordpools/wordpool_EN.txt	RAT	11	6	[0, 0, 0]	n/a	FR1	0	R1044J
776.335	1.604	1152020	WORD	n/a	wordpools/wordpool_EN.txt	SOCK	12	6	[0, 0, 0]	n/a	FR1	0	R1044J
777.939	0.0	1153624	DISTRACT_START	n/a	n/a	n/a	-999	6	[0, 0, 0]	n/a	FR1	0	R1044J
777.939	0.017	1153624	START	n/a	n/a	n/a	-999	6	[-999, -999, -999]	n/a	FR1	0	R1044J
777.956	4.123	1153641	PROB	4.123	n/a	n/a	-999	6	[6, 5, 1]	12	FR1	0	R1044J
782.079	8.614	1157764	PROB	8.614	n/a	n/a	-999	6	[8, 8, 7]	23	FR1	0	R1044J
790.693	3.022	1166377	PROB	3.022	n/a	n/a	-999	6	[4, 6, 1]	11	FR1	0	R1044J
793.715	21.738	1169399	PROB	21.738	n/a	n/a	-999	6	[7, 8, 5]	20	FR1	0	R1044J
815.453	0.014	1191137	STOP	n/a	n/a	n/a	-999	6	[-999, -999, -999]	n/a	FR1	0	R1044J
815.467	1.087	1191151	DISTRACT_END	n/a	n/a	n/a	-999	6	[0, 0, 0]	n/a	FR1	0	R1044J
816.554	3.777	1192237	REC_START	n/a	n/a	n/a	-999	6	[0, 0, 0]	n/a	FR1	0	R1044J
820.331	1.45	1196014	REC_WORD_VV	1.45	n/a	<>	-999	6	[0, 0, 0]	n/a	FR1	0	R1044J
821.781	4.946	1197464	REC_WORD_VV	4.946	n/a	<>	-999	6	[0, 0, 0]	n/a	FR1	0	R1044J
826.727	2.274	1202410	REC_WORD_VV	2.274	n/a	<>	-999	6	[0, 0, 0]	n/a	FR1	0	R1044J
829.001	2.103	1204684	REC_WORD_VV	2.103	n/a	<>	-999	6	[0, 0, 0]	n/a	FR1	0	R1044J
831.104	3.864	1206787	REC_WORD_VV	3.864	n/a	<>	-999	6	[0, 0, 0]	n/a	FR1	0	R1044J
834.968	0.368	1210651	REC_WORD_VV	0.368	n/a	<>	-999	6	[0, 0, 0]	n/a	FR1	0	R1044J
835.336	2.046	1211019	REC_WORD	2.046	n/a	HOUSE	-999	6	[0, 0, 0]	n/a	FR1	0	R1044J
837.382	4.159	1213065	REC_WORD	4.159	n/a	HORSE	-999	6	[0, 0, 0]	n/a	FR1	0	R1044J
841.541	1.174	1217224	REC_WORD_VV	1.174	n/a	<>	-999	6	[0, 0, 0]	n/a	FR1	0	R1044J
842.715	3.86	1218398	REC_WORD_VV	3.86	n/a	<>	-999	6	[0, 0, 0]	n/a	FR1	0	R1044J
846.575	11.466	1222257	REC_END	n/a	n/a	n/a	-999	6	[0, 0, 0]	n/a	FR1	0	R1044J
858.041	0.001	1233723	COUNTDOWN_START	n/a	n/a	n/a	-999	7	[0, 0, 0]	n/a	FR1	0	R1044J
858.042	10.427	1233724	TRIAL	n/a	n/a	n/a	-999	7	[0, 0, 0]	n/a	FR1	0	R1044J
868.469	0.004	1244151	COUNTDOWN_END	n/a	n/a	n/a	-999	7	[0, 0, 0]	n/a	FR1	0	R1044J
868.473	2.389	1244155	ORIENT	n/a	n/a	n/a	-999	7	[0, 0, 0]	n/a	FR1	0	R1044J
870.862	2.387	1246544	WORD	n/a	wordpools/wordpool_EN.txt	CHIN	1	7	[0, 0, 0]	n/a	FR1	0	R1044J
873.249	2.471	1248930	WORD	n/a	wordpools/wordpool_EN.txt	SEED	2	7	[0, 0, 0]	n/a	FR1	0	R1044J
875.72	2.421	1251401	WORD	n/a	wordpools/wordpool_EN.txt	SOUP	3	7	[0, 0, 0]	n/a	FR1	0	R1044J
878.141	2.437	1253822	WORD	n/a	wordpools/wordpool_EN.txt	VINE	4	7	[0, 0, 0]	n/a	FR1	0	R1044J
880.578	2.537	1256259	WORD	n/a	wordpools/wordpool_EN.txt	CHAIR	5	7	[0, 0, 0]	n/a	FR1	0	R1044J
883.115	2.404	1258796	WORD	n/a	wordpools/wordpool_EN.txt	BRANCH	6	7	[0, 0, 0]	n/a	FR1	0	R1044J
885.519	2.455	1261200	WORD	n/a	wordpools/wordpool_EN.txt	FUDGE	7	7	[0, 0, 0]	n/a	FR1	0	R1044J
887.974	2.554	1263655	WORD	n/a	wordpools/wordpool_EN.txt	FRUIT	8	7	[0, 0, 0]	n/a	FR1	0	R1044J
890.528	2.437	1266209	WORD	n/a	wordpools/wordpool_EN.txt	JUICE	9	7	[0, 0, 0]	n/a	FR1	0	R1044J
892.965	2.404	1268646	WORD	n/a	wordpools/wordpool_EN.txt	TOE	10	7	[0, 0, 0]	n/a	FR1	0	R1044J
895.369	2.388	1271050	WORD	n/a	wordpools/wordpool_EN.txt	PIT	11	7	[0, 0, 0]	n/a	FR1	0	R1044J
897.757	1.618	1273438	WORD	n/a	wordpools/wordpool_EN.txt	STEAK	12	7	[0, 0, 0]	n/a	FR1	0	R1044J
899.375	0.001	1275055	DISTRACT_START	n/a	n/a	n/a	-999	7	[0, 0, 0]	n/a	FR1	0	R1044J
899.376	0.016	1275056	START	n/a	n/a	n/a	-999	7	[-999, -999, -999]	n/a	FR1	0	R1044J
899.392	17.414	1275072	PROB	17.414	n/a	n/a	-999	7	[7, 8, 9]	24	FR1	0	R1044J
916.806	12.488	1292486	PROB	12.488	n/a	n/a	-999	7	[8, 9, 6]	23	FR1	0	R1044J
929.294	0.016	1304973	STOP	n/a	n/a	n/a	-999	7	[-999, -999, -999]	n/a	FR1	0	R1044J
929.31	1.47	1304989	DISTRACT_END	n/a	n/a	n/a	-999	7	[0, 0, 0]	n/a	FR1	0	R1044J
930.78	3.567	1306459	REC_START	n/a	n/a	n/a	-999	7	[0, 0, 0]	n/a	FR1	0	R1044J
934.347	1.207	1310026	REC_WORD_VV	1.207	n/a	<>	-999	7	[0, 0, 0]	n/a	FR1	0	R1044J
935.554	10.445	1311233	REC_WORD_VV	10.445	n/a	<>	-999	7	[0, 0, 0]	n/a	FR1	0	R1044J
945.999	0.929	1321678	REC_WORD_VV	0.929	n/a	<>	-999	7	[0, 0, 0]	n/a	FR1	0	R1044J
946.928	2.717	1322607	REC_WORD_VV	2.717	n/a	<>	-999	7	[0, 0, 0]	n/a	FR1	0	R1044J
949.645	1.416	1325324	REC_WORD_VV	1.416	n/a	<>	-999	7	[0, 0, 0]	n/a	FR1	0	R1044J
951.061	2.458	1326740	REC_WORD_VV	2.458	n/a	<>	-999	7	[0, 0, 0]	n/a	FR1	0	R1044J
953.519	5.201	1329198	REC_WORD_VV	5.201	n/a	<>	-999	7	[0, 0, 0]	n/a	FR1	0	R1044J
958.72	2.074	1334398	REC_WORD_VV	2.074	n/a	<>	-999	7	[0, 0, 0]	n/a	FR1	0	R1044J
960.794	71.605	1336472	REC_END	n/a	n/a	n/a	-999	7	[0, 0, 0]	n/a	FR1	0	R1044J
1032.399	0.0	1408075	TRIAL	n/a	n/a	n/a	-999	8	[0, 0, 0]	n/a	FR1	0	R1044J
1032.399	10.428	1408075	COUNTDOWN_START	n/a	n/a	n/a	-999	8	[0, 0, 0]	n/a	FR1	0	R1044J
1042.827	0.007	1418502	COUNTDOWN_END	n/a	n/a	n/a	-999	8	[0, 0, 0]	n/a	FR1	0	R1044J
1042.834	2.587	1418509	ORIENT	n/a	n/a	n/a	-999	8	[0, 0, 0]	n/a	FR1	0	R1044J
1045.421	2.438	1421096	WORD	n/a	wordpools/wordpool_EN.txt	SUN	1	8	[0, 0, 0]	n/a	FR1	0	R1044J
1047.859	2.388	1423534	WORD	n/a	wordpools/wordpool_EN.txt	CAPE	2	8	[0, 0, 0]	n/a	FR1	0	R1044J
1050.247	2.604	1425922	WORD	n/a	wordpools/wordpool_EN.txt	BATH	3	8	[0, 0, 0]	n/a	FR1	0	R1044J
1052.851	2.421	1428526	WORD	n/a	wordpools/wordpool_EN.txt	SAIL	4	8	[0, 0, 0]	n/a	FR1	0	R1044J
1055.272	2.387	1430947	WORD	n/a	wordpools/wordpool_EN.txt	LEG	5	8	[0, 0, 0]	n/a	FR1	0	R1044J
1057.659	2.555	1433334	WORD	n/a	wordpools/wordpool_EN.txt	ROSE	6	8	[0, 0, 0]	n/a	FR1	0	R1044J
1060.214	2.504	1435889	WORD	n/a	wordpools/wordpool_EN.txt	RUG	7	8	[0, 0, 0]	n/a	FR1	0	R1044J
1062.718	2.454	1438393	WORD	n/a	wordpools/wordpool_EN.txt	MOOSE	8	8	[0, 0, 0]	n/a	FR1	0	R1044J
1065.172	2.471	1440847	WORD	n/a	wordpools/wordpool_EN.txt	BOAT	9	8	[0, 0, 0]	n/a	FR1	0	R1044J
1067.643	2.537	1443317	WORD	n/a	wordpools/wordpool_EN.txt	ICE	10	8	[0, 0, 0]	n/a	FR1	0	R1044J
1070.18	2.472	1445854	WORD	n/a	wordpools/wordpool_EN.txt	CAKE	11	8	[0, 0, 0]	n/a	FR1	0	R1044J
1072.652	1.618	1448326	WORD	n/a	wordpools/wordpool_EN.txt	FENCE	12	8	[0, 0, 0]	n/a	FR1	0	R1044J
1074.27	0.001	1449944	DISTRACT_START	n/a	n/a	n/a	-999	8	[0, 0, 0]	n/a	FR1	0	R1044J
1074.271	0.016	1449945	START	n/a	n/a	n/a	-999	8	[-999, -999, -999]	n/a	FR1	0	R1044J
1074.287	21.68	1449961	PROB	21.68	n/a	n/a	-999	8	[7, 4, 3]	14	FR1	0	R1044J
1095.967	0.007	1471640	STOP	n/a	n/a	n/a	-999	8	[-999, -999, -999]	n/a	FR1	0	R1044J
1095.974	1.103	1471647	DISTRACT_END	n/a	n/a	n/a	-999	8	[0, 0, 0]	n/a	FR1	0	R1044J
1097.077	0.433	1472750	REC_START	n/a	n/a	n/a	-999	8	[0, 0, 0]	n/a	FR1	0	R1044J
1097.51	0.359	1473183	REC_WORD	0.359	n/a	SUN	-999	8	[0, 0, 0]	n/a	FR1	0	R1044J
1097.869	0.568	1473542	REC_WORD	0.568	n/a	CAPE	-999	8	[0, 0, 0]	n/a	FR1	0	R1044J
1098.437	0.261	1474110	REC_WORD	0.261	n/a	BATH	-999	8	[0, 0, 0]	n/a	FR1	0	R1044J
1098.698	0.731	1474371	REC_WORD	0.731	n/a	SAIL	-999	8	[0, 0, 0]	n/a	FR1	0	R1044J
1099.429	9.24	1475102	REC_WORD	9.24	n/a	ROSE	-999	8	[0, 0, 0]	n/a	FR1	0	R1044J
1108.669	1.207	1484342	REC_WORD_VV	1.207	n/a	<>	-999	8	[0, 0, 0]	n/a	FR1	0	R1044J
1109.876	17.213	1485549	REC_WORD_VV	17.213	n/a	<>	-999	8	[0, 0, 0]	n/a	FR1	0	R1044J
1127.089	17.415	1502761	REC_END	n/a	n/a	n/a	-999	8	[0, 0, 0]	n/a	FR1	0	R1044J
1144.504	0.001	1520176	COUNTDOWN_START	n/a	n/a	n/a	-999	9	[0, 0, 0]	n/a	FR1	0	R1044J
1144.505	10.427	1520177	TRIAL	n/a	n/a	n/a	-999	9	[0, 0, 0]	n/a	FR1	0	R1044J
1154.932	0.008	1530603	COUNTDOWN_END	n/a	n/a	n/a	-999	9	[0, 0, 0]	n/a	FR1	0	R1044J
1154.94	2.403	1530611	ORIENT	n/a	n/a	n/a	-999	9	[0, 0, 0]	n/a	FR1	0	R1044J
1157.343	2.572	1533014	WORD	n/a	wordpools/wordpool_EN.txt	DOOR	1	9	[0, 0, 0]	n/a	FR1	0	R1044J
1159.915	2.554	1535586	WORD	n/a	wordpools/wordpool_EN.txt	SMILE	2	9	[0, 0, 0]	n/a	FR1	0	R1044J
1162.469	2.421	1538140	WORD	n/a	wordpools/wordpool_EN.txt	CLOCK	3	9	[0, 0, 0]	n/a	FR1	0	R1044J
1164.89	2.603	1540561	WORD	n/a	wordpools/wordpool_EN.txt	OAR	4	9	[0, 0, 0]	n/a	FR1	0	R1044J
1167.493	2.505	1543164	WORD	n/a	wordpools/wordpool_EN.txt	LAMP	5	9	[0, 0, 0]	n/a	FR1	0	R1044J
1169.998	2.453	1545669	WORD	n/a	wordpools/wordpool_EN.txt	STOVE	6	9	[0, 0, 0]	n/a	FR1	0	R1044J
1172.451	2.439	1548122	WORD	n/a	wordpools/wordpool_EN.txt	FLOOR	7	9	[0, 0, 0]	n/a	FR1	0	R1044J
1174.89	2.404	1550561	WORD	n/a	wordpools/wordpool_EN.txt	PEN	8	9	[0, 0, 0]	n/a	FR1	0	R1044J
1177.294	2.588	1552965	WORD	n/a	wordpools/wordpool_EN.txt	STICK	9	9	[0, 0, 0]	n/a	FR1	0	R1044J
1179.882	2.57	1555552	WORD	n/a	wordpools/wordpool_EN.txt	BOOT	10	9	[0, 0, 0]	n/a	FR1	0	R1044J
1182.452	2.438	1558122	WORD	n/a	wordpools/wordpool_EN.txt	DIME	11	9	[0, 0, 0]	n/a	FR1	0	R1044J
1184.89	1.618	1560560	WORD	n/a	wordpools/wordpool_EN.txt	ARM	12	9	[0, 0, 0]	n/a	FR1	0	R1044J
1186.508	0.001	1562178	DISTRACT_START	n/a	n/a	n/a	-999	9	[0, 0, 0]	n/a	FR1	0	R1044J
1186.509	0.016	1562179	START	n/a	n/a	n/a	-999	9	[-999, -999, -999]	n/a	FR1	0	R1044J
1186.525	6.095	1562195	PROB	6.095	n/a	n/a	-999	9	[5, 8, 4]	17	FR1	0	R1044J
1192.62	5.659	1568290	PROB	5.659	n/a	n/a	-999	9	[6, 4, 9]	19	FR1	0	R1044J
1198.279	9.08	1573949	PROB	9.08	n/a	n/a	-999	9	[4, 5, 1]	10	FR1	0	R1044J
1207.359	0.018	1583028	STOP	n/a	n/a	n/a	-999	9	[-999, -999, -999]	n/a	FR1	0	R1044J
1207.377	1.086	1583046	DISTRACT_END	n/a	n/a	n/a	-999	9	[0, 0, 0]	n/a	FR1	0	R1044J
1208.463	1.766	1584132	REC_START	n/a	n/a	n/a	-999	9	[0, 0, 0]	n/a	FR1	0	R1044J
1210.229	0.402	1585898	REC_WORD	0.402	n/a	DOOR	-999	9	[0, 0, 0]	n/a	FR1	0	R1044J
1210.631	1.332	1586300	REC_WORD	1.332	n/a	SMILE	-999	9	[0, 0, 0]	n/a	FR1	0	R1044J
1211.963	0.543	1587632	REC_WORD	0.543	n/a	CLOCK	-999	9	[0, 0, 0]	n/a	FR1	0	R1044J
1212.506	3.74	1588175	REC_WORD	3.74	n/a	AMP	-999	9	[0, 0, 0]	n/a	FR1	0	R1044J
1216.246	6.497	1591915	REC_WORD_VV	6.497	n/a	<>	-999	9	[0, 0, 0]	n/a	FR1	0	R1044J
1222.743	7.046	1598412	REC_WORD	7.046	n/a	DIME	-999	9	[0, 0, 0]	n/a	FR1	0	R1044J
1229.789	8.687	1605458	REC_WORD_VV	8.687	n/a	<>	-999	9	[0, 0, 0]	n/a	FR1	0	R1044J
1238.476	40.138	1614144	REC_END	n/a	n/a	n/a	-999	9	[0, 0, 0]	n/a	FR1	0	R1044J
1278.614	0.001	1654281	COUNTDOWN_START	n/a	n/a	n/a	-999	10	[0, 0, 0]	n/a	FR1	0	R1044J
1278.615	10.427	1654282	TRIAL	n/a	n/a	n/a	-999	10	[0, 0, 0]	n/a	FR1	0	R1044J
1289.042	0.006	1664709	COUNTDOWN_END	n/a	n/a	n/a	-999	10	[0, 0, 0]	n/a	FR1	0	R1044J
1289.048	2.605	1664715	ORIENT	n/a	n/a	n/a	-999	10	[0, 0, 0]	n/a	FR1	0	R1044J
1291.653	2.504	1667319	WORD	n/a	wordpools/wordpool_EN.txt	PHONE	1	10	[0, 0, 0]	n/a	FR1	0	R1044J
1294.157	2.588	1669823	WORD	n/a	wordpools/wordpool_EN.txt	GRAPE	2	10	[0, 0, 0]	n/a	FR1	0	R1044J
1296.745	2.422	1672411	WORD	n/a	wordpools/wordpool_EN.txt	KITE	3	10	[0, 0, 0]	n/a	FR1	0	R1044J
1299.167	2.569	1674833	WORD	n/a	wordpools/wordpool_EN.txt	CONE	4	10	[0, 0, 0]	n/a	FR1	0	R1044J
1301.736	2.388	1677402	WORD	n/a	wordpools/wordpool_EN.txt	LOCK	5	10	[0, 0, 0]	n/a	FR1	0	R1044J
1304.124	2.604	1679790	WORD	n/a	wordpools/wordpool_EN.txt	MILK	6	10	[0, 0, 0]	n/a	FR1	0	R1044J
1306.728	2.421	1682394	WORD	n/a	wordpools/wordpool_EN.txt	MOUSE	7	10	[0, 0, 0]	n/a	FR1	0	R1044J
1309.149	2.404	1684815	WORD	n/a	wordpools/wordpool_EN.txt	CROWN	8	10	[0, 0, 0]	n/a	FR1	0	R1044J
1311.553	2.588	1687219	WORD	n/a	wordpools/wordpool_EN.txt	PEAR	9	10	[0, 0, 0]	n/a	FR1	0	R1044J
1314.141	2.454	1689807	WORD	n/a	wordpools/wordpool_EN.txt	SNAKE	10	10	[0, 0, 0]	n/a	FR1	0	R1044J
1316.595	2.437	1692261	WORD	n/a	wordpools/wordpool_EN.txt	SHOE	11	10	[0, 0, 0]	n/a	FR1	0	R1044J
1319.032	1.62	1694697	WORD	n/a	wordpools/wordpool_EN.txt	PEARL	12	10	[0, 0, 0]	n/a	FR1	0	R1044J
1320.652	0.0	1696317	DISTRACT_START	n/a	n/a	n/a	-999	10	[0, 0, 0]	n/a	FR1	0	R1044J
1320.652	0.016	1696317	START	n/a	n/a	n/a	-999	10	[-999, -999, -999]	n/a	FR1	0	R1044J
1320.668	5.894	1696333	PROB	5.894	n/a	n/a	-999	10	[4, 7, 5]	6	FR1	0	R1044J
1326.562	6.16	1702227	PROB	6.16	n/a	n/a	-999	10	[4, 8, 1]	13	FR1	0	R1044J
1332.722	7.913	1708387	PROB	7.913	n/a	n/a	-999	10	[5, 9, 6]	20	FR1	0	R1044J
1340.635	11.918	1716300	PROB	11.918	n/a	n/a	-999	10	[7, 9, 2]	18	FR1	0	R1044J
1352.553	0.019	1728217	STOP	n/a	n/a	n/a	-999	10	[-999, -999, -999]	n/a	FR1	0	R1044J
1352.572	1.036	1728236	DISTRACT_END	n/a	n/a	n/a	-999	10	[0, 0, 0]	n/a	FR1	0	R1044J
1353.608	1.687	1729272	REC_START	n/a	n/a	n/a	-999	10	[0, 0, 0]	n/a	FR1	0	R1044J
1355.295	7.433	1730959	REC_WORD_VV	7.433	n/a	<>	-999	10	[0, 0, 0]	n/a	FR1	0	R1044J
1362.728	0.781	1738392	REC_WORD	0.781	n/a	CONE	-999	10	[0, 0, 0]	n/a	FR1	0	R1044J
1363.509	4.451	1739173	REC_WORD	4.451	n/a	CLOCK	-999	10	[0, 0, 0]	n/a	FR1	0	R1044J
1367.96	6.678	1743624	REC_WORD	6.678	n/a	MULE	-999	10	[0, 0, 0]	n/a	FR1	0	R1044J
1374.638	8.983	1750301	REC_WORD_VV	8.983	n/a	<>	-999	10	[0, 0, 0]	n/a	FR1	0	R1044J
1383.621	19.219	1759284	REC_END	n/a	n/a	n/a	-999	10	[0, 0, 0]	n/a	FR1	0	R1044J
1402.84	0.001	1778502	COUNTDOWN_START	n/a	n/a	n/a	-999	11	[0, 0, 0]	n/a	FR1	0	R1044J
1402.841	0.0	1778503	TRIAL	n/a	n/a	n/a	-999	11	[0, 0, 0]	n/a	FR1	0	R1044J
