onset	duration	sample	trial_type	response_time	stim_file	item_name	serialpos	list	test	answer	experiment	session	subject
0.0	63.605	282349	SESS_START	n/a	n/a	n/a	-999	-999	[0, 0, 0]	n/a	FR1	0	R1001P
63.605	10.428	314149	COUNTDOWN_START	n/a	n/a	n/a	-999	-999	[0, 0, 0]	n/a	FR1	0	R1001P
74.033	3.724	319363	COUNTDOWN_END	n/a	n/a	n/a	-999	-999	[0, 0, 0]	n/a	FR1	0	R1001P
77.757	2.501	321225	PRACTICE_WORD	n/a	n/a	CHEST	1	-1	[0, 0, 0]	n/a	FR1	0	R1001P
80.258	2.399	322476	PRACTICE_WORD	n/a	n/a	RING	2	-1	[0, 0, 0]	n/a	FR1	0	R1001P
82.657	2.385	323675	PRACTICE_WORD	n/a	n/a	COTTON	3	-1	[0, 0, 0]	n/a	FR1	0	R1001P
85.042	2.384	324867	PRACTICE_WORD	n/a	n/a	CAMEL	4	-1	[0, 0, 0]	n/a	FR1	0	R1001P
87.426	2.451	326059	PRACTICE_WORD	n/a	n/a	TONGUE	5	-1	[0, 0, 0]	n/a	FR1	0	R1001P
89.877	2.533	327285	PRACTICE_WORD	n/a	n/a	BEAM	6	-1	[0, 0, 0]	n/a	FR1	0	R1001P
92.41	2.601	328551	PRACTICE_WORD	n/a	n/a	FLOOD	7	-1	[0, 0, 0]	n/a	FR1	0	R1001P
95.011	2.45	329852	PRACTICE_WORD	n/a	n/a	WAGON	8	-1	[0, 0, 0]	n/a	FR1	0	R1001P
97.461	2.601	331077	PRACTICE_WORD	n/a	n/a	IRON	9	-1	[0, 0, 0]	n/a	FR1	0	R1001P
100.062	2.5	332377	PRACTICE_WORD	n/a	n/a	ATTIC	10	-1	[0, 0, 0]	n/a	FR1	0	R1001P
102.562	2.401	333627	PRACTICE_WORD	n/a	n/a	WATCH	11	-1	[0, 0, 0]	n/a	FR1	0	R1001P
104.963	1.617	334827	PRACTICE_WORD	n/a	n/a	RHINO	12	-1	[0, 0, 0]	n/a	FR1	0	R1001P
106.58	0.0	335636	PRACTICE_DISTRACT_START	n/a	n/a	n/a	-999	-1	[0, 0, 0]	n/a	FR1	0	R1001P
106.58	0.016	335636	START	n/a	n/a	n/a	-999	-1	[-999, -999, -999]	n/a	FR1	0	R1001P
106.596	33.95	335644	PROB	33.95	n/a	n/a	-999	-1	[9, 6, 8]	23	FR1	0	R1001P
140.546	0.007	352618	STOP	n/a	n/a	n/a	-999	-1	[-999, -999, -999]	n/a	FR1	0	R1001P
140.553	0.636	352621	PRACTICE_DISTRACT_END	n/a	n/a	n/a	-999	-1	[0, 0, 0]	n/a	FR1	0	R1001P
141.189	30.513	352939	PRACTICE_REC_START	n/a	n/a	n/a	-999	-1	[0, 0, 0]	n/a	FR1	0	R1001P
171.702	28.512	368195	PRACTICE_REC_END	n/a	n/a	n/a	-999	-1	[0, 0, 0]	n/a	FR1	0	R1001P
200.214	0.0	382450	COUNTDOWN_START	n/a	n/a	n/a	-999	1	[0, 0, 0]	n/a	FR1	0	R1001P
200.214	10.428	382450	TRIAL	n/a	n/a	n/a	-999	1	[0, 0, 0]	n/a	FR1	0	R1001P
210.642	0.007	387664	COUNTDOWN_END	n/a	n/a	n/a	-999	1	[0, 0, 0]	n/a	FR1	0	R1001P
210.649	2.584	387667	ORIENT	n/a	n/a	n/a	-999	1	[0, 0, 0]	n/a	FR1	0	R1001P
213.233	2.617	388959	WORD	n/a	wordpools/wordpool_EN.txt	HOUSE	1	1	[0, 0, 0]	n/a	FR1	0	R1001P
215.85	2.584	390268	WORD	n/a	wordpools/wordpool_EN.txt	HAWK	2	1	[0, 0, 0]	n/a	FR1	0	R1001P
218.434	2.45	391560	WORD	n/a	wordpools/wordpool_EN.txt	WAND	3	1	[0, 0, 0]	n/a	FR1	0	R1001P
220.884	2.468	392785	WORD	n/a	wordpools/wordpool_EN.txt	GEESE	4	1	[0, 0, 0]	n/a	FR1	0	R1001P
223.352	2.533	394019	WORD	n/a	wordpools/wordpool_EN.txt	STAR	5	1	[0, 0, 0]	n/a	FR1	0	R1001P
225.885	2.518	395285	WORD	n/a	wordpools/wordpool_EN.txt	CLOUD	6	1	[0, 0, 0]	n/a	FR1	0	R1001P
228.403	2.45	396544	WORD	n/a	wordpools/wordpool_EN.txt	PEARL	7	1	[0, 0, 0]	n/a	FR1	0	R1001P
230.853	2.534	397769	WORD	n/a	wordpools/wordpool_EN.txt	SWORD	8	1	[0, 0, 0]	n/a	FR1	0	R1001P
233.387	2.4	399036	WORD	n/a	wordpools/wordpool_EN.txt	STAIR	9	1	[0, 0, 0]	n/a	FR1	0	R1001P
235.787	2.534	400236	WORD	n/a	wordpools/wordpool_EN.txt	GOLD	10	1	[0, 0, 0]	n/a	FR1	0	R1001P
238.321	2.584	401503	WORD	n/a	wordpools/wordpool_EN.txt	ROAD	11	1	[0, 0, 0]	n/a	FR1	0	R1001P
240.905	1.617	402795	WORD	n/a	wordpools/wordpool_EN.txt	BRIDGE	12	1	[0, 0, 0]	n/a	FR1	0	R1001P
242.522	0.001	403603	DISTRACT_START	n/a	n/a	n/a	-999	1	[0, 0, 0]	n/a	FR1	0	R1001P
242.523	0.016	403604	START	n/a	n/a	n/a	-999	1	[-999, -999, -999]	n/a	FR1	0	R1001P
242.539	8.251	403612	PROB	8.251	n/a	n/a	-999	1	[5, 5, 4]	24	FR1	0	R1001P
250.79	7.568	407737	PROB	7.568	n/a	n/a	-999	1	[7, 5, 6]	18	FR1	0	R1001P
258.358	10.371	411521	PROB	10.371	n/a	n/a	-999	1	[4, 6, 7]	20	FR1	0	R1001P
268.729	0.014	416706	STOP	n/a	n/a	n/a	-999	1	[-999, -999, -999]	n/a	FR1	0	R1001P
268.743	1.051	416713	DISTRACT_END	n/a	n/a	n/a	-999	1	[0, 0, 0]	n/a	FR1	0	R1001P
269.794	15.336	417238	REC_START	n/a	n/a	n/a	-999	1	[0, 0, 0]	n/a	FR1	0	R1001P
285.13	1.924	424906	REC_WORD_VV	1.924	n/a	<>	-999	1	[0, 0, 0]	n/a	FR1	0	R1001P
287.054	1.42	425868	REC_WORD_VV	1.42	n/a	<>	-999	1	[0, 0, 0]	n/a	FR1	0	R1001P
288.474	7.983	426578	REC_WORD_VV	7.983	n/a	<>	-999	1	[0, 0, 0]	n/a	FR1	0	R1001P
296.457	1.654	430569	REC_WORD_VV	1.654	n/a	<>	-999	1	[0, 0, 0]	n/a	FR1	0	R1001P
298.111	1.694	431396	REC_WORD_VV	1.694	n/a	<>	-999	1	[0, 0, 0]	n/a	FR1	0	R1001P
299.805	8.396	432243	REC_END	n/a	n/a	n/a	-999	1	[0, 0, 0]	n/a	FR1	0	R1001P
308.201	0.0	436441	TRIAL	n/a	n/a	n/a	-999	2	[0, 0, 0]	n/a	FR1	0	R1001P
308.201	10.428	436441	COUNTDOWN_START	n/a	n/a	n/a	-999	2	[0, 0, 0]	n/a	FR1	0	R1001P
318.629	0.007	441654	COUNTDOWN_END	n/a	n/a	n/a	-999	2	[0, 0, 0]	n/a	FR1	0	R1001P
318.636	2.451	441658	ORIENT	n/a	n/a	n/a	-999	2	[0, 0, 0]	n/a	FR1	0	R1001P
321.087	2.599	442883	WORD	n/a	wordpools/wordpool_EN.txt	CLOTH	1	2	[0, 0, 0]	n/a	FR1	0	R1001P
323.686	2.418	444183	WORD	n/a	wordpools/wordpool_EN.txt	ZOO	2	2	[0, 0, 0]	n/a	FR1	0	R1001P
326.104	2.451	445392	WORD	n/a	wordpools/wordpool_EN.txt	GUARD	3	2	[0, 0, 0]	n/a	FR1	0	R1001P
328.555	2.517	446617	WORD	n/a	wordpools/wordpool_EN.txt	DEER	4	2	[0, 0, 0]	n/a	FR1	0	R1001P
331.072	2.434	447876	WORD	n/a	wordpools/wordpool_EN.txt	INK	5	2	[0, 0, 0]	n/a	FR1	0	R1001P
333.506	2.55	449093	WORD	n/a	wordpools/wordpool_EN.txt	MAIL	6	2	[0, 0, 0]	n/a	FR1	0	R1001P
336.056	2.633	450368	WORD	n/a	wordpools/wordpool_EN.txt	FOAM	7	2	[0, 0, 0]	n/a	FR1	0	R1001P
338.689	2.518	451684	WORD	n/a	wordpools/wordpool_EN.txt	PIT	8	2	[0, 0, 0]	n/a	FR1	0	R1001P
341.207	2.516	452943	WORD	n/a	wordpools/wordpool_EN.txt	BADGE	9	2	[0, 0, 0]	n/a	FR1	0	R1001P
343.723	2.535	454201	WORD	n/a	wordpools/wordpool_EN.txt	CAGE	10	2	[0, 0, 0]	n/a	FR1	0	R1001P
346.258	2.501	455468	WORD	n/a	wordpools/wordpool_EN.txt	BEAK	11	2	[0, 0, 0]	n/a	FR1	0	R1001P
348.759	1.617	456719	WORD	n/a	wordpools/wordpool_EN.txt	SHEET	12	2	[0, 0, 0]	n/a	FR1	0	R1001P
350.376	0.001	457527	DISTRACT_START	n/a	n/a	n/a	-999	2	[0, 0, 0]	n/a	FR1	0	R1001P
350.377	0.015	457528	START	n/a	n/a	n/a	-999	2	[-999, -999, -999]	n/a	FR1	0	R1001P
350.392	7.735	457535	PROB	7.735	n/a	n/a	-999	2	[5, 8, 8]	21	FR1	0	R1001P
358.127	15.675	461402	PROB	15.675	n/a	n/a	-999	2	[3, 6, 7]	16	FR1	0	R1001P
373.802	0.011	469239	STOP	n/a	n/a	n/a	-999	2	[-999, -999, -999]	n/a	FR1	0	R1001P
373.813	1.218	469245	DISTRACT_END	n/a	n/a	n/a	-999	2	[0, 0, 0]	n/a	FR1	0	R1001P
375.031	4.271	469854	REC_START	n/a	n/a	n/a	-999	2	[0, 0, 0]	n/a	FR1	0	R1001P
379.302	0.797	471989	REC_WORD	0.797	n/a	SHEET	-999	2	[0, 0, 0]	n/a	FR1	0	R1001P
380.099	3.802	472388	REC_WORD	3.802	n/a	CLOUD	-999	2	[0, 0, 0]	n/a	FR1	0	R1001P
383.901	13.685	474289	REC_WORD_VV	13.685	n/a	<>	-999	2	[0, 0, 0]	n/a	FR1	0	R1001P
397.586	0.416	481131	REC_WORD	0.416	n/a	SHEET	-999	2	[0, 0, 0]	n/a	FR1	0	R1001P
398.002	7.04	481339	REC_WORD	7.04	n/a	CLOUD	-999	2	[0, 0, 0]	n/a	FR1	0	R1001P
405.042	2.811	484859	REC_END	n/a	n/a	n/a	-999	2	[0, 0, 0]	n/a	FR1	0	R1001P
407.853	0.0	486264	COUNTDOWN_START	n/a	n/a	n/a	-999	3	[0, 0, 0]	n/a	FR1	0	R1001P
407.853	10.428	486264	TRIAL	n/a	n/a	n/a	-999	3	[0, 0, 0]	n/a	FR1	0	R1001P
418.281	0.007	491478	COUNTDOWN_END	n/a	n/a	n/a	-999	3	[0, 0, 0]	n/a	FR1	0	R1001P
418.288	2.618	491481	ORIENT	n/a	n/a	n/a	-999	3	[0, 0, 0]	n/a	FR1	0	R1001P
420.906	2.567	492790	WORD	n/a	wordpools/wordpool_EN.txt	BRICK	1	3	[0, 0, 0]	n/a	FR1	0	R1001P
423.473	2.6	494074	WORD	n/a	wordpools/wordpool_EN.txt	ROOM	2	3	[0, 0, 0]	n/a	FR1	0	R1001P
426.073	2.633	495374	WORD	n/a	wordpools/wordpool_EN.txt	TIE	3	3	[0, 0, 0]	n/a	FR1	0	R1001P
428.706	2.401	496690	WORD	n/a	wordpools/wordpool_EN.txt	SLIME	4	3	[0, 0, 0]	n/a	FR1	0	R1001P
431.107	2.6	497890	WORD	n/a	wordpools/wordpool_EN.txt	DESK	5	3	[0, 0, 0]	n/a	FR1	0	R1001P
433.707	2.518	499190	WORD	n/a	wordpools/wordpool_EN.txt	CHALK	6	3	[0, 0, 0]	n/a	FR1	0	R1001P
436.225	2.466	500449	WORD	n/a	wordpools/wordpool_EN.txt	MAZE	7	3	[0, 0, 0]	n/a	FR1	0	R1001P
438.691	2.468	501682	WORD	n/a	wordpools/wordpool_EN.txt	SCHOOL	8	3	[0, 0, 0]	n/a	FR1	0	R1001P
441.159	2.601	502916	WORD	n/a	wordpools/wordpool_EN.txt	BAND	9	3	[0, 0, 0]	n/a	FR1	0	R1001P
443.76	2.467	504217	WORD	n/a	wordpools/wordpool_EN.txt	FLAG	10	3	[0, 0, 0]	n/a	FR1	0	R1001P
446.227	2.567	505450	WORD	n/a	wordpools/wordpool_EN.txt	FLOOR	11	3	[0, 0, 0]	n/a	FR1	0	R1001P
448.794	1.617	506733	WORD	n/a	wordpools/wordpool_EN.txt	GLOVE	12	3	[0, 0, 0]	n/a	FR1	0	R1001P
450.411	0.001	507542	DISTRACT_START	n/a	n/a	n/a	-999	3	[0, 0, 0]	n/a	FR1	0	R1001P
450.412	0.016	507542	START	n/a	n/a	n/a	-999	3	[-999, -999, -999]	n/a	FR1	0	R1001P
450.428	12.234	507550	PROB	12.234	n/a	n/a	-999	3	[7, 6, 6]	20	FR1	0	R1001P
462.662	7.9	513667	PROB	7.9	n/a	n/a	-999	3	[8, 9, 3]	21	FR1	0	R1001P
470.562	0.019	517617	STOP	n/a	n/a	n/a	-999	3	[-999, -999, -999]	n/a	FR1	0	R1001P
470.581	1.053	517626	DISTRACT_END	n/a	n/a	n/a	-999	3	[0, 0, 0]	n/a	FR1	0	R1001P
471.634	1.916	518153	REC_START	n/a	n/a	n/a	-999	3	[0, 0, 0]	n/a	FR1	0	R1001P
473.55	1.31	519111	REC_WORD	1.31	n/a	BEACH	-999	3	[0, 0, 0]	n/a	FR1	0	R1001P
474.86	1.073	519766	REC_WORD	1.073	n/a	GOD	-999	3	[0, 0, 0]	n/a	FR1	0	R1001P
475.933	2.949	520302	REC_WORD	2.949	n/a	SLIME	-999	3	[0, 0, 0]	n/a	FR1	0	R1001P
478.882	5.911	521777	REC_WORD	5.911	n/a	SCHOOL	-999	3	[0, 0, 0]	n/a	FR1	0	R1001P
484.793	0.69	524732	REC_WORD	0.69	n/a	SCHOOL	-999	3	[0, 0, 0]	n/a	FR1	0	R1001P
485.483	0.785	525077	REC_WORD	0.785	n/a	SCHOOL	-999	3	[0, 0, 0]	n/a	FR1	0	R1001P
486.268	1.778	525469	REC_WORD_VV	1.778	n/a	<>	-999	3	[0, 0, 0]	n/a	FR1	0	R1001P
488.046	7.453	526358	REC_WORD	7.453	n/a	SHEET	-999	3	[0, 0, 0]	n/a	FR1	0	R1001P
495.499	6.144	530085	REC_WORD	6.144	n/a	CLOVE	-999	3	[0, 0, 0]	n/a	FR1	0	R1001P
501.643	5.879	533156	REC_END	n/a	n/a	n/a	-999	3	[0, 0, 0]	n/a	FR1	0	R1001P
507.522	0.0	536096	TRIAL	n/a	n/a	n/a	-999	4	[0, 0, 0]	n/a	FR1	0	R1001P
507.522	10.428	536096	COUNTDOWN_START	n/a	n/a	n/a	-999	4	[0, 0, 0]	n/a	FR1	0	R1001P
517.95	0.007	541310	COUNTDOWN_END	n/a	n/a	n/a	-999	4	[0, 0, 0]	n/a	FR1	0	R1001P
517.957	2.501	541313	ORIENT	n/a	n/a	n/a	-999	4	[0, 0, 0]	n/a	FR1	0	R1001P
520.458	2.383	542563	WORD	n/a	wordpools/wordpool_EN.txt	COUCH	1	4	[0, 0, 0]	n/a	FR1	0	R1001P
522.841	2.584	543755	WORD	n/a	wordpools/wordpool_EN.txt	HORN	2	4	[0, 0, 0]	n/a	FR1	0	R1001P
525.425	2.434	545047	WORD	n/a	wordpools/wordpool_EN.txt	JUDGE	3	4	[0, 0, 0]	n/a	FR1	0	R1001P
527.859	2.567	546264	WORD	n/a	wordpools/wordpool_EN.txt	OAK	4	4	[0, 0, 0]	n/a	FR1	0	R1001P
530.426	2.384	547547	WORD	n/a	wordpools/wordpool_EN.txt	MUD	5	4	[0, 0, 0]	n/a	FR1	0	R1001P
532.81	2.6	548739	WORD	n/a	wordpools/wordpool_EN.txt	STRAW	6	4	[0, 0, 0]	n/a	FR1	0	R1001P
535.41	2.567	550039	WORD	n/a	wordpools/wordpool_EN.txt	APE	7	4	[0, 0, 0]	n/a	FR1	0	R1001P
537.977	2.434	551322	WORD	n/a	wordpools/wordpool_EN.txt	ARM	8	4	[0, 0, 0]	n/a	FR1	0	R1001P
540.411	2.584	552539	WORD	n/a	wordpools/wordpool_EN.txt	MOUTH	9	4	[0, 0, 0]	n/a	FR1	0	R1001P
542.995	2.401	553831	WORD	n/a	wordpools/wordpool_EN.txt	JAIL	10	4	[0, 0, 0]	n/a	FR1	0	R1001P
545.396	2.55	555032	WORD	n/a	wordpools/wordpool_EN.txt	SNAKE	11	4	[0, 0, 0]	n/a	FR1	0	R1001P
547.946	1.617	556307	WORD	n/a	wordpools/wordpool_EN.txt	BATH	12	4	[0, 0, 0]	n/a	FR1	0	R1001P
549.563	0.001	557115	DISTRACT_START	n/a	n/a	n/a	-999	4	[0, 0, 0]	n/a	FR1	0	R1001P
549.564	0.016	557116	START	n/a	n/a	n/a	-999	4	[-999, -999, -999]	n/a	FR1	0	R1001P
549.58	11.735	557124	PROB	11.735	n/a	n/a	-999	4	[5, 7, 6]	18	FR1	0	R1001P
561.315	10.847	562991	PROB	10.847	n/a	n/a	-999	4	[4, 9, 2]	15	FR1	0	R1001P
572.162	0.005	568414	STOP	n/a	n/a	n/a	-999	4	[-999, -999, -999]	n/a	FR1	0	R1001P
572.167	1.218	568417	DISTRACT_END	n/a	n/a	n/a	-999	4	[0, 0, 0]	n/a	FR1	0	R1001P
573.385	3.571	569025	REC_START	n/a	n/a	n/a	-999	4	[0, 0, 0]	n/a	FR1	0	R1001P
576.956	1.215	570811	REC_WORD	1.215	n/a	COW	-999	4	[0, 0, 0]	n/a	FR1	0	R1001P
578.171	4.92	571418	REC_WORD	4.92	n/a	APE	-999	4	[0, 0, 0]	n/a	FR1	0	R1001P
583.091	1.066	573878	REC_WORD	1.066	n/a	CLOTHES	-999	4	[0, 0, 0]	n/a	FR1	0	R1001P
584.157	2.835	574411	REC_WORD	2.835	n/a	SCHOOL	-999	4	[0, 0, 0]	n/a	FR1	0	R1001P
586.992	0.411	575829	REC_WORD_VV	0.411	n/a	<>	-999	4	[0, 0, 0]	n/a	FR1	0	R1001P
587.403	12.726	576034	REC_WORD	12.726	n/a	APE	-999	4	[0, 0, 0]	n/a	FR1	0	R1001P
600.129	3.266	582397	REC_WORD	3.266	n/a	SHAKE	-999	4	[0, 0, 0]	n/a	FR1	0	R1001P
603.395	11.814	584030	REC_END	n/a	n/a	n/a	-999	4	[0, 0, 0]	n/a	FR1	0	R1001P
615.209	0.0	589936	TRIAL	n/a	n/a	n/a	-999	5	[0, 0, 0]	n/a	FR1	0	R1001P
615.209	10.428	589936	COUNTDOWN_START	n/a	n/a	n/a	-999	5	[0, 0, 0]	n/a	FR1	0	R1001P
625.637	0.007	595150	COUNTDOWN_END	n/a	n/a	n/a	-999	5	[0, 0, 0]	n/a	FR1	0	R1001P
625.644	2.45	595154	ORIENT	n/a	n/a	n/a	-999	5	[0, 0, 0]	n/a	FR1	0	R1001P
628.094	2.384	596378	WORD	n/a	wordpools/wordpool_EN.txt	MOLE	1	5	[0, 0, 0]	n/a	FR1	0	R1001P
630.478	2.467	597570	WORD	n/a	wordpools/wordpool_EN.txt	SNAIL	2	5	[0, 0, 0]	n/a	FR1	0	R1001P
632.945	2.467	598804	WORD	n/a	wordpools/wordpool_EN.txt	CAVE	3	5	[0, 0, 0]	n/a	FR1	0	R1001P
635.412	2.401	600037	WORD	n/a	wordpools/wordpool_EN.txt	BEAR	4	5	[0, 0, 0]	n/a	FR1	0	R1001P
637.813	2.384	601238	WORD	n/a	wordpools/wordpool_EN.txt	JEEP	5	5	[0, 0, 0]	n/a	FR1	0	R1001P
640.197	2.433	602430	WORD	n/a	wordpools/wordpool_EN.txt	SEAL	6	5	[0, 0, 0]	n/a	FR1	0	R1001P
642.63	2.551	603646	WORD	n/a	wordpools/wordpool_EN.txt	WEED	7	5	[0, 0, 0]	n/a	FR1	0	R1001P
645.181	2.6	604922	WORD	n/a	wordpools/wordpool_EN.txt	LOCK	8	5	[0, 0, 0]	n/a	FR1	0	R1001P
647.781	2.601	606221	WORD	n/a	wordpools/wordpool_EN.txt	WHEEL	9	5	[0, 0, 0]	n/a	FR1	0	R1001P
650.382	2.5	607522	WORD	n/a	wordpools/wordpool_EN.txt	FLEA	10	5	[0, 0, 0]	n/a	FR1	0	R1001P
652.882	2.417	608772	WORD	n/a	wordpools/wordpool_EN.txt	GATE	11	5	[0, 0, 0]	n/a	FR1	0	R1001P
655.299	1.617	609980	WORD	n/a	wordpools/wordpool_EN.txt	KEY	12	5	[0, 0, 0]	n/a	FR1	0	R1001P
656.916	0.001	610789	DISTRACT_START	n/a	n/a	n/a	-999	5	[0, 0, 0]	n/a	FR1	0	R1001P
656.917	0.016	610789	START	n/a	n/a	n/a	-999	5	[-999, -999, -999]	n/a	FR1	0	R1001P
656.933	20.221	610797	PROB	20.221	n/a	n/a	-999	5	[4, 7, 4]	15	FR1	0	R1001P
677.154	0.016	620907	STOP	n/a	n/a	n/a	-999	5	[-999, -999, -999]	n/a	FR1	0	R1001P
677.17	1.084	620915	DISTRACT_END	n/a	n/a	n/a	-999	5	[0, 0, 0]	n/a	FR1	0	R1001P
678.254	30.005	621457	REC_START	n/a	n/a	n/a	-999	5	[0, 0, 0]	n/a	FR1	0	R1001P
708.259	0.01	636459	REC_WORD_VV	0.01	n/a	<>	-999	5	[0, 0, 0]	n/a	FR1	0	R1001P
708.269	3.108	636464	REC_END	n/a	n/a	n/a	-999	5	[0, 0, 0]	n/a	FR1	0	R1001P
711.377	0.0	638018	TRIAL	n/a	n/a	n/a	-999	6	[0, 0, 0]	n/a	FR1	0	R1001P
711.377	10.428	638018	COUNTDOWN_START	n/a	n/a	n/a	-999	6	[0, 0, 0]	n/a	FR1	0	R1001P
721.805	0.007	643231	COUNTDOWN_END	n/a	n/a	n/a	-999	6	[0, 0, 0]	n/a	FR1	0	R1001P
721.812	2.384	643235	ORIENT	n/a	n/a	n/a	-999	6	[0, 0, 0]	n/a	FR1	0	R1001P
724.196	2.417	644427	WORD	n/a	wordpools/wordpool_EN.txt	WALL	1	6	[0, 0, 0]	n/a	FR1	0	R1001P
726.613	2.417	645635	WORD	n/a	wordpools/wordpool_EN.txt	VEST	2	6	[0, 0, 0]	n/a	FR1	0	R1001P
729.03	2.417	646844	WORD	n/a	wordpools/wordpool_EN.txt	SLUSH	3	6	[0, 0, 0]	n/a	FR1	0	R1001P
731.447	2.384	648052	WORD	n/a	wordpools/wordpool_EN.txt	BOX	4	6	[0, 0, 0]	n/a	FR1	0	R1001P
733.831	2.617	649244	WORD	n/a	wordpools/wordpool_EN.txt	THREAD	5	6	[0, 0, 0]	n/a	FR1	0	R1001P
736.448	2.451	650553	WORD	n/a	wordpools/wordpool_EN.txt	PASTE	6	6	[0, 0, 0]	n/a	FR1	0	R1001P
738.899	2.6	651778	WORD	n/a	wordpools/wordpool_EN.txt	WOOD	7	6	[0, 0, 0]	n/a	FR1	0	R1001P
741.499	2.45	653078	WORD	n/a	wordpools/wordpool_EN.txt	PIN	8	6	[0, 0, 0]	n/a	FR1	0	R1001P
743.949	2.451	654303	WORD	n/a	wordpools/wordpool_EN.txt	SQUARE	9	6	[0, 0, 0]	n/a	FR1	0	R1001P
746.4	2.55	655528	WORD	n/a	wordpools/wordpool_EN.txt	DOCK	10	6	[0, 0, 0]	n/a	FR1	0	R1001P
748.95	2.468	656803	WORD	n/a	wordpools/wordpool_EN.txt	BOARD	11	6	[0, 0, 0]	n/a	FR1	0	R1001P
751.418	1.617	658037	WORD	n/a	wordpools/wordpool_EN.txt	YARD	12	6	[0, 0, 0]	n/a	FR1	0	R1001P
753.035	0.0	658846	DISTRACT_START	n/a	n/a	n/a	-999	6	[0, 0, 0]	n/a	FR1	0	R1001P
753.035	0.016	658846	START	n/a	n/a	n/a	-999	6	[-999, -999, -999]	n/a	FR1	0	R1001P
753.051	15.703	658854	PROB	15.703	n/a	n/a	-999	6	[7, 3, 8]	18	FR1	0	R1001P
768.754	12.608	666705	PROB	12.608	n/a	n/a	-999	6	[1, 2, 3]	6	FR1	0	R1001P
781.362	0.011	673008	STOP	n/a	n/a	n/a	-999	6	[-999, -999, -999]	n/a	FR1	0	R1001P
781.373	1.034	673014	DISTRACT_END	n/a	n/a	n/a	-999	6	[0, 0, 0]	n/a	FR1	0	R1001P
782.407	30.011	673531	REC_START	n/a	n/a	n/a	-999	6	[0, 0, 0]	n/a	FR1	0	R1001P
812.418	0.006	688535	REC_WORD_VV	0.006	n/a	<>	-999	6	[0, 0, 0]	n/a	FR1	0	R1001P
812.424	259.437	688538	REC_END	n/a	n/a	n/a	-999	6	[0, 0, 0]	n/a	FR1	0	R1001P
1071.861	0.0	818250	TRIAL	n/a	n/a	n/a	-999	7	[0, 0, 0]	n/a	FR1	0	R1001P
1071.861	10.428	818250	COUNTDOWN_START	n/a	n/a	n/a	-999	7	[0, 0, 0]	n/a	FR1	0	R1001P
1082.289	0.007	823464	COUNTDOWN_END	n/a	n/a	n/a	-999	7	[0, 0, 0]	n/a	FR1	0	R1001P
1082.296	2.584	823467	ORIENT	n/a	n/a	n/a	-999	7	[0, 0, 0]	n/a	FR1	0	R1001P
1084.88	2.551	824759	WORD	n/a	wordpools/wordpool_EN.txt	CHIEF	1	7	[0, 0, 0]	n/a	FR1	0	R1001P
1087.431	2.483	826034	WORD	n/a	wordpools/wordpool_EN.txt	BENCH	2	7	[0, 0, 0]	n/a	FR1	0	R1001P
1089.914	2.518	827276	WORD	n/a	wordpools/wordpool_EN.txt	PALM	3	7	[0, 0, 0]	n/a	FR1	0	R1001P
1092.432	2.517	828535	WORD	n/a	wordpools/wordpool_EN.txt	SHIELD	4	7	[0, 0, 0]	n/a	FR1	0	R1001P
1094.949	2.567	829793	WORD	n/a	wordpools/wordpool_EN.txt	CAKE	5	7	[0, 0, 0]	n/a	FR1	0	R1001P
1097.516	2.384	831077	WORD	n/a	wordpools/wordpool_EN.txt	COIN	6	7	[0, 0, 0]	n/a	FR1	0	R1001P
1099.9	2.483	832269	WORD	n/a	wordpools/wordpool_EN.txt	ROSE	7	7	[0, 0, 0]	n/a	FR1	0	R1001P
1102.383	2.551	833510	WORD	n/a	wordpools/wordpool_EN.txt	RICE	8	7	[0, 0, 0]	n/a	FR1	0	R1001P
1104.934	2.434	834785	WORD	n/a	wordpools/wordpool_EN.txt	CHAIR	9	7	[0, 0, 0]	n/a	FR1	0	R1001P
1107.368	2.617	836002	WORD	n/a	wordpools/wordpool_EN.txt	CUP	10	7	[0, 0, 0]	n/a	FR1	0	R1001P
1109.985	2.517	837311	WORD	n/a	wordpools/wordpool_EN.txt	DRUM	11	7	[0, 0, 0]	n/a	FR1	0	R1001P
1112.502	1.617	838569	WORD	n/a	wordpools/wordpool_EN.txt	FROG	12	7	[0, 0, 0]	n/a	FR1	0	R1001P
1114.119	0.001	839378	DISTRACT_START	n/a	n/a	n/a	-999	7	[0, 0, 0]	n/a	FR1	0	R1001P
1114.12	0.016	839378	START	n/a	n/a	n/a	-999	7	[-999, -999, -999]	n/a	FR1	0	R1001P
1114.136	10.584	839386	PROB	10.584	n/a	n/a	-999	7	[9, 6, 4]	18	FR1	0	R1001P
1124.72	7.352	844678	PROB	7.352	n/a	n/a	-999	7	[6, 5, 1]	12	FR1	0	R1001P
1132.072	13.026	848354	PROB	13.026	n/a	n/a	-999	7	[3, 9, 3]	15	FR1	0	R1001P
1145.098	0.01	854866	STOP	n/a	n/a	n/a	-999	7	[-999, -999, -999]	n/a	FR1	0	R1001P
1145.108	1.151	854871	DISTRACT_END	n/a	n/a	n/a	-999	7	[0, 0, 0]	n/a	FR1	0	R1001P
1146.259	11.498	855447	REC_START	n/a	n/a	n/a	-999	7	[0, 0, 0]	n/a	FR1	0	R1001P
1157.757	0.801	861195	REC_WORD	0.801	n/a	CHIEF	-999	7	[0, 0, 0]	n/a	FR1	0	R1001P
1158.558	1.408	861596	REC_WORD	1.408	n/a	CORN	-999	7	[0, 0, 0]	n/a	FR1	0	R1001P
1159.966	3.278	862300	REC_WORD	3.278	n/a	BENCH	-999	7	[0, 0, 0]	n/a	FR1	0	R1001P
1163.244	13.026	863939	REC_WORD	13.026	n/a	CHURCH	-999	7	[0, 0, 0]	n/a	FR1	0	R1001P
1176.27	7.996	870451	REC_END	n/a	n/a	n/a	-999	7	[0, 0, 0]	n/a	FR1	0	R1001P
1184.266	0.0	874449	TRIAL	n/a	n/a	n/a	-999	8	[0, 0, 0]	n/a	FR1	0	R1001P
1184.266	10.428	874449	COUNTDOWN_START	n/a	n/a	n/a	-999	8	[0, 0, 0]	n/a	FR1	0	R1001P
1194.694	0.006	879663	COUNTDOWN_END	n/a	n/a	n/a	-999	8	[0, 0, 0]	n/a	FR1	0	R1001P
1194.7	2.501	879666	ORIENT	n/a	n/a	n/a	-999	8	[0, 0, 0]	n/a	FR1	0	R1001P
1197.201	2.401	880916	WORD	n/a	wordpools/wordpool_EN.txt	SINK	1	8	[0, 0, 0]	n/a	FR1	0	R1001P
1199.602	2.434	882117	WORD	n/a	wordpools/wordpool_EN.txt	RAIN	2	8	[0, 0, 0]	n/a	FR1	0	R1001P
1202.036	2.583	883334	WORD	n/a	wordpools/wordpool_EN.txt	PURSE	3	8	[0, 0, 0]	n/a	FR1	0	R1001P
1204.619	2.451	884625	WORD	n/a	wordpools/wordpool_EN.txt	BAG	4	8	[0, 0, 0]	n/a	FR1	0	R1001P
1207.07	2.434	885851	WORD	n/a	wordpools/wordpool_EN.txt	NOSE	5	8	[0, 0, 0]	n/a	FR1	0	R1001P
1209.504	2.6	887068	WORD	n/a	wordpools/wordpool_EN.txt	FENCE	6	8	[0, 0, 0]	n/a	FR1	0	R1001P
1212.104	2.434	888367	WORD	n/a	wordpools/wordpool_EN.txt	PIPE	7	8	[0, 0, 0]	n/a	FR1	0	R1001P
1214.538	2.417	889584	WORD	n/a	wordpools/wordpool_EN.txt	HAND	8	8	[0, 0, 0]	n/a	FR1	0	R1001P
1216.955	2.484	890793	WORD	n/a	wordpools/wordpool_EN.txt	SUIT	9	8	[0, 0, 0]	n/a	FR1	0	R1001P
1219.439	2.434	892035	WORD	n/a	wordpools/wordpool_EN.txt	BOY	10	8	[0, 0, 0]	n/a	FR1	0	R1001P
1221.873	2.517	893252	WORD	n/a	wordpools/wordpool_EN.txt	FLUTE	11	8	[0, 0, 0]	n/a	FR1	0	R1001P
1224.39	1.617	894510	WORD	n/a	wordpools/wordpool_EN.txt	SHIRT	12	8	[0, 0, 0]	n/a	FR1	0	R1001P
1226.007	0.001	895319	DISTRACT_START	n/a	n/a	n/a	-999	8	[0, 0, 0]	n/a	FR1	0	R1001P
1226.008	0.015	895319	START	n/a	n/a	n/a	-999	8	[-999, -999, -999]	n/a	FR1	0	R1001P
1226.023	37.275	895327	PROB	37.275	n/a	n/a	-999	8	[9, 2, 4]	15	FR1	0	R1001P
1263.298	0.016	913963	STOP	n/a	n/a	n/a	-999	8	[-999, -999, -999]	n/a	FR1	0	R1001P
1263.314	1.167	913971	DISTRACT_END	n/a	n/a	n/a	-999	8	[0, 0, 0]	n/a	FR1	0	R1001P
1264.481	13.888	914555	REC_START	n/a	n/a	n/a	-999	8	[0, 0, 0]	n/a	FR1	0	R1001P
1278.369	0.964	921498	REC_WORD	0.964	n/a	CLIFF	-999	8	[0, 0, 0]	n/a	FR1	0	R1001P
1279.333	2.973	921980	REC_WORD	2.973	n/a	BENCH	-999	8	[0, 0, 0]	n/a	FR1	0	R1001P
1282.306	1.6	923467	REC_WORD	1.6	n/a	BAG	-999	8	[0, 0, 0]	n/a	FR1	0	R1001P
1283.906	2.575	924266	REC_WORD	2.575	n/a	SHIRT	-999	8	[0, 0, 0]	n/a	FR1	0	R1001P
1286.481	8.015	925554	REC_WORD	8.015	n/a	FLUTE	-999	8	[0, 0, 0]	n/a	FR1	0	R1001P
1294.496	14.426	929561	REC_END	n/a	n/a	n/a	-999	8	[0, 0, 0]	n/a	FR1	0	R1001P
1308.922	0.0	936774	TRIAL	n/a	n/a	n/a	-999	9	[0, 0, 0]	n/a	FR1	0	R1001P
1308.922	10.428	936774	COUNTDOWN_START	n/a	n/a	n/a	-999	9	[0, 0, 0]	n/a	FR1	0	R1001P
1319.35	0.008	941988	COUNTDOWN_END	n/a	n/a	n/a	-999	9	[0, 0, 0]	n/a	FR1	0	R1001P
1319.358	2.55	941992	ORIENT	n/a	n/a	n/a	-999	9	[0, 0, 0]	n/a	FR1	0	R1001P
1321.908	2.601	943266	WORD	n/a	wordpools/wordpool_EN.txt	JET	1	9	[0, 0, 0]	n/a	FR1	0	R1001P
1324.509	2.55	944567	WORD	n/a	wordpools/wordpool_EN.txt	SAIL	2	9	[0, 0, 0]	n/a	FR1	0	R1001P
1327.059	2.55	945842	WORD	n/a	wordpools/wordpool_EN.txt	CLOCK	3	9	[0, 0, 0]	n/a	FR1	0	R1001P
1329.609	2.418	947117	WORD	n/a	wordpools/wordpool_EN.txt	SPARK	4	9	[0, 0, 0]	n/a	FR1	0	R1001P
1332.027	2.583	948326	WORD	n/a	wordpools/wordpool_EN.txt	EAR	5	9	[0, 0, 0]	n/a	FR1	0	R1001P
1334.61	2.418	949617	WORD	n/a	wordpools/wordpool_EN.txt	SHIP	6	9	[0, 0, 0]	n/a	FR1	0	R1001P
1337.028	2.483	950826	WORD	n/a	wordpools/wordpool_EN.txt	BLUSH	7	9	[0, 0, 0]	n/a	FR1	0	R1001P
1339.511	2.401	952067	WORD	n/a	wordpools/wordpool_EN.txt	PLANE	8	9	[0, 0, 0]	n/a	FR1	0	R1001P
1341.912	2.517	953268	WORD	n/a	wordpools/wordpool_EN.txt	LAMP	9	9	[0, 0, 0]	n/a	FR1	0	R1001P
1344.429	2.417	954526	WORD	n/a	wordpools/wordpool_EN.txt	PHONE	10	9	[0, 0, 0]	n/a	FR1	0	R1001P
1346.846	2.551	955735	WORD	n/a	wordpools/wordpool_EN.txt	CAR	11	9	[0, 0, 0]	n/a	FR1	0	R1001P
1349.397	1.617	957010	WORD	n/a	wordpools/wordpool_EN.txt	DOG	12	9	[0, 0, 0]	n/a	FR1	0	R1001P
1351.014	0.0	957819	DISTRACT_START	n/a	n/a	n/a	-999	9	[0, 0, 0]	n/a	FR1	0	R1001P
1351.014	0.016	957819	START	n/a	n/a	n/a	-999	9	[-999, -999, -999]	n/a	FR1	0	R1001P
1351.03	16.187	957827	PROB	16.187	n/a	n/a	-999	9	[2, 1, 3]	6	FR1	0	R1001P
1367.217	9.001	965920	PROB	9.001	n/a	n/a	-999	9	[3, 4, 5]	12	FR1	0	R1001P
1376.218	0.017	970420	STOP	n/a	n/a	n/a	-999	9	[-999, -999, -999]	n/a	FR1	0	R1001P
1376.235	1.201	970428	DISTRACT_END	n/a	n/a	n/a	-999	9	[0, 0, 0]	n/a	FR1	0	R1001P
1377.436	3.513	971029	REC_START	n/a	n/a	n/a	-999	9	[0, 0, 0]	n/a	FR1	0	R1001P
1380.949	1.249	972785	REC_WORD	1.249	n/a	SET	-999	9	[0, 0, 0]	n/a	FR1	0	R1001P
1382.198	5.612	973410	REC_WORD	5.612	n/a	JET	-999	9	[0, 0, 0]	n/a	FR1	0	R1001P
1387.81	2.219	976216	REC_WORD	2.219	n/a	SEAT	-999	9	[0, 0, 0]	n/a	FR1	0	R1001P
1390.029	1.769	977325	REC_WORD	1.769	n/a	SCHOOL	-999	9	[0, 0, 0]	n/a	FR1	0	R1001P
1391.798	5.458	978210	REC_WORD	5.458	n/a	COIN	-999	9	[0, 0, 0]	n/a	FR1	0	R1001P
1397.256	10.19	980938	REC_WORD	10.19	n/a	CLOCK	-999	9	[0, 0, 0]	n/a	FR1	0	R1001P
1407.446	13.364	986033	REC_END	n/a	n/a	n/a	-999	9	[0, 0, 0]	n/a	FR1	0	R1001P
1420.81	0.0	992715	TRIAL	n/a	n/a	n/a	-999	10	[0, 0, 0]	n/a	FR1	0	R1001P
1420.81	10.428	992715	COUNTDOWN_START	n/a	n/a	n/a	-999	10	[0, 0, 0]	n/a	FR1	0	R1001P
1431.238	0.007	997928	COUNTDOWN_END	n/a	n/a	n/a	-999	10	[0, 0, 0]	n/a	FR1	0	R1001P
1431.245	2.416	997932	ORIENT	n/a	n/a	n/a	-999	10	[0, 0, 0]	n/a	FR1	0	R1001P
1433.661	2.435	999140	WORD	n/a	wordpools/wordpool_EN.txt	ROPE	1	10	[0, 0, 0]	n/a	FR1	0	R1001P
1436.096	2.417	1000357	WORD	n/a	wordpools/wordpool_EN.txt	NET	2	10	[0, 0, 0]	n/a	FR1	0	R1001P
1438.513	2.434	1001566	WORD	n/a	wordpools/wordpool_EN.txt	FUDGE	3	10	[0, 0, 0]	n/a	FR1	0	R1001P
1440.947	2.517	1002783	WORD	n/a	wordpools/wordpool_EN.txt	FOX	4	10	[0, 0, 0]	n/a	FR1	0	R1001P
1443.464	2.417	1004041	WORD	n/a	wordpools/wordpool_EN.txt	SUN	5	10	[0, 0, 0]	n/a	FR1	0	R1001P
1445.881	2.518	1005250	WORD	n/a	wordpools/wordpool_EN.txt	SOUP	6	10	[0, 0, 0]	n/a	FR1	0	R1001P
1448.399	2.6	1006508	WORD	n/a	wordpools/wordpool_EN.txt	VINE	7	10	[0, 0, 0]	n/a	FR1	0	R1001P
1450.999	2.384	1007808	WORD	n/a	wordpools/wordpool_EN.txt	SKY	8	10	[0, 0, 0]	n/a	FR1	0	R1001P
1453.383	2.55	1009000	WORD	n/a	wordpools/wordpool_EN.txt	FRUIT	9	10	[0, 0, 0]	n/a	FR1	0	R1001P
1455.933	2.601	1010275	WORD	n/a	wordpools/wordpool_EN.txt	BRANCH	10	10	[0, 0, 0]	n/a	FR1	0	R1001P
1458.534	2.567	1011576	WORD	n/a	wordpools/wordpool_EN.txt	STORM	11	10	[0, 0, 0]	n/a	FR1	0	R1001P
1461.101	1.616	1012859	WORD	n/a	wordpools/wordpool_EN.txt	BOAT	12	10	[0, 0, 0]	n/a	FR1	0	R1001P
1462.717	0.001	1013667	DISTRACT_START	n/a	n/a	n/a	-999	10	[0, 0, 0]	n/a	FR1	0	R1001P
1462.718	0.016	1013668	START	n/a	n/a	n/a	-999	10	[-999, -999, -999]	n/a	FR1	0	R1001P
1462.734	29.003	1013676	PROB	29.003	n/a	n/a	-999	10	[5, 8, 2]	15	FR1	0	R1001P
1491.737	0.02	1028176	STOP	n/a	n/a	n/a	-999	10	[-999, -999, -999]	n/a	FR1	0	R1001P
1491.757	1.218	1028186	DISTRACT_END	n/a	n/a	n/a	-999	10	[0, 0, 0]	n/a	FR1	0	R1001P
1492.975	4.537	1028795	REC_START	n/a	n/a	n/a	-999	10	[0, 0, 0]	n/a	FR1	0	R1001P
1497.512	1.995	1031064	REC_WORD	1.995	n/a	SET	-999	10	[0, 0, 0]	n/a	FR1	0	R1001P
1499.507	3.313	1032061	REC_WORD	3.313	n/a	SCHOOL	-999	10	[0, 0, 0]	n/a	FR1	0	R1001P
1502.82	4.553	1033717	REC_WORD	4.553	n/a	RAIN	-999	10	[0, 0, 0]	n/a	FR1	0	R1001P
1507.373	0.504	1035994	REC_WORD_VV	0.504	n/a	<>	-999	10	[0, 0, 0]	n/a	FR1	0	R1001P
1507.877	4.478	1036246	REC_WORD	4.478	n/a	FOREST	-999	10	[0, 0, 0]	n/a	FR1	0	R1001P
1512.355	2.892	1038485	REC_WORD	2.892	n/a	OAR	-999	10	[0, 0, 0]	n/a	FR1	0	R1001P
1515.247	5.788	1039931	REC_WORD_VV	5.788	n/a	<>	-999	10	[0, 0, 0]	n/a	FR1	0	R1001P
1521.035	1.95	1042824	REC_WORD_VV	1.95	n/a	<>	-999	10	[0, 0, 0]	n/a	FR1	0	R1001P
1522.985	10.263	1043799	REC_END	n/a	n/a	n/a	-999	10	[0, 0, 0]	n/a	FR1	0	R1001P
1533.248	0.0	1048931	TRIAL	n/a	n/a	n/a	-999	11	[0, 0, 0]	n/a	FR1	0	R1001P
1533.248	10.428	1048931	COUNTDOWN_START	n/a	n/a	n/a	-999	11	[0, 0, 0]	n/a	FR1	0	R1001P
1543.676	0.006	1054144	COUNTDOWN_END	n/a	n/a	n/a	-999	11	[0, 0, 0]	n/a	FR1	0	R1001P
1543.682	2.402	1054147	ORIENT	n/a	n/a	n/a	-999	11	[0, 0, 0]	n/a	FR1	0	R1001P
1546.084	2.55	1055348	WORD	n/a	wordpools/wordpool_EN.txt	STREET	1	11	[0, 0, 0]	n/a	FR1	0	R1001P
1548.634	2.434	1056623	WORD	n/a	wordpools/wordpool_EN.txt	PARK	2	11	[0, 0, 0]	n/a	FR1	0	R1001P
1551.068	2.434	1057840	WORD	n/a	wordpools/wordpool_EN.txt	CLOWN	3	11	[0, 0, 0]	n/a	FR1	0	R1001P
1553.502	2.483	1059057	WORD	n/a	wordpools/wordpool_EN.txt	TREE	4	11	[0, 0, 0]	n/a	FR1	0	R1001P
1555.985	2.418	1060299	WORD	n/a	wordpools/wordpool_EN.txt	BLOOM	5	11	[0, 0, 0]	n/a	FR1	0	R1001P
1558.403	2.6	1061507	WORD	n/a	wordpools/wordpool_EN.txt	VASE	6	11	[0, 0, 0]	n/a	FR1	0	R1001P
1561.003	2.5	1062807	WORD	n/a	wordpools/wordpool_EN.txt	HILL	7	11	[0, 0, 0]	n/a	FR1	0	R1001P
1563.503	2.451	1064057	WORD	n/a	wordpools/wordpool_EN.txt	PIE	8	11	[0, 0, 0]	n/a	FR1	0	R1001P
1565.954	2.5	1065283	WORD	n/a	wordpools/wordpool_EN.txt	BEE	9	11	[0, 0, 0]	n/a	FR1	0	R1001P
1568.454	2.584	1066533	WORD	n/a	wordpools/wordpool_EN.txt	JUICE	10	11	[0, 0, 0]	n/a	FR1	0	R1001P
1571.038	2.451	1067825	WORD	n/a	wordpools/wordpool_EN.txt	ELF	11	11	[0, 0, 0]	n/a	FR1	0	R1001P
1573.489	1.617	1069050	WORD	n/a	wordpools/wordpool_EN.txt	BREAD	12	11	[0, 0, 0]	n/a	FR1	0	R1001P
1575.106	0.001	1069858	DISTRACT_START	n/a	n/a	n/a	-999	11	[0, 0, 0]	n/a	FR1	0	R1001P
1575.107	0.015	1069859	START	n/a	n/a	n/a	-999	11	[-999, -999, -999]	n/a	FR1	0	R1001P
1575.122	16.487	1069866	PROB	16.487	n/a	n/a	-999	11	[8, 9, 6]	23	FR1	0	R1001P
1591.609	9.064	1078110	PROB	9.064	n/a	n/a	-999	11	[4, 2, 6]	12	FR1	0	R1001P
1600.673	0.02	1082641	STOP	n/a	n/a	n/a	-999	11	[-999, -999, -999]	n/a	FR1	0	R1001P
1600.693	1.152	1082651	DISTRACT_END	n/a	n/a	n/a	-999	11	[0, 0, 0]	n/a	FR1	0	R1001P
1601.845	3.134	1083227	REC_START	n/a	n/a	n/a	-999	11	[0, 0, 0]	n/a	FR1	0	R1001P
1604.979	4.154	1084794	REC_WORD	4.154	n/a	STREET	-999	11	[0, 0, 0]	n/a	FR1	0	R1001P
1609.133	15.453	1086871	REC_WORD_VV	15.453	n/a	<>	-999	11	[0, 0, 0]	n/a	FR1	0	R1001P
1624.586	7.269	1094597	REC_WORD	7.269	n/a	BEE	-999	11	[0, 0, 0]	n/a	FR1	0	R1001P
1631.855	14.998	1098231	REC_END	n/a	n/a	n/a	-999	11	[0, 0, 0]	n/a	FR1	0	R1001P
1646.853	0.0	1105730	TRIAL	n/a	n/a	n/a	-999	12	[0, 0, 0]	n/a	FR1	0	R1001P
1646.853	10.428	1105730	COUNTDOWN_START	n/a	n/a	n/a	-999	12	[0, 0, 0]	n/a	FR1	0	R1001P
1657.281	0.007	1110944	COUNTDOWN_END	n/a	n/a	n/a	-999	12	[0, 0, 0]	n/a	FR1	0	R1001P
1657.288	2.383	1110947	ORIENT	n/a	n/a	n/a	-999	12	[0, 0, 0]	n/a	FR1	0	R1001P
1659.671	2.401	1112139	WORD	n/a	wordpools/wordpool_EN.txt	TAIL	1	12	[0, 0, 0]	n/a	FR1	0	R1001P
1662.072	2.467	1113339	WORD	n/a	wordpools/wordpool_EN.txt	WOLF	2	12	[0, 0, 0]	n/a	FR1	0	R1001P
1664.539	2.551	1114573	WORD	n/a	wordpools/wordpool_EN.txt	NEST	3	12	[0, 0, 0]	n/a	FR1	0	R1001P
1667.09	2.55	1115848	WORD	n/a	wordpools/wordpool_EN.txt	KITE	4	12	[0, 0, 0]	n/a	FR1	0	R1001P
1669.64	2.451	1117123	WORD	n/a	wordpools/wordpool_EN.txt	DUCK	5	12	[0, 0, 0]	n/a	FR1	0	R1001P
1672.091	2.5	1118348	WORD	n/a	wordpools/wordpool_EN.txt	RAT	6	12	[0, 0, 0]	n/a	FR1	0	R1001P
1674.591	2.55	1119598	WORD	n/a	wordpools/wordpool_EN.txt	HOLE	7	12	[0, 0, 0]	n/a	FR1	0	R1001P
1677.141	2.583	1120873	WORD	n/a	wordpools/wordpool_EN.txt	PIG	8	12	[0, 0, 0]	n/a	FR1	0	R1001P
1679.724	2.418	1122165	WORD	n/a	wordpools/wordpool_EN.txt	PRINCE	9	12	[0, 0, 0]	n/a	FR1	0	R1001P
1682.142	2.517	1123374	WORD	n/a	wordpools/wordpool_EN.txt	RAKE	10	12	[0, 0, 0]	n/a	FR1	0	R1001P
1684.659	2.618	1124632	WORD	n/a	wordpools/wordpool_EN.txt	BARN	11	12	[0, 0, 0]	n/a	FR1	0	R1001P
1687.277	1.617	1125941	WORD	n/a	wordpools/wordpool_EN.txt	PEN	12	12	[0, 0, 0]	n/a	FR1	0	R1001P
1688.894	0.001	1126749	DISTRACT_START	n/a	n/a	n/a	-999	12	[0, 0, 0]	n/a	FR1	0	R1001P
1688.895	0.015	1126750	START	n/a	n/a	n/a	-999	12	[-999, -999, -999]	n/a	FR1	0	R1001P
1688.91	24.692	1126757	PROB	24.692	n/a	n/a	-999	12	[4, 4, 4]	12	FR1	0	R1001P
1713.602	0.013	1139103	STOP	n/a	n/a	n/a	-999	12	[-999, -999, -999]	n/a	FR1	0	R1001P
1713.615	1.034	1139109	DISTRACT_END	n/a	n/a	n/a	-999	12	[0, 0, 0]	n/a	FR1	0	R1001P
1714.649	3.647	1139626	REC_START	n/a	n/a	n/a	-999	12	[0, 0, 0]	n/a	FR1	0	R1001P
1718.296	3.913	1141450	REC_WORD	3.913	n/a	RAT	-999	12	[0, 0, 0]	n/a	FR1	0	R1001P
1722.209	10.619	1143406	REC_WORD	10.619	n/a	FOREST	-999	12	[0, 0, 0]	n/a	FR1	0	R1001P
1732.828	0.606	1148715	REC_WORD_VV	0.606	n/a	<>	-999	12	[0, 0, 0]	n/a	FR1	0	R1001P
1733.434	11.229	1149018	REC_WORD	11.229	n/a	BEAR	-999	12	[0, 0, 0]	n/a	FR1	0	R1001P
1744.663	15.244	1154632	REC_END	n/a	n/a	n/a	-999	12	[0, 0, 0]	n/a	FR1	0	R1001P
1759.907	0.0	1162254	COUNTDOWN_START	n/a	n/a	n/a	-999	13	[0, 0, 0]	n/a	FR1	0	R1001P
1759.907	10.428	1162254	TRIAL	n/a	n/a	n/a	-999	13	[0, 0, 0]	n/a	FR1	0	R1001P
1770.335	0.007	1167468	COUNTDOWN_END	n/a	n/a	n/a	-999	13	[0, 0, 0]	n/a	FR1	0	R1001P
1770.342	2.468	1167471	ORIENT	n/a	n/a	n/a	-999	13	[0, 0, 0]	n/a	FR1	0	R1001P
1772.81	2.4	1168705	WORD	n/a	wordpools/wordpool_EN.txt	TEA	1	13	[0, 0, 0]	n/a	FR1	0	R1001P
1775.21	2.434	1169905	WORD	n/a	wordpools/wordpool_EN.txt	FARM	2	13	[0, 0, 0]	n/a	FR1	0	R1001P
1777.644	2.617	1171122	WORD	n/a	wordpools/wordpool_EN.txt	SEAT	3	13	[0, 0, 0]	n/a	FR1	0	R1001P
1780.261	2.433	1172430	WORD	n/a	wordpools/wordpool_EN.txt	BRUSH	4	13	[0, 0, 0]	n/a	FR1	0	R1001P
1782.694	2.601	1173647	WORD	n/a	wordpools/wordpool_EN.txt	AXE	5	13	[0, 0, 0]	n/a	FR1	0	R1001P
1785.295	2.617	1174947	WORD	n/a	wordpools/wordpool_EN.txt	SLEEVE	6	13	[0, 0, 0]	n/a	FR1	0	R1001P
1787.912	2.384	1176256	WORD	n/a	wordpools/wordpool_EN.txt	CORN	7	13	[0, 0, 0]	n/a	FR1	0	R1001P
1790.296	2.534	1177448	WORD	n/a	wordpools/wordpool_EN.txt	HOSE	8	13	[0, 0, 0]	n/a	FR1	0	R1001P
1792.83	2.5	1178715	WORD	n/a	wordpools/wordpool_EN.txt	SMILE	9	13	[0, 0, 0]	n/a	FR1	0	R1001P
1795.33	2.534	1179964	WORD	n/a	wordpools/wordpool_EN.txt	POLE	10	13	[0, 0, 0]	n/a	FR1	0	R1001P
1797.864	2.601	1181231	WORD	n/a	wordpools/wordpool_EN.txt	DART	11	13	[0, 0, 0]	n/a	FR1	0	R1001P
1800.465	1.617	1182532	WORD	n/a	wordpools/wordpool_EN.txt	HAT	12	13	[0, 0, 0]	n/a	FR1	0	R1001P
1802.082	0.001	1183340	DISTRACT_START	n/a	n/a	n/a	-999	13	[0, 0, 0]	n/a	FR1	0	R1001P
1802.083	0.015	1183341	START	n/a	n/a	n/a	-999	13	[-999, -999, -999]	n/a	FR1	0	R1001P
1802.098	30.0	1183348	PROB	30.0	n/a	n/a	-999	13	[3, 8, 3]	15	FR1	0	R1001P
1832.098	0.006	1198347	STOP	n/a	n/a	n/a	-999	13	[-999, -999, -999]	n/a	FR1	0	R1001P
1832.104	1.184	1198350	DISTRACT_END	n/a	n/a	n/a	-999	13	[0, 0, 0]	n/a	FR1	0	R1001P
1833.288	3.368	1198942	REC_START	n/a	n/a	n/a	-999	13	[0, 0, 0]	n/a	FR1	0	R1001P
1836.656	1.325	1200626	REC_WORD	1.325	n/a	HAT	-999	13	[0, 0, 0]	n/a	FR1	0	R1001P
1837.981	1.659	1201289	REC_WORD	1.659	n/a	KEY	-999	13	[0, 0, 0]	n/a	FR1	0	R1001P
1839.64	3.143	1202118	REC_WORD	3.143	n/a	HOLE	-999	13	[0, 0, 0]	n/a	FR1	0	R1001P
1842.783	6.259	1203690	REC_WORD	6.259	n/a	BRUSH	-999	13	[0, 0, 0]	n/a	FR1	0	R1001P
1849.042	11.053	1206819	REC_WORD	11.053	n/a	OAR	-999	13	[0, 0, 0]	n/a	FR1	0	R1001P
1860.095	3.205	1212345	REC_WORD	3.205	n/a	BARN	-999	13	[0, 0, 0]	n/a	FR1	0	R1001P
1863.3	10.612	1213948	REC_END	n/a	n/a	n/a	-999	13	[0, 0, 0]	n/a	FR1	0	R1001P
1873.912	0.0	1219253	TRIAL	n/a	n/a	n/a	-999	14	[0, 0, 0]	n/a	FR1	0	R1001P
1873.912	10.428	1219253	COUNTDOWN_START	n/a	n/a	n/a	-999	14	[0, 0, 0]	n/a	FR1	0	R1001P
1884.34	0.007	1224467	COUNTDOWN_END	n/a	n/a	n/a	-999	14	[0, 0, 0]	n/a	FR1	0	R1001P
1884.347	2.484	1224470	ORIENT	n/a	n/a	n/a	-999	14	[0, 0, 0]	n/a	FR1	0	R1001P
1886.831	2.467	1225712	WORD	n/a	wordpools/wordpool_EN.txt	HOOK	1	14	[0, 0, 0]	n/a	FR1	0	R1001P
1889.298	2.551	1226946	WORD	n/a	wordpools/wordpool_EN.txt	POOL	2	14	[0, 0, 0]	n/a	FR1	0	R1001P
1891.849	2.467	1228221	WORD	n/a	wordpools/wordpool_EN.txt	MOUSE	3	14	[0, 0, 0]	n/a	FR1	0	R1001P
1894.316	2.55	1229455	WORD	n/a	wordpools/wordpool_EN.txt	MAT	4	14	[0, 0, 0]	n/a	FR1	0	R1001P
1896.866	2.517	1230730	WORD	n/a	wordpools/wordpool_EN.txt	PET	5	14	[0, 0, 0]	n/a	FR1	0	R1001P
1899.383	2.417	1231988	WORD	n/a	wordpools/wordpool_EN.txt	BALL	6	14	[0, 0, 0]	n/a	FR1	0	R1001P
1901.8	2.384	1233197	WORD	n/a	wordpools/wordpool_EN.txt	TOY	7	14	[0, 0, 0]	n/a	FR1	0	R1001P
1904.184	2.617	1234388	WORD	n/a	wordpools/wordpool_EN.txt	FLAME	8	14	[0, 0, 0]	n/a	FR1	0	R1001P
1906.801	2.501	1235697	WORD	n/a	wordpools/wordpool_EN.txt	DOLL	9	14	[0, 0, 0]	n/a	FR1	0	R1001P
1909.302	2.567	1236947	WORD	n/a	wordpools/wordpool_EN.txt	CAT	10	14	[0, 0, 0]	n/a	FR1	0	R1001P
1911.869	2.417	1238231	WORD	n/a	wordpools/wordpool_EN.txt	NAIL	11	14	[0, 0, 0]	n/a	FR1	0	R1001P
1914.286	1.617	1239439	WORD	n/a	wordpools/wordpool_EN.txt	FISH	12	14	[0, 0, 0]	n/a	FR1	0	R1001P
1915.903	0.001	1240248	DISTRACT_START	n/a	n/a	n/a	-999	14	[0, 0, 0]	n/a	FR1	0	R1001P
1915.904	0.016	1240248	START	n/a	n/a	n/a	-999	14	[-999, -999, -999]	n/a	FR1	0	R1001P
1915.92	21.538	1240256	PROB	21.538	n/a	n/a	-999	14	[6, 6, 4]	16	FR1	0	R1001P
1937.458	0.016	1251025	STOP	n/a	n/a	n/a	-999	14	[-999, -999, -999]	n/a	FR1	0	R1001P
1937.474	1.034	1251033	DISTRACT_END	n/a	n/a	n/a	-999	14	[0, 0, 0]	n/a	FR1	0	R1001P
1938.508	2.227	1251550	REC_START	n/a	n/a	n/a	-999	14	[0, 0, 0]	n/a	FR1	0	R1001P
1940.735	0.885	1252663	REC_WORD	0.885	n/a	POOL	-999	14	[0, 0, 0]	n/a	FR1	0	R1001P
1941.62	1.325	1253105	REC_WORD	1.325	n/a	CAT	-999	14	[0, 0, 0]	n/a	FR1	0	R1001P
1942.945	4.24	1253768	REC_WORD	4.24	n/a	DOG	-999	14	[0, 0, 0]	n/a	FR1	0	R1001P
1947.185	1.048	1255888	REC_WORD	1.048	n/a	MOUSE	-999	14	[0, 0, 0]	n/a	FR1	0	R1001P
1948.233	9.454	1256412	REC_WORD	9.454	n/a	MAT	-999	14	[0, 0, 0]	n/a	FR1	0	R1001P
1957.687	7.838	1261138	REC_WORD	7.838	n/a	TOY	-999	14	[0, 0, 0]	n/a	FR1	0	R1001P
1965.525	2.994	1265057	REC_WORD_VV	2.994	n/a	<>	-999	14	[0, 0, 0]	n/a	FR1	0	R1001P
1968.519	5.795	1266554	REC_END	n/a	n/a	n/a	-999	14	[0, 0, 0]	n/a	FR1	0	R1001P
1974.314	0.0	1269452	COUNTDOWN_START	n/a	n/a	n/a	-999	15	[0, 0, 0]	n/a	FR1	0	R1001P
1974.314	10.428	1269452	TRIAL	n/a	n/a	n/a	-999	15	[0, 0, 0]	n/a	FR1	0	R1001P
1984.742	0.007	1274665	COUNTDOWN_END	n/a	n/a	n/a	-999	15	[0, 0, 0]	n/a	FR1	0	R1001P
1984.749	2.551	1274669	ORIENT	n/a	n/a	n/a	-999	15	[0, 0, 0]	n/a	FR1	0	R1001P
1987.3	2.567	1275944	WORD	n/a	wordpools/wordpool_EN.txt	MILK	1	15	[0, 0, 0]	n/a	FR1	0	R1001P
1989.867	2.5	1277228	WORD	n/a	wordpools/wordpool_EN.txt	DIME	2	15	[0, 0, 0]	n/a	FR1	0	R1001P
1992.367	2.401	1278478	WORD	n/a	wordpools/wordpool_EN.txt	FOOD	3	15	[0, 0, 0]	n/a	FR1	0	R1001P
1994.768	2.384	1279678	WORD	n/a	wordpools/wordpool_EN.txt	OAR	4	15	[0, 0, 0]	n/a	FR1	0	R1001P
1997.152	2.532	1280870	WORD	n/a	wordpools/wordpool_EN.txt	HEART	5	15	[0, 0, 0]	n/a	FR1	0	R1001P
1999.684	2.435	1282136	WORD	n/a	wordpools/wordpool_EN.txt	CROWN	6	15	[0, 0, 0]	n/a	FR1	0	R1001P
2002.119	2.451	1283353	WORD	n/a	wordpools/wordpool_EN.txt	STEAK	7	15	[0, 0, 0]	n/a	FR1	0	R1001P
2004.57	2.517	1284579	WORD	n/a	wordpools/wordpool_EN.txt	TRAIN	8	15	[0, 0, 0]	n/a	FR1	0	R1001P
2007.087	2.434	1285837	WORD	n/a	wordpools/wordpool_EN.txt	LAMB	9	15	[0, 0, 0]	n/a	FR1	0	R1001P
2009.521	2.517	1287054	WORD	n/a	wordpools/wordpool_EN.txt	SMOKE	10	15	[0, 0, 0]	n/a	FR1	0	R1001P
2012.038	2.417	1288312	WORD	n/a	wordpools/wordpool_EN.txt	EGG	11	15	[0, 0, 0]	n/a	FR1	0	R1001P
2014.455	1.617	1289521	WORD	n/a	wordpools/wordpool_EN.txt	PLATE	12	15	[0, 0, 0]	n/a	FR1	0	R1001P
2016.072	0.001	1290329	DISTRACT_START	n/a	n/a	n/a	-999	15	[0, 0, 0]	n/a	FR1	0	R1001P
2016.073	0.016	1290330	START	n/a	n/a	n/a	-999	15	[-999, -999, -999]	n/a	FR1	0	R1001P
2016.089	14.302	1290338	PROB	14.302	n/a	n/a	-999	15	[5, 2, 7]	14	FR1	0	R1001P
2030.391	11.627	1297488	PROB	11.627	n/a	n/a	-999	15	[5, 4, 9]	18	FR1	0	R1001P
2042.018	0.009	1303302	STOP	n/a	n/a	n/a	-999	15	[-999, -999, -999]	n/a	FR1	0	R1001P
2042.027	1.184	1303306	DISTRACT_END	n/a	n/a	n/a	-999	15	[0, 0, 0]	n/a	FR1	0	R1001P
2043.211	2.779	1303898	REC_START	n/a	n/a	n/a	-999	15	[0, 0, 0]	n/a	FR1	0	R1001P
2045.99	1.145	1305288	REC_WORD	1.145	n/a	MILK	-999	15	[0, 0, 0]	n/a	FR1	0	R1001P
2047.135	1.977	1305860	REC_WORD	1.977	n/a	FOOD	-999	15	[0, 0, 0]	n/a	FR1	0	R1001P
2049.112	3.004	1306848	REC_WORD	3.004	n/a	STEAK	-999	15	[0, 0, 0]	n/a	FR1	0	R1001P
2052.116	5.147	1308350	REC_WORD	5.147	n/a	EGG	-999	15	[0, 0, 0]	n/a	FR1	0	R1001P
2057.263	5.674	1310924	REC_WORD	5.674	n/a	CROWN	-999	15	[0, 0, 0]	n/a	FR1	0	R1001P
2062.937	5.695	1313761	REC_WORD	5.695	n/a	TOY	-999	15	[0, 0, 0]	n/a	FR1	0	R1001P
2068.632	3.633	1316608	REC_WORD_VV	3.633	n/a	<>	-999	15	[0, 0, 0]	n/a	FR1	0	R1001P
2072.265	0.956	1318424	REC_WORD_VV	0.956	n/a	<>	-999	15	[0, 0, 0]	n/a	FR1	0	R1001P
2073.221	6.696	1318902	REC_END	n/a	n/a	n/a	-999	15	[0, 0, 0]	n/a	FR1	0	R1001P
2079.917	0.0	1322250	TRIAL	n/a	n/a	n/a	-999	16	[0, 0, 0]	n/a	FR1	0	R1001P
2079.917	10.428	1322250	COUNTDOWN_START	n/a	n/a	n/a	-999	16	[0, 0, 0]	n/a	FR1	0	R1001P
2090.345	0.008	1327464	COUNTDOWN_END	n/a	n/a	n/a	-999	16	[0, 0, 0]	n/a	FR1	0	R1001P
2090.353	2.517	1327468	ORIENT	n/a	n/a	n/a	-999	16	[0, 0, 0]	n/a	FR1	0	R1001P
2092.87	2.534	1328726	WORD	n/a	wordpools/wordpool_EN.txt	BAT	1	16	[0, 0, 0]	n/a	FR1	0	R1001P
2095.404	2.617	1329993	WORD	n/a	wordpools/wordpool_EN.txt	MOTH	2	16	[0, 0, 0]	n/a	FR1	0	R1001P
2098.021	2.467	1331302	WORD	n/a	wordpools/wordpool_EN.txt	STEM	3	16	[0, 0, 0]	n/a	FR1	0	R1001P
2100.488	2.6	1332535	WORD	n/a	wordpools/wordpool_EN.txt	STORE	4	16	[0, 0, 0]	n/a	FR1	0	R1001P
2103.088	2.401	1333835	WORD	n/a	wordpools/wordpool_EN.txt	CAPE	5	16	[0, 0, 0]	n/a	FR1	0	R1001P
2105.489	2.584	1335035	WORD	n/a	wordpools/wordpool_EN.txt	FOG	6	16	[0, 0, 0]	n/a	FR1	0	R1001P
2108.073	2.599	1336327	WORD	n/a	wordpools/wordpool_EN.txt	PLANT	7	16	[0, 0, 0]	n/a	FR1	0	R1001P
2110.672	2.585	1337627	WORD	n/a	wordpools/wordpool_EN.txt	HOOF	8	16	[0, 0, 0]	n/a	FR1	0	R1001P
2113.257	2.534	1338919	WORD	n/a	wordpools/wordpool_EN.txt	MOON	9	16	[0, 0, 0]	n/a	FR1	0	R1001P
2115.791	2.617	1340186	WORD	n/a	wordpools/wordpool_EN.txt	BIRD	10	16	[0, 0, 0]	n/a	FR1	0	R1001P
2118.408	2.417	1341495	WORD	n/a	wordpools/wordpool_EN.txt	WING	11	16	[0, 0, 0]	n/a	FR1	0	R1001P
2120.825	1.617	1342703	WORD	n/a	wordpools/wordpool_EN.txt	ANT	12	16	[0, 0, 0]	n/a	FR1	0	R1001P
2122.442	0.001	1343511	DISTRACT_START	n/a	n/a	n/a	-999	16	[0, 0, 0]	n/a	FR1	0	R1001P
2122.443	0.016	1343512	START	n/a	n/a	n/a	-999	16	[-999, -999, -999]	n/a	FR1	0	R1001P
2122.459	16.319	1343520	PROB	16.319	n/a	n/a	-999	16	[6, 1, 2]	10	FR1	0	R1001P
2138.778	3.672	1351679	PROB	3.672	n/a	n/a	-999	16	[2, 5, 5]	12	FR1	0	R1001P
2142.45	0.012	1353515	STOP	n/a	n/a	n/a	-999	16	[-999, -999, -999]	n/a	FR1	0	R1001P
2142.462	1.134	1353521	DISTRACT_END	n/a	n/a	n/a	-999	16	[0, 0, 0]	n/a	FR1	0	R1001P
2143.596	1.304	1354088	REC_START	n/a	n/a	n/a	-999	16	[0, 0, 0]	n/a	FR1	0	R1001P
2144.9	0.476	1354740	REC_WORD_VV	0.476	n/a	<>	-999	16	[0, 0, 0]	n/a	FR1	0	R1001P
2145.376	0.392	1354978	REC_WORD	0.392	n/a	BIRD	-999	16	[0, 0, 0]	n/a	FR1	0	R1001P
2145.768	0.33	1355174	REC_WORD	0.33	n/a	WING	-999	16	[0, 0, 0]	n/a	FR1	0	R1001P
2146.098	15.133	1355339	REC_WORD	15.133	n/a	ANT	-999	16	[0, 0, 0]	n/a	FR1	0	R1001P
2161.231	2.284	1362905	REC_WORD_VV	2.284	n/a	<>	-999	16	[0, 0, 0]	n/a	FR1	0	R1001P
2163.515	10.096	1364047	REC_WORD_VV	10.096	n/a	<>	-999	16	[0, 0, 0]	n/a	FR1	0	R1001P
2173.611	395.848	1369095	REC_END	n/a	n/a	n/a	-999	16	[0, 0, 0]	n/a	FR1	0	R1001P
2569.459	0.0	1567008	TRIAL	n/a	n/a	n/a	-999	17	[0, 0, 0]	n/a	FR1	0	R1001P
2569.459	10.428	1567008	COUNTDOWN_START	n/a	n/a	n/a	-999	17	[0, 0, 0]	n/a	FR1	0	R1001P
2579.887	0.008	1572221	COUNTDOWN_END	n/a	n/a	n/a	-999	17	[0, 0, 0]	n/a	FR1	0	R1001P
2579.895	2.45	1572225	ORIENT	n/a	n/a	n/a	-999	17	[0, 0, 0]	n/a	FR1	0	R1001P
2582.345	2.4	1573450	WORD	n/a	wordpools/wordpool_EN.txt	BOOT	1	17	[0, 0, 0]	n/a	FR1	0	R1001P
2584.745	2.468	1574650	WORD	n/a	wordpools/wordpool_EN.txt	CROW	2	17	[0, 0, 0]	n/a	FR1	0	R1001P
2587.213	2.6	1575884	WORD	n/a	wordpools/wordpool_EN.txt	CANE	3	17	[0, 0, 0]	n/a	FR1	0	R1001P
2589.813	2.601	1577184	WORD	n/a	wordpools/wordpool_EN.txt	BOWL	4	17	[0, 0, 0]	n/a	FR1	0	R1001P
2592.414	2.5	1578485	WORD	n/a	wordpools/wordpool_EN.txt	SPRING	5	17	[0, 0, 0]	n/a	FR1	0	R1001P
2594.914	2.55	1579734	WORD	n/a	wordpools/wordpool_EN.txt	COW	6	17	[0, 0, 0]	n/a	FR1	0	R1001P
2597.464	2.568	1581009	WORD	n/a	wordpools/wordpool_EN.txt	GRASS	7	17	[0, 0, 0]	n/a	FR1	0	R1001P
2600.032	2.617	1582293	WORD	n/a	wordpools/wordpool_EN.txt	BROOM	8	17	[0, 0, 0]	n/a	FR1	0	R1001P
2602.649	2.484	1583602	WORD	n/a	wordpools/wordpool_EN.txt	BUSH	9	17	[0, 0, 0]	n/a	FR1	0	R1001P
2605.133	2.565	1584844	WORD	n/a	wordpools/wordpool_EN.txt	STOVE	10	17	[0, 0, 0]	n/a	FR1	0	R1001P
2607.698	2.402	1586126	WORD	n/a	wordpools/wordpool_EN.txt	CUBE	11	17	[0, 0, 0]	n/a	FR1	0	R1001P
2610.1	1.616	1587327	WORD	n/a	wordpools/wordpool_EN.txt	HEN	12	17	[0, 0, 0]	n/a	FR1	0	R1001P
2611.716	0.001	1588135	DISTRACT_START	n/a	n/a	n/a	-999	17	[0, 0, 0]	n/a	FR1	0	R1001P
2611.717	0.016	1588136	START	n/a	n/a	n/a	-999	17	[-999, -999, -999]	n/a	FR1	0	R1001P
2611.733	22.509	1588144	PROB	22.509	n/a	n/a	-999	17	[2, 6, 5]	14	FR1	0	R1001P
2634.242	0.013	1599397	STOP	n/a	n/a	n/a	-999	17	[-999, -999, -999]	n/a	FR1	0	R1001P
2634.255	1.151	1599404	DISTRACT_END	n/a	n/a	n/a	-999	17	[0, 0, 0]	n/a	FR1	0	R1001P
2635.406	2.191	1599979	REC_START	n/a	n/a	n/a	-999	17	[0, 0, 0]	n/a	FR1	0	R1001P
2637.597	0.874	1601075	REC_WORD	0.874	n/a	BROOM	-999	17	[0, 0, 0]	n/a	FR1	0	R1001P
2638.471	1.453	1601512	REC_WORD	1.453	n/a	BRUSH	-999	17	[0, 0, 0]	n/a	FR1	0	R1001P
2639.924	1.586	1602238	REC_WORD	1.586	n/a	COVE	-999	17	[0, 0, 0]	n/a	FR1	0	R1001P
2641.51	3.784	1603031	REC_WORD	3.784	n/a	HEN	-999	17	[0, 0, 0]	n/a	FR1	0	R1001P
2645.294	20.123	1604923	REC_WORD_VV	20.123	n/a	<>	-999	17	[0, 0, 0]	n/a	FR1	0	R1001P
2665.417	4.228	1614984	REC_END	n/a	n/a	n/a	-999	17	[0, 0, 0]	n/a	FR1	0	R1001P
2669.645	0.0	1617098	TRIAL	n/a	n/a	n/a	-999	18	[0, 0, 0]	n/a	FR1	0	R1001P
2669.645	10.428	1617098	COUNTDOWN_START	n/a	n/a	n/a	-999	18	[0, 0, 0]	n/a	FR1	0	R1001P
2680.073	0.007	1622312	COUNTDOWN_END	n/a	n/a	n/a	-999	18	[0, 0, 0]	n/a	FR1	0	R1001P
2680.08	2.616	1622315	ORIENT	n/a	n/a	n/a	-999	18	[0, 0, 0]	n/a	FR1	0	R1001P
2682.696	2.602	1623623	WORD	n/a	wordpools/wordpool_EN.txt	PEAR	1	18	[0, 0, 0]	n/a	FR1	0	R1001P
2685.298	2.534	1624924	WORD	n/a	wordpools/wordpool_EN.txt	POND	2	18	[0, 0, 0]	n/a	FR1	0	R1001P
2687.832	2.517	1626191	WORD	n/a	wordpools/wordpool_EN.txt	GLASS	3	18	[0, 0, 0]	n/a	FR1	0	R1001P
2690.349	2.533	1627449	WORD	n/a	wordpools/wordpool_EN.txt	SOAP	4	18	[0, 0, 0]	n/a	FR1	0	R1001P
2692.882	2.451	1628716	WORD	n/a	wordpools/wordpool_EN.txt	SPOON	5	18	[0, 0, 0]	n/a	FR1	0	R1001P
2695.333	2.567	1629941	WORD	n/a	wordpools/wordpool_EN.txt	SPONGE	6	18	[0, 0, 0]	n/a	FR1	0	R1001P
2697.9	2.384	1631225	WORD	n/a	wordpools/wordpool_EN.txt	GRAPE	7	18	[0, 0, 0]	n/a	FR1	0	R1001P
2700.284	2.5	1632417	WORD	n/a	wordpools/wordpool_EN.txt	SHRIMP	8	18	[0, 0, 0]	n/a	FR1	0	R1001P
2702.784	2.517	1633667	WORD	n/a	wordpools/wordpool_EN.txt	WORM	9	18	[0, 0, 0]	n/a	FR1	0	R1001P
2705.301	2.383	1634925	WORD	n/a	wordpools/wordpool_EN.txt	JAR	10	18	[0, 0, 0]	n/a	FR1	0	R1001P
2707.684	2.485	1636116	WORD	n/a	wordpools/wordpool_EN.txt	WORLD	11	18	[0, 0, 0]	n/a	FR1	0	R1001P
2710.169	1.617	1637359	WORD	n/a	wordpools/wordpool_EN.txt	PEACH	12	18	[0, 0, 0]	n/a	FR1	0	R1001P
2711.786	0.001	1638167	DISTRACT_START	n/a	n/a	n/a	-999	18	[0, 0, 0]	n/a	FR1	0	R1001P
2711.787	0.016	1638168	START	n/a	n/a	n/a	-999	18	[-999, -999, -999]	n/a	FR1	0	R1001P
2711.803	17.62	1638176	PROB	17.62	n/a	n/a	-999	18	[2, 6, 3]	12	FR1	0	R1001P
2729.423	7.131	1646985	PROB	7.131	n/a	n/a	-999	18	[9, 3, 3]	15	FR1	0	R1001P
2736.554	0.003	1650551	STOP	n/a	n/a	n/a	-999	18	[-999, -999, -999]	n/a	FR1	0	R1001P
2736.557	1.034	1650552	DISTRACT_END	n/a	n/a	n/a	-999	18	[0, 0, 0]	n/a	FR1	0	R1001P
2737.591	2.544	1651069	REC_START	n/a	n/a	n/a	-999	18	[0, 0, 0]	n/a	FR1	0	R1001P
2740.135	1.598	1652341	REC_WORD	1.598	n/a	SOAP	-999	18	[0, 0, 0]	n/a	FR1	0	R1001P
2741.733	2.256	1653140	REC_WORD	2.256	n/a	SPONGE	-999	18	[0, 0, 0]	n/a	FR1	0	R1001P
2743.989	2.524	1654268	REC_WORD	2.524	n/a	HEN	-999	18	[0, 0, 0]	n/a	FR1	0	R1001P
2746.513	21.093	1655530	REC_WORD	21.093	n/a	SHRIMP	-999	18	[0, 0, 0]	n/a	FR1	0	R1001P
2767.606	6.792	1666076	REC_END	n/a	n/a	n/a	-999	18	[0, 0, 0]	n/a	FR1	0	R1001P
2774.398	0.0	1669472	COUNTDOWN_START	n/a	n/a	n/a	-999	19	[0, 0, 0]	n/a	FR1	0	R1001P
2774.398	10.428	1669472	TRIAL	n/a	n/a	n/a	-999	19	[0, 0, 0]	n/a	FR1	0	R1001P
2784.826	0.007	1674685	COUNTDOWN_END	n/a	n/a	n/a	-999	19	[0, 0, 0]	n/a	FR1	0	R1001P
2784.833	2.451	1674689	ORIENT	n/a	n/a	n/a	-999	19	[0, 0, 0]	n/a	FR1	0	R1001P
2787.284	2.5	1675914	WORD	n/a	wordpools/wordpool_EN.txt	STICK	1	19	[0, 0, 0]	n/a	FR1	0	R1001P
2789.784	2.4	1677164	WORD	n/a	wordpools/wordpool_EN.txt	MUG	2	19	[0, 0, 0]	n/a	FR1	0	R1001P
2792.184	2.5	1678364	WORD	n/a	wordpools/wordpool_EN.txt	FOOT	3	19	[0, 0, 0]	n/a	FR1	0	R1001P
2794.684	2.601	1679614	WORD	n/a	wordpools/wordpool_EN.txt	CHEEK	4	19	[0, 0, 0]	n/a	FR1	0	R1001P
2797.285	2.501	1680914	WORD	n/a	wordpools/wordpool_EN.txt	RUG	5	19	[0, 0, 0]	n/a	FR1	0	R1001P
2799.786	2.467	1682165	WORD	n/a	wordpools/wordpool_EN.txt	DOOR	6	19	[0, 0, 0]	n/a	FR1	0	R1001P
2802.253	2.5	1683398	WORD	n/a	wordpools/wordpool_EN.txt	THUMB	7	19	[0, 0, 0]	n/a	FR1	0	R1001P
2804.753	2.484	1684648	WORD	n/a	wordpools/wordpool_EN.txt	EEL	8	19	[0, 0, 0]	n/a	FR1	0	R1001P
2807.237	2.567	1685890	WORD	n/a	wordpools/wordpool_EN.txt	CHIN	9	19	[0, 0, 0]	n/a	FR1	0	R1001P
2809.804	2.518	1687174	WORD	n/a	wordpools/wordpool_EN.txt	LIP	10	19	[0, 0, 0]	n/a	FR1	0	R1001P
2812.322	2.533	1688433	WORD	n/a	wordpools/wordpool_EN.txt	SIGN	11	19	[0, 0, 0]	n/a	FR1	0	R1001P
2814.855	1.617	1689699	WORD	n/a	wordpools/wordpool_EN.txt	BED	12	19	[0, 0, 0]	n/a	FR1	0	R1001P
2816.472	0.001	1690507	DISTRACT_START	n/a	n/a	n/a	-999	19	[0, 0, 0]	n/a	FR1	0	R1001P
2816.473	0.016	1690508	START	n/a	n/a	n/a	-999	19	[-999, -999, -999]	n/a	FR1	0	R1001P
2816.489	23.881	1690516	PROB	23.881	n/a	n/a	-999	19	[6, 9, 9]	24	FR1	0	R1001P
2840.37	0.007	1702456	STOP	n/a	n/a	n/a	-999	19	[-999, -999, -999]	n/a	FR1	0	R1001P
2840.377	1.051	1702459	DISTRACT_END	n/a	n/a	n/a	-999	19	[0, 0, 0]	n/a	FR1	0	R1001P
2841.428	3.337	1702985	REC_START	n/a	n/a	n/a	-999	19	[0, 0, 0]	n/a	FR1	0	R1001P
2844.765	1.71	1704653	REC_WORD	1.71	n/a	CHIN	-999	19	[0, 0, 0]	n/a	FR1	0	R1001P
2846.475	3.0	1705508	REC_WORD	3.0	n/a	LIP	-999	19	[0, 0, 0]	n/a	FR1	0	R1001P
2849.475	1.597	1707008	REC_WORD	1.597	n/a	SHIP	-999	19	[0, 0, 0]	n/a	FR1	0	R1001P
2851.072	0.865	1707806	REC_WORD	0.865	n/a	CHIN	-999	19	[0, 0, 0]	n/a	FR1	0	R1001P
2851.937	0.855	1708239	REC_WORD	0.855	n/a	LIP	-999	19	[0, 0, 0]	n/a	FR1	0	R1001P
2852.792	8.433	1708666	REC_WORD	8.433	n/a	CHEEK	-999	19	[0, 0, 0]	n/a	FR1	0	R1001P
2861.225	10.214	1712883	REC_WORD	10.214	n/a	BOND	-999	19	[0, 0, 0]	n/a	FR1	0	R1001P
2871.439	6.595	1717989	REC_END	n/a	n/a	n/a	-999	19	[0, 0, 0]	n/a	FR1	0	R1001P
2878.034	0.0	1721287	TRIAL	n/a	n/a	n/a	-999	20	[0, 0, 0]	n/a	FR1	0	R1001P
2878.034	10.428	1721287	COUNTDOWN_START	n/a	n/a	n/a	-999	20	[0, 0, 0]	n/a	FR1	0	R1001P
2888.462	0.007	1726500	COUNTDOWN_END	n/a	n/a	n/a	-999	20	[0, 0, 0]	n/a	FR1	0	R1001P
2888.469	2.517	1726504	ORIENT	n/a	n/a	n/a	-999	20	[0, 0, 0]	n/a	FR1	0	R1001P
2890.986	2.401	1727762	WORD	n/a	wordpools/wordpool_EN.txt	WEB	1	20	[0, 0, 0]	n/a	FR1	0	R1001P
2893.387	2.5	1728963	WORD	n/a	wordpools/wordpool_EN.txt	SHOE	2	20	[0, 0, 0]	n/a	FR1	0	R1001P
2895.887	2.501	1730213	WORD	n/a	wordpools/wordpool_EN.txt	WHALE	3	20	[0, 0, 0]	n/a	FR1	0	R1001P
2898.388	2.55	1731463	WORD	n/a	wordpools/wordpool_EN.txt	TENT	4	20	[0, 0, 0]	n/a	FR1	0	R1001P
2900.938	2.534	1732738	WORD	n/a	wordpools/wordpool_EN.txt	FUR	5	20	[0, 0, 0]	n/a	FR1	0	R1001P
2903.472	2.55	1734005	WORD	n/a	wordpools/wordpool_EN.txt	STOOL	6	20	[0, 0, 0]	n/a	FR1	0	R1001P
2906.022	2.468	1735280	WORD	n/a	wordpools/wordpool_EN.txt	PANTS	7	20	[0, 0, 0]	n/a	FR1	0	R1001P
2908.49	2.467	1736514	WORD	n/a	wordpools/wordpool_EN.txt	TOE	8	20	[0, 0, 0]	n/a	FR1	0	R1001P
2910.957	2.384	1737747	WORD	n/a	wordpools/wordpool_EN.txt	GOAT	9	20	[0, 0, 0]	n/a	FR1	0	R1001P
2913.341	2.617	1738939	WORD	n/a	wordpools/wordpool_EN.txt	ROOF	10	20	[0, 0, 0]	n/a	FR1	0	R1001P
2915.958	2.533	1740248	WORD	n/a	wordpools/wordpool_EN.txt	FAN	11	20	[0, 0, 0]	n/a	FR1	0	R1001P
2918.491	1.617	1741514	WORD	n/a	wordpools/wordpool_EN.txt	FACE	12	20	[0, 0, 0]	n/a	FR1	0	R1001P
2920.108	0.001	1742323	DISTRACT_START	n/a	n/a	n/a	-999	20	[0, 0, 0]	n/a	FR1	0	R1001P
2920.109	0.016	1742323	START	n/a	n/a	n/a	-999	20	[-999, -999, -999]	n/a	FR1	0	R1001P
2920.125	19.704	1742331	PROB	19.704	n/a	n/a	-999	20	[7, 5, 7]	19	FR1	0	R1001P
2939.829	9.589	1752183	PROB	9.589	n/a	n/a	-999	20	[6, 4, 9]	19	FR1	0	R1001P
2949.418	0.013	1756977	STOP	n/a	n/a	n/a	-999	20	[-999, -999, -999]	n/a	FR1	0	R1001P
2949.431	1.167	1756983	DISTRACT_END	n/a	n/a	n/a	-999	20	[0, 0, 0]	n/a	FR1	0	R1001P
2950.598	1.629	1757567	REC_START	n/a	n/a	n/a	-999	20	[0, 0, 0]	n/a	FR1	0	R1001P
2952.227	1.862	1758381	REC_WORD_VV	1.862	n/a	<>	-999	20	[0, 0, 0]	n/a	FR1	0	R1001P
2954.089	2.481	1759312	REC_WORD	2.481	n/a	GOAT	-999	20	[0, 0, 0]	n/a	FR1	0	R1001P
2956.57	4.731	1760553	REC_WORD	4.731	n/a	ROOF	-999	20	[0, 0, 0]	n/a	FR1	0	R1001P
2961.301	2.82	1762918	REC_WORD	2.82	n/a	CHIN	-999	20	[0, 0, 0]	n/a	FR1	0	R1001P
2964.121	0.631	1764328	REC_WORD_VV	0.631	n/a	<>	-999	20	[0, 0, 0]	n/a	FR1	0	R1001P
2964.752	7.826	1764643	REC_WORD	7.826	n/a	CHIN	-999	20	[0, 0, 0]	n/a	FR1	0	R1001P
2972.578	1.163	1768556	REC_WORD	1.163	n/a	TOE	-999	20	[0, 0, 0]	n/a	FR1	0	R1001P
2973.741	0.295	1769138	REC_WORD_VV	0.295	n/a	<>	-999	20	[0, 0, 0]	n/a	FR1	0	R1001P
2974.036	2.059	1769285	REC_WORD	2.059	n/a	CHIN	-999	20	[0, 0, 0]	n/a	FR1	0	R1001P
2976.095	4.513	1770315	REC_WORD_VV	4.513	n/a	<>	-999	20	[0, 0, 0]	n/a	FR1	0	R1001P
2980.608	16.732	1772571	REC_END	n/a	n/a	n/a	-999	20	[0, 0, 0]	n/a	FR1	0	R1001P
2997.34	0.0	1780936	TRIAL	n/a	n/a	n/a	-999	21	[0, 0, 0]	n/a	FR1	0	R1001P
2997.34	10.428	1780936	COUNTDOWN_START	n/a	n/a	n/a	-999	21	[0, 0, 0]	n/a	FR1	0	R1001P
3007.768	0.007	1786150	COUNTDOWN_END	n/a	n/a	n/a	-999	21	[0, 0, 0]	n/a	FR1	0	R1001P
3007.775	2.417	1786154	ORIENT	n/a	n/a	n/a	-999	21	[0, 0, 0]	n/a	FR1	0	R1001P
3010.192	2.483	1787362	WORD	n/a	wordpools/wordpool_EN.txt	STRING	1	21	[0, 0, 0]	n/a	FR1	0	R1001P
3012.675	2.551	1788604	WORD	n/a	wordpools/wordpool_EN.txt	VAN	2	21	[0, 0, 0]	n/a	FR1	0	R1001P
3015.226	2.401	1789879	WORD	n/a	wordpools/wordpool_EN.txt	CART	3	21	[0, 0, 0]	n/a	FR1	0	R1001P
3017.627	2.384	1791079	WORD	n/a	wordpools/wordpool_EN.txt	CLIFF	4	21	[0, 0, 0]	n/a	FR1	0	R1001P
3020.011	2.55	1792271	WORD	n/a	wordpools/wordpool_EN.txt	LEG	5	21	[0, 0, 0]	n/a	FR1	0	R1001P
3022.561	2.484	1793546	WORD	n/a	wordpools/wordpool_EN.txt	TOOL	6	21	[0, 0, 0]	n/a	FR1	0	R1001P
3025.045	2.384	1794788	WORD	n/a	wordpools/wordpool_EN.txt	SKI	7	21	[0, 0, 0]	n/a	FR1	0	R1001P
3027.429	2.617	1795980	WORD	n/a	wordpools/wordpool_EN.txt	SPEAR	8	21	[0, 0, 0]	n/a	FR1	0	R1001P
3030.046	2.5	1797289	WORD	n/a	wordpools/wordpool_EN.txt	CRANE	9	21	[0, 0, 0]	n/a	FR1	0	R1001P
3032.546	2.434	1798538	WORD	n/a	wordpools/wordpool_EN.txt	WAVE	10	21	[0, 0, 0]	n/a	FR1	0	R1001P
3034.98	2.401	1799755	WORD	n/a	wordpools/wordpool_EN.txt	RIB	11	21	[0, 0, 0]	n/a	FR1	0	R1001P
3037.381	1.617	1800956	WORD	n/a	wordpools/wordpool_EN.txt	TRUCK	12	21	[0, 0, 0]	n/a	FR1	0	R1001P
3038.998	0.0	1801764	DISTRACT_START	n/a	n/a	n/a	-999	21	[0, 0, 0]	n/a	FR1	0	R1001P
3038.998	0.016	1801764	START	n/a	n/a	n/a	-999	21	[-999, -999, -999]	n/a	FR1	0	R1001P
3039.014	31.892	1801772	PROB	31.892	n/a	n/a	-999	21	[1, 9, 8]	18	FR1	0	R1001P
3070.906	0.014	1817717	STOP	n/a	n/a	n/a	-999	21	[-999, -999, -999]	n/a	FR1	0	R1001P
3070.92	1.184	1817724	DISTRACT_END	n/a	n/a	n/a	-999	21	[0, 0, 0]	n/a	FR1	0	R1001P
3072.104	3.858	1818316	REC_START	n/a	n/a	n/a	-999	21	[0, 0, 0]	n/a	FR1	0	R1001P
3075.962	3.015	1820245	REC_WORD	3.015	n/a	CLIFF	-999	21	[0, 0, 0]	n/a	FR1	0	R1001P
3078.977	2.43	1821753	REC_WORD	2.43	n/a	RIB	-999	21	[0, 0, 0]	n/a	FR1	0	R1001P
3081.407	10.881	1822968	REC_WORD	10.881	n/a	TRUCK	-999	21	[0, 0, 0]	n/a	FR1	0	R1001P
3092.288	6.01	1828408	REC_WORD_VV	6.01	n/a	<>	-999	21	[0, 0, 0]	n/a	FR1	0	R1001P
3098.298	3.82	1831413	REC_WORD	3.82	n/a	ROOF	-999	21	[0, 0, 0]	n/a	FR1	0	R1001P
3102.118	11.727	1833323	REC_END	n/a	n/a	n/a	-999	21	[0, 0, 0]	n/a	FR1	0	R1001P
3113.845	0.0	1839186	COUNTDOWN_START	n/a	n/a	n/a	-999	22	[0, 0, 0]	n/a	FR1	0	R1001P
3113.845	10.428	1839186	TRIAL	n/a	n/a	n/a	-999	22	[0, 0, 0]	n/a	FR1	0	R1001P
3124.273	0.007	1844399	COUNTDOWN_END	n/a	n/a	n/a	-999	22	[0, 0, 0]	n/a	FR1	0	R1001P
3124.28	2.399	1844403	ORIENT	n/a	n/a	n/a	-999	22	[0, 0, 0]	n/a	FR1	0	R1001P
3126.679	2.619	1845602	WORD	n/a	wordpools/wordpool_EN.txt	CORD	1	22	[0, 0, 0]	n/a	FR1	0	R1001P
3129.298	2.534	1846912	WORD	n/a	wordpools/wordpool_EN.txt	SHEEP	2	22	[0, 0, 0]	n/a	FR1	0	R1001P
3131.832	2.483	1848179	WORD	n/a	wordpools/wordpool_EN.txt	FILM	3	22	[0, 0, 0]	n/a	FR1	0	R1001P
3134.315	2.534	1849420	WORD	n/a	wordpools/wordpool_EN.txt	TOOTH	4	22	[0, 0, 0]	n/a	FR1	0	R1001P
3136.849	2.384	1850687	WORD	n/a	wordpools/wordpool_EN.txt	FORT	5	22	[0, 0, 0]	n/a	FR1	0	R1001P
3139.233	2.449	1851879	WORD	n/a	wordpools/wordpool_EN.txt	CASH	6	22	[0, 0, 0]	n/a	FR1	0	R1001P
3141.682	2.369	1853103	WORD	n/a	wordpools/wordpool_EN.txt	BEAN	7	22	[0, 0, 0]	n/a	FR1	0	R1001P
3144.051	2.45	1854288	WORD	n/a	wordpools/wordpool_EN.txt	SHARK	8	22	[0, 0, 0]	n/a	FR1	0	R1001P
3146.501	2.567	1855513	WORD	n/a	wordpools/wordpool_EN.txt	TOAD	9	22	[0, 0, 0]	n/a	FR1	0	R1001P
3149.068	2.517	1856796	WORD	n/a	wordpools/wordpool_EN.txt	BANK	10	22	[0, 0, 0]	n/a	FR1	0	R1001P
3151.585	2.518	1858055	WORD	n/a	wordpools/wordpool_EN.txt	BOOK	11	22	[0, 0, 0]	n/a	FR1	0	R1001P
3154.103	1.616	1859314	WORD	n/a	wordpools/wordpool_EN.txt	TEETH	12	22	[0, 0, 0]	n/a	FR1	0	R1001P
3155.719	0.001	1860122	DISTRACT_START	n/a	n/a	n/a	-999	22	[0, 0, 0]	n/a	FR1	0	R1001P
3155.72	0.015	1860122	START	n/a	n/a	n/a	-999	22	[-999, -999, -999]	n/a	FR1	0	R1001P
3155.735	19.105	1860130	PROB	19.105	n/a	n/a	-999	22	[7, 3, 2]	12	FR1	0	R1001P
3174.84	5.45	1869682	PROB	5.45	n/a	n/a	-999	22	[3, 4, 3]	11	FR1	0	R1001P
3180.29	0.017	1872406	STOP	n/a	n/a	n/a	-999	22	[-999, -999, -999]	n/a	FR1	0	R1001P
3180.307	1.118	1872415	DISTRACT_END	n/a	n/a	n/a	-999	22	[0, 0, 0]	n/a	FR1	0	R1001P
3181.425	1.398	1872974	REC_START	n/a	n/a	n/a	-999	22	[0, 0, 0]	n/a	FR1	0	R1001P
3182.823	0.461	1873673	REC_WORD_VV	0.461	n/a	<>	-999	22	[0, 0, 0]	n/a	FR1	0	R1001P
3183.284	2.727	1873903	REC_WORD	2.727	n/a	CASH	-999	22	[0, 0, 0]	n/a	FR1	0	R1001P
3186.011	3.545	1875267	REC_WORD	3.545	n/a	BANK	-999	22	[0, 0, 0]	n/a	FR1	0	R1001P
3189.556	2.143	1877039	REC_WORD	2.143	n/a	CHIN	-999	22	[0, 0, 0]	n/a	FR1	0	R1001P
3191.699	10.956	1878111	REC_WORD	10.956	n/a	TEETH	-999	22	[0, 0, 0]	n/a	FR1	0	R1001P
3202.655	1.147	1883588	REC_WORD	1.147	n/a	TEETH	-999	22	[0, 0, 0]	n/a	FR1	0	R1001P
3203.802	7.634	1884162	REC_WORD_VV	7.634	n/a	<>	-999	22	[0, 0, 0]	n/a	FR1	0	R1001P
3211.436	10.029	1887979	REC_END	n/a	n/a	n/a	-999	22	[0, 0, 0]	n/a	FR1	0	R1001P
3221.465	0.001	1892993	COUNTDOWN_START	n/a	n/a	n/a	-999	23	[0, 0, 0]	n/a	FR1	0	R1001P
3221.466	10.427	1892993	TRIAL	n/a	n/a	n/a	-999	23	[0, 0, 0]	n/a	FR1	0	R1001P
3231.893	0.007	1898206	COUNTDOWN_END	n/a	n/a	n/a	-999	23	[0, 0, 0]	n/a	FR1	0	R1001P
3231.9	2.384	1898210	ORIENT	n/a	n/a	n/a	-999	23	[0, 0, 0]	n/a	FR1	0	R1001P
3234.284	2.584	1899402	WORD	n/a	wordpools/wordpool_EN.txt	SALT	1	23	[0, 0, 0]	n/a	FR1	0	R1001P
3236.868	2.601	1900694	WORD	n/a	wordpools/wordpool_EN.txt	TRASH	2	23	[0, 0, 0]	n/a	FR1	0	R1001P
3239.469	2.383	1901994	WORD	n/a	wordpools/wordpool_EN.txt	MAP	3	23	[0, 0, 0]	n/a	FR1	0	R1001P
3241.852	2.584	1903186	WORD	n/a	wordpools/wordpool_EN.txt	ICE	4	23	[0, 0, 0]	n/a	FR1	0	R1001P
3244.436	2.517	1904478	WORD	n/a	wordpools/wordpool_EN.txt	SNOW	5	23	[0, 0, 0]	n/a	FR1	0	R1001P
3246.953	2.567	1905736	WORD	n/a	wordpools/wordpool_EN.txt	STEAM	6	23	[0, 0, 0]	n/a	FR1	0	R1001P
3249.52	2.434	1907020	WORD	n/a	wordpools/wordpool_EN.txt	BOMB	7	23	[0, 0, 0]	n/a	FR1	0	R1001P
3251.954	2.551	1908236	WORD	n/a	wordpools/wordpool_EN.txt	ROCK	8	23	[0, 0, 0]	n/a	FR1	0	R1001P
3254.505	2.567	1909512	WORD	n/a	wordpools/wordpool_EN.txt	TANK	9	23	[0, 0, 0]	n/a	FR1	0	R1001P
3257.072	2.534	1910795	WORD	n/a	wordpools/wordpool_EN.txt	LAKE	10	23	[0, 0, 0]	n/a	FR1	0	R1001P
3259.606	2.517	1912062	WORD	n/a	wordpools/wordpool_EN.txt	MOOSE	11	23	[0, 0, 0]	n/a	FR1	0	R1001P
3262.123	1.616	1913321	WORD	n/a	wordpools/wordpool_EN.txt	STONE	12	23	[0, 0, 0]	n/a	FR1	0	R1001P
3263.739	0.0	1914129	DISTRACT_START	n/a	n/a	n/a	-999	23	[0, 0, 0]	n/a	FR1	0	R1001P
3263.739	0.017	1914129	START	n/a	n/a	n/a	-999	23	[-999, -999, -999]	n/a	FR1	0	R1001P
3263.756	11.286	1914137	PROB	11.286	n/a	n/a	-999	23	[1, 4, 6]	11	FR1	0	R1001P
3275.042	4.768	1919780	PROB	4.768	n/a	n/a	-999	23	[4, 8, 2]	14	FR1	0	R1001P
3279.81	7.6	1922164	PROB	7.6	n/a	n/a	-999	23	[2, 2, 3]	7	FR1	0	R1001P
3287.41	0.018	1925963	STOP	n/a	n/a	n/a	-999	23	[-999, -999, -999]	n/a	FR1	0	R1001P
3287.428	1.167	1925972	DISTRACT_END	n/a	n/a	n/a	-999	23	[0, 0, 0]	n/a	FR1	0	R1001P
3288.595	1.456	1926556	REC_START	n/a	n/a	n/a	-999	23	[0, 0, 0]	n/a	FR1	0	R1001P
3290.051	0.636	1927284	REC_WORD_VV	0.636	n/a	<>	-999	23	[0, 0, 0]	n/a	FR1	0	R1001P
3290.687	1.604	1927602	REC_WORD	1.604	n/a	SNOW	-999	23	[0, 0, 0]	n/a	FR1	0	R1001P
3292.291	5.427	1928404	REC_WORD	5.427	n/a	ICE	-999	23	[0, 0, 0]	n/a	FR1	0	R1001P
3297.718	0.665	1931117	REC_WORD	0.665	n/a	SNOW	-999	23	[0, 0, 0]	n/a	FR1	0	R1001P
3298.383	1.442	1931450	REC_WORD	1.442	n/a	ICE	-999	23	[0, 0, 0]	n/a	FR1	0	R1001P
3299.825	0.387	1932171	REC_WORD_VV	0.387	n/a	<>	-999	23	[0, 0, 0]	n/a	FR1	0	R1001P
3300.212	0.956	1932364	REC_WORD	0.956	n/a	BANK	-999	23	[0, 0, 0]	n/a	FR1	0	R1001P
3301.168	7.584	1932842	REC_WORD	7.584	n/a	LEAK	-999	23	[0, 0, 0]	n/a	FR1	0	R1001P
3308.752	9.852	1936634	REC_WORD	9.852	n/a	SHADOW	-999	23	[0, 0, 0]	n/a	FR1	0	R1001P
3318.604	9.248	1941560	REC_END	n/a	n/a	n/a	-999	23	[0, 0, 0]	n/a	FR1	0	R1001P
3327.852	0.0	1946183	TRIAL	n/a	n/a	n/a	-999	24	[0, 0, 0]	n/a	FR1	0	R1001P
3327.852	10.428	1946183	COUNTDOWN_START	n/a	n/a	n/a	-999	24	[0, 0, 0]	n/a	FR1	0	R1001P
3338.28	0.007	1951397	COUNTDOWN_END	n/a	n/a	n/a	-999	24	[0, 0, 0]	n/a	FR1	0	R1001P
3338.287	2.501	1951401	ORIENT	n/a	n/a	n/a	-999	24	[0, 0, 0]	n/a	FR1	0	R1001P
3340.788	2.617	1952651	WORD	n/a	wordpools/wordpool_EN.txt	CONE	1	24	[0, 0, 0]	n/a	FR1	0	R1001P
3343.405	2.567	1953959	WORD	n/a	wordpools/wordpool_EN.txt	TRAY	2	24	[0, 0, 0]	n/a	FR1	0	R1001P
3345.972	2.467	1955243	WORD	n/a	wordpools/wordpool_EN.txt	SWAMP	3	24	[0, 0, 0]	n/a	FR1	0	R1001P
3348.439	2.584	1956476	WORD	n/a	wordpools/wordpool_EN.txt	LAND	4	24	[0, 0, 0]	n/a	FR1	0	R1001P
3351.023	2.584	1957768	WORD	n/a	wordpools/wordpool_EN.txt	LEAF	5	24	[0, 0, 0]	n/a	FR1	0	R1001P
3353.607	2.467	1959060	WORD	n/a	wordpools/wordpool_EN.txt	FORK	6	24	[0, 0, 0]	n/a	FR1	0	R1001P
3356.074	2.534	1960294	WORD	n/a	wordpools/wordpool_EN.txt	DRESS	7	24	[0, 0, 0]	n/a	FR1	0	R1001P
3358.608	2.45	1961561	WORD	n/a	wordpools/wordpool_EN.txt	ARK	8	24	[0, 0, 0]	n/a	FR1	0	R1001P
3361.058	2.401	1962785	WORD	n/a	wordpools/wordpool_EN.txt	ROOT	9	24	[0, 0, 0]	n/a	FR1	0	R1001P
3363.459	2.383	1963986	WORD	n/a	wordpools/wordpool_EN.txt	SEED	10	24	[0, 0, 0]	n/a	FR1	0	R1001P
3365.842	2.517	1965177	WORD	n/a	wordpools/wordpool_EN.txt	LAWN	11	24	[0, 0, 0]	n/a	FR1	0	R1001P
3368.359	1.617	1966436	WORD	n/a	wordpools/wordpool_EN.txt	TOAST	12	24	[0, 0, 0]	n/a	FR1	0	R1001P
3369.976	0.001	1967244	DISTRACT_START	n/a	n/a	n/a	-999	24	[0, 0, 0]	n/a	FR1	0	R1001P
3369.977	0.016	1967245	START	n/a	n/a	n/a	-999	24	[-999, -999, -999]	n/a	FR1	0	R1001P
3369.993	19.52	1967253	PROB	19.52	n/a	n/a	-999	24	[3, 6, 7]	16	FR1	0	R1001P
3389.513	6.297	1977012	PROB	6.297	n/a	n/a	-999	24	[1, 6, 9]	15	FR1	0	R1001P
3395.81	0.004	1980160	STOP	n/a	n/a	n/a	-999	24	[-999, -999, -999]	n/a	FR1	0	R1001P
3395.814	1.185	1980162	DISTRACT_END	n/a	n/a	n/a	-999	24	[0, 0, 0]	n/a	FR1	0	R1001P
3396.999	4.858	1980755	REC_START	n/a	n/a	n/a	-999	24	[0, 0, 0]	n/a	FR1	0	R1001P
3401.857	1.149	1983184	REC_WORD	1.149	n/a	SEA	-999	24	[0, 0, 0]	n/a	FR1	0	R1001P
3403.006	24.004	1983758	REC_WORD	24.004	n/a	LAWN	-999	24	[0, 0, 0]	n/a	FR1	0	R1001P
3427.01	6.128	1995760	REC_END	n/a	n/a	n/a	-999	24	[0, 0, 0]	n/a	FR1	0	R1001P
3433.138	0.001	1998823	COUNTDOWN_START	n/a	n/a	n/a	-999	25	[0, 0, 0]	n/a	FR1	0	R1001P
3433.139	10.427	1998824	TRIAL	n/a	n/a	n/a	-999	25	[0, 0, 0]	n/a	FR1	0	R1001P
3443.566	0.008	2004037	COUNTDOWN_END	n/a	n/a	n/a	-999	25	[0, 0, 0]	n/a	FR1	0	R1001P
3443.574	2.567	2004041	ORIENT	n/a	n/a	n/a	-999	25	[0, 0, 0]	n/a	FR1	0	R1001P
3446.141	2.617	2005325	WORD	n/a	wordpools/wordpool_EN.txt	CALF	1	25	[0, 0, 0]	n/a	FR1	0	R1001P
3448.758	2.384	2006633	WORD	n/a	wordpools/wordpool_EN.txt	DITCH	2	25	[0, 0, 0]	n/a	FR1	0	R1001P
3451.142	2.434	2007825	WORD	n/a	wordpools/wordpool_EN.txt	BEACH	3	25	[0, 0, 0]	n/a	FR1	0	R1001P
3453.576	2.417	2009042	WORD	n/a	wordpools/wordpool_EN.txt	OWL	4	25	[0, 0, 0]	n/a	FR1	0	R1001P
3455.993	2.467	2010250	WORD	n/a	wordpools/wordpool_EN.txt	SEA	5	25	[0, 0, 0]	n/a	FR1	0	R1001P
3458.46	2.517	2011484	WORD	n/a	wordpools/wordpool_EN.txt	SHELL	6	25	[0, 0, 0]	n/a	FR1	0	R1001P
3460.977	2.45	2012742	WORD	n/a	wordpools/wordpool_EN.txt	PEA	7	25	[0, 0, 0]	n/a	FR1	0	R1001P
3463.427	2.484	2013967	WORD	n/a	wordpools/wordpool_EN.txt	HORSE	8	25	[0, 0, 0]	n/a	FR1	0	R1001P
3465.911	2.484	2015209	WORD	n/a	wordpools/wordpool_EN.txt	SOCK	9	25	[0, 0, 0]	n/a	FR1	0	R1001P
3468.395	2.517	2016451	WORD	n/a	wordpools/wordpool_EN.txt	MULE	10	25	[0, 0, 0]	n/a	FR1	0	R1001P
3470.912	2.617	2017709	WORD	n/a	wordpools/wordpool_EN.txt	SKUNK	11	25	[0, 0, 0]	n/a	FR1	0	R1001P
3473.529	1.617	2019018	WORD	n/a	wordpools/wordpool_EN.txt	CLAY	12	25	[0, 0, 0]	n/a	FR1	0	R1001P
3475.146	0.001	2019826	DISTRACT_START	n/a	n/a	n/a	-999	25	[0, 0, 0]	n/a	FR1	0	R1001P
3475.147	0.016	2019827	START	n/a	n/a	n/a	-999	25	[-999, -999, -999]	n/a	FR1	0	R1001P
3475.163	25.479	2019835	PROB	25.479	n/a	n/a	-999	25	[2, 7, 6]	16	FR1	0	R1001P
3500.642	0.009	2032574	STOP	n/a	n/a	n/a	-999	25	[-999, -999, -999]	n/a	FR1	0	R1001P
3500.651	1.101	2032578	DISTRACT_END	n/a	n/a	n/a	-999	25	[0, 0, 0]	n/a	FR1	0	R1001P
3501.752	4.206	2033129	REC_START	n/a	n/a	n/a	-999	25	[0, 0, 0]	n/a	FR1	0	R1001P
3505.958	1.224	2035231	REC_WORD	1.224	n/a	BEACH	-999	25	[0, 0, 0]	n/a	FR1	0	R1001P
3507.182	2.519	2035843	REC_WORD	2.519	n/a	SHELL	-999	25	[0, 0, 0]	n/a	FR1	0	R1001P
3509.701	2.065	2037103	REC_WORD	2.065	n/a	LAND	-999	25	[0, 0, 0]	n/a	FR1	0	R1001P
3511.766	15.579	2038135	REC_WORD	15.579	n/a	HORSE	-999	25	[0, 0, 0]	n/a	FR1	0	R1001P
3527.345	0.916	2045924	REC_WORD	0.916	n/a	SEA	-999	25	[0, 0, 0]	n/a	FR1	0	R1001P
3528.261	3.501	2046382	REC_WORD_VV	3.501	n/a	<>	-999	25	[0, 0, 0]	n/a	FR1	0	R1001P
3531.762	43.27	2048133	REC_END	n/a	n/a	n/a	-999	25	[0, 0, 0]	n/a	FR1	0	R1001P
3575.032	0.0	2069767	SESS_END	n/a	n/a	n/a	-999	25	[0, 0, 0]	n/a	FR1	0	R1001P
