onset	duration	sample	trial_type	response_time	stim_file	item_name	serialpos	list	test	answer	experiment	session	subject
0.0	299.17	1454	INSTRUCT_START	n/a	n/a	n/a	-999	-999	[0, 0, 0]	n/a	FR1	0	R1318N
299.17	2.185	300614	INSTRUCT_END	n/a	n/a	n/a	-999	-999	[0, 0, 0]	n/a	FR1	0	R1318N
301.355	34.032	302799	MIC TEST_START	n/a	n/a	n/a	-999	-999	[0, 0, 0]	n/a	FR1	0	R1318N
335.387	0.009	336830	MIC TEST_END	n/a	n/a	n/a	-999	-999	[0, 0, 0]	n/a	FR1	0	R1318N
335.396	0.001	336839	TRIAL_START	n/a	n/a	n/a	-999	-1	[0, 0, 0]	n/a	FR1	0	R1318N
335.397	0.0	336840	TRIAL	n/a	n/a	n/a	-999	-1	[0, 0, 0]	n/a	FR1	0	R1318N
335.397	1.214	336840	WAITING_START	n/a	n/a	n/a	-999	-1	[0, 0, 0]	n/a	FR1	0	R1318N
336.611	0.0	338054	COUNTDOWN_START	n/a	n/a	n/a	-999	-1	[0, 0, 0]	n/a	FR1	0	R1318N
336.611	10.43	338054	WAITING_END	n/a	n/a	n/a	-999	-1	[0, 0, 0]	n/a	FR1	0	R1318N
347.041	0.0	348483	COUNTDOWN_END	n/a	n/a	n/a	-999	-1	[0, 0, 0]	n/a	FR1	0	R1318N
347.041	1.071	348483	ORIENT_START	n/a	n/a	n/a	-999	-1	[0, 0, 0]	n/a	FR1	0	R1318N
348.112	0.0	349554	ORIENT_END	n/a	n/a	n/a	-999	-1	[0, 0, 0]	n/a	FR1	0	R1318N
348.112	0.75	349554	ENCODING_START	n/a	n/a	n/a	-999	-1	[0, 0, 0]	n/a	FR1	0	R1318N
348.862	1.618	350304	WORD	n/a	n/a	FLOOD	1	-1	[0, 0, 0]	n/a	FR1	0	R1318N
350.48	0.809	351922	WORD_OFF	n/a	n/a	FLOOD	1	-1	[0, 0, 0]	n/a	FR1	0	R1318N
351.289	1.624	352731	WORD	n/a	n/a	WATCH	2	-1	[0, 0, 0]	n/a	FR1	0	R1318N
352.913	1.122	354355	WORD_OFF	n/a	n/a	WATCH	2	-1	[0, 0, 0]	n/a	FR1	0	R1318N
354.035	1.628	355477	WORD	n/a	n/a	CAMEL	3	-1	[0, 0, 0]	n/a	FR1	0	R1318N
355.663	0.834	357105	WORD_OFF	n/a	n/a	CAMEL	3	-1	[0, 0, 0]	n/a	FR1	0	R1318N
356.497	1.633	357939	WORD	n/a	n/a	IMAGE	4	-1	[0, 0, 0]	n/a	FR1	0	R1318N
358.13	1.089	359572	WORD_OFF	n/a	n/a	IMAGE	4	-1	[0, 0, 0]	n/a	FR1	0	R1318N
359.219	1.628	360661	WORD	n/a	n/a	RING	5	-1	[0, 0, 0]	n/a	FR1	0	R1318N
360.847	1.125	362289	WORD_OFF	n/a	n/a	RING	5	-1	[0, 0, 0]	n/a	FR1	0	R1318N
361.972	1.627	363414	WORD	n/a	n/a	CHEST	6	-1	[0, 0, 0]	n/a	FR1	0	R1318N
363.599	0.905	365041	WORD_OFF	n/a	n/a	CHEST	6	-1	[0, 0, 0]	n/a	FR1	0	R1318N
364.504	1.627	365946	WORD	n/a	n/a	BEAM	7	-1	[0, 0, 0]	n/a	FR1	0	R1318N
366.131	0.959	367573	WORD_OFF	n/a	n/a	BEAM	7	-1	[0, 0, 0]	n/a	FR1	0	R1318N
367.09	1.625	368532	WORD	n/a	n/a	TONGUE	8	-1	[0, 0, 0]	n/a	FR1	0	R1318N
368.715	0.897	370157	WORD_OFF	n/a	n/a	TONGUE	8	-1	[0, 0, 0]	n/a	FR1	0	R1318N
369.612	1.638	371054	WORD	n/a	n/a	RHINO	9	-1	[0, 0, 0]	n/a	FR1	0	R1318N
371.25	0.88	372692	WORD_OFF	n/a	n/a	RHINO	9	-1	[0, 0, 0]	n/a	FR1	0	R1318N
372.13	1.636	373572	WORD	n/a	n/a	WAGON	10	-1	[0, 0, 0]	n/a	FR1	0	R1318N
373.766	0.77	375207	WORD_OFF	n/a	n/a	WAGON	10	-1	[0, 0, 0]	n/a	FR1	0	R1318N
374.536	1.63	375977	WORD	n/a	n/a	BABY	11	-1	[0, 0, 0]	n/a	FR1	0	R1318N
376.166	0.965	377607	WORD_OFF	n/a	n/a	BABY	11	-1	[0, 0, 0]	n/a	FR1	0	R1318N
377.131	1.636	378572	WORD	n/a	n/a	COTTON	12	-1	[0, 0, 0]	n/a	FR1	0	R1318N
378.767	0.0	380208	WORD_OFF	n/a	n/a	COTTON	12	-1	[0, 0, 0]	n/a	FR1	0	R1318N
378.767	0.001	380208	ENCODING_END	n/a	n/a	n/a	-999	-1	[0, 0, 0]	n/a	FR1	0	R1318N
378.768	0.0	380209	DISTRACT_START	n/a	n/a	n/a	-999	-1	[0, 0, 0]	n/a	FR1	0	R1318N
378.768	0.015	380209	START	n/a	n/a	n/a	-999	-1	[-999, -999, -999]	n/a	FR1	0	R1318N
378.783	3.267	380224	PROB	3.267	n/a	n/a	-999	-1	[3, 8, 4]	15	FR1	0	R1318N
382.05	3.851	383491	PROB	3.851	n/a	n/a	-999	-1	[3, 6, 2]	11	FR1	0	R1318N
385.901	3.602	387342	PROB	3.602	n/a	n/a	-999	-1	[8, 2, 9]	19	FR1	0	R1318N
389.503	3.399	390944	PROB	3.399	n/a	n/a	-999	-1	[6, 3, 9]	18	FR1	0	R1318N
392.902	1.917	394343	PROB	1.917	n/a	n/a	-999	-1	[1, 9, 2]	12	FR1	0	R1318N
394.819	3.267	396260	PROB	3.267	n/a	n/a	-999	-1	[8, 7, 7]	22	FR1	0	R1318N
398.086	3.808	399527	PROB	3.808	n/a	n/a	-999	-1	[9, 5, 3]	17	FR1	0	R1318N
401.894	0.01	403335	STOP	n/a	n/a	n/a	-999	-1	[-999, -999, -999]	n/a	FR1	0	R1318N
401.904	0.608	403345	DISTRACT_END	n/a	n/a	n/a	-999	-1	[0, 0, 0]	n/a	FR1	0	R1318N
402.512	1.642	403952	RETRIEVAL_ORIENT_START	n/a	n/a	n/a	-999	-1	[0, 0, 0]	n/a	FR1	0	R1318N
404.154	0.001	405594	RETRIEVAL_ORIENT_END	n/a	n/a	n/a	-999	-1	[0, 0, 0]	n/a	FR1	0	R1318N
404.155	30.011	405595	REC_START	n/a	n/a	n/a	-999	-1	[0, 0, 0]	n/a	FR1	0	R1318N
434.166	0.0	435605	REC_END	n/a	n/a	n/a	-999	-1	[0, 0, 0]	n/a	FR1	0	R1318N
434.166	4.363	435605	PRACTICE_POST_INSTRUCT_START	n/a	n/a	n/a	-999	-1	[0, 0, 0]	n/a	FR1	0	R1318N
438.529	0.0	439968	PRACTICE_POST_INSTRUCT_END	n/a	n/a	n/a	-999	-1	[0, 0, 0]	n/a	FR1	0	R1318N
438.529	0.017	439968	TRIAL_END	n/a	n/a	n/a	-999	-1	[0, 0, 0]	n/a	FR1	0	R1318N
438.546	0.001	439985	TRIAL_START	n/a	n/a	n/a	-999	1	[0, 0, 0]	n/a	FR1	0	R1318N
438.547	0.0	439986	WAITING_START	n/a	n/a	n/a	-999	1	[0, 0, 0]	n/a	FR1	0	R1318N
438.547	1.064	439986	TRIAL	n/a	n/a	n/a	-999	1	[0, 0, 0]	n/a	FR1	0	R1318N
439.611	0.001	441050	WAITING_END	n/a	n/a	n/a	-999	1	[0, 0, 0]	n/a	FR1	0	R1318N
439.612	10.431	441051	COUNTDOWN_START	n/a	n/a	n/a	-999	1	[0, 0, 0]	n/a	FR1	0	R1318N
450.043	0.0	451482	COUNTDOWN_END	n/a	n/a	n/a	-999	1	[0, 0, 0]	n/a	FR1	0	R1318N
450.043	1.119	451482	ORIENT_START	n/a	n/a	n/a	-999	1	[0, 0, 0]	n/a	FR1	0	R1318N
451.162	0.0	452601	ORIENT_END	n/a	n/a	n/a	-999	1	[0, 0, 0]	n/a	FR1	0	R1318N
451.162	1.086	452601	ENCODING_START	n/a	n/a	n/a	-999	1	[0, 0, 0]	n/a	FR1	0	R1318N
452.248	1.631	453687	WORD	n/a	n/a	JET	1	1	[0, 0, 0]	n/a	FR1	0	R1318N
453.879	1.123	455318	WORD_OFF	n/a	n/a	JET	1	1	[0, 0, 0]	n/a	FR1	0	R1318N
455.002	1.629	456441	WORD	n/a	n/a	ARM	2	1	[0, 0, 0]	n/a	FR1	0	R1318N
456.631	1.044	458070	WORD_OFF	n/a	n/a	ARM	2	1	[0, 0, 0]	n/a	FR1	0	R1318N
457.675	1.606	459114	WORD	n/a	n/a	PALM	3	1	[0, 0, 0]	n/a	FR1	0	R1318N
459.281	1.077	460720	WORD_OFF	n/a	n/a	PALM	3	1	[0, 0, 0]	n/a	FR1	0	R1318N
460.358	1.623	461797	WORD	n/a	n/a	SPONGE	4	1	[0, 0, 0]	n/a	FR1	0	R1318N
461.981	0.854	463420	WORD_OFF	n/a	n/a	SPONGE	4	1	[0, 0, 0]	n/a	FR1	0	R1318N
462.835	1.613	464273	WORD	n/a	n/a	THUMB	5	1	[0, 0, 0]	n/a	FR1	0	R1318N
464.448	0.888	465886	WORD_OFF	n/a	n/a	THUMB	5	1	[0, 0, 0]	n/a	FR1	0	R1318N
465.336	1.629	466774	WORD	n/a	n/a	MUG	6	1	[0, 0, 0]	n/a	FR1	0	R1318N
466.965	0.871	468403	WORD_OFF	n/a	n/a	MUG	6	1	[0, 0, 0]	n/a	FR1	0	R1318N
467.836	1.613	469274	WORD	n/a	n/a	GRASS	7	1	[0, 0, 0]	n/a	FR1	0	R1318N
469.449	1.121	470887	WORD_OFF	n/a	n/a	GRASS	7	1	[0, 0, 0]	n/a	FR1	0	R1318N
470.57	1.629	472008	WORD	n/a	n/a	BRIDGE	8	1	[0, 0, 0]	n/a	FR1	0	R1318N
472.199	1.132	473637	WORD_OFF	n/a	n/a	BRIDGE	8	1	[0, 0, 0]	n/a	FR1	0	R1318N
473.331	1.635	474769	WORD	n/a	n/a	YARD	9	1	[0, 0, 0]	n/a	FR1	0	R1318N
474.966	0.855	476404	WORD_OFF	n/a	n/a	YARD	9	1	[0, 0, 0]	n/a	FR1	0	R1318N
475.821	1.63	477259	WORD	n/a	n/a	ROPE	10	1	[0, 0, 0]	n/a	FR1	0	R1318N
477.451	0.991	478889	WORD_OFF	n/a	n/a	ROPE	10	1	[0, 0, 0]	n/a	FR1	0	R1318N
478.442	1.625	479880	WORD	n/a	n/a	LAMB	11	1	[0, 0, 0]	n/a	FR1	0	R1318N
480.067	0.953	481505	WORD_OFF	n/a	n/a	LAMB	11	1	[0, 0, 0]	n/a	FR1	0	R1318N
481.02	1.631	482458	WORD	n/a	n/a	STONE	12	1	[0, 0, 0]	n/a	FR1	0	R1318N
482.651	0.0	484089	WORD_OFF	n/a	n/a	STONE	12	1	[0, 0, 0]	n/a	FR1	0	R1318N
482.651	0.001	484089	ENCODING_END	n/a	n/a	n/a	-999	1	[0, 0, 0]	n/a	FR1	0	R1318N
482.652	0.0	484090	DISTRACT_START	n/a	n/a	n/a	-999	1	[0, 0, 0]	n/a	FR1	0	R1318N
482.652	0.015	484090	START	n/a	n/a	n/a	-999	1	[-999, -999, -999]	n/a	FR1	0	R1318N
482.667	2.467	484105	PROB	2.467	n/a	n/a	-999	1	[7, 7, 7]	21	FR1	0	R1318N
485.134	3.118	486572	PROB	3.118	n/a	n/a	-999	1	[6, 7, 7]	20	FR1	0	R1318N
488.252	2.583	489690	PROB	2.583	n/a	n/a	-999	1	[5, 2, 4]	11	FR1	0	R1318N
490.835	5.151	492273	PROB	5.151	n/a	n/a	-999	1	[4, 9, 7]	20	FR1	0	R1318N
495.986	5.668	497423	PROB	5.668	n/a	n/a	-999	1	[4, 4, 2]	10	FR1	0	R1318N
501.654	5.552	503091	PROB	5.552	n/a	n/a	-999	1	[5, 9, 9]	23	FR1	0	R1318N
507.206	0.016	508643	STOP	n/a	n/a	n/a	-999	1	[-999, -999, -999]	n/a	FR1	0	R1318N
507.222	0.514	508659	DISTRACT_END	n/a	n/a	n/a	-999	1	[0, 0, 0]	n/a	FR1	0	R1318N
507.736	1.603	509173	RETRIEVAL_ORIENT_START	n/a	n/a	n/a	-999	1	[0, 0, 0]	n/a	FR1	0	R1318N
509.339	0.001	510776	RETRIEVAL_ORIENT_END	n/a	n/a	n/a	-999	1	[0, 0, 0]	n/a	FR1	0	R1318N
509.34	0.665	510777	REC_START	n/a	n/a	n/a	-999	1	[0, 0, 0]	n/a	FR1	0	R1318N
510.005	0.986	511442	REC_WORD	0.986	n/a	FISH	-999	1	[0, 0, 0]	n/a	FR1	0	R1318N
510.991	2.597	512428	REC_WORD	2.597	n/a	JET	1	1	[0, 0, 0]	n/a	FR1	0	R1318N
513.588	1.124	515025	REC_WORD	1.124	n/a	STONE	12	1	[0, 0, 0]	n/a	FR1	0	R1318N
514.712	2.414	516149	REC_WORD	2.414	n/a	SOCK	-999	1	[0, 0, 0]	n/a	FR1	0	R1318N
517.126	3.173	518563	REC_WORD	3.173	n/a	YARD	9	1	[0, 0, 0]	n/a	FR1	0	R1318N
520.299	0.8	521736	REC_WORD_VV	0.8	n/a	<>	-999	1	[0, 0, 0]	n/a	FR1	0	R1318N
521.099	0.998	522536	REC_WORD	0.998	n/a	GRASS	7	1	[0, 0, 0]	n/a	FR1	0	R1318N
522.097	2.62	523533	REC_WORD	2.62	n/a	GATE	-999	1	[0, 0, 0]	n/a	FR1	0	R1318N
524.717	1.522	526153	REC_WORD	1.522	n/a	PLANE	-999	1	[0, 0, 0]	n/a	FR1	0	R1318N
526.239	4.431	527675	REC_WORD	4.431	n/a	TRUCK	-999	1	[0, 0, 0]	n/a	FR1	0	R1318N
530.67	3.09	532106	REC_WORD	3.09	n/a	MUG	6	1	[0, 0, 0]	n/a	FR1	0	R1318N
533.76	5.591	535196	REC_WORD	5.591	n/a	STRAW	-999	1	[0, 0, 0]	n/a	FR1	0	R1318N
539.351	0.0	540787	TRIAL_END	n/a	n/a	n/a	-999	1	[0, 0, 0]	n/a	FR1	0	R1318N
539.351	0.014	540787	REC_END	n/a	n/a	n/a	-999	1	[0, 0, 0]	n/a	FR1	0	R1318N
539.365	0.0	540801	TRIAL_START	n/a	n/a	n/a	-999	2	[0, 0, 0]	n/a	FR1	0	R1318N
539.365	0.0	540801	TRIAL	n/a	n/a	n/a	-999	2	[0, 0, 0]	n/a	FR1	0	R1318N
539.365	2.963	540801	WAITING_START	n/a	n/a	n/a	-999	2	[0, 0, 0]	n/a	FR1	0	R1318N
542.328	0.001	543764	WAITING_END	n/a	n/a	n/a	-999	2	[0, 0, 0]	n/a	FR1	0	R1318N
542.329	10.429	543765	COUNTDOWN_START	n/a	n/a	n/a	-999	2	[0, 0, 0]	n/a	FR1	0	R1318N
552.758	0.0	554193	COUNTDOWN_END	n/a	n/a	n/a	-999	2	[0, 0, 0]	n/a	FR1	0	R1318N
552.758	1.171	554193	ORIENT_START	n/a	n/a	n/a	-999	2	[0, 0, 0]	n/a	FR1	0	R1318N
553.929	0.0	555364	ENCODING_START	n/a	n/a	n/a	-999	2	[0, 0, 0]	n/a	FR1	0	R1318N
553.929	0.811	555364	ORIENT_END	n/a	n/a	n/a	-999	2	[0, 0, 0]	n/a	FR1	0	R1318N
554.74	1.607	556175	WORD	n/a	n/a	CHIEF	1	2	[0, 0, 0]	n/a	FR1	0	R1318N
556.347	0.827	557782	WORD_OFF	n/a	n/a	CHIEF	1	2	[0, 0, 0]	n/a	FR1	0	R1318N
557.174	1.623	558609	WORD	n/a	n/a	BED	2	2	[0, 0, 0]	n/a	FR1	0	R1318N
558.797	0.864	560232	WORD_OFF	n/a	n/a	BED	2	2	[0, 0, 0]	n/a	FR1	0	R1318N
559.661	1.637	561096	WORD	n/a	n/a	BOAT	3	2	[0, 0, 0]	n/a	FR1	0	R1318N
561.298	0.988	562733	WORD_OFF	n/a	n/a	BOAT	3	2	[0, 0, 0]	n/a	FR1	0	R1318N
562.286	1.628	563721	WORD	n/a	n/a	CAVE	4	2	[0, 0, 0]	n/a	FR1	0	R1318N
563.914	0.828	565349	WORD_OFF	n/a	n/a	CAVE	4	2	[0, 0, 0]	n/a	FR1	0	R1318N
564.742	1.623	566177	WORD	n/a	n/a	THREAD	5	2	[0, 0, 0]	n/a	FR1	0	R1318N
566.365	1.058	567800	WORD_OFF	n/a	n/a	THREAD	5	2	[0, 0, 0]	n/a	FR1	0	R1318N
567.423	1.625	568858	WORD	n/a	n/a	SKY	6	2	[0, 0, 0]	n/a	FR1	0	R1318N
569.048	0.914	570483	WORD_OFF	n/a	n/a	SKY	6	2	[0, 0, 0]	n/a	FR1	0	R1318N
569.962	1.638	571397	WORD	n/a	n/a	TREE	7	2	[0, 0, 0]	n/a	FR1	0	R1318N
571.6	1.06	573035	WORD_OFF	n/a	n/a	TREE	7	2	[0, 0, 0]	n/a	FR1	0	R1318N
572.66	1.607	574095	WORD	n/a	n/a	FORK	8	2	[0, 0, 0]	n/a	FR1	0	R1318N
574.267	0.89	575702	WORD_OFF	n/a	n/a	FORK	8	2	[0, 0, 0]	n/a	FR1	0	R1318N
575.157	1.626	576592	WORD	n/a	n/a	DESK	9	2	[0, 0, 0]	n/a	FR1	0	R1318N
576.783	1.017	578218	WORD_OFF	n/a	n/a	DESK	9	2	[0, 0, 0]	n/a	FR1	0	R1318N
577.8	1.634	579235	WORD	n/a	n/a	SHRIMP	10	2	[0, 0, 0]	n/a	FR1	0	R1318N
579.434	0.879	580869	WORD_OFF	n/a	n/a	SHRIMP	10	2	[0, 0, 0]	n/a	FR1	0	R1318N
580.313	1.621	581748	WORD	n/a	n/a	HOUSE	11	2	[0, 0, 0]	n/a	FR1	0	R1318N
581.934	1.133	583368	WORD_OFF	n/a	n/a	HOUSE	11	2	[0, 0, 0]	n/a	FR1	0	R1318N
583.067	1.634	584501	WORD	n/a	n/a	GOAT	12	2	[0, 0, 0]	n/a	FR1	0	R1318N
584.701	0.0	586135	WORD_OFF	n/a	n/a	GOAT	12	2	[0, 0, 0]	n/a	FR1	0	R1318N
584.701	0.001	586135	ENCODING_END	n/a	n/a	n/a	-999	2	[0, 0, 0]	n/a	FR1	0	R1318N
584.702	0.0	586136	DISTRACT_START	n/a	n/a	n/a	-999	2	[0, 0, 0]	n/a	FR1	0	R1318N
584.702	0.015	586136	START	n/a	n/a	n/a	-999	2	[-999, -999, -999]	n/a	FR1	0	R1318N
584.717	2.518	586151	PROB	2.518	n/a	n/a	-999	2	[1, 1, 2]	5	FR1	0	R1318N
587.235	3.268	588669	PROB	3.268	n/a	n/a	-999	2	[7, 5, 5]	17	FR1	0	R1318N
590.503	3.199	591937	PROB	3.199	n/a	n/a	-999	2	[5, 8, 4]	17	FR1	0	R1318N
593.702	3.001	595136	PROB	3.001	n/a	n/a	-999	2	[1, 6, 2]	9	FR1	0	R1318N
596.703	2.701	598137	PROB	2.701	n/a	n/a	-999	2	[8, 4, 4]	16	FR1	0	R1318N
599.404	3.851	600838	PROB	3.851	n/a	n/a	-999	2	[4, 5, 2]	11	FR1	0	R1318N
603.255	2.336	604689	PROB	2.336	n/a	n/a	-999	2	[2, 8, 2]	12	FR1	0	R1318N
605.591	0.014	607025	STOP	n/a	n/a	n/a	-999	2	[-999, -999, -999]	n/a	FR1	0	R1318N
605.605	0.537	607039	DISTRACT_END	n/a	n/a	n/a	-999	2	[0, 0, 0]	n/a	FR1	0	R1318N
606.142	1.579	607576	RETRIEVAL_ORIENT_START	n/a	n/a	n/a	-999	2	[0, 0, 0]	n/a	FR1	0	R1318N
607.721	0.001	609155	RETRIEVAL_ORIENT_END	n/a	n/a	n/a	-999	2	[0, 0, 0]	n/a	FR1	0	R1318N
607.722	2.432	609156	REC_START	n/a	n/a	n/a	-999	2	[0, 0, 0]	n/a	FR1	0	R1318N
610.154	3.66	611588	REC_WORD	3.66	n/a	HOUSE	11	2	[0, 0, 0]	n/a	FR1	0	R1318N
613.814	5.431	615247	REC_WORD	5.431	n/a	WHALE	-999	2	[0, 0, 0]	n/a	FR1	0	R1318N
619.245	1.469	620678	REC_WORD	1.469	n/a	SHRIMP	10	2	[0, 0, 0]	n/a	FR1	0	R1318N
620.714	3.616	622147	REC_WORD	3.616	n/a	BOAT	3	2	[0, 0, 0]	n/a	FR1	0	R1318N
624.33	0.821	625763	REC_WORD	0.821	n/a	DOCK	-999	2	[0, 0, 0]	n/a	FR1	0	R1318N
625.151	1.777	626584	REC_WORD	1.777	n/a	BED	2	2	[0, 0, 0]	n/a	FR1	0	R1318N
626.928	0.867	628361	REC_WORD	0.867	n/a	CHIEF	1	2	[0, 0, 0]	n/a	FR1	0	R1318N
627.795	4.605	629228	REC_WORD	4.605	n/a	STORE	-999	2	[0, 0, 0]	n/a	FR1	0	R1318N
632.4	5.33	633833	REC_WORD	5.33	n/a	SKI	-999	2	[0, 0, 0]	n/a	FR1	0	R1318N
637.73	0.001	639163	REC_END	n/a	n/a	n/a	-999	2	[0, 0, 0]	n/a	FR1	0	R1318N
637.731	0.013	639164	TRIAL_END	n/a	n/a	n/a	-999	2	[0, 0, 0]	n/a	FR1	0	R1318N
637.744	0.0	639177	TRIAL_START	n/a	n/a	n/a	-999	3	[0, 0, 0]	n/a	FR1	0	R1318N
637.744	0.0	639177	TRIAL	n/a	n/a	n/a	-999	3	[0, 0, 0]	n/a	FR1	0	R1318N
637.744	2.983	639177	WAITING_START	n/a	n/a	n/a	-999	3	[0, 0, 0]	n/a	FR1	0	R1318N
640.727	0.0	642160	WAITING_END	n/a	n/a	n/a	-999	3	[0, 0, 0]	n/a	FR1	0	R1318N
640.727	10.428	642160	COUNTDOWN_START	n/a	n/a	n/a	-999	3	[0, 0, 0]	n/a	FR1	0	R1318N
651.155	0.0	652587	COUNTDOWN_END	n/a	n/a	n/a	-999	3	[0, 0, 0]	n/a	FR1	0	R1318N
651.155	1.024	652587	ORIENT_START	n/a	n/a	n/a	-999	3	[0, 0, 0]	n/a	FR1	0	R1318N
652.179	0.0	653611	ENCODING_START	n/a	n/a	n/a	-999	3	[0, 0, 0]	n/a	FR1	0	R1318N
652.179	1.064	653611	ORIENT_END	n/a	n/a	n/a	-999	3	[0, 0, 0]	n/a	FR1	0	R1318N
653.243	1.636	654675	WORD	n/a	n/a	SMOKE	1	3	[0, 0, 0]	n/a	FR1	0	R1318N
654.879	0.828	656311	WORD_OFF	n/a	n/a	SMOKE	1	3	[0, 0, 0]	n/a	FR1	0	R1318N
655.707	1.607	657139	WORD	n/a	n/a	TRAY	2	3	[0, 0, 0]	n/a	FR1	0	R1318N
657.314	0.828	658746	WORD_OFF	n/a	n/a	TRAY	2	3	[0, 0, 0]	n/a	FR1	0	R1318N
658.142	1.638	659574	WORD	n/a	n/a	SLEEVE	3	3	[0, 0, 0]	n/a	FR1	0	R1318N
659.78	1.059	661212	WORD_OFF	n/a	n/a	SLEEVE	3	3	[0, 0, 0]	n/a	FR1	0	R1318N
660.839	1.609	662271	WORD	n/a	n/a	CASH	4	3	[0, 0, 0]	n/a	FR1	0	R1318N
662.448	1.102	663880	WORD_OFF	n/a	n/a	CASH	4	3	[0, 0, 0]	n/a	FR1	0	R1318N
663.55	1.631	664982	WORD	n/a	n/a	AXE	5	3	[0, 0, 0]	n/a	FR1	0	R1318N
665.181	0.771	666613	WORD_OFF	n/a	n/a	AXE	5	3	[0, 0, 0]	n/a	FR1	0	R1318N
665.952	1.63	667384	WORD	n/a	n/a	PET	6	3	[0, 0, 0]	n/a	FR1	0	R1318N
667.582	0.752	669014	WORD_OFF	n/a	n/a	PET	6	3	[0, 0, 0]	n/a	FR1	0	R1318N
668.334	1.631	669766	WORD	n/a	n/a	CART	7	3	[0, 0, 0]	n/a	FR1	0	R1318N
669.965	0.905	671397	WORD_OFF	n/a	n/a	CART	7	3	[0, 0, 0]	n/a	FR1	0	R1318N
670.87	1.613	672302	WORD	n/a	n/a	RAKE	8	3	[0, 0, 0]	n/a	FR1	0	R1318N
672.483	0.913	673914	WORD_OFF	n/a	n/a	RAKE	8	3	[0, 0, 0]	n/a	FR1	0	R1318N
673.396	1.636	674827	WORD	n/a	n/a	STORE	9	3	[0, 0, 0]	n/a	FR1	0	R1318N
675.032	0.928	676463	WORD_OFF	n/a	n/a	STORE	9	3	[0, 0, 0]	n/a	FR1	0	R1318N
675.96	1.624	677391	WORD	n/a	n/a	MOTH	10	3	[0, 0, 0]	n/a	FR1	0	R1318N
677.584	0.855	679015	WORD_OFF	n/a	n/a	MOTH	10	3	[0, 0, 0]	n/a	FR1	0	R1318N
678.439	1.627	679870	WORD	n/a	n/a	CHALK	11	3	[0, 0, 0]	n/a	FR1	0	R1318N
680.066	1.129	681497	WORD_OFF	n/a	n/a	CHALK	11	3	[0, 0, 0]	n/a	FR1	0	R1318N
681.195	1.622	682626	WORD	n/a	n/a	VAN	12	3	[0, 0, 0]	n/a	FR1	0	R1318N
682.817	0.0	684248	WORD_OFF	n/a	n/a	VAN	12	3	[0, 0, 0]	n/a	FR1	0	R1318N
682.817	0.001	684248	ENCODING_END	n/a	n/a	n/a	-999	3	[0, 0, 0]	n/a	FR1	0	R1318N
682.818	0.0	684249	DISTRACT_START	n/a	n/a	n/a	-999	3	[0, 0, 0]	n/a	FR1	0	R1318N
682.818	0.015	684249	START	n/a	n/a	n/a	-999	3	[-999, -999, -999]	n/a	FR1	0	R1318N
682.833	3.351	684264	PROB	3.351	n/a	n/a	-999	3	[9, 3, 6]	18	FR1	0	R1318N
686.184	2.817	687615	PROB	2.817	n/a	n/a	-999	3	[6, 4, 5]	15	FR1	0	R1318N
689.001	3.217	690432	PROB	3.217	n/a	n/a	-999	3	[5, 4, 6]	15	FR1	0	R1318N
692.218	3.402	693649	PROB	3.402	n/a	n/a	-999	3	[9, 9, 7]	25	FR1	0	R1318N
695.62	2.233	697051	PROB	2.233	n/a	n/a	-999	3	[2, 2, 5]	9	FR1	0	R1318N
697.853	4.568	699284	PROB	4.568	n/a	n/a	-999	3	[8, 7, 5]	20	FR1	0	R1318N
702.421	2.994	703851	PROB	2.994	n/a	n/a	-999	3	[4, 9, 4]	17	FR1	0	R1318N
705.415	0.023	706845	STOP	n/a	n/a	n/a	-999	3	[-999, -999, -999]	n/a	FR1	0	R1318N
705.438	0.552	706868	DISTRACT_END	n/a	n/a	n/a	-999	3	[0, 0, 0]	n/a	FR1	0	R1318N
705.99	1.615	707420	RETRIEVAL_ORIENT_START	n/a	n/a	n/a	-999	3	[0, 0, 0]	n/a	FR1	0	R1318N
707.605	0.001	709035	RETRIEVAL_ORIENT_END	n/a	n/a	n/a	-999	3	[0, 0, 0]	n/a	FR1	0	R1318N
707.606	0.888	709036	REC_START	n/a	n/a	n/a	-999	3	[0, 0, 0]	n/a	FR1	0	R1318N
708.494	1.048	709924	REC_WORD	1.048	n/a	MOTH	10	3	[0, 0, 0]	n/a	FR1	0	R1318N
709.542	1.896	710972	REC_WORD	1.896	n/a	RAKE	8	3	[0, 0, 0]	n/a	FR1	0	R1318N
711.438	0.304	712868	REC_WORD	0.304	n/a	BRIDGE	-999	3	[0, 0, 0]	n/a	FR1	0	R1318N
711.742	3.205	713172	REC_WORD	3.205	n/a	STORE	9	3	[0, 0, 0]	n/a	FR1	0	R1318N
714.947	5.543	716377	REC_WORD	5.543	n/a	KEY	-999	3	[0, 0, 0]	n/a	FR1	0	R1318N
720.49	3.569	721920	REC_WORD_VV	3.569	n/a	<>	-999	3	[0, 0, 0]	n/a	FR1	0	R1318N
724.059	0.622	725489	REC_WORD	0.622	n/a	BRUSH	-999	3	[0, 0, 0]	n/a	FR1	0	R1318N
724.681	3.796	726111	REC_WORD	3.796	n/a	AXE	5	3	[0, 0, 0]	n/a	FR1	0	R1318N
728.477	0.838	729907	REC_WORD	0.838	n/a	PALM	-999	3	[0, 0, 0]	n/a	FR1	0	R1318N
729.315	8.3	730745	REC_WORD	8.3	n/a	COUCH	-999	3	[0, 0, 0]	n/a	FR1	0	R1318N
737.615	0.0	739044	REC_END	n/a	n/a	n/a	-999	3	[0, 0, 0]	n/a	FR1	0	R1318N
737.615	0.014	739044	TRIAL_END	n/a	n/a	n/a	-999	3	[0, 0, 0]	n/a	FR1	0	R1318N
737.629	0.0	739058	TRIAL_START	n/a	n/a	n/a	-999	4	[0, 0, 0]	n/a	FR1	0	R1318N
737.629	0.001	739058	TRIAL	n/a	n/a	n/a	-999	4	[0, 0, 0]	n/a	FR1	0	R1318N
737.63	2.23	739059	WAITING_START	n/a	n/a	n/a	-999	4	[0, 0, 0]	n/a	FR1	0	R1318N
739.86	0.0	741289	WAITING_END	n/a	n/a	n/a	-999	4	[0, 0, 0]	n/a	FR1	0	R1318N
739.86	10.429	741289	COUNTDOWN_START	n/a	n/a	n/a	-999	4	[0, 0, 0]	n/a	FR1	0	R1318N
750.289	0.0	751718	ORIENT_START	n/a	n/a	n/a	-999	4	[0, 0, 0]	n/a	FR1	0	R1318N
750.289	1.207	751718	COUNTDOWN_END	n/a	n/a	n/a	-999	4	[0, 0, 0]	n/a	FR1	0	R1318N
751.496	0.0	752925	ORIENT_END	n/a	n/a	n/a	-999	4	[0, 0, 0]	n/a	FR1	0	R1318N
751.496	1.015	752925	ENCODING_START	n/a	n/a	n/a	-999	4	[0, 0, 0]	n/a	FR1	0	R1318N
752.511	1.634	753940	WORD	n/a	n/a	SHELL	1	4	[0, 0, 0]	n/a	FR1	0	R1318N
754.145	0.78	755574	WORD_OFF	n/a	n/a	SHELL	1	4	[0, 0, 0]	n/a	FR1	0	R1318N
754.925	1.605	756354	WORD	n/a	n/a	PEN	2	4	[0, 0, 0]	n/a	FR1	0	R1318N
756.53	1.141	757959	WORD_OFF	n/a	n/a	PEN	2	4	[0, 0, 0]	n/a	FR1	0	R1318N
757.671	1.61	759100	WORD	n/a	n/a	BAND	3	4	[0, 0, 0]	n/a	FR1	0	R1318N
759.281	1.077	760710	WORD_OFF	n/a	n/a	BAND	3	4	[0, 0, 0]	n/a	FR1	0	R1318N
760.358	1.622	761787	WORD	n/a	n/a	BEAR	4	4	[0, 0, 0]	n/a	FR1	0	R1318N
761.98	0.77	763408	WORD_OFF	n/a	n/a	BEAR	4	4	[0, 0, 0]	n/a	FR1	0	R1318N
762.75	1.631	764178	WORD	n/a	n/a	SHEEP	5	4	[0, 0, 0]	n/a	FR1	0	R1318N
764.381	1.032	765809	WORD_OFF	n/a	n/a	SHEEP	5	4	[0, 0, 0]	n/a	FR1	0	R1318N
765.413	1.635	766841	WORD	n/a	n/a	BROOM	6	4	[0, 0, 0]	n/a	FR1	0	R1318N
767.048	0.92	768476	WORD_OFF	n/a	n/a	BROOM	6	4	[0, 0, 0]	n/a	FR1	0	R1318N
767.968	1.631	769396	WORD	n/a	n/a	MUD	7	4	[0, 0, 0]	n/a	FR1	0	R1318N
769.599	0.979	771027	WORD_OFF	n/a	n/a	MUD	7	4	[0, 0, 0]	n/a	FR1	0	R1318N
770.578	1.62	772006	WORD	n/a	n/a	CANE	8	4	[0, 0, 0]	n/a	FR1	0	R1318N
772.198	0.894	773626	WORD_OFF	n/a	n/a	CANE	8	4	[0, 0, 0]	n/a	FR1	0	R1318N
773.092	1.624	774520	WORD	n/a	n/a	BOWL	9	4	[0, 0, 0]	n/a	FR1	0	R1318N
774.716	1.149	776144	WORD_OFF	n/a	n/a	BOWL	9	4	[0, 0, 0]	n/a	FR1	0	R1318N
775.865	1.635	777293	WORD	n/a	n/a	LAWN	10	4	[0, 0, 0]	n/a	FR1	0	R1318N
777.5	1.12	778928	WORD_OFF	n/a	n/a	LAWN	10	4	[0, 0, 0]	n/a	FR1	0	R1318N
778.62	1.631	780048	WORD	n/a	n/a	ROOM	11	4	[0, 0, 0]	n/a	FR1	0	R1318N
780.251	0.971	781679	WORD_OFF	n/a	n/a	ROOM	11	4	[0, 0, 0]	n/a	FR1	0	R1318N
781.222	1.628	782650	WORD	n/a	n/a	CHEEK	12	4	[0, 0, 0]	n/a	FR1	0	R1318N
782.85	0.0	784278	WORD_OFF	n/a	n/a	CHEEK	12	4	[0, 0, 0]	n/a	FR1	0	R1318N
782.85	0.001	784278	ENCODING_END	n/a	n/a	n/a	-999	4	[0, 0, 0]	n/a	FR1	0	R1318N
782.851	0.0	784279	DISTRACT_START	n/a	n/a	n/a	-999	4	[0, 0, 0]	n/a	FR1	0	R1318N
782.851	0.016	784279	START	n/a	n/a	n/a	-999	4	[-999, -999, -999]	n/a	FR1	0	R1318N
782.867	3.05	784295	PROB	3.05	n/a	n/a	-999	4	[1, 2, 6]	9	FR1	0	R1318N
785.917	4.868	787345	PROB	4.868	n/a	n/a	-999	4	[4, 1, 7]	12	FR1	0	R1318N
790.785	2.417	792213	PROB	2.417	n/a	n/a	-999	4	[5, 1, 4]	10	FR1	0	R1318N
793.202	3.318	794629	PROB	3.318	n/a	n/a	-999	4	[3, 1, 3]	7	FR1	0	R1318N
796.52	2.033	797947	PROB	2.033	n/a	n/a	-999	4	[1, 9, 1]	11	FR1	0	R1318N
798.553	3.051	799980	PROB	3.051	n/a	n/a	-999	4	[4, 6, 7]	17	FR1	0	R1318N
801.604	4.691	803031	PROB	4.691	n/a	n/a	-999	4	[4, 3, 9]	16	FR1	0	R1318N
806.295	0.01	807722	STOP	n/a	n/a	n/a	-999	4	[-999, -999, -999]	n/a	FR1	0	R1318N
806.305	0.522	807732	DISTRACT_END	n/a	n/a	n/a	-999	4	[0, 0, 0]	n/a	FR1	0	R1318N
806.827	1.712	808254	RETRIEVAL_ORIENT_START	n/a	n/a	n/a	-999	4	[0, 0, 0]	n/a	FR1	0	R1318N
808.539	0.0	809966	RETRIEVAL_ORIENT_END	n/a	n/a	n/a	-999	4	[0, 0, 0]	n/a	FR1	0	R1318N
808.539	0.657	809966	REC_START	n/a	n/a	n/a	-999	4	[0, 0, 0]	n/a	FR1	0	R1318N
809.196	0.975	810623	REC_WORD	0.975	n/a	SHEEP	5	4	[0, 0, 0]	n/a	FR1	0	R1318N
810.171	1.036	811598	REC_WORD	1.036	n/a	BEAR	4	4	[0, 0, 0]	n/a	FR1	0	R1318N
811.207	5.949	812634	REC_WORD	5.949	n/a	MUD	7	4	[0, 0, 0]	n/a	FR1	0	R1318N
817.156	13.915	818583	REC_WORD	13.915	n/a	BROOM	6	4	[0, 0, 0]	n/a	FR1	0	R1318N
831.071	1.205	832497	REC_WORD	1.205	n/a	PEN	2	4	[0, 0, 0]	n/a	FR1	0	R1318N
832.276	6.272	833702	REC_WORD	6.272	n/a	GOLD	-999	4	[0, 0, 0]	n/a	FR1	0	R1318N
838.548	0.0	839974	TRIAL_END	n/a	n/a	n/a	-999	4	[0, 0, 0]	n/a	FR1	0	R1318N
838.548	0.015	839974	REC_END	n/a	n/a	n/a	-999	4	[0, 0, 0]	n/a	FR1	0	R1318N
838.563	0.0	839989	TRIAL_START	n/a	n/a	n/a	-999	5	[0, 0, 0]	n/a	FR1	0	R1318N
838.563	0.0	839989	TRIAL	n/a	n/a	n/a	-999	5	[0, 0, 0]	n/a	FR1	0	R1318N
838.563	1.848	839989	WAITING_START	n/a	n/a	n/a	-999	5	[0, 0, 0]	n/a	FR1	0	R1318N
840.411	0.0	841837	WAITING_END	n/a	n/a	n/a	-999	5	[0, 0, 0]	n/a	FR1	0	R1318N
840.411	10.429	841837	COUNTDOWN_START	n/a	n/a	n/a	-999	5	[0, 0, 0]	n/a	FR1	0	R1318N
850.84	0.0	852266	COUNTDOWN_END	n/a	n/a	n/a	-999	5	[0, 0, 0]	n/a	FR1	0	R1318N
850.84	1.022	852266	ORIENT_START	n/a	n/a	n/a	-999	5	[0, 0, 0]	n/a	FR1	0	R1318N
851.862	0.0	853287	ENCODING_START	n/a	n/a	n/a	-999	5	[0, 0, 0]	n/a	FR1	0	R1318N
851.862	0.839	853287	ORIENT_END	n/a	n/a	n/a	-999	5	[0, 0, 0]	n/a	FR1	0	R1318N
852.701	1.629	854126	WORD	n/a	n/a	BOX	1	5	[0, 0, 0]	n/a	FR1	0	R1318N
854.33	1.037	855755	WORD_OFF	n/a	n/a	BOX	1	5	[0, 0, 0]	n/a	FR1	0	R1318N
855.367	1.629	856792	WORD	n/a	n/a	POOL	2	5	[0, 0, 0]	n/a	FR1	0	R1318N
856.996	0.843	858421	WORD_OFF	n/a	n/a	POOL	2	5	[0, 0, 0]	n/a	FR1	0	R1318N
857.839	1.625	859264	WORD	n/a	n/a	MOUTH	3	5	[0, 0, 0]	n/a	FR1	0	R1318N
859.464	0.758	860889	WORD_OFF	n/a	n/a	MOUTH	3	5	[0, 0, 0]	n/a	FR1	0	R1318N
860.222	1.625	861647	WORD	n/a	n/a	WOLF	4	5	[0, 0, 0]	n/a	FR1	0	R1318N
861.847	0.766	863272	WORD_OFF	n/a	n/a	WOLF	4	5	[0, 0, 0]	n/a	FR1	0	R1318N
862.613	1.635	864038	WORD	n/a	n/a	EAR	5	5	[0, 0, 0]	n/a	FR1	0	R1318N
864.248	0.982	865673	WORD_OFF	n/a	n/a	EAR	5	5	[0, 0, 0]	n/a	FR1	0	R1318N
865.23	1.634	866655	WORD	n/a	n/a	CUBE	6	5	[0, 0, 0]	n/a	FR1	0	R1318N
866.864	0.904	868289	WORD_OFF	n/a	n/a	CUBE	6	5	[0, 0, 0]	n/a	FR1	0	R1318N
867.768	1.631	869193	WORD	n/a	n/a	FAN	7	5	[0, 0, 0]	n/a	FR1	0	R1318N
869.399	1.01	870824	WORD_OFF	n/a	n/a	FAN	7	5	[0, 0, 0]	n/a	FR1	0	R1318N
870.409	1.623	871834	WORD	n/a	n/a	RUG	8	5	[0, 0, 0]	n/a	FR1	0	R1318N
872.032	1.084	873457	WORD_OFF	n/a	n/a	RUG	8	5	[0, 0, 0]	n/a	FR1	0	R1318N
873.116	1.633	874541	WORD	n/a	n/a	CRANE	9	5	[0, 0, 0]	n/a	FR1	0	R1318N
874.749	0.861	876174	WORD_OFF	n/a	n/a	CRANE	9	5	[0, 0, 0]	n/a	FR1	0	R1318N
875.61	1.623	877035	WORD	n/a	n/a	CUP	10	5	[0, 0, 0]	n/a	FR1	0	R1318N
877.233	1.02	878658	WORD_OFF	n/a	n/a	CUP	10	5	[0, 0, 0]	n/a	FR1	0	R1318N
878.253	1.63	879678	WORD	n/a	n/a	PRINCE	11	5	[0, 0, 0]	n/a	FR1	0	R1318N
879.883	1.063	881308	WORD_OFF	n/a	n/a	PRINCE	11	5	[0, 0, 0]	n/a	FR1	0	R1318N
880.946	1.638	882370	WORD	n/a	n/a	BRUSH	12	5	[0, 0, 0]	n/a	FR1	0	R1318N
882.584	0.001	884008	WORD_OFF	n/a	n/a	BRUSH	12	5	[0, 0, 0]	n/a	FR1	0	R1318N
882.585	0.0	884009	ENCODING_END	n/a	n/a	n/a	-999	5	[0, 0, 0]	n/a	FR1	0	R1318N
882.585	0.0	884009	DISTRACT_START	n/a	n/a	n/a	-999	5	[0, 0, 0]	n/a	FR1	0	R1318N
882.585	0.016	884009	START	n/a	n/a	n/a	-999	5	[-999, -999, -999]	n/a	FR1	0	R1318N
882.601	2.516	884025	PROB	2.516	n/a	n/a	-999	5	[2, 2, 1]	5	FR1	0	R1318N
885.117	3.335	886541	PROB	3.335	n/a	n/a	-999	5	[6, 8, 3]	17	FR1	0	R1318N
888.452	3.884	889876	PROB	3.884	n/a	n/a	-999	5	[9, 6, 6]	21	FR1	0	R1318N
892.336	3.167	893760	PROB	3.167	n/a	n/a	-999	5	[3, 3, 5]	11	FR1	0	R1318N
895.503	2.549	896927	PROB	2.549	n/a	n/a	-999	5	[9, 4, 6]	19	FR1	0	R1318N
898.052	3.302	899476	PROB	3.302	n/a	n/a	-999	5	[9, 2, 9]	20	FR1	0	R1318N
901.354	2.637	902778	PROB	2.637	n/a	n/a	-999	5	[1, 9, 7]	17	FR1	0	R1318N
903.991	0.012	905415	STOP	n/a	n/a	n/a	-999	5	[-999, -999, -999]	n/a	FR1	0	R1318N
904.003	0.6	905427	DISTRACT_END	n/a	n/a	n/a	-999	5	[0, 0, 0]	n/a	FR1	0	R1318N
904.603	1.534	906027	RETRIEVAL_ORIENT_START	n/a	n/a	n/a	-999	5	[0, 0, 0]	n/a	FR1	0	R1318N
906.137	0.0	907561	RETRIEVAL_ORIENT_END	n/a	n/a	n/a	-999	5	[0, 0, 0]	n/a	FR1	0	R1318N
906.137	3.513	907561	REC_START	n/a	n/a	n/a	-999	5	[0, 0, 0]	n/a	FR1	0	R1318N
909.65	10.265	911074	REC_WORD	10.265	n/a	BRUSH	12	5	[0, 0, 0]	n/a	FR1	0	R1318N
919.915	16.233	921338	REC_WORD	16.233	n/a	BOX	1	5	[0, 0, 0]	n/a	FR1	0	R1318N
936.148	0.0	937571	REC_END	n/a	n/a	n/a	-999	5	[0, 0, 0]	n/a	FR1	0	R1318N
936.148	0.014	937571	TRIAL_END	n/a	n/a	n/a	-999	5	[0, 0, 0]	n/a	FR1	0	R1318N
936.162	0.0	937585	TRIAL_START	n/a	n/a	n/a	-999	6	[0, 0, 0]	n/a	FR1	0	R1318N
936.162	0.0	937585	TRIAL	n/a	n/a	n/a	-999	6	[0, 0, 0]	n/a	FR1	0	R1318N
936.162	2.597	937585	WAITING_START	n/a	n/a	n/a	-999	6	[0, 0, 0]	n/a	FR1	0	R1318N
938.759	0.0	940182	COUNTDOWN_START	n/a	n/a	n/a	-999	6	[0, 0, 0]	n/a	FR1	0	R1318N
938.759	10.429	940182	WAITING_END	n/a	n/a	n/a	-999	6	[0, 0, 0]	n/a	FR1	0	R1318N
949.188	0.001	950610	COUNTDOWN_END	n/a	n/a	n/a	-999	6	[0, 0, 0]	n/a	FR1	0	R1318N
949.189	1.24	950611	ORIENT_START	n/a	n/a	n/a	-999	6	[0, 0, 0]	n/a	FR1	0	R1318N
950.429	0.0	951851	ORIENT_END	n/a	n/a	n/a	-999	6	[0, 0, 0]	n/a	FR1	0	R1318N
950.429	1.061	951851	ENCODING_START	n/a	n/a	n/a	-999	6	[0, 0, 0]	n/a	FR1	0	R1318N
951.49	1.621	952912	WORD	n/a	n/a	VASE	1	6	[0, 0, 0]	n/a	FR1	0	R1318N
953.111	0.759	954533	WORD_OFF	n/a	n/a	VASE	1	6	[0, 0, 0]	n/a	FR1	0	R1318N
953.87	1.61	955292	WORD	n/a	n/a	CLAY	2	6	[0, 0, 0]	n/a	FR1	0	R1318N
955.48	0.998	956902	WORD_OFF	n/a	n/a	CLAY	2	6	[0, 0, 0]	n/a	FR1	0	R1318N
956.478	1.634	957900	WORD	n/a	n/a	STEAK	3	6	[0, 0, 0]	n/a	FR1	0	R1318N
958.112	1.026	959534	WORD_OFF	n/a	n/a	STEAK	3	6	[0, 0, 0]	n/a	FR1	0	R1318N
959.138	1.625	960560	WORD	n/a	n/a	FISH	4	6	[0, 0, 0]	n/a	FR1	0	R1318N
960.763	1.075	962185	WORD_OFF	n/a	n/a	FISH	4	6	[0, 0, 0]	n/a	FR1	0	R1318N
961.838	1.609	963260	WORD	n/a	n/a	BAT	5	6	[0, 0, 0]	n/a	FR1	0	R1318N
963.447	0.963	964869	WORD_OFF	n/a	n/a	BAT	5	6	[0, 0, 0]	n/a	FR1	0	R1318N
964.41	1.62	965832	WORD	n/a	n/a	PURSE	6	6	[0, 0, 0]	n/a	FR1	0	R1318N
966.03	0.826	967452	WORD_OFF	n/a	n/a	PURSE	6	6	[0, 0, 0]	n/a	FR1	0	R1318N
966.856	1.626	968278	WORD	n/a	n/a	FOG	7	6	[0, 0, 0]	n/a	FR1	0	R1318N
968.482	0.777	969904	WORD_OFF	n/a	n/a	FOG	7	6	[0, 0, 0]	n/a	FR1	0	R1318N
969.259	1.622	970681	WORD	n/a	n/a	FOOT	8	6	[0, 0, 0]	n/a	FR1	0	R1318N
970.881	0.967	972302	WORD_OFF	n/a	n/a	FOOT	8	6	[0, 0, 0]	n/a	FR1	0	R1318N
971.848	1.618	973269	WORD	n/a	n/a	CHAIR	9	6	[0, 0, 0]	n/a	FR1	0	R1318N
973.466	0.926	974887	WORD_OFF	n/a	n/a	CHAIR	9	6	[0, 0, 0]	n/a	FR1	0	R1318N
974.392	1.623	975813	WORD	n/a	n/a	EEL	10	6	[0, 0, 0]	n/a	FR1	0	R1318N
976.015	0.823	977436	WORD_OFF	n/a	n/a	EEL	10	6	[0, 0, 0]	n/a	FR1	0	R1318N
976.838	1.629	978259	WORD	n/a	n/a	STAR	11	6	[0, 0, 0]	n/a	FR1	0	R1318N
978.467	0.882	979888	WORD_OFF	n/a	n/a	STAR	11	6	[0, 0, 0]	n/a	FR1	0	R1318N
979.349	1.634	980770	WORD	n/a	n/a	FACE	12	6	[0, 0, 0]	n/a	FR1	0	R1318N
980.983	0.0	982404	ENCODING_END	n/a	n/a	n/a	-999	6	[0, 0, 0]	n/a	FR1	0	R1318N
980.983	0.001	982404	WORD_OFF	n/a	n/a	FACE	12	6	[0, 0, 0]	n/a	FR1	0	R1318N
980.984	0.0	982405	DISTRACT_START	n/a	n/a	n/a	-999	6	[0, 0, 0]	n/a	FR1	0	R1318N
980.984	0.015	982405	START	n/a	n/a	n/a	-999	6	[-999, -999, -999]	n/a	FR1	0	R1318N
980.999	5.034	982420	PROB	5.034	n/a	n/a	-999	6	[3, 6, 5]	14	FR1	0	R1318N
986.033	3.701	987454	PROB	3.701	n/a	n/a	-999	6	[8, 2, 8]	18	FR1	0	R1318N
989.734	8.335	991155	PROB	8.335	n/a	n/a	-999	6	[8, 7, 9]	24	FR1	0	R1318N
998.069	3.219	999490	PROB	3.219	n/a	n/a	-999	6	[7, 2, 7]	16	FR1	0	R1318N
1001.288	0.016	1002708	STOP	n/a	n/a	n/a	-999	6	[-999, -999, -999]	n/a	FR1	0	R1318N
1001.304	0.552	1002724	DISTRACT_END	n/a	n/a	n/a	-999	6	[0, 0, 0]	n/a	FR1	0	R1318N
1001.856	1.531	1003276	RETRIEVAL_ORIENT_START	n/a	n/a	n/a	-999	6	[0, 0, 0]	n/a	FR1	0	R1318N
1003.387	0.001	1004807	RETRIEVAL_ORIENT_END	n/a	n/a	n/a	-999	6	[0, 0, 0]	n/a	FR1	0	R1318N
1003.388	0.233	1004808	REC_START	n/a	n/a	n/a	-999	6	[0, 0, 0]	n/a	FR1	0	R1318N
1003.621	0.865	1005041	REC_WORD	0.865	n/a	VASE	1	6	[0, 0, 0]	n/a	FR1	0	R1318N
1004.486	0.535	1005906	REC_WORD	0.535	n/a	CLAY	2	6	[0, 0, 0]	n/a	FR1	0	R1318N
1005.021	1.301	1006441	REC_WORD	1.301	n/a	STEAK	3	6	[0, 0, 0]	n/a	FR1	0	R1318N
1006.322	1.363	1007742	REC_WORD	1.363	n/a	FISH	4	6	[0, 0, 0]	n/a	FR1	0	R1318N
1007.685	12.465	1009105	REC_WORD	12.465	n/a	BAT	5	6	[0, 0, 0]	n/a	FR1	0	R1318N
1020.15	13.249	1021570	REC_WORD	13.249	n/a	BENCH	-999	6	[0, 0, 0]	n/a	FR1	0	R1318N
1033.399	0.0	1034818	REC_END	n/a	n/a	n/a	-999	6	[0, 0, 0]	n/a	FR1	0	R1318N
1033.399	0.013	1034818	TRIAL_END	n/a	n/a	n/a	-999	6	[0, 0, 0]	n/a	FR1	0	R1318N
1033.412	0.001	1034831	TRIAL_START	n/a	n/a	n/a	-999	7	[0, 0, 0]	n/a	FR1	0	R1318N
1033.413	0.0	1034832	TRIAL	n/a	n/a	n/a	-999	7	[0, 0, 0]	n/a	FR1	0	R1318N
1033.413	1.795	1034832	WAITING_START	n/a	n/a	n/a	-999	7	[0, 0, 0]	n/a	FR1	0	R1318N
1035.208	0.0	1036627	WAITING_END	n/a	n/a	n/a	-999	7	[0, 0, 0]	n/a	FR1	0	R1318N
1035.208	10.43	1036627	COUNTDOWN_START	n/a	n/a	n/a	-999	7	[0, 0, 0]	n/a	FR1	0	R1318N
1045.638	0.0	1047057	ORIENT_START	n/a	n/a	n/a	-999	7	[0, 0, 0]	n/a	FR1	0	R1318N
1045.638	1.172	1047057	COUNTDOWN_END	n/a	n/a	n/a	-999	7	[0, 0, 0]	n/a	FR1	0	R1318N
1046.81	0.001	1048229	ORIENT_END	n/a	n/a	n/a	-999	7	[0, 0, 0]	n/a	FR1	0	R1318N
1046.811	0.927	1048230	ENCODING_START	n/a	n/a	n/a	-999	7	[0, 0, 0]	n/a	FR1	0	R1318N
1047.738	1.607	1049157	WORD	n/a	n/a	BOMB	1	7	[0, 0, 0]	n/a	FR1	0	R1318N
1049.345	0.939	1050764	WORD_OFF	n/a	n/a	BOMB	1	7	[0, 0, 0]	n/a	FR1	0	R1318N
1050.284	1.627	1051703	WORD	n/a	n/a	HORN	2	7	[0, 0, 0]	n/a	FR1	0	R1318N
1051.911	0.779	1053330	WORD_OFF	n/a	n/a	HORN	2	7	[0, 0, 0]	n/a	FR1	0	R1318N
1052.69	1.639	1054109	WORD	n/a	n/a	ROOF	3	7	[0, 0, 0]	n/a	FR1	0	R1318N
1054.329	0.868	1055748	WORD_OFF	n/a	n/a	ROOF	3	7	[0, 0, 0]	n/a	FR1	0	R1318N
1055.197	1.632	1056616	WORD	n/a	n/a	NAIL	4	7	[0, 0, 0]	n/a	FR1	0	R1318N
1056.829	0.985	1058248	WORD_OFF	n/a	n/a	NAIL	4	7	[0, 0, 0]	n/a	FR1	0	R1318N
1057.814	1.633	1059233	WORD	n/a	n/a	GOLD	5	7	[0, 0, 0]	n/a	FR1	0	R1318N
1059.447	0.828	1060866	WORD_OFF	n/a	n/a	GOLD	5	7	[0, 0, 0]	n/a	FR1	0	R1318N
1060.275	1.621	1061693	WORD	n/a	n/a	SOAP	6	7	[0, 0, 0]	n/a	FR1	0	R1318N
1061.896	0.925	1063314	WORD_OFF	n/a	n/a	SOAP	6	7	[0, 0, 0]	n/a	FR1	0	R1318N
1062.821	1.61	1064239	WORD	n/a	n/a	BOY	7	7	[0, 0, 0]	n/a	FR1	0	R1318N
1064.431	1.143	1065849	WORD_OFF	n/a	n/a	BOY	7	7	[0, 0, 0]	n/a	FR1	0	R1318N
1065.574	1.623	1066992	WORD	n/a	n/a	FOAM	8	7	[0, 0, 0]	n/a	FR1	0	R1318N
1067.197	1.095	1068615	WORD_OFF	n/a	n/a	FOAM	8	7	[0, 0, 0]	n/a	FR1	0	R1318N
1068.292	1.622	1069710	WORD	n/a	n/a	WEB	9	7	[0, 0, 0]	n/a	FR1	0	R1318N
1069.914	0.878	1071332	WORD_OFF	n/a	n/a	WEB	9	7	[0, 0, 0]	n/a	FR1	0	R1318N
1070.792	1.623	1072210	WORD	n/a	n/a	INK	10	7	[0, 0, 0]	n/a	FR1	0	R1318N
1072.415	0.803	1073833	WORD_OFF	n/a	n/a	INK	10	7	[0, 0, 0]	n/a	FR1	0	R1318N
1073.218	1.63	1074636	WORD	n/a	n/a	SPEAR	11	7	[0, 0, 0]	n/a	FR1	0	R1318N
1074.848	0.969	1076266	WORD_OFF	n/a	n/a	SPEAR	11	7	[0, 0, 0]	n/a	FR1	0	R1318N
1075.817	1.633	1077235	WORD	n/a	n/a	CLOWN	12	7	[0, 0, 0]	n/a	FR1	0	R1318N
1077.45	0.0	1078868	WORD_OFF	n/a	n/a	CLOWN	12	7	[0, 0, 0]	n/a	FR1	0	R1318N
1077.45	0.0	1078868	ENCODING_END	n/a	n/a	n/a	-999	7	[0, 0, 0]	n/a	FR1	0	R1318N
1077.45	0.001	1078868	DISTRACT_START	n/a	n/a	n/a	-999	7	[0, 0, 0]	n/a	FR1	0	R1318N
1077.451	0.015	1078869	START	n/a	n/a	n/a	-999	7	[-999, -999, -999]	n/a	FR1	0	R1318N
1077.466	2.483	1078884	PROB	2.483	n/a	n/a	-999	7	[1, 1, 4]	6	FR1	0	R1318N
1079.949	2.967	1081367	PROB	2.967	n/a	n/a	-999	7	[9, 9, 1]	19	FR1	0	R1318N
1082.916	3.318	1084334	PROB	3.318	n/a	n/a	-999	7	[7, 6, 1]	14	FR1	0	R1318N
1086.234	3.084	1087652	PROB	3.084	n/a	n/a	-999	7	[2, 1, 2]	5	FR1	0	R1318N
1089.318	3.866	1090736	PROB	3.866	n/a	n/a	-999	7	[2, 6, 2]	10	FR1	0	R1318N
1093.184	4.219	1094601	PROB	4.219	n/a	n/a	-999	7	[4, 9, 6]	19	FR1	0	R1318N
1097.403	2.204	1098820	PROB	2.204	n/a	n/a	-999	7	[6, 4, 1]	11	FR1	0	R1318N
1099.607	0.013	1101024	STOP	n/a	n/a	n/a	-999	7	[-999, -999, -999]	n/a	FR1	0	R1318N
1099.62	0.503	1101037	DISTRACT_END	n/a	n/a	n/a	-999	7	[0, 0, 0]	n/a	FR1	0	R1318N
1100.123	1.63	1101540	RETRIEVAL_ORIENT_START	n/a	n/a	n/a	-999	7	[0, 0, 0]	n/a	FR1	0	R1318N
1101.753	0.0	1103170	RETRIEVAL_ORIENT_END	n/a	n/a	n/a	-999	7	[0, 0, 0]	n/a	FR1	0	R1318N
1101.753	0.075	1103170	REC_START	n/a	n/a	n/a	-999	7	[0, 0, 0]	n/a	FR1	0	R1318N
1101.828	0.884	1103245	REC_WORD	0.884	n/a	BOMB	1	7	[0, 0, 0]	n/a	FR1	0	R1318N
1102.712	0.794	1104129	REC_WORD	0.794	n/a	HORN	2	7	[0, 0, 0]	n/a	FR1	0	R1318N
1103.506	0.687	1104923	REC_WORD	0.687	n/a	ROOF	3	7	[0, 0, 0]	n/a	FR1	0	R1318N
1104.193	0.911	1105610	REC_WORD	0.911	n/a	NAIL	4	7	[0, 0, 0]	n/a	FR1	0	R1318N
1105.104	0.596	1106521	REC_WORD	0.596	n/a	GOLD	5	7	[0, 0, 0]	n/a	FR1	0	R1318N
1105.7	1.305	1107117	REC_WORD	1.305	n/a	SOAP	6	7	[0, 0, 0]	n/a	FR1	0	R1318N
1107.005	24.758	1108422	REC_WORD	24.758	n/a	BOY	7	7	[0, 0, 0]	n/a	FR1	0	R1318N
1131.763	0.0	1133179	REC_END	n/a	n/a	n/a	-999	7	[0, 0, 0]	n/a	FR1	0	R1318N
1131.763	0.015	1133179	TRIAL_END	n/a	n/a	n/a	-999	7	[0, 0, 0]	n/a	FR1	0	R1318N
1131.778	0.0	1133194	TRIAL_START	n/a	n/a	n/a	-999	8	[0, 0, 0]	n/a	FR1	0	R1318N
1131.778	0.0	1133194	TRIAL	n/a	n/a	n/a	-999	8	[0, 0, 0]	n/a	FR1	0	R1318N
1131.778	1.848	1133194	WAITING_START	n/a	n/a	n/a	-999	8	[0, 0, 0]	n/a	FR1	0	R1318N
1133.626	0.0	1135042	WAITING_END	n/a	n/a	n/a	-999	8	[0, 0, 0]	n/a	FR1	0	R1318N
1133.626	10.429	1135042	COUNTDOWN_START	n/a	n/a	n/a	-999	8	[0, 0, 0]	n/a	FR1	0	R1318N
1144.055	0.0	1145471	COUNTDOWN_END	n/a	n/a	n/a	-999	8	[0, 0, 0]	n/a	FR1	0	R1318N
1144.055	1.138	1145471	ORIENT_START	n/a	n/a	n/a	-999	8	[0, 0, 0]	n/a	FR1	0	R1318N
1145.193	0.0	1146609	ENCODING_START	n/a	n/a	n/a	-999	8	[0, 0, 0]	n/a	FR1	0	R1318N
1145.193	0.885	1146609	ORIENT_END	n/a	n/a	n/a	-999	8	[0, 0, 0]	n/a	FR1	0	R1318N
1146.078	1.632	1147494	WORD	n/a	n/a	BEAN	1	8	[0, 0, 0]	n/a	FR1	0	R1318N
1147.71	0.808	1149126	WORD_OFF	n/a	n/a	BEAN	1	8	[0, 0, 0]	n/a	FR1	0	R1318N
1148.518	1.626	1149934	WORD	n/a	n/a	MOUSE	2	8	[0, 0, 0]	n/a	FR1	0	R1318N
1150.144	0.864	1151559	WORD_OFF	n/a	n/a	MOUSE	2	8	[0, 0, 0]	n/a	FR1	0	R1318N
1151.008	1.636	1152423	WORD	n/a	n/a	PLANT	3	8	[0, 0, 0]	n/a	FR1	0	R1318N
1152.644	1.11	1154059	WORD_OFF	n/a	n/a	PLANT	3	8	[0, 0, 0]	n/a	FR1	0	R1318N
1153.754	1.608	1155169	WORD	n/a	n/a	TIE	4	8	[0, 0, 0]	n/a	FR1	0	R1318N
1155.362	0.925	1156777	WORD_OFF	n/a	n/a	TIE	4	8	[0, 0, 0]	n/a	FR1	0	R1318N
1156.287	1.625	1157702	WORD	n/a	n/a	TOE	5	8	[0, 0, 0]	n/a	FR1	0	R1318N
1157.912	0.905	1159327	WORD_OFF	n/a	n/a	TOE	5	8	[0, 0, 0]	n/a	FR1	0	R1318N
1158.817	1.63	1160232	WORD	n/a	n/a	SPOON	6	8	[0, 0, 0]	n/a	FR1	0	R1318N
1160.447	0.8	1161862	WORD_OFF	n/a	n/a	SPOON	6	8	[0, 0, 0]	n/a	FR1	0	R1318N
1161.247	1.632	1162662	WORD	n/a	n/a	WHALE	7	8	[0, 0, 0]	n/a	FR1	0	R1318N
1162.879	1.023	1164294	WORD_OFF	n/a	n/a	WHALE	7	8	[0, 0, 0]	n/a	FR1	0	R1318N
1163.902	1.629	1165317	WORD	n/a	n/a	BLOOM	8	8	[0, 0, 0]	n/a	FR1	0	R1318N
1165.531	0.921	1166946	WORD_OFF	n/a	n/a	BLOOM	8	8	[0, 0, 0]	n/a	FR1	0	R1318N
1166.452	1.628	1167867	WORD	n/a	n/a	SMILE	9	8	[0, 0, 0]	n/a	FR1	0	R1318N
1168.08	1.052	1169495	WORD_OFF	n/a	n/a	SMILE	9	8	[0, 0, 0]	n/a	FR1	0	R1318N
1169.132	1.632	1170547	WORD	n/a	n/a	STOVE	10	8	[0, 0, 0]	n/a	FR1	0	R1318N
1170.764	0.779	1172179	WORD_OFF	n/a	n/a	STOVE	10	8	[0, 0, 0]	n/a	FR1	0	R1318N
1171.543	1.621	1172958	WORD	n/a	n/a	HEN	11	8	[0, 0, 0]	n/a	FR1	0	R1318N
1173.164	0.936	1174579	WORD_OFF	n/a	n/a	HEN	11	8	[0, 0, 0]	n/a	FR1	0	R1318N
1174.1	1.632	1175515	WORD	n/a	n/a	BADGE	12	8	[0, 0, 0]	n/a	FR1	0	R1318N
1175.732	0.0	1177147	WORD_OFF	n/a	n/a	BADGE	12	8	[0, 0, 0]	n/a	FR1	0	R1318N
1175.732	0.0	1177147	ENCODING_END	n/a	n/a	n/a	-999	8	[0, 0, 0]	n/a	FR1	0	R1318N
1175.732	0.001	1177147	DISTRACT_START	n/a	n/a	n/a	-999	8	[0, 0, 0]	n/a	FR1	0	R1318N
1175.733	0.015	1177148	START	n/a	n/a	n/a	-999	8	[-999, -999, -999]	n/a	FR1	0	R1318N
1175.748	2.501	1177163	PROB	2.501	n/a	n/a	-999	8	[2, 9, 9]	20	FR1	0	R1318N
1178.249	3.9	1179664	PROB	3.9	n/a	n/a	-999	8	[4, 5, 4]	13	FR1	0	R1318N
1182.149	6.319	1183563	PROB	6.319	n/a	n/a	-999	8	[7, 9, 8]	24	FR1	0	R1318N
1188.468	6.7	1189882	PROB	6.7	n/a	n/a	-999	8	[3, 8, 6]	17	FR1	0	R1318N
1195.168	2.902	1196582	PROB	2.902	n/a	n/a	-999	8	[1, 5, 3]	9	FR1	0	R1318N
1198.07	0.015	1199484	STOP	n/a	n/a	n/a	-999	8	[-999, -999, -999]	n/a	FR1	0	R1318N
1198.085	0.662	1199499	DISTRACT_END	n/a	n/a	n/a	-999	8	[0, 0, 0]	n/a	FR1	0	R1318N
1198.747	1.573	1200161	RETRIEVAL_ORIENT_START	n/a	n/a	n/a	-999	8	[0, 0, 0]	n/a	FR1	0	R1318N
1200.32	0.0	1201734	REC_START	n/a	n/a	n/a	-999	8	[0, 0, 0]	n/a	FR1	0	R1318N
1200.32	0.536	1201734	RETRIEVAL_ORIENT_END	n/a	n/a	n/a	-999	8	[0, 0, 0]	n/a	FR1	0	R1318N
1200.856	0.727	1202270	REC_WORD	0.727	n/a	BEAN	1	8	[0, 0, 0]	n/a	FR1	0	R1318N
1201.583	0.602	1202997	REC_WORD	0.602	n/a	MOUSE	2	8	[0, 0, 0]	n/a	FR1	0	R1318N
1202.185	0.731	1203599	REC_WORD	0.731	n/a	PLANT	3	8	[0, 0, 0]	n/a	FR1	0	R1318N
1202.916	1.3	1204330	REC_WORD	1.3	n/a	TIE	4	8	[0, 0, 0]	n/a	FR1	0	R1318N
1204.216	0.734	1205630	REC_WORD	0.734	n/a	TOE	5	8	[0, 0, 0]	n/a	FR1	0	R1318N
1204.95	0.929	1206364	REC_WORD	0.929	n/a	SPOON	6	8	[0, 0, 0]	n/a	FR1	0	R1318N
1205.879	1.643	1207293	REC_WORD	1.643	n/a	STOVE	10	8	[0, 0, 0]	n/a	FR1	0	R1318N
1207.522	22.809	1208936	REC_WORD	22.809	n/a	WHALE	7	8	[0, 0, 0]	n/a	FR1	0	R1318N
1230.331	0.001	1231744	REC_END	n/a	n/a	n/a	-999	8	[0, 0, 0]	n/a	FR1	0	R1318N
1230.332	0.013	1231745	TRIAL_END	n/a	n/a	n/a	-999	8	[0, 0, 0]	n/a	FR1	0	R1318N
1230.345	0.0	1231758	TRIAL_START	n/a	n/a	n/a	-999	9	[0, 0, 0]	n/a	FR1	0	R1318N
1230.345	0.0	1231758	TRIAL	n/a	n/a	n/a	-999	9	[0, 0, 0]	n/a	FR1	0	R1318N
1230.345	1.779	1231758	WAITING_START	n/a	n/a	n/a	-999	9	[0, 0, 0]	n/a	FR1	0	R1318N
1232.124	0.0	1233537	WAITING_END	n/a	n/a	n/a	-999	9	[0, 0, 0]	n/a	FR1	0	R1318N
1232.124	10.43	1233537	COUNTDOWN_START	n/a	n/a	n/a	-999	9	[0, 0, 0]	n/a	FR1	0	R1318N
1242.554	0.0	1243966	COUNTDOWN_END	n/a	n/a	n/a	-999	9	[0, 0, 0]	n/a	FR1	0	R1318N
1242.554	1.073	1243966	ORIENT_START	n/a	n/a	n/a	-999	9	[0, 0, 0]	n/a	FR1	0	R1318N
1243.627	0.001	1245039	ORIENT_END	n/a	n/a	n/a	-999	9	[0, 0, 0]	n/a	FR1	0	R1318N
1243.628	0.773	1245040	ENCODING_START	n/a	n/a	n/a	-999	9	[0, 0, 0]	n/a	FR1	0	R1318N
1244.401	1.626	1245813	WORD	n/a	n/a	RAIN	1	9	[0, 0, 0]	n/a	FR1	0	R1318N
1246.027	1.023	1247439	WORD_OFF	n/a	n/a	RAIN	1	9	[0, 0, 0]	n/a	FR1	0	R1318N
1247.05	1.627	1248462	WORD	n/a	n/a	HAWK	2	9	[0, 0, 0]	n/a	FR1	0	R1318N
1248.677	1.097	1250089	WORD_OFF	n/a	n/a	HAWK	2	9	[0, 0, 0]	n/a	FR1	0	R1318N
1249.774	1.638	1251186	WORD	n/a	n/a	HAT	3	9	[0, 0, 0]	n/a	FR1	0	R1318N
1251.412	0.962	1252824	WORD_OFF	n/a	n/a	HAT	3	9	[0, 0, 0]	n/a	FR1	0	R1318N
1252.374	1.62	1253786	WORD	n/a	n/a	PIE	4	9	[0, 0, 0]	n/a	FR1	0	R1318N
1253.994	0.792	1255406	WORD_OFF	n/a	n/a	PIE	4	9	[0, 0, 0]	n/a	FR1	0	R1318N
1254.786	1.609	1256198	WORD	n/a	n/a	STICK	5	9	[0, 0, 0]	n/a	FR1	0	R1318N
1256.395	0.83	1257807	WORD_OFF	n/a	n/a	STICK	5	9	[0, 0, 0]	n/a	FR1	0	R1318N
1257.225	1.637	1258637	WORD	n/a	n/a	BAG	6	9	[0, 0, 0]	n/a	FR1	0	R1318N
1258.862	0.99	1260274	WORD_OFF	n/a	n/a	BAG	6	9	[0, 0, 0]	n/a	FR1	0	R1318N
1259.852	1.628	1261264	WORD	n/a	n/a	WAVE	7	9	[0, 0, 0]	n/a	FR1	0	R1318N
1261.48	0.857	1262892	WORD_OFF	n/a	n/a	WAVE	7	9	[0, 0, 0]	n/a	FR1	0	R1318N
1262.337	1.626	1263749	WORD	n/a	n/a	GEESE	8	9	[0, 0, 0]	n/a	FR1	0	R1318N
1263.963	1.063	1265375	WORD_OFF	n/a	n/a	GEESE	8	9	[0, 0, 0]	n/a	FR1	0	R1318N
1265.026	1.62	1266438	WORD	n/a	n/a	LAKE	9	9	[0, 0, 0]	n/a	FR1	0	R1318N
1266.646	0.769	1268058	WORD_OFF	n/a	n/a	LAKE	9	9	[0, 0, 0]	n/a	FR1	0	R1318N
1267.415	1.632	1268827	WORD	n/a	n/a	DART	10	9	[0, 0, 0]	n/a	FR1	0	R1318N
1269.047	1.043	1270459	WORD_OFF	n/a	n/a	DART	10	9	[0, 0, 0]	n/a	FR1	0	R1318N
1270.09	1.624	1271501	WORD	n/a	n/a	TOOL	11	9	[0, 0, 0]	n/a	FR1	0	R1318N
1271.714	0.758	1273125	WORD_OFF	n/a	n/a	TOOL	11	9	[0, 0, 0]	n/a	FR1	0	R1318N
1272.472	1.626	1273883	WORD	n/a	n/a	BOOK	12	9	[0, 0, 0]	n/a	FR1	0	R1318N
1274.098	0.0	1275509	WORD_OFF	n/a	n/a	BOOK	12	9	[0, 0, 0]	n/a	FR1	0	R1318N
1274.098	0.0	1275509	ENCODING_END	n/a	n/a	n/a	-999	9	[0, 0, 0]	n/a	FR1	0	R1318N
1274.098	0.0	1275509	DISTRACT_START	n/a	n/a	n/a	-999	9	[0, 0, 0]	n/a	FR1	0	R1318N
1274.098	0.016	1275509	START	n/a	n/a	n/a	-999	9	[-999, -999, -999]	n/a	FR1	0	R1318N
1274.114	2.817	1275525	PROB	2.817	n/a	n/a	-999	9	[6, 4, 3]	13	FR1	0	R1318N
1276.931	7.118	1278342	PROB	7.118	n/a	n/a	-999	9	[9, 6, 8]	23	FR1	0	R1318N
1284.049	6.502	1285460	PROB	6.502	n/a	n/a	-999	9	[6, 3, 8]	17	FR1	0	R1318N
1290.551	4.206	1291962	PROB	4.206	n/a	n/a	-999	9	[1, 9, 4]	14	FR1	0	R1318N
1294.757	0.011	1296168	STOP	n/a	n/a	n/a	-999	9	[-999, -999, -999]	n/a	FR1	0	R1318N
1294.768	0.644	1296179	DISTRACT_END	n/a	n/a	n/a	-999	9	[0, 0, 0]	n/a	FR1	0	R1318N
1295.412	1.656	1296823	RETRIEVAL_ORIENT_START	n/a	n/a	n/a	-999	9	[0, 0, 0]	n/a	FR1	0	R1318N
1297.068	0.001	1298479	RETRIEVAL_ORIENT_END	n/a	n/a	n/a	-999	9	[0, 0, 0]	n/a	FR1	0	R1318N
1297.069	1.2	1298480	REC_START	n/a	n/a	n/a	-999	9	[0, 0, 0]	n/a	FR1	0	R1318N
1298.269	0.545	1299680	REC_WORD	0.545	n/a	RAIN	1	9	[0, 0, 0]	n/a	FR1	0	R1318N
1298.814	0.489	1300225	REC_WORD	0.489	n/a	HAT	3	9	[0, 0, 0]	n/a	FR1	0	R1318N
1299.303	0.367	1300714	REC_WORD	0.367	n/a	HAWK	2	9	[0, 0, 0]	n/a	FR1	0	R1318N
1299.67	0.655	1301080	REC_WORD	0.655	n/a	STICK	5	9	[0, 0, 0]	n/a	FR1	0	R1318N
1300.325	1.321	1301735	REC_WORD	1.321	n/a	BAG	6	9	[0, 0, 0]	n/a	FR1	0	R1318N
1301.646	2.973	1303056	REC_WORD	2.973	n/a	WAVE	7	9	[0, 0, 0]	n/a	FR1	0	R1318N
1304.619	0.74	1306029	REC_WORD	0.74	n/a	PIE	4	9	[0, 0, 0]	n/a	FR1	0	R1318N
1305.359	0.7	1306769	REC_WORD	0.7	n/a	HAT	3	9	[0, 0, 0]	n/a	FR1	0	R1318N
1306.059	5.905	1307469	REC_WORD	5.905	n/a	GEESE	8	9	[0, 0, 0]	n/a	FR1	0	R1318N
1311.964	15.115	1313374	REC_WORD_VV	15.115	n/a	<>	-999	9	[0, 0, 0]	n/a	FR1	0	R1318N
1327.079	0.0	1328489	REC_END	n/a	n/a	n/a	-999	9	[0, 0, 0]	n/a	FR1	0	R1318N
1327.079	0.014	1328489	TRIAL_END	n/a	n/a	n/a	-999	9	[0, 0, 0]	n/a	FR1	0	R1318N
1327.093	0.0	1328503	TRIAL_START	n/a	n/a	n/a	-999	10	[0, 0, 0]	n/a	FR1	0	R1318N
1327.093	0.0	1328503	TRIAL	n/a	n/a	n/a	-999	10	[0, 0, 0]	n/a	FR1	0	R1318N
1327.093	1.797	1328503	WAITING_START	n/a	n/a	n/a	-999	10	[0, 0, 0]	n/a	FR1	0	R1318N
1328.89	0.001	1330300	WAITING_END	n/a	n/a	n/a	-999	10	[0, 0, 0]	n/a	FR1	0	R1318N
1328.891	10.428	1330301	COUNTDOWN_START	n/a	n/a	n/a	-999	10	[0, 0, 0]	n/a	FR1	0	R1318N
1339.319	0.001	1340728	COUNTDOWN_END	n/a	n/a	n/a	-999	10	[0, 0, 0]	n/a	FR1	0	R1318N
1339.32	1.123	1340729	ORIENT_START	n/a	n/a	n/a	-999	10	[0, 0, 0]	n/a	FR1	0	R1318N
1340.443	0.001	1341852	ORIENT_END	n/a	n/a	n/a	-999	10	[0, 0, 0]	n/a	FR1	0	R1318N
1340.444	0.937	1341853	ENCODING_START	n/a	n/a	n/a	-999	10	[0, 0, 0]	n/a	FR1	0	R1318N
1341.381	1.628	1342790	WORD	n/a	n/a	SHOE	1	10	[0, 0, 0]	n/a	FR1	0	R1318N
1343.009	0.917	1344418	WORD_OFF	n/a	n/a	SHOE	1	10	[0, 0, 0]	n/a	FR1	0	R1318N
1343.926	1.635	1345335	WORD	n/a	n/a	GRAPE	2	10	[0, 0, 0]	n/a	FR1	0	R1318N
1345.561	1.131	1346970	WORD_OFF	n/a	n/a	GRAPE	2	10	[0, 0, 0]	n/a	FR1	0	R1318N
1346.692	1.636	1348101	WORD	n/a	n/a	CAT	3	10	[0, 0, 0]	n/a	FR1	0	R1318N
1348.328	0.916	1349737	WORD_OFF	n/a	n/a	CAT	3	10	[0, 0, 0]	n/a	FR1	0	R1318N
1349.244	1.633	1350653	WORD	n/a	n/a	PEAR	4	10	[0, 0, 0]	n/a	FR1	0	R1318N
1350.877	0.762	1352286	WORD_OFF	n/a	n/a	PEAR	4	10	[0, 0, 0]	n/a	FR1	0	R1318N
1351.639	1.623	1353048	WORD	n/a	n/a	OAR	5	10	[0, 0, 0]	n/a	FR1	0	R1318N
1353.262	0.954	1354671	WORD_OFF	n/a	n/a	OAR	5	10	[0, 0, 0]	n/a	FR1	0	R1318N
1354.216	1.629	1355625	WORD	n/a	n/a	CLOCK	6	10	[0, 0, 0]	n/a	FR1	0	R1318N
1355.845	1.115	1357254	WORD_OFF	n/a	n/a	CLOCK	6	10	[0, 0, 0]	n/a	FR1	0	R1318N
1356.96	1.636	1358369	WORD	n/a	n/a	SNAIL	7	10	[0, 0, 0]	n/a	FR1	0	R1318N
1358.596	0.863	1360005	WORD_OFF	n/a	n/a	SNAIL	7	10	[0, 0, 0]	n/a	FR1	0	R1318N
1359.459	1.636	1360867	WORD	n/a	n/a	SCHOOL	8	10	[0, 0, 0]	n/a	FR1	0	R1318N
1361.095	1.011	1362503	WORD_OFF	n/a	n/a	SCHOOL	8	10	[0, 0, 0]	n/a	FR1	0	R1318N
1362.106	1.623	1363514	WORD	n/a	n/a	SUN	9	10	[0, 0, 0]	n/a	FR1	0	R1318N
1363.729	0.959	1365137	WORD_OFF	n/a	n/a	SUN	9	10	[0, 0, 0]	n/a	FR1	0	R1318N
1364.688	1.626	1366096	WORD	n/a	n/a	SEAT	10	10	[0, 0, 0]	n/a	FR1	0	R1318N
1366.314	1.134	1367722	WORD_OFF	n/a	n/a	SEAT	10	10	[0, 0, 0]	n/a	FR1	0	R1318N
1367.448	1.632	1368856	WORD	n/a	n/a	COW	11	10	[0, 0, 0]	n/a	FR1	0	R1318N
1369.08	1.148	1370488	WORD_OFF	n/a	n/a	COW	11	10	[0, 0, 0]	n/a	FR1	0	R1318N
1370.228	1.636	1371636	WORD	n/a	n/a	FOOD	12	10	[0, 0, 0]	n/a	FR1	0	R1318N
1371.864	0.0	1373272	WORD_OFF	n/a	n/a	FOOD	12	10	[0, 0, 0]	n/a	FR1	0	R1318N
1371.864	0.001	1373272	ENCODING_END	n/a	n/a	n/a	-999	10	[0, 0, 0]	n/a	FR1	0	R1318N
1371.865	0.0	1373273	DISTRACT_START	n/a	n/a	n/a	-999	10	[0, 0, 0]	n/a	FR1	0	R1318N
1371.865	0.015	1373273	START	n/a	n/a	n/a	-999	10	[-999, -999, -999]	n/a	FR1	0	R1318N
1371.88	2.884	1373288	PROB	2.884	n/a	n/a	-999	10	[9, 7, 3]	19	FR1	0	R1318N
1374.764	4.868	1376172	PROB	4.868	n/a	n/a	-999	10	[6, 8, 5]	19	FR1	0	R1318N
1379.632	6.367	1381040	PROB	6.367	n/a	n/a	-999	10	[8, 5, 9]	22	FR1	0	R1318N
1385.999	2.585	1387407	PROB	2.585	n/a	n/a	-999	10	[9, 5, 1]	15	FR1	0	R1318N
1388.584	2.851	1389992	PROB	2.851	n/a	n/a	-999	10	[5, 2, 8]	15	FR1	0	R1318N
1391.435	2.876	1392842	PROB	2.876	n/a	n/a	-999	10	[7, 6, 4]	17	FR1	0	R1318N
1394.311	0.007	1395718	STOP	n/a	n/a	n/a	-999	10	[-999, -999, -999]	n/a	FR1	0	R1318N
1394.318	0.552	1395725	DISTRACT_END	n/a	n/a	n/a	-999	10	[0, 0, 0]	n/a	FR1	0	R1318N
1394.87	1.549	1396277	RETRIEVAL_ORIENT_START	n/a	n/a	n/a	-999	10	[0, 0, 0]	n/a	FR1	0	R1318N
1396.419	0.0	1397826	RETRIEVAL_ORIENT_END	n/a	n/a	n/a	-999	10	[0, 0, 0]	n/a	FR1	0	R1318N
1396.419	0.119	1397826	REC_START	n/a	n/a	n/a	-999	10	[0, 0, 0]	n/a	FR1	0	R1318N
1396.538	0.797	1397945	REC_WORD	0.797	n/a	SHOE	1	10	[0, 0, 0]	n/a	FR1	0	R1318N
1397.335	0.653	1398742	REC_WORD	0.653	n/a	GRAPE	2	10	[0, 0, 0]	n/a	FR1	0	R1318N
1397.988	0.677	1399395	REC_WORD	0.677	n/a	CAT	3	10	[0, 0, 0]	n/a	FR1	0	R1318N
1398.665	0.556	1400072	REC_WORD	0.556	n/a	PEAR	4	10	[0, 0, 0]	n/a	FR1	0	R1318N
1399.221	0.924	1400628	REC_WORD	0.924	n/a	OAR	5	10	[0, 0, 0]	n/a	FR1	0	R1318N
1400.145	0.71	1401552	REC_WORD	0.71	n/a	NAIL	-999	10	[0, 0, 0]	n/a	FR1	0	R1318N
1400.855	21.24	1402262	REC_WORD	21.24	n/a	SUN	9	10	[0, 0, 0]	n/a	FR1	0	R1318N
1422.095	2.096	1423501	REC_WORD	2.096	n/a	STAR	-999	10	[0, 0, 0]	n/a	FR1	0	R1318N
1424.191	2.239	1425597	REC_WORD	2.239	n/a	PEAR	4	10	[0, 0, 0]	n/a	FR1	0	R1318N
1426.43	0.0	1427836	REC_END	n/a	n/a	n/a	-999	10	[0, 0, 0]	n/a	FR1	0	R1318N
1426.43	0.014	1427836	TRIAL_END	n/a	n/a	n/a	-999	10	[0, 0, 0]	n/a	FR1	0	R1318N
1426.444	0.0	1427850	TRIAL_START	n/a	n/a	n/a	-999	11	[0, 0, 0]	n/a	FR1	0	R1318N
1426.444	0.0	1427850	TRIAL	n/a	n/a	n/a	-999	11	[0, 0, 0]	n/a	FR1	0	R1318N
1426.444	1.83	1427850	WAITING_START	n/a	n/a	n/a	-999	11	[0, 0, 0]	n/a	FR1	0	R1318N
1428.274	0.001	1429680	WAITING_END	n/a	n/a	n/a	-999	11	[0, 0, 0]	n/a	FR1	0	R1318N
1428.275	10.428	1429681	COUNTDOWN_START	n/a	n/a	n/a	-999	11	[0, 0, 0]	n/a	FR1	0	R1318N
1438.703	0.001	1440109	COUNTDOWN_END	n/a	n/a	n/a	-999	11	[0, 0, 0]	n/a	FR1	0	R1318N
1438.704	1.054	1440110	ORIENT_START	n/a	n/a	n/a	-999	11	[0, 0, 0]	n/a	FR1	0	R1318N
1439.758	0.001	1441164	ORIENT_END	n/a	n/a	n/a	-999	11	[0, 0, 0]	n/a	FR1	0	R1318N
1439.759	0.795	1441165	ENCODING_START	n/a	n/a	n/a	-999	11	[0, 0, 0]	n/a	FR1	0	R1318N
1440.554	1.621	1441960	WORD	n/a	n/a	PIT	1	11	[0, 0, 0]	n/a	FR1	0	R1318N
1442.175	0.85	1443581	WORD_OFF	n/a	n/a	PIT	1	11	[0, 0, 0]	n/a	FR1	0	R1318N
1443.025	1.634	1444431	WORD	n/a	n/a	TEA	2	11	[0, 0, 0]	n/a	FR1	0	R1318N
1444.659	0.88	1446065	WORD_OFF	n/a	n/a	TEA	2	11	[0, 0, 0]	n/a	FR1	0	R1318N
1445.539	1.637	1446945	WORD	n/a	n/a	BENCH	3	11	[0, 0, 0]	n/a	FR1	0	R1318N
1447.176	0.878	1448582	WORD_OFF	n/a	n/a	BENCH	3	11	[0, 0, 0]	n/a	FR1	0	R1318N
1448.054	1.623	1449460	WORD	n/a	n/a	DRUM	4	11	[0, 0, 0]	n/a	FR1	0	R1318N
1449.677	0.946	1451082	WORD_OFF	n/a	n/a	DRUM	4	11	[0, 0, 0]	n/a	FR1	0	R1318N
1450.623	1.622	1452028	WORD	n/a	n/a	STREET	5	11	[0, 0, 0]	n/a	FR1	0	R1318N
1452.245	0.856	1453650	WORD_OFF	n/a	n/a	STREET	5	11	[0, 0, 0]	n/a	FR1	0	R1318N
1453.101	1.626	1454506	WORD	n/a	n/a	MAIL	6	11	[0, 0, 0]	n/a	FR1	0	R1318N
1454.727	0.91	1456132	WORD_OFF	n/a	n/a	MAIL	6	11	[0, 0, 0]	n/a	FR1	0	R1318N
1455.637	1.625	1457042	WORD	n/a	n/a	HOOF	7	11	[0, 0, 0]	n/a	FR1	0	R1318N
1457.262	0.853	1458667	WORD_OFF	n/a	n/a	HOOF	7	11	[0, 0, 0]	n/a	FR1	0	R1318N
1458.115	1.63	1459520	WORD	n/a	n/a	TRAIN	8	11	[0, 0, 0]	n/a	FR1	0	R1318N
1459.745	0.767	1461150	WORD_OFF	n/a	n/a	TRAIN	8	11	[0, 0, 0]	n/a	FR1	0	R1318N
1460.512	1.633	1461917	WORD	n/a	n/a	SNAKE	9	11	[0, 0, 0]	n/a	FR1	0	R1318N
1462.145	1.027	1463550	WORD_OFF	n/a	n/a	SNAKE	9	11	[0, 0, 0]	n/a	FR1	0	R1318N
1463.172	1.624	1464577	WORD	n/a	n/a	CAKE	10	11	[0, 0, 0]	n/a	FR1	0	R1318N
1464.796	0.816	1466201	WORD_OFF	n/a	n/a	CAKE	10	11	[0, 0, 0]	n/a	FR1	0	R1318N
1465.612	1.635	1467017	WORD	n/a	n/a	DUCK	11	11	[0, 0, 0]	n/a	FR1	0	R1318N
1467.247	1.147	1468652	WORD_OFF	n/a	n/a	DUCK	11	11	[0, 0, 0]	n/a	FR1	0	R1318N
1468.394	1.636	1469799	WORD	n/a	n/a	HILL	12	11	[0, 0, 0]	n/a	FR1	0	R1318N
1470.03	0.0	1471435	WORD_OFF	n/a	n/a	HILL	12	11	[0, 0, 0]	n/a	FR1	0	R1318N
1470.03	0.0	1471435	ENCODING_END	n/a	n/a	n/a	-999	11	[0, 0, 0]	n/a	FR1	0	R1318N
1470.03	0.001	1471435	DISTRACT_START	n/a	n/a	n/a	-999	11	[0, 0, 0]	n/a	FR1	0	R1318N
1470.031	0.016	1471436	START	n/a	n/a	n/a	-999	11	[-999, -999, -999]	n/a	FR1	0	R1318N
1470.047	3.9	1471452	PROB	3.9	n/a	n/a	-999	11	[8, 6, 6]	20	FR1	0	R1318N
1473.947	5.001	1475352	PROB	5.001	n/a	n/a	-999	11	[6, 1, 7]	14	FR1	0	R1318N
1478.948	3.067	1480352	PROB	3.067	n/a	n/a	-999	11	[8, 7, 3]	18	FR1	0	R1318N
1482.015	3.318	1483419	PROB	3.318	n/a	n/a	-999	11	[7, 3, 9]	19	FR1	0	R1318N
1485.333	5.123	1486737	PROB	5.123	n/a	n/a	-999	11	[6, 7, 8]	21	FR1	0	R1318N
1490.456	0.011	1491860	STOP	n/a	n/a	n/a	-999	11	[-999, -999, -999]	n/a	FR1	0	R1318N
1490.467	0.544	1491871	DISTRACT_END	n/a	n/a	n/a	-999	11	[0, 0, 0]	n/a	FR1	0	R1318N
1491.011	1.54	1492415	RETRIEVAL_ORIENT_START	n/a	n/a	n/a	-999	11	[0, 0, 0]	n/a	FR1	0	R1318N
1492.551	0.001	1493955	RETRIEVAL_ORIENT_END	n/a	n/a	n/a	-999	11	[0, 0, 0]	n/a	FR1	0	R1318N
1492.552	0.0	1493956	REC_START	n/a	n/a	n/a	-999	11	[0, 0, 0]	n/a	FR1	0	R1318N
1492.552	0.494	1493956	REC_WORD_VV	0.494	n/a	<>	-999	11	[0, 0, 0]	n/a	FR1	0	R1318N
1493.046	1.443	1494450	REC_WORD	1.443	n/a	TEA	2	11	[0, 0, 0]	n/a	FR1	0	R1318N
1494.489	0.819	1495893	REC_WORD	0.819	n/a	BENCH	3	11	[0, 0, 0]	n/a	FR1	0	R1318N
1495.308	1.015	1496712	REC_WORD	1.015	n/a	MAIL	6	11	[0, 0, 0]	n/a	FR1	0	R1318N
1496.323	0.708	1497727	REC_WORD	0.708	n/a	SNAKE	9	11	[0, 0, 0]	n/a	FR1	0	R1318N
1497.031	2.059	1498435	REC_WORD	2.059	n/a	STREET	5	11	[0, 0, 0]	n/a	FR1	0	R1318N
1499.09	23.471	1500494	REC_WORD	23.471	n/a	NAIL	-999	11	[0, 0, 0]	n/a	FR1	0	R1318N
1522.561	0.001	1523964	REC_END	n/a	n/a	n/a	-999	11	[0, 0, 0]	n/a	FR1	0	R1318N
1522.562	0.015	1523965	TRIAL_END	n/a	n/a	n/a	-999	11	[0, 0, 0]	n/a	FR1	0	R1318N
1522.577	0.0	1523980	TRIAL_START	n/a	n/a	n/a	-999	12	[0, 0, 0]	n/a	FR1	0	R1318N
1522.577	0.0	1523980	TRIAL	n/a	n/a	n/a	-999	12	[0, 0, 0]	n/a	FR1	0	R1318N
1522.577	1.713	1523980	WAITING_START	n/a	n/a	n/a	-999	12	[0, 0, 0]	n/a	FR1	0	R1318N
1524.29	0.0	1525693	WAITING_END	n/a	n/a	n/a	-999	12	[0, 0, 0]	n/a	FR1	0	R1318N
1524.29	10.43	1525693	COUNTDOWN_START	n/a	n/a	n/a	-999	12	[0, 0, 0]	n/a	FR1	0	R1318N
1534.72	0.0	1536123	COUNTDOWN_END	n/a	n/a	n/a	-999	12	[0, 0, 0]	n/a	FR1	0	R1318N
1534.72	1.221	1536123	ORIENT_START	n/a	n/a	n/a	-999	12	[0, 0, 0]	n/a	FR1	0	R1318N
1535.941	0.0	1537344	ENCODING_START	n/a	n/a	n/a	-999	12	[0, 0, 0]	n/a	FR1	0	R1318N
1535.941	0.767	1537344	ORIENT_END	n/a	n/a	n/a	-999	12	[0, 0, 0]	n/a	FR1	0	R1318N
1536.708	1.617	1538111	WORD	n/a	n/a	LAND	1	12	[0, 0, 0]	n/a	FR1	0	R1318N
1538.325	0.752	1539728	WORD_OFF	n/a	n/a	LAND	1	12	[0, 0, 0]	n/a	FR1	0	R1318N
1539.077	1.631	1540479	WORD	n/a	n/a	WORLD	2	12	[0, 0, 0]	n/a	FR1	0	R1318N
1540.708	1.145	1542110	WORD_OFF	n/a	n/a	WORLD	2	12	[0, 0, 0]	n/a	FR1	0	R1318N
1541.853	1.607	1543255	WORD	n/a	n/a	ROCK	3	12	[0, 0, 0]	n/a	FR1	0	R1318N
1543.46	1.046	1544862	WORD_OFF	n/a	n/a	ROCK	3	12	[0, 0, 0]	n/a	FR1	0	R1318N
1544.506	1.637	1545908	WORD	n/a	n/a	SKUNK	4	12	[0, 0, 0]	n/a	FR1	0	R1318N
1546.143	0.813	1547545	WORD_OFF	n/a	n/a	SKUNK	4	12	[0, 0, 0]	n/a	FR1	0	R1318N
1546.956	1.621	1548358	WORD	n/a	n/a	HAND	5	12	[0, 0, 0]	n/a	FR1	0	R1318N
1548.577	1.079	1549979	WORD_OFF	n/a	n/a	HAND	5	12	[0, 0, 0]	n/a	FR1	0	R1318N
1549.656	1.622	1551058	WORD	n/a	n/a	TOOTH	6	12	[0, 0, 0]	n/a	FR1	0	R1318N
1551.278	0.969	1552680	WORD_OFF	n/a	n/a	TOOTH	6	12	[0, 0, 0]	n/a	FR1	0	R1318N
1552.247	1.63	1553649	WORD	n/a	n/a	MILK	7	12	[0, 0, 0]	n/a	FR1	0	R1318N
1553.877	1.031	1555279	WORD_OFF	n/a	n/a	MILK	7	12	[0, 0, 0]	n/a	FR1	0	R1318N
1554.908	1.637	1556310	WORD	n/a	n/a	MAT	8	12	[0, 0, 0]	n/a	FR1	0	R1318N
1556.545	0.779	1557947	WORD_OFF	n/a	n/a	MAT	8	12	[0, 0, 0]	n/a	FR1	0	R1318N
1557.324	1.621	1558726	WORD	n/a	n/a	BEE	9	12	[0, 0, 0]	n/a	FR1	0	R1318N
1558.945	1.087	1560347	WORD_OFF	n/a	n/a	BEE	9	12	[0, 0, 0]	n/a	FR1	0	R1318N
1560.032	1.63	1561434	WORD	n/a	n/a	TEETH	10	12	[0, 0, 0]	n/a	FR1	0	R1318N
1561.662	0.874	1563064	WORD_OFF	n/a	n/a	TEETH	10	12	[0, 0, 0]	n/a	FR1	0	R1318N
1562.536	1.626	1563938	WORD	n/a	n/a	WING	11	12	[0, 0, 0]	n/a	FR1	0	R1318N
1564.162	0.895	1565564	WORD_OFF	n/a	n/a	WING	11	12	[0, 0, 0]	n/a	FR1	0	R1318N
1565.057	1.622	1566459	WORD	n/a	n/a	FRUIT	12	12	[0, 0, 0]	n/a	FR1	0	R1318N
1566.679	0.001	1568081	WORD_OFF	n/a	n/a	FRUIT	12	12	[0, 0, 0]	n/a	FR1	0	R1318N
1566.68	0.0	1568082	ENCODING_END	n/a	n/a	n/a	-999	12	[0, 0, 0]	n/a	FR1	0	R1318N
1566.68	0.0	1568082	DISTRACT_START	n/a	n/a	n/a	-999	12	[0, 0, 0]	n/a	FR1	0	R1318N
1566.68	0.016	1568082	START	n/a	n/a	n/a	-999	12	[-999, -999, -999]	n/a	FR1	0	R1318N
1566.696	4.885	1568098	PROB	4.885	n/a	n/a	-999	12	[9, 4, 2]	15	FR1	0	R1318N
1571.581	2.917	1572982	PROB	2.917	n/a	n/a	-999	12	[9, 6, 6]	21	FR1	0	R1318N
1574.498	2.817	1575899	PROB	2.817	n/a	n/a	-999	12	[1, 4, 4]	9	FR1	0	R1318N
1577.315	3.8	1578716	PROB	3.8	n/a	n/a	-999	12	[9, 1, 7]	17	FR1	0	R1318N
1581.115	2.234	1582516	PROB	2.234	n/a	n/a	-999	12	[3, 1, 7]	11	FR1	0	R1318N
1583.349	3.713	1584750	PROB	3.713	n/a	n/a	-999	12	[2, 5, 1]	8	FR1	0	R1318N
1587.062	0.021	1588463	STOP	n/a	n/a	n/a	-999	12	[-999, -999, -999]	n/a	FR1	0	R1318N
1587.083	0.646	1588484	DISTRACT_END	n/a	n/a	n/a	-999	12	[0, 0, 0]	n/a	FR1	0	R1318N
1587.729	1.705	1589130	RETRIEVAL_ORIENT_START	n/a	n/a	n/a	-999	12	[0, 0, 0]	n/a	FR1	0	R1318N
1589.434	0.0	1590835	RETRIEVAL_ORIENT_END	n/a	n/a	n/a	-999	12	[0, 0, 0]	n/a	FR1	0	R1318N
1589.434	1.127	1590835	REC_START	n/a	n/a	n/a	-999	12	[0, 0, 0]	n/a	FR1	0	R1318N
1590.561	0.705	1591962	REC_WORD	0.705	n/a	LAND	1	12	[0, 0, 0]	n/a	FR1	0	R1318N
1591.266	0.765	1592667	REC_WORD	0.765	n/a	WORLD	2	12	[0, 0, 0]	n/a	FR1	0	R1318N
1592.031	0.619	1593432	REC_WORD	0.619	n/a	ROCK	3	12	[0, 0, 0]	n/a	FR1	0	R1318N
1592.65	1.018	1594051	REC_WORD	1.018	n/a	SKUNK	4	12	[0, 0, 0]	n/a	FR1	0	R1318N
1593.668	2.166	1595069	REC_WORD	2.166	n/a	CART	-999	12	[0, 0, 0]	n/a	FR1	0	R1318N
1595.834	1.38	1597235	REC_WORD	1.38	n/a	BEE	9	12	[0, 0, 0]	n/a	FR1	0	R1318N
1597.214	8.643	1598615	REC_WORD_VV	8.643	n/a	<>	-999	12	[0, 0, 0]	n/a	FR1	0	R1318N
1605.857	4.287	1607257	REC_WORD_VV	4.287	n/a	<>	-999	12	[0, 0, 0]	n/a	FR1	0	R1318N
1610.144	9.301	1611544	REC_WORD	9.301	n/a	PIPE	-999	12	[0, 0, 0]	n/a	FR1	0	R1318N
1619.445	0.0	1620845	TRIAL_END	n/a	n/a	n/a	-999	12	[0, 0, 0]	n/a	FR1	0	R1318N
1619.445	0.014	1620845	REC_END	n/a	n/a	n/a	-999	12	[0, 0, 0]	n/a	FR1	0	R1318N
1619.459	0.0	1620859	TRIAL_START	n/a	n/a	n/a	-999	13	[0, 0, 0]	n/a	FR1	0	R1318N
1619.459	0.0	1620859	TRIAL	n/a	n/a	n/a	-999	13	[0, 0, 0]	n/a	FR1	0	R1318N
1619.459	1.596	1620859	WAITING_START	n/a	n/a	n/a	-999	13	[0, 0, 0]	n/a	FR1	0	R1318N
1621.055	0.001	1622455	WAITING_END	n/a	n/a	n/a	-999	13	[0, 0, 0]	n/a	FR1	0	R1318N
1621.056	10.429	1622456	COUNTDOWN_START	n/a	n/a	n/a	-999	13	[0, 0, 0]	n/a	FR1	0	R1318N
1631.485	0.001	1632884	COUNTDOWN_END	n/a	n/a	n/a	-999	13	[0, 0, 0]	n/a	FR1	0	R1318N
1631.486	1.254	1632885	ORIENT_START	n/a	n/a	n/a	-999	13	[0, 0, 0]	n/a	FR1	0	R1318N
1632.74	0.0	1634139	ENCODING_START	n/a	n/a	n/a	-999	13	[0, 0, 0]	n/a	FR1	0	R1318N
1632.74	0.771	1634139	ORIENT_END	n/a	n/a	n/a	-999	13	[0, 0, 0]	n/a	FR1	0	R1318N
1633.511	1.63	1634910	WORD	n/a	n/a	JUDGE	1	13	[0, 0, 0]	n/a	FR1	0	R1318N
1635.141	1.083	1636540	WORD_OFF	n/a	n/a	JUDGE	1	13	[0, 0, 0]	n/a	FR1	0	R1318N
1636.224	1.634	1637623	WORD	n/a	n/a	GLASS	2	13	[0, 0, 0]	n/a	FR1	0	R1318N
1637.858	0.991	1639257	WORD_OFF	n/a	n/a	GLASS	2	13	[0, 0, 0]	n/a	FR1	0	R1318N
1638.849	1.627	1640248	WORD	n/a	n/a	STEAM	3	13	[0, 0, 0]	n/a	FR1	0	R1318N
1640.476	0.902	1641875	WORD_OFF	n/a	n/a	STEAM	3	13	[0, 0, 0]	n/a	FR1	0	R1318N
1641.378	1.631	1642777	WORD	n/a	n/a	WOOD	4	13	[0, 0, 0]	n/a	FR1	0	R1318N
1643.009	0.817	1644408	WORD_OFF	n/a	n/a	WOOD	4	13	[0, 0, 0]	n/a	FR1	0	R1318N
1643.826	1.634	1645225	WORD	n/a	n/a	MOLE	5	13	[0, 0, 0]	n/a	FR1	0	R1318N
1645.46	0.882	1646859	WORD_OFF	n/a	n/a	MOLE	5	13	[0, 0, 0]	n/a	FR1	0	R1318N
1646.342	1.634	1647741	WORD	n/a	n/a	FILM	6	13	[0, 0, 0]	n/a	FR1	0	R1318N
1647.976	1.135	1649375	WORD_OFF	n/a	n/a	FILM	6	13	[0, 0, 0]	n/a	FR1	0	R1318N
1649.111	1.632	1650510	WORD	n/a	n/a	BANK	7	13	[0, 0, 0]	n/a	FR1	0	R1318N
1650.743	1.029	1652142	WORD_OFF	n/a	n/a	BANK	7	13	[0, 0, 0]	n/a	FR1	0	R1318N
1651.772	1.623	1653171	WORD	n/a	n/a	ELF	8	13	[0, 0, 0]	n/a	FR1	0	R1318N
1653.395	0.798	1654794	WORD_OFF	n/a	n/a	ELF	8	13	[0, 0, 0]	n/a	FR1	0	R1318N
1654.193	1.634	1655592	WORD	n/a	n/a	FLEA	9	13	[0, 0, 0]	n/a	FR1	0	R1318N
1655.827	0.935	1657226	WORD_OFF	n/a	n/a	FLEA	9	13	[0, 0, 0]	n/a	FR1	0	R1318N
1656.762	1.617	1658161	WORD	n/a	n/a	LOCK	10	13	[0, 0, 0]	n/a	FR1	0	R1318N
1658.379	0.787	1659777	WORD_OFF	n/a	n/a	LOCK	10	13	[0, 0, 0]	n/a	FR1	0	R1318N
1659.166	1.629	1660564	WORD	n/a	n/a	STORM	11	13	[0, 0, 0]	n/a	FR1	0	R1318N
1660.795	0.898	1662193	WORD_OFF	n/a	n/a	STORM	11	13	[0, 0, 0]	n/a	FR1	0	R1318N
1661.693	1.637	1663091	WORD	n/a	n/a	SNOW	12	13	[0, 0, 0]	n/a	FR1	0	R1318N
1663.33	0.0	1664728	WORD_OFF	n/a	n/a	SNOW	12	13	[0, 0, 0]	n/a	FR1	0	R1318N
1663.33	0.0	1664728	ENCODING_END	n/a	n/a	n/a	-999	13	[0, 0, 0]	n/a	FR1	0	R1318N
1663.33	0.001	1664728	DISTRACT_START	n/a	n/a	n/a	-999	13	[0, 0, 0]	n/a	FR1	0	R1318N
1663.331	0.015	1664729	START	n/a	n/a	n/a	-999	13	[-999, -999, -999]	n/a	FR1	0	R1318N
1663.346	5.817	1664744	PROB	5.817	n/a	n/a	-999	13	[4, 2, 7]	13	FR1	0	R1318N
1669.163	3.234	1670561	PROB	3.234	n/a	n/a	-999	13	[4, 2, 3]	9	FR1	0	R1318N
1672.397	3.068	1673795	PROB	3.068	n/a	n/a	-999	13	[3, 4, 3]	10	FR1	0	R1318N
1675.465	2.516	1676863	PROB	2.516	n/a	n/a	-999	13	[8, 9, 2]	19	FR1	0	R1318N
1677.981	5.084	1679379	PROB	5.084	n/a	n/a	-999	13	[3, 8, 8]	19	FR1	0	R1318N
1683.065	6.558	1684463	PROB	6.558	n/a	n/a	-999	13	[8, 9, 5]	22	FR1	0	R1318N
1689.623	0.01	1691020	STOP	n/a	n/a	n/a	-999	13	[-999, -999, -999]	n/a	FR1	0	R1318N
1689.633	0.502	1691030	DISTRACT_END	n/a	n/a	n/a	-999	13	[0, 0, 0]	n/a	FR1	0	R1318N
1690.135	1.632	1691532	RETRIEVAL_ORIENT_START	n/a	n/a	n/a	-999	13	[0, 0, 0]	n/a	FR1	0	R1318N
1691.767	0.0	1693164	REC_START	n/a	n/a	n/a	-999	13	[0, 0, 0]	n/a	FR1	0	R1318N
1691.767	0.141	1693164	RETRIEVAL_ORIENT_END	n/a	n/a	n/a	-999	13	[0, 0, 0]	n/a	FR1	0	R1318N
1691.908	0.628	1693305	REC_WORD	0.628	n/a	JUDGE	1	13	[0, 0, 0]	n/a	FR1	0	R1318N
1692.536	0.492	1693933	REC_WORD	0.492	n/a	GLASS	2	13	[0, 0, 0]	n/a	FR1	0	R1318N
1693.028	0.753	1694425	REC_WORD	0.753	n/a	STEAM	3	13	[0, 0, 0]	n/a	FR1	0	R1318N
1693.781	0.59	1695178	REC_WORD	0.59	n/a	WOOD	4	13	[0, 0, 0]	n/a	FR1	0	R1318N
1694.371	1.922	1695768	REC_WORD_VV	1.922	n/a	<>	-999	13	[0, 0, 0]	n/a	FR1	0	R1318N
1696.293	2.114	1697690	REC_WORD	2.114	n/a	FILM	6	13	[0, 0, 0]	n/a	FR1	0	R1318N
1698.407	1.659	1699804	REC_WORD	1.659	n/a	MOLE	5	13	[0, 0, 0]	n/a	FR1	0	R1318N
1700.066	0.903	1701463	REC_WORD	0.903	n/a	ELF	8	13	[0, 0, 0]	n/a	FR1	0	R1318N
1700.969	5.76	1702366	REC_WORD	5.76	n/a	BANK	7	13	[0, 0, 0]	n/a	FR1	0	R1318N
1706.729	15.047	1708126	REC_WORD	15.047	n/a	SEED	-999	13	[0, 0, 0]	n/a	FR1	0	R1318N
1721.776	0.0	1723172	REC_END	n/a	n/a	n/a	-999	13	[0, 0, 0]	n/a	FR1	0	R1318N
1721.776	0.014	1723172	TRIAL_END	n/a	n/a	n/a	-999	13	[0, 0, 0]	n/a	FR1	0	R1318N
1721.79	0.0	1723186	TRIAL_START	n/a	n/a	n/a	-999	14	[0, 0, 0]	n/a	FR1	0	R1318N
1721.79	0.0	1723186	TRIAL	n/a	n/a	n/a	-999	14	[0, 0, 0]	n/a	FR1	0	R1318N
1721.79	1.865	1723186	WAITING_START	n/a	n/a	n/a	-999	14	[0, 0, 0]	n/a	FR1	0	R1318N
1723.655	0.001	1725051	WAITING_END	n/a	n/a	n/a	-999	14	[0, 0, 0]	n/a	FR1	0	R1318N
1723.656	10.429	1725052	COUNTDOWN_START	n/a	n/a	n/a	-999	14	[0, 0, 0]	n/a	FR1	0	R1318N
1734.085	0.0	1735481	ORIENT_START	n/a	n/a	n/a	-999	14	[0, 0, 0]	n/a	FR1	0	R1318N
1734.085	1.19	1735481	COUNTDOWN_END	n/a	n/a	n/a	-999	14	[0, 0, 0]	n/a	FR1	0	R1318N
1735.275	0.0	1736671	ORIENT_END	n/a	n/a	n/a	-999	14	[0, 0, 0]	n/a	FR1	0	R1318N
1735.275	1.016	1736671	ENCODING_START	n/a	n/a	n/a	-999	14	[0, 0, 0]	n/a	FR1	0	R1318N
1736.291	1.633	1737687	WORD	n/a	n/a	CORD	1	14	[0, 0, 0]	n/a	FR1	0	R1318N
1737.924	0.85	1739320	WORD_OFF	n/a	n/a	CORD	1	14	[0, 0, 0]	n/a	FR1	0	R1318N
1738.774	1.635	1740170	WORD	n/a	n/a	COIN	2	14	[0, 0, 0]	n/a	FR1	0	R1318N
1740.409	0.845	1741805	WORD_OFF	n/a	n/a	COIN	2	14	[0, 0, 0]	n/a	FR1	0	R1318N
1741.254	1.621	1742650	WORD	n/a	n/a	STRAW	3	14	[0, 0, 0]	n/a	FR1	0	R1318N
1742.875	1.136	1744271	WORD_OFF	n/a	n/a	STRAW	3	14	[0, 0, 0]	n/a	FR1	0	R1318N
1744.011	1.631	1745407	WORD	n/a	n/a	APE	4	14	[0, 0, 0]	n/a	FR1	0	R1318N
1745.642	0.925	1747038	WORD_OFF	n/a	n/a	APE	4	14	[0, 0, 0]	n/a	FR1	0	R1318N
1746.567	1.625	1747963	WORD	n/a	n/a	BRICK	5	14	[0, 0, 0]	n/a	FR1	0	R1318N
1748.192	1.042	1749587	WORD_OFF	n/a	n/a	BRICK	5	14	[0, 0, 0]	n/a	FR1	0	R1318N
1749.234	1.626	1750629	WORD	n/a	n/a	FENCE	6	14	[0, 0, 0]	n/a	FR1	0	R1318N
1750.86	0.81	1752255	WORD_OFF	n/a	n/a	FENCE	6	14	[0, 0, 0]	n/a	FR1	0	R1318N
1751.67	1.625	1753065	WORD	n/a	n/a	KEY	7	14	[0, 0, 0]	n/a	FR1	0	R1318N
1753.295	0.902	1754690	WORD_OFF	n/a	n/a	KEY	7	14	[0, 0, 0]	n/a	FR1	0	R1318N
1754.197	1.63	1755592	WORD	n/a	n/a	ICE	8	14	[0, 0, 0]	n/a	FR1	0	R1318N
1755.827	1.09	1757222	WORD_OFF	n/a	n/a	ICE	8	14	[0, 0, 0]	n/a	FR1	0	R1318N
1756.917	1.612	1758312	WORD	n/a	n/a	PASTE	9	14	[0, 0, 0]	n/a	FR1	0	R1318N
1758.529	1.094	1759924	WORD_OFF	n/a	n/a	PASTE	9	14	[0, 0, 0]	n/a	FR1	0	R1318N
1759.623	1.623	1761018	WORD	n/a	n/a	MAZE	10	14	[0, 0, 0]	n/a	FR1	0	R1318N
1761.246	1.045	1762641	WORD_OFF	n/a	n/a	MAZE	10	14	[0, 0, 0]	n/a	FR1	0	R1318N
1762.291	1.621	1763686	WORD	n/a	n/a	BRANCH	11	14	[0, 0, 0]	n/a	FR1	0	R1318N
1763.912	0.782	1765307	WORD_OFF	n/a	n/a	BRANCH	11	14	[0, 0, 0]	n/a	FR1	0	R1318N
1764.694	1.636	1766089	WORD	n/a	n/a	SHIELD	12	14	[0, 0, 0]	n/a	FR1	0	R1318N
1766.33	0.0	1767725	WORD_OFF	n/a	n/a	SHIELD	12	14	[0, 0, 0]	n/a	FR1	0	R1318N
1766.33	0.001	1767725	ENCODING_END	n/a	n/a	n/a	-999	14	[0, 0, 0]	n/a	FR1	0	R1318N
1766.331	0.0	1767726	DISTRACT_START	n/a	n/a	n/a	-999	14	[0, 0, 0]	n/a	FR1	0	R1318N
1766.331	0.015	1767726	START	n/a	n/a	n/a	-999	14	[-999, -999, -999]	n/a	FR1	0	R1318N
1766.346	4.567	1767741	PROB	4.567	n/a	n/a	-999	14	[6, 3, 9]	18	FR1	0	R1318N
1770.913	2.917	1772308	PROB	2.917	n/a	n/a	-999	14	[5, 5, 4]	14	FR1	0	R1318N
1773.83	2.917	1775225	PROB	2.917	n/a	n/a	-999	14	[2, 1, 7]	10	FR1	0	R1318N
1776.747	3.351	1778142	PROB	3.351	n/a	n/a	-999	14	[9, 2, 2]	13	FR1	0	R1318N
1780.098	5.767	1781492	PROB	5.767	n/a	n/a	-999	14	[3, 9, 7]	19	FR1	0	R1318N
1785.865	2.989	1787259	PROB	2.989	n/a	n/a	-999	14	[6, 8, 2]	16	FR1	0	R1318N
1788.854	0.012	1790248	STOP	n/a	n/a	n/a	-999	14	[-999, -999, -999]	n/a	FR1	0	R1318N
1788.866	0.52	1790260	DISTRACT_END	n/a	n/a	n/a	-999	14	[0, 0, 0]	n/a	FR1	0	R1318N
1789.386	1.63	1790780	RETRIEVAL_ORIENT_START	n/a	n/a	n/a	-999	14	[0, 0, 0]	n/a	FR1	0	R1318N
1791.016	0.001	1792410	RETRIEVAL_ORIENT_END	n/a	n/a	n/a	-999	14	[0, 0, 0]	n/a	FR1	0	R1318N
1791.017	0.596	1792411	REC_START	n/a	n/a	n/a	-999	14	[0, 0, 0]	n/a	FR1	0	R1318N
1791.613	0.576	1793007	REC_WORD	0.576	n/a	CORD	1	14	[0, 0, 0]	n/a	FR1	0	R1318N
1792.189	0.438	1793583	REC_WORD	0.438	n/a	COIN	2	14	[0, 0, 0]	n/a	FR1	0	R1318N
1792.627	0.66	1794021	REC_WORD	0.66	n/a	STRAW	3	14	[0, 0, 0]	n/a	FR1	0	R1318N
1793.287	0.624	1794681	REC_WORD	0.624	n/a	APE	4	14	[0, 0, 0]	n/a	FR1	0	R1318N
1793.911	0.255	1795305	REC_WORD	0.255	n/a	BRICK	5	14	[0, 0, 0]	n/a	FR1	0	R1318N
1794.166	1.343	1795560	REC_WORD	1.343	n/a	FENCE	6	14	[0, 0, 0]	n/a	FR1	0	R1318N
1795.509	7.586	1796903	REC_WORD	7.586	n/a	MAZE	10	14	[0, 0, 0]	n/a	FR1	0	R1318N
1803.095	17.932	1804489	REC_WORD	17.932	n/a	KEY	7	14	[0, 0, 0]	n/a	FR1	0	R1318N
1821.027	0.0	1822420	REC_END	n/a	n/a	n/a	-999	14	[0, 0, 0]	n/a	FR1	0	R1318N
1821.027	0.014	1822420	TRIAL_END	n/a	n/a	n/a	-999	14	[0, 0, 0]	n/a	FR1	0	R1318N
1821.041	0.0	1822434	TRIAL_START	n/a	n/a	n/a	-999	15	[0, 0, 0]	n/a	FR1	0	R1318N
1821.041	0.0	1822434	TRIAL	n/a	n/a	n/a	-999	15	[0, 0, 0]	n/a	FR1	0	R1318N
1821.041	1.631	1822434	WAITING_START	n/a	n/a	n/a	-999	15	[0, 0, 0]	n/a	FR1	0	R1318N
1822.672	0.0	1824065	WAITING_END	n/a	n/a	n/a	-999	15	[0, 0, 0]	n/a	FR1	0	R1318N
1822.672	10.428	1824065	COUNTDOWN_START	n/a	n/a	n/a	-999	15	[0, 0, 0]	n/a	FR1	0	R1318N
1833.1	0.0	1834493	COUNTDOWN_END	n/a	n/a	n/a	-999	15	[0, 0, 0]	n/a	FR1	0	R1318N
1833.1	1.04	1834493	ORIENT_START	n/a	n/a	n/a	-999	15	[0, 0, 0]	n/a	FR1	0	R1318N
1834.14	0.0	1835533	ENCODING_START	n/a	n/a	n/a	-999	15	[0, 0, 0]	n/a	FR1	0	R1318N
1834.14	1.052	1835533	ORIENT_END	n/a	n/a	n/a	-999	15	[0, 0, 0]	n/a	FR1	0	R1318N
1835.192	1.632	1836585	WORD	n/a	n/a	JEEP	1	15	[0, 0, 0]	n/a	FR1	0	R1318N
1836.824	0.941	1838217	WORD_OFF	n/a	n/a	JEEP	1	15	[0, 0, 0]	n/a	FR1	0	R1318N
1837.765	1.627	1839157	WORD	n/a	n/a	SPARK	2	15	[0, 0, 0]	n/a	FR1	0	R1318N
1839.392	0.994	1840784	WORD_OFF	n/a	n/a	SPARK	2	15	[0, 0, 0]	n/a	FR1	0	R1318N
1840.386	1.622	1841778	WORD	n/a	n/a	POND	3	15	[0, 0, 0]	n/a	FR1	0	R1318N
1842.008	0.977	1843400	WORD_OFF	n/a	n/a	POND	3	15	[0, 0, 0]	n/a	FR1	0	R1318N
1842.985	1.608	1844377	WORD	n/a	n/a	RICE	4	15	[0, 0, 0]	n/a	FR1	0	R1318N
1844.593	0.792	1845985	WORD_OFF	n/a	n/a	RICE	4	15	[0, 0, 0]	n/a	FR1	0	R1318N
1845.385	1.624	1846777	WORD	n/a	n/a	WORM	5	15	[0, 0, 0]	n/a	FR1	0	R1318N
1847.009	0.897	1848401	WORD_OFF	n/a	n/a	WORM	5	15	[0, 0, 0]	n/a	FR1	0	R1318N
1847.906	1.621	1849298	WORD	n/a	n/a	BEAK	6	15	[0, 0, 0]	n/a	FR1	0	R1318N
1849.527	1.126	1850919	WORD_OFF	n/a	n/a	BEAK	6	15	[0, 0, 0]	n/a	FR1	0	R1318N
1850.653	1.624	1852045	WORD	n/a	n/a	FLAG	7	15	[0, 0, 0]	n/a	FR1	0	R1318N
1852.277	0.772	1853669	WORD_OFF	n/a	n/a	FLAG	7	15	[0, 0, 0]	n/a	FR1	0	R1318N
1853.049	1.628	1854441	WORD	n/a	n/a	TOAD	8	15	[0, 0, 0]	n/a	FR1	0	R1318N
1854.677	1.028	1856069	WORD_OFF	n/a	n/a	TOAD	8	15	[0, 0, 0]	n/a	FR1	0	R1318N
1855.705	1.606	1857097	WORD	n/a	n/a	DOG	9	15	[0, 0, 0]	n/a	FR1	0	R1318N
1857.311	1.13	1858703	WORD_OFF	n/a	n/a	DOG	9	15	[0, 0, 0]	n/a	FR1	0	R1318N
1858.441	1.62	1859833	WORD	n/a	n/a	POLE	10	15	[0, 0, 0]	n/a	FR1	0	R1318N
1860.061	0.763	1861453	WORD_OFF	n/a	n/a	POLE	10	15	[0, 0, 0]	n/a	FR1	0	R1318N
1860.824	1.622	1862216	WORD	n/a	n/a	SIGN	11	15	[0, 0, 0]	n/a	FR1	0	R1318N
1862.446	0.931	1863838	WORD_OFF	n/a	n/a	SIGN	11	15	[0, 0, 0]	n/a	FR1	0	R1318N
1863.377	1.635	1864769	WORD	n/a	n/a	ROAD	12	15	[0, 0, 0]	n/a	FR1	0	R1318N
1865.012	0.0	1866404	WORD_OFF	n/a	n/a	ROAD	12	15	[0, 0, 0]	n/a	FR1	0	R1318N
1865.012	0.0	1866404	ENCODING_END	n/a	n/a	n/a	-999	15	[0, 0, 0]	n/a	FR1	0	R1318N
1865.012	0.001	1866404	DISTRACT_START	n/a	n/a	n/a	-999	15	[0, 0, 0]	n/a	FR1	0	R1318N
1865.013	0.015	1866405	START	n/a	n/a	n/a	-999	15	[-999, -999, -999]	n/a	FR1	0	R1318N
1865.028	2.634	1866420	PROB	2.634	n/a	n/a	-999	15	[1, 7, 7]	15	FR1	0	R1318N
1867.662	3.484	1869053	PROB	3.484	n/a	n/a	-999	15	[3, 7, 6]	16	FR1	0	R1318N
1871.146	5.901	1872537	PROB	5.901	n/a	n/a	-999	15	[3, 9, 6]	18	FR1	0	R1318N
1877.047	3.268	1878438	PROB	3.268	n/a	n/a	-999	15	[8, 3, 6]	17	FR1	0	R1318N
1880.315	2.117	1881706	PROB	2.117	n/a	n/a	-999	15	[1, 4, 4]	9	FR1	0	R1318N
1882.432	2.758	1883823	PROB	2.758	n/a	n/a	-999	15	[3, 1, 3]	7	FR1	0	R1318N
1885.19	0.008	1886581	STOP	n/a	n/a	n/a	-999	15	[-999, -999, -999]	n/a	FR1	0	R1318N
1885.198	0.54	1886589	DISTRACT_END	n/a	n/a	n/a	-999	15	[0, 0, 0]	n/a	FR1	0	R1318N
1885.738	1.645	1887129	RETRIEVAL_ORIENT_START	n/a	n/a	n/a	-999	15	[0, 0, 0]	n/a	FR1	0	R1318N
1887.383	0.001	1888774	RETRIEVAL_ORIENT_END	n/a	n/a	n/a	-999	15	[0, 0, 0]	n/a	FR1	0	R1318N
1887.384	0.391	1888775	REC_START	n/a	n/a	n/a	-999	15	[0, 0, 0]	n/a	FR1	0	R1318N
1887.775	0.337	1889166	REC_WORD	0.337	n/a	JEEP	1	15	[0, 0, 0]	n/a	FR1	0	R1318N
1888.112	1.028	1889503	REC_WORD	1.028	n/a	SPARK	2	15	[0, 0, 0]	n/a	FR1	0	R1318N
1889.14	1.376	1890531	REC_WORD	1.376	n/a	POND	3	15	[0, 0, 0]	n/a	FR1	0	R1318N
1890.516	1.672	1891907	REC_WORD	1.672	n/a	BEAK	6	15	[0, 0, 0]	n/a	FR1	0	R1318N
1892.188	25.204	1893579	REC_WORD	25.204	n/a	RICE	4	15	[0, 0, 0]	n/a	FR1	0	R1318N
1917.392	0.001	1918782	REC_END	n/a	n/a	n/a	-999	15	[0, 0, 0]	n/a	FR1	0	R1318N
1917.393	0.013	1918783	TRIAL_END	n/a	n/a	n/a	-999	15	[0, 0, 0]	n/a	FR1	0	R1318N
1917.406	0.001	1918796	TRIAL_START	n/a	n/a	n/a	-999	16	[0, 0, 0]	n/a	FR1	0	R1318N
1917.407	0.0	1918797	WAITING_START	n/a	n/a	n/a	-999	16	[0, 0, 0]	n/a	FR1	0	R1318N
1917.407	1.78	1918797	TRIAL	n/a	n/a	n/a	-999	16	[0, 0, 0]	n/a	FR1	0	R1318N
1919.187	0.001	1920577	WAITING_END	n/a	n/a	n/a	-999	16	[0, 0, 0]	n/a	FR1	0	R1318N
1919.188	10.428	1920578	COUNTDOWN_START	n/a	n/a	n/a	-999	16	[0, 0, 0]	n/a	FR1	0	R1318N
1929.616	0.001	1931005	COUNTDOWN_END	n/a	n/a	n/a	-999	16	[0, 0, 0]	n/a	FR1	0	R1318N
1929.617	1.222	1931006	ORIENT_START	n/a	n/a	n/a	-999	16	[0, 0, 0]	n/a	FR1	0	R1318N
1930.839	0.001	1932228	ORIENT_END	n/a	n/a	n/a	-999	16	[0, 0, 0]	n/a	FR1	0	R1318N
1930.84	0.855	1932229	ENCODING_START	n/a	n/a	n/a	-999	16	[0, 0, 0]	n/a	FR1	0	R1318N
1931.695	1.629	1933084	WORD	n/a	n/a	LAMP	1	16	[0, 0, 0]	n/a	FR1	0	R1318N
1933.324	0.898	1934713	WORD_OFF	n/a	n/a	LAMP	1	16	[0, 0, 0]	n/a	FR1	0	R1318N
1934.222	1.635	1935611	WORD	n/a	n/a	PIG	2	16	[0, 0, 0]	n/a	FR1	0	R1318N
1935.857	0.875	1937246	WORD_OFF	n/a	n/a	PIG	2	16	[0, 0, 0]	n/a	FR1	0	R1318N
1936.732	1.626	1938121	WORD	n/a	n/a	ZOO	3	16	[0, 0, 0]	n/a	FR1	0	R1318N
1938.358	1.08	1939747	WORD_OFF	n/a	n/a	ZOO	3	16	[0, 0, 0]	n/a	FR1	0	R1318N
1939.438	1.636	1940827	WORD	n/a	n/a	DEER	4	16	[0, 0, 0]	n/a	FR1	0	R1318N
1941.074	1.079	1942463	WORD_OFF	n/a	n/a	DEER	4	16	[0, 0, 0]	n/a	FR1	0	R1318N
1942.153	1.622	1943542	WORD	n/a	n/a	DITCH	5	16	[0, 0, 0]	n/a	FR1	0	R1318N
1943.775	1.056	1945164	WORD_OFF	n/a	n/a	DITCH	5	16	[0, 0, 0]	n/a	FR1	0	R1318N
1944.831	1.629	1946220	WORD	n/a	n/a	SHIP	6	16	[0, 0, 0]	n/a	FR1	0	R1318N
1946.46	1.05	1947849	WORD_OFF	n/a	n/a	SHIP	6	16	[0, 0, 0]	n/a	FR1	0	R1318N
1947.51	1.632	1948899	WORD	n/a	n/a	SAIL	7	16	[0, 0, 0]	n/a	FR1	0	R1318N
1949.142	0.834	1950531	WORD_OFF	n/a	n/a	SAIL	7	16	[0, 0, 0]	n/a	FR1	0	R1318N
1949.976	1.634	1951365	WORD	n/a	n/a	RAT	8	16	[0, 0, 0]	n/a	FR1	0	R1318N
1951.61	1.146	1952999	WORD_OFF	n/a	n/a	RAT	8	16	[0, 0, 0]	n/a	FR1	0	R1318N
1952.756	1.638	1954145	WORD	n/a	n/a	SWAMP	9	16	[0, 0, 0]	n/a	FR1	0	R1318N
1954.394	0.922	1955783	WORD_OFF	n/a	n/a	SWAMP	9	16	[0, 0, 0]	n/a	FR1	0	R1318N
1955.316	1.628	1956705	WORD	n/a	n/a	DOCK	10	16	[0, 0, 0]	n/a	FR1	0	R1318N
1956.944	0.891	1958333	WORD_OFF	n/a	n/a	DOCK	10	16	[0, 0, 0]	n/a	FR1	0	R1318N
1957.835	1.627	1959223	WORD	n/a	n/a	COUCH	11	16	[0, 0, 0]	n/a	FR1	0	R1318N
1959.462	0.803	1960850	WORD_OFF	n/a	n/a	COUCH	11	16	[0, 0, 0]	n/a	FR1	0	R1318N
1960.265	1.629	1961653	WORD	n/a	n/a	PANTS	12	16	[0, 0, 0]	n/a	FR1	0	R1318N
1961.894	0.001	1963282	WORD_OFF	n/a	n/a	PANTS	12	16	[0, 0, 0]	n/a	FR1	0	R1318N
1961.895	0.0	1963283	ENCODING_END	n/a	n/a	n/a	-999	16	[0, 0, 0]	n/a	FR1	0	R1318N
1961.895	0.0	1963283	DISTRACT_START	n/a	n/a	n/a	-999	16	[0, 0, 0]	n/a	FR1	0	R1318N
1961.895	0.016	1963283	START	n/a	n/a	n/a	-999	16	[-999, -999, -999]	n/a	FR1	0	R1318N
1961.911	5.385	1963299	PROB	5.385	n/a	n/a	-999	16	[6, 9, 2]	17	FR1	0	R1318N
1967.296	8.634	1968684	PROB	8.634	n/a	n/a	-999	16	[8, 6, 1]	15	FR1	0	R1318N
1975.93	5.234	1977318	PROB	5.234	n/a	n/a	-999	16	[3, 6, 9]	18	FR1	0	R1318N
1981.164	7.498	1982552	PROB	7.498	n/a	n/a	-999	16	[3, 5, 9]	17	FR1	0	R1318N
1988.662	0.02	1990049	STOP	n/a	n/a	n/a	-999	16	[-999, -999, -999]	n/a	FR1	0	R1318N
1988.682	0.592	1990069	DISTRACT_END	n/a	n/a	n/a	-999	16	[0, 0, 0]	n/a	FR1	0	R1318N
1989.274	1.658	1990661	RETRIEVAL_ORIENT_START	n/a	n/a	n/a	-999	16	[0, 0, 0]	n/a	FR1	0	R1318N
1990.932	0.001	1992319	RETRIEVAL_ORIENT_END	n/a	n/a	n/a	-999	16	[0, 0, 0]	n/a	FR1	0	R1318N
1990.933	0.387	1992320	REC_START	n/a	n/a	n/a	-999	16	[0, 0, 0]	n/a	FR1	0	R1318N
1991.32	0.714	1992707	REC_WORD	0.714	n/a	LAMP	1	16	[0, 0, 0]	n/a	FR1	0	R1318N
1992.034	0.923	1993421	REC_WORD	0.923	n/a	DEER	4	16	[0, 0, 0]	n/a	FR1	0	R1318N
1992.957	1.551	1994344	REC_WORD	1.551	n/a	DITCH	5	16	[0, 0, 0]	n/a	FR1	0	R1318N
1994.508	4.583	1995895	REC_WORD	4.583	n/a	SWAMP	9	16	[0, 0, 0]	n/a	FR1	0	R1318N
1999.091	1.223	2000478	REC_WORD	1.223	n/a	PIG	2	16	[0, 0, 0]	n/a	FR1	0	R1318N
2000.314	20.629	2001701	REC_WORD	20.629	n/a	RAT	8	16	[0, 0, 0]	n/a	FR1	0	R1318N
2020.943	0.0	2022329	REC_END	n/a	n/a	n/a	-999	16	[0, 0, 0]	n/a	FR1	0	R1318N
2020.943	0.013	2022329	TRIAL_END	n/a	n/a	n/a	-999	16	[0, 0, 0]	n/a	FR1	0	R1318N
2020.956	0.001	2022342	TRIAL_START	n/a	n/a	n/a	-999	17	[0, 0, 0]	n/a	FR1	0	R1318N
2020.957	0.0	2022343	TRIAL	n/a	n/a	n/a	-999	17	[0, 0, 0]	n/a	FR1	0	R1318N
2020.957	1.565	2022343	WAITING_START	n/a	n/a	n/a	-999	17	[0, 0, 0]	n/a	FR1	0	R1318N
2022.522	0.001	2023908	WAITING_END	n/a	n/a	n/a	-999	17	[0, 0, 0]	n/a	FR1	0	R1318N
2022.523	10.428	2023909	COUNTDOWN_START	n/a	n/a	n/a	-999	17	[0, 0, 0]	n/a	FR1	0	R1318N
2032.951	0.0	2034337	COUNTDOWN_END	n/a	n/a	n/a	-999	17	[0, 0, 0]	n/a	FR1	0	R1318N
2032.951	1.139	2034337	ORIENT_START	n/a	n/a	n/a	-999	17	[0, 0, 0]	n/a	FR1	0	R1318N
2034.09	0.0	2035476	ORIENT_END	n/a	n/a	n/a	-999	17	[0, 0, 0]	n/a	FR1	0	R1318N
2034.09	0.854	2035476	ENCODING_START	n/a	n/a	n/a	-999	17	[0, 0, 0]	n/a	FR1	0	R1318N
2034.944	1.614	2036330	WORD	n/a	n/a	TENT	1	17	[0, 0, 0]	n/a	FR1	0	R1318N
2036.558	1.008	2037944	WORD_OFF	n/a	n/a	TENT	1	17	[0, 0, 0]	n/a	FR1	0	R1318N
2037.566	1.624	2038952	WORD	n/a	n/a	DOLL	2	17	[0, 0, 0]	n/a	FR1	0	R1318N
2039.19	0.888	2040576	WORD_OFF	n/a	n/a	DOLL	2	17	[0, 0, 0]	n/a	FR1	0	R1318N
2040.078	1.613	2041464	WORD	n/a	n/a	SEED	3	17	[0, 0, 0]	n/a	FR1	0	R1318N
2041.691	0.779	2043077	WORD_OFF	n/a	n/a	SEED	3	17	[0, 0, 0]	n/a	FR1	0	R1318N
2042.47	1.621	2043856	WORD	n/a	n/a	HOLE	4	17	[0, 0, 0]	n/a	FR1	0	R1318N
2044.091	0.878	2045477	WORD_OFF	n/a	n/a	HOLE	4	17	[0, 0, 0]	n/a	FR1	0	R1318N
2044.969	1.607	2046355	WORD	n/a	n/a	CLIFF	5	17	[0, 0, 0]	n/a	FR1	0	R1318N
2046.576	1.017	2047962	WORD_OFF	n/a	n/a	CLIFF	5	17	[0, 0, 0]	n/a	FR1	0	R1318N
2047.593	1.633	2048978	WORD	n/a	n/a	LEAF	6	17	[0, 0, 0]	n/a	FR1	0	R1318N
2049.226	0.834	2050611	WORD_OFF	n/a	n/a	LEAF	6	17	[0, 0, 0]	n/a	FR1	0	R1318N
2050.06	1.632	2051445	WORD	n/a	n/a	CALF	7	17	[0, 0, 0]	n/a	FR1	0	R1318N
2051.692	1.012	2053077	WORD_OFF	n/a	n/a	CALF	7	17	[0, 0, 0]	n/a	FR1	0	R1318N
2052.704	1.607	2054089	WORD	n/a	n/a	HEART	8	17	[0, 0, 0]	n/a	FR1	0	R1318N
2054.311	0.955	2055696	WORD_OFF	n/a	n/a	HEART	8	17	[0, 0, 0]	n/a	FR1	0	R1318N
2055.266	1.627	2056651	WORD	n/a	n/a	VEST	9	17	[0, 0, 0]	n/a	FR1	0	R1318N
2056.893	1.089	2058278	WORD_OFF	n/a	n/a	VEST	9	17	[0, 0, 0]	n/a	FR1	0	R1318N
2057.982	1.613	2059367	WORD	n/a	n/a	JAR	10	17	[0, 0, 0]	n/a	FR1	0	R1318N
2059.595	0.902	2060980	WORD_OFF	n/a	n/a	JAR	10	17	[0, 0, 0]	n/a	FR1	0	R1318N
2060.497	1.631	2061882	WORD	n/a	n/a	PLANE	11	17	[0, 0, 0]	n/a	FR1	0	R1318N
2062.128	1.123	2063513	WORD_OFF	n/a	n/a	PLANE	11	17	[0, 0, 0]	n/a	FR1	0	R1318N
2063.251	1.627	2064636	WORD	n/a	n/a	MOOSE	12	17	[0, 0, 0]	n/a	FR1	0	R1318N
2064.878	0.0	2066263	ENCODING_END	n/a	n/a	n/a	-999	17	[0, 0, 0]	n/a	FR1	0	R1318N
2064.878	0.001	2066263	WORD_OFF	n/a	n/a	MOOSE	12	17	[0, 0, 0]	n/a	FR1	0	R1318N
2064.879	0.0	2066264	DISTRACT_START	n/a	n/a	n/a	-999	17	[0, 0, 0]	n/a	FR1	0	R1318N
2064.879	0.015	2066264	START	n/a	n/a	n/a	-999	17	[-999, -999, -999]	n/a	FR1	0	R1318N
2064.894	2.702	2066279	PROB	2.702	n/a	n/a	-999	17	[7, 7, 5]	19	FR1	0	R1318N
2067.596	2.116	2068981	PROB	2.116	n/a	n/a	-999	17	[5, 5, 5]	15	FR1	0	R1318N
2069.712	5.501	2071097	PROB	5.501	n/a	n/a	-999	17	[7, 8, 5]	20	FR1	0	R1318N
2075.213	4.784	2076598	PROB	4.784	n/a	n/a	-999	17	[6, 3, 8]	17	FR1	0	R1318N
2079.997	6.314	2081381	PROB	6.314	n/a	n/a	-999	17	[7, 5, 9]	21	FR1	0	R1318N
2086.311	0.022	2087695	STOP	n/a	n/a	n/a	-999	17	[-999, -999, -999]	n/a	FR1	0	R1318N
2086.333	0.619	2087717	DISTRACT_END	n/a	n/a	n/a	-999	17	[0, 0, 0]	n/a	FR1	0	R1318N
2086.952	1.598	2088336	RETRIEVAL_ORIENT_START	n/a	n/a	n/a	-999	17	[0, 0, 0]	n/a	FR1	0	R1318N
2088.55	0.0	2089934	RETRIEVAL_ORIENT_END	n/a	n/a	n/a	-999	17	[0, 0, 0]	n/a	FR1	0	R1318N
2088.55	1.28	2089934	REC_START	n/a	n/a	n/a	-999	17	[0, 0, 0]	n/a	FR1	0	R1318N
2089.83	0.739	2091214	REC_WORD	0.739	n/a	TENT	1	17	[0, 0, 0]	n/a	FR1	0	R1318N
2090.569	1.607	2091953	REC_WORD	1.607	n/a	SEED	3	17	[0, 0, 0]	n/a	FR1	0	R1318N
2092.176	1.543	2093560	REC_WORD	1.543	n/a	CLIFF	5	17	[0, 0, 0]	n/a	FR1	0	R1318N
2093.719	4.47	2095103	REC_WORD	4.47	n/a	SEAT	-999	17	[0, 0, 0]	n/a	FR1	0	R1318N
2098.189	0.728	2099573	REC_WORD	0.728	n/a	CALF	7	17	[0, 0, 0]	n/a	FR1	0	R1318N
2098.917	8.547	2100301	REC_WORD	8.547	n/a	JAR	10	17	[0, 0, 0]	n/a	FR1	0	R1318N
2107.464	0.548	2108847	REC_WORD	0.548	n/a	VEST	9	17	[0, 0, 0]	n/a	FR1	0	R1318N
2108.012	6.394	2109395	REC_WORD	6.394	n/a	BOOT	-999	17	[0, 0, 0]	n/a	FR1	0	R1318N
2114.406	4.154	2115789	REC_WORD	4.154	n/a	HEART	8	17	[0, 0, 0]	n/a	FR1	0	R1318N
2118.56	0.0	2119943	REC_END	n/a	n/a	n/a	-999	17	[0, 0, 0]	n/a	FR1	0	R1318N
2118.56	0.014	2119943	TRIAL_END	n/a	n/a	n/a	-999	17	[0, 0, 0]	n/a	FR1	0	R1318N
2118.574	0.0	2119957	TRIAL_START	n/a	n/a	n/a	-999	18	[0, 0, 0]	n/a	FR1	0	R1318N
2118.574	0.0	2119957	TRIAL	n/a	n/a	n/a	-999	18	[0, 0, 0]	n/a	FR1	0	R1318N
2118.574	1.714	2119957	WAITING_START	n/a	n/a	n/a	-999	18	[0, 0, 0]	n/a	FR1	0	R1318N
2120.288	0.001	2121671	WAITING_END	n/a	n/a	n/a	-999	18	[0, 0, 0]	n/a	FR1	0	R1318N
2120.289	10.428	2121672	COUNTDOWN_START	n/a	n/a	n/a	-999	18	[0, 0, 0]	n/a	FR1	0	R1318N
2130.717	0.001	2132100	COUNTDOWN_END	n/a	n/a	n/a	-999	18	[0, 0, 0]	n/a	FR1	0	R1318N
2130.718	1.038	2132101	ORIENT_START	n/a	n/a	n/a	-999	18	[0, 0, 0]	n/a	FR1	0	R1318N
2131.756	0.0	2133139	ORIENT_END	n/a	n/a	n/a	-999	18	[0, 0, 0]	n/a	FR1	0	R1318N
2131.756	0.86	2133139	ENCODING_START	n/a	n/a	n/a	-999	18	[0, 0, 0]	n/a	FR1	0	R1318N
2132.616	1.625	2133999	WORD	n/a	n/a	PIPE	1	18	[0, 0, 0]	n/a	FR1	0	R1318N
2134.241	1.004	2135624	WORD_OFF	n/a	n/a	PIPE	1	18	[0, 0, 0]	n/a	FR1	0	R1318N
2135.245	1.628	2136628	WORD	n/a	n/a	WHEEL	2	18	[0, 0, 0]	n/a	FR1	0	R1318N
2136.873	0.922	2138255	WORD_OFF	n/a	n/a	WHEEL	2	18	[0, 0, 0]	n/a	FR1	0	R1318N
2137.795	1.63	2139177	WORD	n/a	n/a	MULE	3	18	[0, 0, 0]	n/a	FR1	0	R1318N
2139.425	1.051	2140807	WORD_OFF	n/a	n/a	MULE	3	18	[0, 0, 0]	n/a	FR1	0	R1318N
2140.476	1.631	2141858	WORD	n/a	n/a	SEA	4	18	[0, 0, 0]	n/a	FR1	0	R1318N
2142.107	0.874	2143489	WORD_OFF	n/a	n/a	SEA	4	18	[0, 0, 0]	n/a	FR1	0	R1318N
2142.981	1.628	2144363	WORD	n/a	n/a	PEA	5	18	[0, 0, 0]	n/a	FR1	0	R1318N
2144.609	1.121	2145991	WORD_OFF	n/a	n/a	PEA	5	18	[0, 0, 0]	n/a	FR1	0	R1318N
2145.73	1.629	2147112	WORD	n/a	n/a	PLATE	6	18	[0, 0, 0]	n/a	FR1	0	R1318N
2147.359	0.823	2148741	WORD_OFF	n/a	n/a	PLATE	6	18	[0, 0, 0]	n/a	FR1	0	R1318N
2148.182	1.627	2149564	WORD	n/a	n/a	JAIL	7	18	[0, 0, 0]	n/a	FR1	0	R1318N
2149.809	0.875	2151191	WORD_OFF	n/a	n/a	JAIL	7	18	[0, 0, 0]	n/a	FR1	0	R1318N
2150.684	1.609	2152066	WORD	n/a	n/a	WAND	8	18	[0, 0, 0]	n/a	FR1	0	R1318N
2152.293	0.981	2153675	WORD_OFF	n/a	n/a	WAND	8	18	[0, 0, 0]	n/a	FR1	0	R1318N
2153.274	1.636	2154656	WORD	n/a	n/a	SLUSH	9	18	[0, 0, 0]	n/a	FR1	0	R1318N
2154.91	1.107	2156292	WORD_OFF	n/a	n/a	SLUSH	9	18	[0, 0, 0]	n/a	FR1	0	R1318N
2156.017	1.61	2157399	WORD	n/a	n/a	WALL	10	18	[0, 0, 0]	n/a	FR1	0	R1318N
2157.627	0.912	2159009	WORD_OFF	n/a	n/a	WALL	10	18	[0, 0, 0]	n/a	FR1	0	R1318N
2158.539	1.622	2159921	WORD	n/a	n/a	BEACH	11	18	[0, 0, 0]	n/a	FR1	0	R1318N
2160.161	0.937	2161543	WORD_OFF	n/a	n/a	BEACH	11	18	[0, 0, 0]	n/a	FR1	0	R1318N
2161.098	1.63	2162480	WORD	n/a	n/a	BALL	12	18	[0, 0, 0]	n/a	FR1	0	R1318N
2162.728	0.0	2164110	DISTRACT_START	n/a	n/a	n/a	-999	18	[0, 0, 0]	n/a	FR1	0	R1318N
2162.728	0.0	2164110	ENCODING_END	n/a	n/a	n/a	-999	18	[0, 0, 0]	n/a	FR1	0	R1318N
2162.728	0.001	2164110	WORD_OFF	n/a	n/a	BALL	12	18	[0, 0, 0]	n/a	FR1	0	R1318N
2162.729	0.015	2164111	START	n/a	n/a	n/a	-999	18	[-999, -999, -999]	n/a	FR1	0	R1318N
2162.744	7.485	2164126	PROB	7.485	n/a	n/a	-999	18	[7, 9, 8]	23	FR1	0	R1318N
2170.229	3.401	2171610	PROB	3.401	n/a	n/a	-999	18	[1, 9, 9]	19	FR1	0	R1318N
2173.63	4.2	2175011	PROB	4.2	n/a	n/a	-999	18	[1, 3, 5]	9	FR1	0	R1318N
2177.83	4.084	2179211	PROB	4.084	n/a	n/a	-999	18	[5, 7, 5]	17	FR1	0	R1318N
2181.914	2.525	2183295	PROB	2.525	n/a	n/a	-999	18	[4, 6, 2]	12	FR1	0	R1318N
2184.439	0.01	2185820	STOP	n/a	n/a	n/a	-999	18	[-999, -999, -999]	n/a	FR1	0	R1318N
2184.449	0.567	2185830	DISTRACT_END	n/a	n/a	n/a	-999	18	[0, 0, 0]	n/a	FR1	0	R1318N
2185.016	1.583	2186397	RETRIEVAL_ORIENT_START	n/a	n/a	n/a	-999	18	[0, 0, 0]	n/a	FR1	0	R1318N
2186.599	0.001	2187980	RETRIEVAL_ORIENT_END	n/a	n/a	n/a	-999	18	[0, 0, 0]	n/a	FR1	0	R1318N
2186.6	0.493	2187981	REC_START	n/a	n/a	n/a	-999	18	[0, 0, 0]	n/a	FR1	0	R1318N
2187.093	0.694	2188474	REC_WORD	0.694	n/a	PIPE	1	18	[0, 0, 0]	n/a	FR1	0	R1318N
2187.787	0.686	2189168	REC_WORD	0.686	n/a	WHEEL	2	18	[0, 0, 0]	n/a	FR1	0	R1318N
2188.473	0.328	2189854	REC_WORD	0.328	n/a	MULE	3	18	[0, 0, 0]	n/a	FR1	0	R1318N
2188.801	0.632	2190182	REC_WORD	0.632	n/a	SEA	4	18	[0, 0, 0]	n/a	FR1	0	R1318N
2189.433	0.5	2190814	REC_WORD	0.5	n/a	PEA	5	18	[0, 0, 0]	n/a	FR1	0	R1318N
2189.933	2.089	2191314	REC_WORD	2.089	n/a	PLATE	6	18	[0, 0, 0]	n/a	FR1	0	R1318N
2192.022	2.15	2193403	REC_WORD	2.15	n/a	JAIL	7	18	[0, 0, 0]	n/a	FR1	0	R1318N
2194.172	5.683	2195553	REC_WORD	5.683	n/a	JAR	-999	18	[0, 0, 0]	n/a	FR1	0	R1318N
2199.855	16.754	2201235	REC_WORD	16.754	n/a	CASH	-999	18	[0, 0, 0]	n/a	FR1	0	R1318N
2216.609	0.001	2217989	REC_END	n/a	n/a	n/a	-999	18	[0, 0, 0]	n/a	FR1	0	R1318N
2216.61	0.013	2217990	TRIAL_END	n/a	n/a	n/a	-999	18	[0, 0, 0]	n/a	FR1	0	R1318N
2216.623	0.0	2218003	TRIAL_START	n/a	n/a	n/a	-999	19	[0, 0, 0]	n/a	FR1	0	R1318N
2216.623	0.001	2218003	TRIAL	n/a	n/a	n/a	-999	19	[0, 0, 0]	n/a	FR1	0	R1318N
2216.624	1.614	2218004	WAITING_START	n/a	n/a	n/a	-999	19	[0, 0, 0]	n/a	FR1	0	R1318N
2218.238	0.0	2219618	COUNTDOWN_START	n/a	n/a	n/a	-999	19	[0, 0, 0]	n/a	FR1	0	R1318N
2218.238	10.428	2219618	WAITING_END	n/a	n/a	n/a	-999	19	[0, 0, 0]	n/a	FR1	0	R1318N
2228.666	0.001	2230045	COUNTDOWN_END	n/a	n/a	n/a	-999	19	[0, 0, 0]	n/a	FR1	0	R1318N
2228.667	1.238	2230046	ORIENT_START	n/a	n/a	n/a	-999	19	[0, 0, 0]	n/a	FR1	0	R1318N
2229.905	0.001	2231284	ORIENT_END	n/a	n/a	n/a	-999	19	[0, 0, 0]	n/a	FR1	0	R1318N
2229.906	1.088	2231285	ENCODING_START	n/a	n/a	n/a	-999	19	[0, 0, 0]	n/a	FR1	0	R1318N
2230.994	1.613	2232373	WORD	n/a	n/a	CORN	1	19	[0, 0, 0]	n/a	FR1	0	R1318N
2232.607	0.854	2233986	WORD_OFF	n/a	n/a	CORN	1	19	[0, 0, 0]	n/a	FR1	0	R1318N
2233.461	1.629	2234840	WORD	n/a	n/a	CROW	2	19	[0, 0, 0]	n/a	FR1	0	R1318N
2235.09	1.062	2236469	WORD_OFF	n/a	n/a	CROW	2	19	[0, 0, 0]	n/a	FR1	0	R1318N
2236.152	1.638	2237531	WORD	n/a	n/a	HOOK	3	19	[0, 0, 0]	n/a	FR1	0	R1318N
2237.79	0.817	2239169	WORD_OFF	n/a	n/a	HOOK	3	19	[0, 0, 0]	n/a	FR1	0	R1318N
2238.607	1.634	2239986	WORD	n/a	n/a	JUICE	4	19	[0, 0, 0]	n/a	FR1	0	R1318N
2240.241	1.091	2241620	WORD_OFF	n/a	n/a	JUICE	4	19	[0, 0, 0]	n/a	FR1	0	R1318N
2241.332	1.625	2242711	WORD	n/a	n/a	DIME	5	19	[0, 0, 0]	n/a	FR1	0	R1318N
2242.957	1.141	2244336	WORD_OFF	n/a	n/a	DIME	5	19	[0, 0, 0]	n/a	FR1	0	R1318N
2244.098	1.627	2245477	WORD	n/a	n/a	STOOL	6	19	[0, 0, 0]	n/a	FR1	0	R1318N
2245.725	1.126	2247104	WORD_OFF	n/a	n/a	STOOL	6	19	[0, 0, 0]	n/a	FR1	0	R1318N
2246.851	1.625	2248230	WORD	n/a	n/a	CROWN	7	19	[0, 0, 0]	n/a	FR1	0	R1318N
2248.476	0.959	2249855	WORD_OFF	n/a	n/a	CROWN	7	19	[0, 0, 0]	n/a	FR1	0	R1318N
2249.435	1.624	2250814	WORD	n/a	n/a	SEAL	8	19	[0, 0, 0]	n/a	FR1	0	R1318N
2251.059	1.038	2252438	WORD_OFF	n/a	n/a	SEAL	8	19	[0, 0, 0]	n/a	FR1	0	R1318N
2252.097	1.629	2253476	WORD	n/a	n/a	SWORD	9	19	[0, 0, 0]	n/a	FR1	0	R1318N
2253.726	0.905	2255105	WORD_OFF	n/a	n/a	SWORD	9	19	[0, 0, 0]	n/a	FR1	0	R1318N
2254.631	1.63	2256010	WORD	n/a	n/a	BARN	10	19	[0, 0, 0]	n/a	FR1	0	R1318N
2256.261	1.1	2257639	WORD_OFF	n/a	n/a	BARN	10	19	[0, 0, 0]	n/a	FR1	0	R1318N
2257.361	1.632	2258739	WORD	n/a	n/a	PARK	11	19	[0, 0, 0]	n/a	FR1	0	R1318N
2258.993	1.083	2260371	WORD_OFF	n/a	n/a	PARK	11	19	[0, 0, 0]	n/a	FR1	0	R1318N
2260.076	1.634	2261454	WORD	n/a	n/a	PEACH	12	19	[0, 0, 0]	n/a	FR1	0	R1318N
2261.71	0.001	2263088	WORD_OFF	n/a	n/a	PEACH	12	19	[0, 0, 0]	n/a	FR1	0	R1318N
2261.711	0.0	2263089	ENCODING_END	n/a	n/a	n/a	-999	19	[0, 0, 0]	n/a	FR1	0	R1318N
2261.711	0.0	2263089	DISTRACT_START	n/a	n/a	n/a	-999	19	[0, 0, 0]	n/a	FR1	0	R1318N
2261.711	0.016	2263089	START	n/a	n/a	n/a	-999	19	[-999, -999, -999]	n/a	FR1	0	R1318N
2261.727	5.519	2263105	PROB	5.519	n/a	n/a	-999	19	[8, 9, 3]	20	FR1	0	R1318N
2267.246	1.916	2268624	PROB	1.916	n/a	n/a	-999	19	[1, 2, 2]	5	FR1	0	R1318N
2269.162	2.95	2270540	PROB	2.95	n/a	n/a	-999	19	[1, 9, 4]	14	FR1	0	R1318N
2272.112	2.901	2273490	PROB	2.901	n/a	n/a	-999	19	[7, 3, 3]	13	FR1	0	R1318N
2275.013	2.033	2276391	PROB	2.033	n/a	n/a	-999	19	[3, 3, 3]	9	FR1	0	R1318N
2277.046	3.452	2278424	PROB	3.452	n/a	n/a	-999	19	[4, 2, 3]	9	FR1	0	R1318N
2280.498	3.652	2281876	PROB	3.652	n/a	n/a	-999	19	[4, 6, 7]	17	FR1	0	R1318N
2284.15	0.014	2285528	STOP	n/a	n/a	n/a	-999	19	[-999, -999, -999]	n/a	FR1	0	R1318N
2284.164	0.506	2285542	DISTRACT_END	n/a	n/a	n/a	-999	19	[0, 0, 0]	n/a	FR1	0	R1318N
2284.67	1.646	2286048	RETRIEVAL_ORIENT_START	n/a	n/a	n/a	-999	19	[0, 0, 0]	n/a	FR1	0	R1318N
2286.316	0.0	2287693	RETRIEVAL_ORIENT_END	n/a	n/a	n/a	-999	19	[0, 0, 0]	n/a	FR1	0	R1318N
2286.316	0.068	2287693	REC_START	n/a	n/a	n/a	-999	19	[0, 0, 0]	n/a	FR1	0	R1318N
2286.384	0.652	2287761	REC_WORD	0.652	n/a	CORN	1	19	[0, 0, 0]	n/a	FR1	0	R1318N
2287.036	0.771	2288413	REC_WORD	0.771	n/a	CROW	2	19	[0, 0, 0]	n/a	FR1	0	R1318N
2287.807	2.637	2289184	REC_WORD	2.637	n/a	HOOK	3	19	[0, 0, 0]	n/a	FR1	0	R1318N
2290.444	2.595	2291821	REC_WORD	2.595	n/a	WEED	-999	19	[0, 0, 0]	n/a	FR1	0	R1318N
2293.039	0.659	2294416	REC_WORD	0.659	n/a	JUICE	4	19	[0, 0, 0]	n/a	FR1	0	R1318N
2293.698	2.545	2295075	REC_WORD	2.545	n/a	BARN	10	19	[0, 0, 0]	n/a	FR1	0	R1318N
2296.243	20.084	2297620	REC_WORD	20.084	n/a	ANT	-999	19	[0, 0, 0]	n/a	FR1	0	R1318N
2316.327	0.0	2317703	REC_END	n/a	n/a	n/a	-999	19	[0, 0, 0]	n/a	FR1	0	R1318N
2316.327	0.014	2317703	TRIAL_END	n/a	n/a	n/a	-999	19	[0, 0, 0]	n/a	FR1	0	R1318N
2316.341	0.0	2317717	TRIAL_START	n/a	n/a	n/a	-999	20	[0, 0, 0]	n/a	FR1	0	R1318N
2316.341	0.0	2317717	TRIAL	n/a	n/a	n/a	-999	20	[0, 0, 0]	n/a	FR1	0	R1318N
2316.341	2.063	2317717	WAITING_START	n/a	n/a	n/a	-999	20	[0, 0, 0]	n/a	FR1	0	R1318N
2318.404	0.001	2319780	WAITING_END	n/a	n/a	n/a	-999	20	[0, 0, 0]	n/a	FR1	0	R1318N
2318.405	10.428	2319781	COUNTDOWN_START	n/a	n/a	n/a	-999	20	[0, 0, 0]	n/a	FR1	0	R1318N
2328.833	0.001	2330209	COUNTDOWN_END	n/a	n/a	n/a	-999	20	[0, 0, 0]	n/a	FR1	0	R1318N
2328.834	1.254	2330210	ORIENT_START	n/a	n/a	n/a	-999	20	[0, 0, 0]	n/a	FR1	0	R1318N
2330.088	0.001	2331464	ORIENT_END	n/a	n/a	n/a	-999	20	[0, 0, 0]	n/a	FR1	0	R1318N
2330.089	0.895	2331465	ENCODING_START	n/a	n/a	n/a	-999	20	[0, 0, 0]	n/a	FR1	0	R1318N
2330.984	1.606	2332360	WORD	n/a	n/a	ARK	1	20	[0, 0, 0]	n/a	FR1	0	R1318N
2332.59	0.812	2333966	WORD_OFF	n/a	n/a	ARK	1	20	[0, 0, 0]	n/a	FR1	0	R1318N
2333.402	1.637	2334778	WORD	n/a	n/a	SHARK	2	20	[0, 0, 0]	n/a	FR1	0	R1318N
2335.039	0.958	2336415	WORD_OFF	n/a	n/a	SHARK	2	20	[0, 0, 0]	n/a	FR1	0	R1318N
2335.997	1.627	2337373	WORD	n/a	n/a	MAP	3	20	[0, 0, 0]	n/a	FR1	0	R1318N
2337.624	1.121	2339000	WORD_OFF	n/a	n/a	MAP	3	20	[0, 0, 0]	n/a	FR1	0	R1318N
2338.745	1.629	2340121	WORD	n/a	n/a	GATE	4	20	[0, 0, 0]	n/a	FR1	0	R1318N
2340.374	1.019	2341750	WORD_OFF	n/a	n/a	GATE	4	20	[0, 0, 0]	n/a	FR1	0	R1318N
2341.393	1.631	2342769	WORD	n/a	n/a	KITE	5	20	[0, 0, 0]	n/a	FR1	0	R1318N
2343.024	1.116	2344400	WORD_OFF	n/a	n/a	KITE	5	20	[0, 0, 0]	n/a	FR1	0	R1318N
2344.14	1.634	2345516	WORD	n/a	n/a	HOSE	6	20	[0, 0, 0]	n/a	FR1	0	R1318N
2345.774	1.138	2347149	WORD_OFF	n/a	n/a	HOSE	6	20	[0, 0, 0]	n/a	FR1	0	R1318N
2346.912	1.63	2348287	WORD	n/a	n/a	SPRING	7	20	[0, 0, 0]	n/a	FR1	0	R1318N
2348.542	0.857	2349917	WORD_OFF	n/a	n/a	SPRING	7	20	[0, 0, 0]	n/a	FR1	0	R1318N
2349.399	1.626	2350774	WORD	n/a	n/a	CHIN	8	20	[0, 0, 0]	n/a	FR1	0	R1318N
2351.025	0.969	2352400	WORD_OFF	n/a	n/a	CHIN	8	20	[0, 0, 0]	n/a	FR1	0	R1318N
2351.994	1.633	2353369	WORD	n/a	n/a	BREAD	9	20	[0, 0, 0]	n/a	FR1	0	R1318N
2353.627	0.813	2355002	WORD_OFF	n/a	n/a	BREAD	9	20	[0, 0, 0]	n/a	FR1	0	R1318N
2354.44	1.62	2355815	WORD	n/a	n/a	SOCK	10	20	[0, 0, 0]	n/a	FR1	0	R1318N
2356.06	0.959	2357435	WORD_OFF	n/a	n/a	SOCK	10	20	[0, 0, 0]	n/a	FR1	0	R1318N
2357.019	1.608	2358394	WORD	n/a	n/a	HORSE	11	20	[0, 0, 0]	n/a	FR1	0	R1318N
2358.627	0.931	2360002	WORD_OFF	n/a	n/a	HORSE	11	20	[0, 0, 0]	n/a	FR1	0	R1318N
2359.558	1.636	2360933	WORD	n/a	n/a	BOOT	12	20	[0, 0, 0]	n/a	FR1	0	R1318N
2361.194	0.0	2362569	DISTRACT_START	n/a	n/a	n/a	-999	20	[0, 0, 0]	n/a	FR1	0	R1318N
2361.194	0.0	2362569	ENCODING_END	n/a	n/a	n/a	-999	20	[0, 0, 0]	n/a	FR1	0	R1318N
2361.194	0.001	2362569	WORD_OFF	n/a	n/a	BOOT	12	20	[0, 0, 0]	n/a	FR1	0	R1318N
2361.195	0.015	2362570	START	n/a	n/a	n/a	-999	20	[-999, -999, -999]	n/a	FR1	0	R1318N
2361.21	4.684	2362585	PROB	4.684	n/a	n/a	-999	20	[6, 2, 7]	15	FR1	0	R1318N
2365.894	3.217	2367269	PROB	3.217	n/a	n/a	-999	20	[2, 9, 9]	20	FR1	0	R1318N
2369.111	3.402	2370486	PROB	3.402	n/a	n/a	-999	20	[5, 3, 8]	16	FR1	0	R1318N
2372.513	2.984	2373888	PROB	2.984	n/a	n/a	-999	20	[4, 2, 6]	12	FR1	0	R1318N
2375.497	4.1	2376872	PROB	4.1	n/a	n/a	-999	20	[1, 7, 9]	17	FR1	0	R1318N
2379.597	2.281	2380971	PROB	2.281	n/a	n/a	-999	20	[7, 3, 2]	12	FR1	0	R1318N
2381.878	0.019	2383252	STOP	n/a	n/a	n/a	-999	20	[-999, -999, -999]	n/a	FR1	0	R1318N
2381.897	0.677	2383271	DISTRACT_END	n/a	n/a	n/a	-999	20	[0, 0, 0]	n/a	FR1	0	R1318N
2382.574	1.724	2383948	RETRIEVAL_ORIENT_START	n/a	n/a	n/a	-999	20	[0, 0, 0]	n/a	FR1	0	R1318N
2384.298	0.001	2385672	RETRIEVAL_ORIENT_END	n/a	n/a	n/a	-999	20	[0, 0, 0]	n/a	FR1	0	R1318N
2384.299	1.011	2385673	REC_START	n/a	n/a	n/a	-999	20	[0, 0, 0]	n/a	FR1	0	R1318N
2385.31	0.665	2386684	REC_WORD	0.665	n/a	ARK	1	20	[0, 0, 0]	n/a	FR1	0	R1318N
2385.975	0.745	2387349	REC_WORD	0.745	n/a	SHARK	2	20	[0, 0, 0]	n/a	FR1	0	R1318N
2386.72	0.582	2388094	REC_WORD	0.582	n/a	MAP	3	20	[0, 0, 0]	n/a	FR1	0	R1318N
2387.302	0.681	2388676	REC_WORD	0.681	n/a	GATE	4	20	[0, 0, 0]	n/a	FR1	0	R1318N
2387.983	0.786	2389357	REC_WORD	0.786	n/a	KITE	5	20	[0, 0, 0]	n/a	FR1	0	R1318N
2388.769	0.69	2390143	REC_WORD	0.69	n/a	HOSE	6	20	[0, 0, 0]	n/a	FR1	0	R1318N
2389.459	6.192	2390833	REC_WORD	6.192	n/a	SPRING	7	20	[0, 0, 0]	n/a	FR1	0	R1318N
2395.651	4.56	2397025	REC_WORD	4.56	n/a	GRAPE	-999	20	[0, 0, 0]	n/a	FR1	0	R1318N
2400.211	14.098	2401585	REC_WORD	14.098	n/a	ROOM	-999	20	[0, 0, 0]	n/a	FR1	0	R1318N
2414.309	0.0	2415682	REC_END	n/a	n/a	n/a	-999	20	[0, 0, 0]	n/a	FR1	0	R1318N
2414.309	0.014	2415682	TRIAL_END	n/a	n/a	n/a	-999	20	[0, 0, 0]	n/a	FR1	0	R1318N
2414.323	0.0	2415696	TRIAL_START	n/a	n/a	n/a	-999	21	[0, 0, 0]	n/a	FR1	0	R1318N
2414.323	0.0	2415696	TRIAL	n/a	n/a	n/a	-999	21	[0, 0, 0]	n/a	FR1	0	R1318N
2414.323	1.914	2415696	WAITING_START	n/a	n/a	n/a	-999	21	[0, 0, 0]	n/a	FR1	0	R1318N
2416.237	0.0	2417610	COUNTDOWN_START	n/a	n/a	n/a	-999	21	[0, 0, 0]	n/a	FR1	0	R1318N
2416.237	10.429	2417610	WAITING_END	n/a	n/a	n/a	-999	21	[0, 0, 0]	n/a	FR1	0	R1318N
2426.666	0.001	2428039	COUNTDOWN_END	n/a	n/a	n/a	-999	21	[0, 0, 0]	n/a	FR1	0	R1318N
2426.667	1.154	2428040	ORIENT_START	n/a	n/a	n/a	-999	21	[0, 0, 0]	n/a	FR1	0	R1318N
2427.821	0.0	2429194	ORIENT_END	n/a	n/a	n/a	-999	21	[0, 0, 0]	n/a	FR1	0	R1318N
2427.821	0.846	2429194	ENCODING_START	n/a	n/a	n/a	-999	21	[0, 0, 0]	n/a	FR1	0	R1318N
2428.667	1.623	2430040	WORD	n/a	n/a	PIN	1	21	[0, 0, 0]	n/a	FR1	0	R1318N
2430.29	1.021	2431663	WORD_OFF	n/a	n/a	PIN	1	21	[0, 0, 0]	n/a	FR1	0	R1318N
2431.311	1.627	2432684	WORD	n/a	n/a	TOAST	2	21	[0, 0, 0]	n/a	FR1	0	R1318N
2432.938	1.072	2434311	WORD_OFF	n/a	n/a	TOAST	2	21	[0, 0, 0]	n/a	FR1	0	R1318N
2434.01	1.629	2435383	WORD	n/a	n/a	NOSE	3	21	[0, 0, 0]	n/a	FR1	0	R1318N
2435.639	1.09	2437011	WORD_OFF	n/a	n/a	NOSE	3	21	[0, 0, 0]	n/a	FR1	0	R1318N
2436.729	1.628	2438101	WORD	n/a	n/a	FROG	4	21	[0, 0, 0]	n/a	FR1	0	R1318N
2438.357	1.099	2439729	WORD_OFF	n/a	n/a	FROG	4	21	[0, 0, 0]	n/a	FR1	0	R1318N
2439.456	1.634	2440828	WORD	n/a	n/a	TAIL	5	21	[0, 0, 0]	n/a	FR1	0	R1318N
2441.09	1.103	2442462	WORD_OFF	n/a	n/a	TAIL	5	21	[0, 0, 0]	n/a	FR1	0	R1318N
2442.193	1.631	2443565	WORD	n/a	n/a	BLUSH	6	21	[0, 0, 0]	n/a	FR1	0	R1318N
2443.824	1.016	2445196	WORD_OFF	n/a	n/a	BLUSH	6	21	[0, 0, 0]	n/a	FR1	0	R1318N
2444.84	1.635	2446212	WORD	n/a	n/a	TOY	7	21	[0, 0, 0]	n/a	FR1	0	R1318N
2446.475	1.068	2447847	WORD_OFF	n/a	n/a	TOY	7	21	[0, 0, 0]	n/a	FR1	0	R1318N
2447.543	1.632	2448915	WORD	n/a	n/a	FLUTE	8	21	[0, 0, 0]	n/a	FR1	0	R1318N
2449.175	1.127	2450547	WORD_OFF	n/a	n/a	FLUTE	8	21	[0, 0, 0]	n/a	FR1	0	R1318N
2450.302	1.623	2451674	WORD	n/a	n/a	SKI	9	21	[0, 0, 0]	n/a	FR1	0	R1318N
2451.925	1.045	2453297	WORD_OFF	n/a	n/a	SKI	9	21	[0, 0, 0]	n/a	FR1	0	R1318N
2452.97	1.623	2454342	WORD	n/a	n/a	PEARL	10	21	[0, 0, 0]	n/a	FR1	0	R1318N
2454.593	0.788	2455965	WORD_OFF	n/a	n/a	PEARL	10	21	[0, 0, 0]	n/a	FR1	0	R1318N
2455.381	1.628	2456753	WORD	n/a	n/a	DRESS	11	21	[0, 0, 0]	n/a	FR1	0	R1318N
2457.009	0.818	2458381	WORD_OFF	n/a	n/a	DRESS	11	21	[0, 0, 0]	n/a	FR1	0	R1318N
2457.827	1.634	2459199	WORD	n/a	n/a	NEST	12	21	[0, 0, 0]	n/a	FR1	0	R1318N
2459.461	0.0	2460833	ENCODING_END	n/a	n/a	n/a	-999	21	[0, 0, 0]	n/a	FR1	0	R1318N
2459.461	0.001	2460833	WORD_OFF	n/a	n/a	NEST	12	21	[0, 0, 0]	n/a	FR1	0	R1318N
2459.462	0.0	2460834	DISTRACT_START	n/a	n/a	n/a	-999	21	[0, 0, 0]	n/a	FR1	0	R1318N
2459.462	0.015	2460834	START	n/a	n/a	n/a	-999	21	[-999, -999, -999]	n/a	FR1	0	R1318N
2459.477	3.751	2460849	PROB	3.751	n/a	n/a	-999	21	[2, 2, 4]	8	FR1	0	R1318N
2463.228	2.899	2464600	PROB	2.899	n/a	n/a	-999	21	[9, 1, 2]	12	FR1	0	R1318N
2466.127	3.951	2467498	PROB	3.951	n/a	n/a	-999	21	[8, 2, 7]	17	FR1	0	R1318N
2470.078	4.051	2471449	PROB	4.051	n/a	n/a	-999	21	[2, 6, 7]	15	FR1	0	R1318N
2474.129	2.301	2475500	PROB	2.301	n/a	n/a	-999	21	[1, 2, 1]	4	FR1	0	R1318N
2476.43	3.177	2477801	PROB	3.177	n/a	n/a	-999	21	[3, 9, 4]	16	FR1	0	R1318N
2479.607	0.007	2480978	STOP	n/a	n/a	n/a	-999	21	[-999, -999, -999]	n/a	FR1	0	R1318N
2479.614	0.512	2480985	DISTRACT_END	n/a	n/a	n/a	-999	21	[0, 0, 0]	n/a	FR1	0	R1318N
2480.126	1.571	2481497	RETRIEVAL_ORIENT_START	n/a	n/a	n/a	-999	21	[0, 0, 0]	n/a	FR1	0	R1318N
2481.697	0.0	2483068	RETRIEVAL_ORIENT_END	n/a	n/a	n/a	-999	21	[0, 0, 0]	n/a	FR1	0	R1318N
2481.697	1.466	2483068	REC_START	n/a	n/a	n/a	-999	21	[0, 0, 0]	n/a	FR1	0	R1318N
2483.163	0.533	2484534	REC_WORD	0.533	n/a	PIN	1	21	[0, 0, 0]	n/a	FR1	0	R1318N
2483.696	0.93	2485067	REC_WORD	0.93	n/a	TOAST	2	21	[0, 0, 0]	n/a	FR1	0	R1318N
2484.626	0.664	2485997	REC_WORD	0.664	n/a	NOSE	3	21	[0, 0, 0]	n/a	FR1	0	R1318N
2485.29	1.22	2486661	REC_WORD	1.22	n/a	FROG	4	21	[0, 0, 0]	n/a	FR1	0	R1318N
2486.51	0.924	2487881	REC_WORD	0.924	n/a	SMOKE	-999	21	[0, 0, 0]	n/a	FR1	0	R1318N
2487.434	9.221	2488805	REC_WORD	9.221	n/a	BLUSH	6	21	[0, 0, 0]	n/a	FR1	0	R1318N
2496.655	15.053	2498025	REC_WORD	15.053	n/a	DRESS	11	21	[0, 0, 0]	n/a	FR1	0	R1318N
2511.708	0.001	2513078	REC_END	n/a	n/a	n/a	-999	21	[0, 0, 0]	n/a	FR1	0	R1318N
2511.709	0.015	2513079	TRIAL_END	n/a	n/a	n/a	-999	21	[0, 0, 0]	n/a	FR1	0	R1318N
2511.724	0.0	2513094	TRIAL_START	n/a	n/a	n/a	-999	22	[0, 0, 0]	n/a	FR1	0	R1318N
2511.724	0.0	2513094	TRIAL	n/a	n/a	n/a	-999	22	[0, 0, 0]	n/a	FR1	0	R1318N
2511.724	1.896	2513094	WAITING_START	n/a	n/a	n/a	-999	22	[0, 0, 0]	n/a	FR1	0	R1318N
2513.62	0.0	2514990	COUNTDOWN_START	n/a	n/a	n/a	-999	22	[0, 0, 0]	n/a	FR1	0	R1318N
2513.62	10.429	2514990	WAITING_END	n/a	n/a	n/a	-999	22	[0, 0, 0]	n/a	FR1	0	R1318N
2524.049	0.0	2525419	COUNTDOWN_END	n/a	n/a	n/a	-999	22	[0, 0, 0]	n/a	FR1	0	R1318N
2524.049	1.239	2525419	ORIENT_START	n/a	n/a	n/a	-999	22	[0, 0, 0]	n/a	FR1	0	R1318N
2525.288	0.001	2526657	ORIENT_END	n/a	n/a	n/a	-999	22	[0, 0, 0]	n/a	FR1	0	R1318N
2525.289	0.795	2526658	ENCODING_START	n/a	n/a	n/a	-999	22	[0, 0, 0]	n/a	FR1	0	R1318N
2526.084	1.637	2527453	WORD	n/a	n/a	NET	1	22	[0, 0, 0]	n/a	FR1	0	R1318N
2527.721	0.897	2529090	WORD_OFF	n/a	n/a	NET	1	22	[0, 0, 0]	n/a	FR1	0	R1318N
2528.618	1.638	2529987	WORD	n/a	n/a	BUSH	2	22	[0, 0, 0]	n/a	FR1	0	R1318N
2530.256	1.134	2531625	WORD_OFF	n/a	n/a	BUSH	2	22	[0, 0, 0]	n/a	FR1	0	R1318N
2531.39	1.632	2532759	WORD	n/a	n/a	CONE	3	22	[0, 0, 0]	n/a	FR1	0	R1318N
2533.022	1.115	2534391	WORD_OFF	n/a	n/a	CONE	3	22	[0, 0, 0]	n/a	FR1	0	R1318N
2534.137	1.635	2535506	WORD	n/a	n/a	FARM	4	22	[0, 0, 0]	n/a	FR1	0	R1318N
2535.772	0.996	2537141	WORD_OFF	n/a	n/a	FARM	4	22	[0, 0, 0]	n/a	FR1	0	R1318N
2536.768	1.622	2538137	WORD	n/a	n/a	FLOOR	5	22	[0, 0, 0]	n/a	FR1	0	R1318N
2538.39	0.911	2539759	WORD_OFF	n/a	n/a	FLOOR	5	22	[0, 0, 0]	n/a	FR1	0	R1318N
2539.301	1.622	2540670	WORD	n/a	n/a	LEG	6	22	[0, 0, 0]	n/a	FR1	0	R1318N
2540.923	1.098	2542292	WORD_OFF	n/a	n/a	LEG	6	22	[0, 0, 0]	n/a	FR1	0	R1318N
2542.021	1.636	2543390	WORD	n/a	n/a	PHONE	7	22	[0, 0, 0]	n/a	FR1	0	R1318N
2543.657	1.115	2545026	WORD_OFF	n/a	n/a	PHONE	7	22	[0, 0, 0]	n/a	FR1	0	R1318N
2544.772	1.62	2546141	WORD	n/a	n/a	CAR	8	22	[0, 0, 0]	n/a	FR1	0	R1318N
2546.392	1.106	2547761	WORD_OFF	n/a	n/a	CAR	8	22	[0, 0, 0]	n/a	FR1	0	R1318N
2547.498	1.627	2548867	WORD	n/a	n/a	FLAME	9	22	[0, 0, 0]	n/a	FR1	0	R1318N
2549.125	0.962	2550494	WORD_OFF	n/a	n/a	FLAME	9	22	[0, 0, 0]	n/a	FR1	0	R1318N
2550.087	1.621	2551456	WORD	n/a	n/a	FUDGE	10	22	[0, 0, 0]	n/a	FR1	0	R1318N
2551.708	0.942	2553077	WORD_OFF	n/a	n/a	FUDGE	10	22	[0, 0, 0]	n/a	FR1	0	R1318N
2552.65	1.626	2554019	WORD	n/a	n/a	CAGE	11	22	[0, 0, 0]	n/a	FR1	0	R1318N
2554.276	1.065	2555645	WORD_OFF	n/a	n/a	CAGE	11	22	[0, 0, 0]	n/a	FR1	0	R1318N
2555.341	1.635	2556709	WORD	n/a	n/a	FORT	12	22	[0, 0, 0]	n/a	FR1	0	R1318N
2556.976	0.0	2558344	ENCODING_END	n/a	n/a	n/a	-999	22	[0, 0, 0]	n/a	FR1	0	R1318N
2556.976	0.0	2558344	WORD_OFF	n/a	n/a	FORT	12	22	[0, 0, 0]	n/a	FR1	0	R1318N
2556.976	0.001	2558344	DISTRACT_START	n/a	n/a	n/a	-999	22	[0, 0, 0]	n/a	FR1	0	R1318N
2556.977	0.015	2558345	START	n/a	n/a	n/a	-999	22	[-999, -999, -999]	n/a	FR1	0	R1318N
2556.992	2.667	2558360	PROB	2.667	n/a	n/a	-999	22	[4, 5, 1]	10	FR1	0	R1318N
2559.659	2.101	2561027	PROB	2.101	n/a	n/a	-999	22	[8, 1, 2]	11	FR1	0	R1318N
2561.76	2.601	2563128	PROB	2.601	n/a	n/a	-999	22	[1, 9, 4]	14	FR1	0	R1318N
2564.361	6.4	2565729	PROB	6.4	n/a	n/a	-999	22	[5, 6, 7]	18	FR1	0	R1318N
2570.761	3.151	2572129	PROB	3.151	n/a	n/a	-999	22	[7, 5, 3]	15	FR1	0	R1318N
2573.912	3.615	2575280	PROB	3.615	n/a	n/a	-999	22	[7, 2, 2]	11	FR1	0	R1318N
2577.527	0.02	2578895	STOP	n/a	n/a	n/a	-999	22	[-999, -999, -999]	n/a	FR1	0	R1318N
2577.547	0.589	2578915	DISTRACT_END	n/a	n/a	n/a	-999	22	[0, 0, 0]	n/a	FR1	0	R1318N
