onset	duration	sample	trial_type	response_time	stim_file	item_name	serialpos	list	test	answer	experiment	session	subject
0.0	401.737	1089	INSTRUCT_START	n/a	n/a	n/a	-999	-999	[0, 0, 0]	n/a	FR1	1	R1339D
401.737	3.983	402806	INSTRUCT_END	n/a	n/a	n/a	-999	-999	[0, 0, 0]	n/a	FR1	1	R1339D
405.72	11.038	406789	MIC TEST_START	n/a	n/a	n/a	-999	-999	[0, 0, 0]	n/a	FR1	1	R1339D
416.758	0.009	417826	MIC TEST_END	n/a	n/a	n/a	-999	-999	[0, 0, 0]	n/a	FR1	1	R1339D
416.767	0.001	417835	TRIAL_START	n/a	n/a	n/a	-999	-1	[0, 0, 0]	n/a	FR1	1	R1339D
416.768	0.0	417836	TRIAL	n/a	n/a	n/a	-999	-1	[0, 0, 0]	n/a	FR1	1	R1339D
416.768	5.807	417836	WAITING_START	n/a	n/a	n/a	-999	-1	[0, 0, 0]	n/a	FR1	1	R1339D
422.575	0.0	423643	WAITING_END	n/a	n/a	n/a	-999	-1	[0, 0, 0]	n/a	FR1	1	R1339D
422.575	10.429	423643	COUNTDOWN_START	n/a	n/a	n/a	-999	-1	[0, 0, 0]	n/a	FR1	1	R1339D
433.004	0.0	434071	COUNTDOWN_END	n/a	n/a	n/a	-999	-1	[0, 0, 0]	n/a	FR1	1	R1339D
433.004	1.188	434071	ORIENT_START	n/a	n/a	n/a	-999	-1	[0, 0, 0]	n/a	FR1	1	R1339D
434.192	0.001	435259	ORIENT_END	n/a	n/a	n/a	-999	-1	[0, 0, 0]	n/a	FR1	1	R1339D
434.193	1.021	435260	ENCODING_START	n/a	n/a	n/a	-999	-1	[0, 0, 0]	n/a	FR1	1	R1339D
435.214	1.629	436281	WORD	n/a	n/a	CAMEL	1	-1	[0, 0, 0]	n/a	FR1	1	R1339D
436.843	1.032	437910	WORD_OFF	n/a	n/a	CAMEL	1	-1	[0, 0, 0]	n/a	FR1	1	R1339D
437.875	1.635	438942	WORD	n/a	n/a	WAGON	2	-1	[0, 0, 0]	n/a	FR1	1	R1339D
439.51	0.828	440577	WORD_OFF	n/a	n/a	WAGON	2	-1	[0, 0, 0]	n/a	FR1	1	R1339D
440.338	1.622	441405	WORD	n/a	n/a	CHEST	3	-1	[0, 0, 0]	n/a	FR1	1	R1339D
441.96	0.89	443027	WORD_OFF	n/a	n/a	CHEST	3	-1	[0, 0, 0]	n/a	FR1	1	R1339D
442.85	1.628	443917	WORD	n/a	n/a	WATCH	4	-1	[0, 0, 0]	n/a	FR1	1	R1339D
444.478	0.897	445545	WORD_OFF	n/a	n/a	WATCH	4	-1	[0, 0, 0]	n/a	FR1	1	R1339D
445.375	1.636	446442	WORD	n/a	n/a	RHINO	5	-1	[0, 0, 0]	n/a	FR1	1	R1339D
447.011	0.786	448078	WORD_OFF	n/a	n/a	RHINO	5	-1	[0, 0, 0]	n/a	FR1	1	R1339D
447.797	1.631	448864	WORD	n/a	n/a	RING	6	-1	[0, 0, 0]	n/a	FR1	1	R1339D
449.428	1.012	450495	WORD_OFF	n/a	n/a	RING	6	-1	[0, 0, 0]	n/a	FR1	1	R1339D
450.44	1.622	451507	WORD	n/a	n/a	BEAM	7	-1	[0, 0, 0]	n/a	FR1	1	R1339D
452.062	0.91	453129	WORD_OFF	n/a	n/a	BEAM	7	-1	[0, 0, 0]	n/a	FR1	1	R1339D
452.972	1.625	454038	WORD	n/a	n/a	IMAGE	8	-1	[0, 0, 0]	n/a	FR1	1	R1339D
454.597	0.957	455663	WORD_OFF	n/a	n/a	IMAGE	8	-1	[0, 0, 0]	n/a	FR1	1	R1339D
455.554	1.626	456620	WORD	n/a	n/a	TONGUE	9	-1	[0, 0, 0]	n/a	FR1	1	R1339D
457.18	1.138	458246	WORD_OFF	n/a	n/a	TONGUE	9	-1	[0, 0, 0]	n/a	FR1	1	R1339D
458.318	1.629	459384	WORD	n/a	n/a	FLOOD	10	-1	[0, 0, 0]	n/a	FR1	1	R1339D
459.947	0.835	461013	WORD_OFF	n/a	n/a	FLOOD	10	-1	[0, 0, 0]	n/a	FR1	1	R1339D
460.782	1.632	461848	WORD	n/a	n/a	BABY	11	-1	[0, 0, 0]	n/a	FR1	1	R1339D
462.414	1.126	463480	WORD_OFF	n/a	n/a	BABY	11	-1	[0, 0, 0]	n/a	FR1	1	R1339D
463.54	1.625	464606	WORD	n/a	n/a	COTTON	12	-1	[0, 0, 0]	n/a	FR1	1	R1339D
465.165	0.0	466231	WORD_OFF	n/a	n/a	COTTON	12	-1	[0, 0, 0]	n/a	FR1	1	R1339D
465.165	0.0	466231	ENCODING_END	n/a	n/a	n/a	-999	-1	[0, 0, 0]	n/a	FR1	1	R1339D
465.165	0.001	466231	DISTRACT_START	n/a	n/a	n/a	-999	-1	[0, 0, 0]	n/a	FR1	1	R1339D
465.166	0.015	466232	START	n/a	n/a	n/a	-999	-1	[-999, -999, -999]	n/a	FR1	1	R1339D
465.181	3.067	466247	PROB	3.067	n/a	n/a	-999	-1	[3, 7, 4]	14	FR1	1	R1339D
468.248	4.302	469314	PROB	4.302	n/a	n/a	-999	-1	[7, 7, 6]	20	FR1	1	R1339D
472.55	2.366	473616	PROB	2.366	n/a	n/a	-999	-1	[4, 6, 4]	14	FR1	1	R1339D
474.916	4.218	475981	PROB	4.218	n/a	n/a	-999	-1	[1, 4, 2]	7	FR1	1	R1339D
479.134	3.167	480199	PROB	3.167	n/a	n/a	-999	-1	[3, 4, 3]	10	FR1	1	R1339D
482.301	2.667	483366	PROB	2.667	n/a	n/a	-999	-1	[4, 4, 4]	12	FR1	1	R1339D
484.968	4.871	486033	PROB	4.871	n/a	n/a	-999	-1	[9, 5, 7]	21	FR1	1	R1339D
489.839	0.013	490904	STOP	n/a	n/a	n/a	-999	-1	[-999, -999, -999]	n/a	FR1	1	R1339D
489.852	0.575	490917	DISTRACT_END	n/a	n/a	n/a	-999	-1	[0, 0, 0]	n/a	FR1	1	R1339D
490.427	1.659	491492	RETRIEVAL_ORIENT_START	n/a	n/a	n/a	-999	-1	[0, 0, 0]	n/a	FR1	1	R1339D
492.086	0.0	493151	REC_START	n/a	n/a	n/a	-999	-1	[0, 0, 0]	n/a	FR1	1	R1339D
492.086	0.0	493151	REC_WORD_VV	0.0	n/a	<>	-999	-1	[0, 0, 0]	n/a	FR1	1	R1339D
492.086	30.012	493151	RETRIEVAL_ORIENT_END	n/a	n/a	n/a	-999	-1	[0, 0, 0]	n/a	FR1	1	R1339D
522.098	0.001	523161	REC_END	n/a	n/a	n/a	-999	-1	[0, 0, 0]	n/a	FR1	1	R1339D
522.099	46.768	523162	PRACTICE_POST_INSTRUCT_START	n/a	n/a	n/a	-999	-1	[0, 0, 0]	n/a	FR1	1	R1339D
568.867	0.001	569928	PRACTICE_POST_INSTRUCT_END	n/a	n/a	n/a	-999	-1	[0, 0, 0]	n/a	FR1	1	R1339D
568.868	0.018	569929	TRIAL_END	n/a	n/a	n/a	-999	-1	[0, 0, 0]	n/a	FR1	1	R1339D
568.886	0.0	569947	TRIAL_START	n/a	n/a	n/a	-999	1	[0, 0, 0]	n/a	FR1	1	R1339D
568.886	0.0	569947	TRIAL	n/a	n/a	n/a	-999	1	[0, 0, 0]	n/a	FR1	1	R1339D
568.886	1.014	569947	WAITING_START	n/a	n/a	n/a	-999	1	[0, 0, 0]	n/a	FR1	1	R1339D
569.9	0.001	570961	WAITING_END	n/a	n/a	n/a	-999	1	[0, 0, 0]	n/a	FR1	1	R1339D
569.901	10.429	570962	COUNTDOWN_START	n/a	n/a	n/a	-999	1	[0, 0, 0]	n/a	FR1	1	R1339D
580.33	0.0	581390	COUNTDOWN_END	n/a	n/a	n/a	-999	1	[0, 0, 0]	n/a	FR1	1	R1339D
580.33	1.039	581390	ORIENT_START	n/a	n/a	n/a	-999	1	[0, 0, 0]	n/a	FR1	1	R1339D
581.369	0.0	582429	ENCODING_START	n/a	n/a	n/a	-999	1	[0, 0, 0]	n/a	FR1	1	R1339D
581.369	0.761	582429	ORIENT_END	n/a	n/a	n/a	-999	1	[0, 0, 0]	n/a	FR1	1	R1339D
582.13	1.623	583190	WORD	n/a	wordpools/wordpool_EN.txt	BIRD	1	1	[0, 0, 0]	n/a	FR1	1	R1339D
583.753	1.043	584813	WORD_OFF	n/a	n/a	BIRD	1	1	[0, 0, 0]	n/a	FR1	1	R1339D
584.796	1.624	585856	WORD	n/a	wordpools/wordpool_EN.txt	CAR	2	1	[0, 0, 0]	n/a	FR1	1	R1339D
586.42	0.971	587480	WORD_OFF	n/a	n/a	CAR	2	1	[0, 0, 0]	n/a	FR1	1	R1339D
587.391	1.629	588451	WORD	n/a	wordpools/wordpool_EN.txt	RICE	3	1	[0, 0, 0]	n/a	FR1	1	R1339D
589.02	0.997	590080	WORD_OFF	n/a	n/a	RICE	3	1	[0, 0, 0]	n/a	FR1	1	R1339D
590.017	1.637	591077	WORD	n/a	wordpools/wordpool_EN.txt	STONE	4	1	[0, 0, 0]	n/a	FR1	1	R1339D
591.654	0.981	592714	WORD_OFF	n/a	n/a	STONE	4	1	[0, 0, 0]	n/a	FR1	1	R1339D
592.635	1.636	593695	WORD	n/a	wordpools/wordpool_EN.txt	CHEEK	5	1	[0, 0, 0]	n/a	FR1	1	R1339D
594.271	0.776	595331	WORD_OFF	n/a	n/a	CHEEK	5	1	[0, 0, 0]	n/a	FR1	1	R1339D
595.047	1.625	596107	WORD	n/a	wordpools/wordpool_EN.txt	FILM	6	1	[0, 0, 0]	n/a	FR1	1	R1339D
596.672	0.845	597731	WORD_OFF	n/a	n/a	FILM	6	1	[0, 0, 0]	n/a	FR1	1	R1339D
597.517	1.638	598576	WORD	n/a	wordpools/wordpool_EN.txt	WOLF	7	1	[0, 0, 0]	n/a	FR1	1	R1339D
599.155	0.911	600214	WORD_OFF	n/a	n/a	WOLF	7	1	[0, 0, 0]	n/a	FR1	1	R1339D
600.066	1.623	601125	WORD	n/a	wordpools/wordpool_EN.txt	PEN	8	1	[0, 0, 0]	n/a	FR1	1	R1339D
601.689	0.975	602748	WORD_OFF	n/a	n/a	PEN	8	1	[0, 0, 0]	n/a	FR1	1	R1339D
602.664	1.626	603723	WORD	n/a	wordpools/wordpool_EN.txt	WEB	9	1	[0, 0, 0]	n/a	FR1	1	R1339D
604.29	1.053	605349	WORD_OFF	n/a	n/a	WEB	9	1	[0, 0, 0]	n/a	FR1	1	R1339D
605.343	1.631	606402	WORD	n/a	wordpools/wordpool_EN.txt	ROOT	10	1	[0, 0, 0]	n/a	FR1	1	R1339D
606.974	1.053	608033	WORD_OFF	n/a	n/a	ROOT	10	1	[0, 0, 0]	n/a	FR1	1	R1339D
608.027	1.63	609086	WORD	n/a	wordpools/wordpool_EN.txt	LOCK	11	1	[0, 0, 0]	n/a	FR1	1	R1339D
609.657	1.146	610716	WORD_OFF	n/a	n/a	LOCK	11	1	[0, 0, 0]	n/a	FR1	1	R1339D
610.803	1.638	611862	WORD	n/a	wordpools/wordpool_EN.txt	SHEEP	12	1	[0, 0, 0]	n/a	FR1	1	R1339D
612.441	0.001	613500	WORD_OFF	n/a	n/a	SHEEP	12	1	[0, 0, 0]	n/a	FR1	1	R1339D
612.442	0.0	613501	ENCODING_END	n/a	n/a	n/a	-999	1	[0, 0, 0]	n/a	FR1	1	R1339D
612.442	0.0	613501	DISTRACT_START	n/a	n/a	n/a	-999	1	[0, 0, 0]	n/a	FR1	1	R1339D
612.442	0.016	613501	START	n/a	n/a	n/a	-999	1	[-999, -999, -999]	n/a	FR1	1	R1339D
612.458	4.484	613517	PROB	4.484	n/a	n/a	-999	1	[4, 8, 5]	17	FR1	1	R1339D
616.942	2.15	618001	PROB	2.15	n/a	n/a	-999	1	[2, 1, 1]	4	FR1	1	R1339D
619.092	3.868	620150	PROB	3.868	n/a	n/a	-999	1	[8, 5, 7]	20	FR1	1	R1339D
622.96	2.917	624018	PROB	2.917	n/a	n/a	-999	1	[4, 9, 2]	15	FR1	1	R1339D
625.877	2.917	626935	PROB	2.917	n/a	n/a	-999	1	[2, 7, 9]	18	FR1	1	R1339D
628.794	2.801	629852	PROB	2.801	n/a	n/a	-999	1	[3, 4, 1]	8	FR1	1	R1339D
631.595	5.403	632653	PROB	5.403	n/a	n/a	-999	1	[6, 5, 1]	12	FR1	1	R1339D
636.998	0.014	638056	STOP	n/a	n/a	n/a	-999	1	[-999, -999, -999]	n/a	FR1	1	R1339D
637.012	0.662	638070	DISTRACT_END	n/a	n/a	n/a	-999	1	[0, 0, 0]	n/a	FR1	1	R1339D
637.674	1.605	638731	RETRIEVAL_ORIENT_START	n/a	n/a	n/a	-999	1	[0, 0, 0]	n/a	FR1	1	R1339D
639.279	0.001	640336	RETRIEVAL_ORIENT_END	n/a	n/a	n/a	-999	1	[0, 0, 0]	n/a	FR1	1	R1339D
639.28	0.483	640337	REC_START	n/a	n/a	n/a	-999	1	[0, 0, 0]	n/a	FR1	1	R1339D
639.763	0.498	640820	REC_WORD	0.498	n/a	BIRD	1	1	[0, 0, 0]	n/a	FR1	1	R1339D
640.261	3.915	641318	REC_WORD	3.915	n/a	STONE	4	1	[0, 0, 0]	n/a	FR1	1	R1339D
644.176	13.751	645233	REC_WORD	13.751	n/a	CAR	2	1	[0, 0, 0]	n/a	FR1	1	R1339D
657.927	11.366	658984	REC_WORD_VV	11.366	n/a	<>	-999	1	[0, 0, 0]	n/a	FR1	1	R1339D
669.293	0.0	670349	REC_END	n/a	n/a	n/a	-999	1	[0, 0, 0]	n/a	FR1	1	R1339D
669.293	0.015	670349	TRIAL_END	n/a	n/a	n/a	-999	1	[0, 0, 0]	n/a	FR1	1	R1339D
669.308	0.0	670364	TRIAL_START	n/a	n/a	n/a	-999	2	[0, 0, 0]	n/a	FR1	1	R1339D
669.308	0.0	670364	TRIAL	n/a	n/a	n/a	-999	2	[0, 0, 0]	n/a	FR1	1	R1339D
669.308	9.062	670364	WAITING_START	n/a	n/a	n/a	-999	2	[0, 0, 0]	n/a	FR1	1	R1339D
678.37	0.0	679426	WAITING_END	n/a	n/a	n/a	-999	2	[0, 0, 0]	n/a	FR1	1	R1339D
678.37	10.429	679426	COUNTDOWN_START	n/a	n/a	n/a	-999	2	[0, 0, 0]	n/a	FR1	1	R1339D
688.799	0.0	689854	COUNTDOWN_END	n/a	n/a	n/a	-999	2	[0, 0, 0]	n/a	FR1	1	R1339D
688.799	1.206	689854	ORIENT_START	n/a	n/a	n/a	-999	2	[0, 0, 0]	n/a	FR1	1	R1339D
690.005	0.001	691060	ORIENT_END	n/a	n/a	n/a	-999	2	[0, 0, 0]	n/a	FR1	1	R1339D
690.006	0.894	691061	ENCODING_START	n/a	n/a	n/a	-999	2	[0, 0, 0]	n/a	FR1	1	R1339D
690.9	1.623	691955	WORD	n/a	wordpools/wordpool_EN.txt	TENT	1	2	[0, 0, 0]	n/a	FR1	1	R1339D
692.523	0.752	693578	WORD_OFF	n/a	n/a	TENT	1	2	[0, 0, 0]	n/a	FR1	1	R1339D
693.275	1.631	694330	WORD	n/a	wordpools/wordpool_EN.txt	BOWL	2	2	[0, 0, 0]	n/a	FR1	1	R1339D
694.906	1.139	695961	WORD_OFF	n/a	n/a	BOWL	2	2	[0, 0, 0]	n/a	FR1	1	R1339D
696.045	1.628	697100	WORD	n/a	wordpools/wordpool_EN.txt	VINE	3	2	[0, 0, 0]	n/a	FR1	1	R1339D
697.673	1.023	698728	WORD_OFF	n/a	n/a	VINE	3	2	[0, 0, 0]	n/a	FR1	1	R1339D
698.696	1.628	699751	WORD	n/a	wordpools/wordpool_EN.txt	WHALE	4	2	[0, 0, 0]	n/a	FR1	1	R1339D
700.324	0.833	701378	WORD_OFF	n/a	n/a	WHALE	4	2	[0, 0, 0]	n/a	FR1	1	R1339D
701.157	1.634	702211	WORD	n/a	wordpools/wordpool_EN.txt	CASH	5	2	[0, 0, 0]	n/a	FR1	1	R1339D
702.791	0.919	703845	WORD_OFF	n/a	n/a	CASH	5	2	[0, 0, 0]	n/a	FR1	1	R1339D
703.71	1.631	704764	WORD	n/a	wordpools/wordpool_EN.txt	THUMB	6	2	[0, 0, 0]	n/a	FR1	1	R1339D
705.341	0.766	706395	WORD_OFF	n/a	n/a	THUMB	6	2	[0, 0, 0]	n/a	FR1	1	R1339D
706.107	1.635	707161	WORD	n/a	wordpools/wordpool_EN.txt	CALF	7	2	[0, 0, 0]	n/a	FR1	1	R1339D
707.742	0.948	708796	WORD_OFF	n/a	n/a	CALF	7	2	[0, 0, 0]	n/a	FR1	1	R1339D
708.69	1.636	709744	WORD	n/a	wordpools/wordpool_EN.txt	HOSE	8	2	[0, 0, 0]	n/a	FR1	1	R1339D
710.326	0.766	711380	WORD_OFF	n/a	n/a	HOSE	8	2	[0, 0, 0]	n/a	FR1	1	R1339D
711.092	1.634	712146	WORD	n/a	wordpools/wordpool_EN.txt	DEER	9	2	[0, 0, 0]	n/a	FR1	1	R1339D
712.726	0.952	713780	WORD_OFF	n/a	n/a	DEER	9	2	[0, 0, 0]	n/a	FR1	1	R1339D
713.678	1.632	714732	WORD	n/a	wordpools/wordpool_EN.txt	SEA	10	2	[0, 0, 0]	n/a	FR1	1	R1339D
715.31	0.813	716364	WORD_OFF	n/a	n/a	SEA	10	2	[0, 0, 0]	n/a	FR1	1	R1339D
716.123	1.637	717177	WORD	n/a	wordpools/wordpool_EN.txt	BREAD	11	2	[0, 0, 0]	n/a	FR1	1	R1339D
717.76	0.837	718814	WORD_OFF	n/a	n/a	BREAD	11	2	[0, 0, 0]	n/a	FR1	1	R1339D
718.597	1.631	719651	WORD	n/a	wordpools/wordpool_EN.txt	CROWN	12	2	[0, 0, 0]	n/a	FR1	1	R1339D
720.228	0.0	721281	WORD_OFF	n/a	n/a	CROWN	12	2	[0, 0, 0]	n/a	FR1	1	R1339D
720.228	0.0	721281	ENCODING_END	n/a	n/a	n/a	-999	2	[0, 0, 0]	n/a	FR1	1	R1339D
720.228	0.001	721281	DISTRACT_START	n/a	n/a	n/a	-999	2	[0, 0, 0]	n/a	FR1	1	R1339D
720.229	0.015	721282	START	n/a	n/a	n/a	-999	2	[-999, -999, -999]	n/a	FR1	1	R1339D
720.244	2.967	721297	PROB	2.967	n/a	n/a	-999	2	[5, 3, 7]	15	FR1	1	R1339D
723.211	2.417	724264	PROB	2.417	n/a	n/a	-999	2	[6, 5, 1]	12	FR1	1	R1339D
725.628	2.201	726681	PROB	2.201	n/a	n/a	-999	2	[1, 2, 6]	9	FR1	1	R1339D
727.829	1.95	728882	PROB	1.95	n/a	n/a	-999	2	[7, 2, 3]	12	FR1	1	R1339D
729.779	8.218	730832	PROB	8.218	n/a	n/a	-999	2	[8, 7, 8]	23	FR1	1	R1339D
737.997	7.012	739050	PROB	7.012	n/a	n/a	-999	2	[6, 5, 5]	16	FR1	1	R1339D
745.009	0.006	746061	STOP	n/a	n/a	n/a	-999	2	[-999, -999, -999]	n/a	FR1	1	R1339D
745.015	0.669	746067	DISTRACT_END	n/a	n/a	n/a	-999	2	[0, 0, 0]	n/a	FR1	1	R1339D
745.684	1.632	746736	RETRIEVAL_ORIENT_START	n/a	n/a	n/a	-999	2	[0, 0, 0]	n/a	FR1	1	R1339D
747.316	0.0	748368	REC_START	n/a	n/a	n/a	-999	2	[0, 0, 0]	n/a	FR1	1	R1339D
747.316	7.215	748368	RETRIEVAL_ORIENT_END	n/a	n/a	n/a	-999	2	[0, 0, 0]	n/a	FR1	1	R1339D
754.531	9.015	755583	REC_WORD	9.015	n/a	BEAR	-999	2	[0, 0, 0]	n/a	FR1	1	R1339D
763.546	13.782	764597	REC_WORD	13.782	n/a	WHALE	4	2	[0, 0, 0]	n/a	FR1	1	R1339D
777.328	0.001	778379	REC_END	n/a	n/a	n/a	-999	2	[0, 0, 0]	n/a	FR1	1	R1339D
777.329	0.014	778380	TRIAL_END	n/a	n/a	n/a	-999	2	[0, 0, 0]	n/a	FR1	1	R1339D
777.343	0.0	778394	TRIAL_START	n/a	n/a	n/a	-999	3	[0, 0, 0]	n/a	FR1	1	R1339D
777.343	0.0	778394	TRIAL	n/a	n/a	n/a	-999	3	[0, 0, 0]	n/a	FR1	1	R1339D
777.343	10.03	778394	WAITING_START	n/a	n/a	n/a	-999	3	[0, 0, 0]	n/a	FR1	1	R1339D
787.373	0.0	788423	WAITING_END	n/a	n/a	n/a	-999	3	[0, 0, 0]	n/a	FR1	1	R1339D
787.373	10.429	788423	COUNTDOWN_START	n/a	n/a	n/a	-999	3	[0, 0, 0]	n/a	FR1	1	R1339D
797.802	0.001	798852	COUNTDOWN_END	n/a	n/a	n/a	-999	3	[0, 0, 0]	n/a	FR1	1	R1339D
797.803	1.255	798853	ORIENT_START	n/a	n/a	n/a	-999	3	[0, 0, 0]	n/a	FR1	1	R1339D
799.058	0.001	800108	ORIENT_END	n/a	n/a	n/a	-999	3	[0, 0, 0]	n/a	FR1	1	R1339D
799.059	0.786	800109	ENCODING_START	n/a	n/a	n/a	-999	3	[0, 0, 0]	n/a	FR1	1	R1339D
799.845	1.631	800895	WORD	n/a	wordpools/wordpool_EN.txt	DOLL	1	3	[0, 0, 0]	n/a	FR1	1	R1339D
801.476	1.115	802526	WORD_OFF	n/a	n/a	DOLL	1	3	[0, 0, 0]	n/a	FR1	1	R1339D
802.591	1.635	803640	WORD	n/a	wordpools/wordpool_EN.txt	SWORD	2	3	[0, 0, 0]	n/a	FR1	1	R1339D
804.226	0.756	805275	WORD_OFF	n/a	n/a	SWORD	2	3	[0, 0, 0]	n/a	FR1	1	R1339D
804.982	1.628	806031	WORD	n/a	wordpools/wordpool_EN.txt	STEAM	3	3	[0, 0, 0]	n/a	FR1	1	R1339D
806.61	1.093	807659	WORD_OFF	n/a	n/a	STEAM	3	3	[0, 0, 0]	n/a	FR1	1	R1339D
807.703	1.624	808752	WORD	n/a	wordpools/wordpool_EN.txt	PLANT	4	3	[0, 0, 0]	n/a	FR1	1	R1339D
809.327	0.776	810376	WORD_OFF	n/a	n/a	PLANT	4	3	[0, 0, 0]	n/a	FR1	1	R1339D
810.103	1.625	811152	WORD	n/a	wordpools/wordpool_EN.txt	POND	5	3	[0, 0, 0]	n/a	FR1	1	R1339D
811.728	0.945	812777	WORD_OFF	n/a	n/a	POND	5	3	[0, 0, 0]	n/a	FR1	1	R1339D
812.673	1.638	813722	WORD	n/a	wordpools/wordpool_EN.txt	SLUSH	6	3	[0, 0, 0]	n/a	FR1	1	R1339D
814.311	0.964	815360	WORD_OFF	n/a	n/a	SLUSH	6	3	[0, 0, 0]	n/a	FR1	1	R1339D
815.275	1.637	816324	WORD	n/a	wordpools/wordpool_EN.txt	YARD	7	3	[0, 0, 0]	n/a	FR1	1	R1339D
816.912	0.781	817961	WORD_OFF	n/a	n/a	YARD	7	3	[0, 0, 0]	n/a	FR1	1	R1339D
817.693	1.636	818742	WORD	n/a	wordpools/wordpool_EN.txt	VASE	8	3	[0, 0, 0]	n/a	FR1	1	R1339D
819.329	0.79	820378	WORD_OFF	n/a	n/a	VASE	8	3	[0, 0, 0]	n/a	FR1	1	R1339D
820.119	1.627	821168	WORD	n/a	wordpools/wordpool_EN.txt	HORN	9	3	[0, 0, 0]	n/a	FR1	1	R1339D
821.746	0.845	822795	WORD_OFF	n/a	n/a	HORN	9	3	[0, 0, 0]	n/a	FR1	1	R1339D
822.591	1.622	823640	WORD	n/a	wordpools/wordpool_EN.txt	SQUARE	10	3	[0, 0, 0]	n/a	FR1	1	R1339D
824.213	0.982	825261	WORD_OFF	n/a	n/a	SQUARE	10	3	[0, 0, 0]	n/a	FR1	1	R1339D
825.195	1.635	826243	WORD	n/a	wordpools/wordpool_EN.txt	TEA	11	3	[0, 0, 0]	n/a	FR1	1	R1339D
826.83	1.013	827878	WORD_OFF	n/a	n/a	TEA	11	3	[0, 0, 0]	n/a	FR1	1	R1339D
827.843	1.621	828891	WORD	n/a	wordpools/wordpool_EN.txt	COW	12	3	[0, 0, 0]	n/a	FR1	1	R1339D
829.464	0.0	830512	WORD_OFF	n/a	n/a	COW	12	3	[0, 0, 0]	n/a	FR1	1	R1339D
829.464	0.001	830512	ENCODING_END	n/a	n/a	n/a	-999	3	[0, 0, 0]	n/a	FR1	1	R1339D
829.465	0.0	830513	DISTRACT_START	n/a	n/a	n/a	-999	3	[0, 0, 0]	n/a	FR1	1	R1339D
829.465	0.015	830513	START	n/a	n/a	n/a	-999	3	[-999, -999, -999]	n/a	FR1	1	R1339D
829.48	4.301	830528	PROB	4.301	n/a	n/a	-999	3	[4, 3, 3]	10	FR1	1	R1339D
833.781	1.967	834829	PROB	1.967	n/a	n/a	-999	3	[2, 2, 4]	8	FR1	1	R1339D
835.748	3.567	836796	PROB	3.567	n/a	n/a	-999	3	[9, 3, 5]	17	FR1	1	R1339D
839.315	2.451	840363	PROB	2.451	n/a	n/a	-999	3	[1, 1, 3]	5	FR1	1	R1339D
841.766	4.651	842814	PROB	4.651	n/a	n/a	-999	3	[6, 7, 1]	14	FR1	1	R1339D
846.417	6.103	847464	PROB	6.103	n/a	n/a	-999	3	[9, 8, 2]	19	FR1	1	R1339D
852.52	0.016	853567	STOP	n/a	n/a	n/a	-999	3	[-999, -999, -999]	n/a	FR1	1	R1339D
852.536	0.681	853583	DISTRACT_END	n/a	n/a	n/a	-999	3	[0, 0, 0]	n/a	FR1	1	R1339D
853.217	1.618	854264	RETRIEVAL_ORIENT_START	n/a	n/a	n/a	-999	3	[0, 0, 0]	n/a	FR1	1	R1339D
854.835	0.001	855882	RETRIEVAL_ORIENT_END	n/a	n/a	n/a	-999	3	[0, 0, 0]	n/a	FR1	1	R1339D
854.836	0.078	855883	REC_START	n/a	n/a	n/a	-999	3	[0, 0, 0]	n/a	FR1	1	R1339D
854.914	0.678	855961	REC_WORD	0.678	n/a	DOLL	1	3	[0, 0, 0]	n/a	FR1	1	R1339D
855.592	0.975	856639	REC_WORD	0.975	n/a	SWORD	2	3	[0, 0, 0]	n/a	FR1	1	R1339D
856.567	0.793	857614	REC_WORD	0.793	n/a	YARD	7	3	[0, 0, 0]	n/a	FR1	1	R1339D
857.36	27.487	858407	REC_WORD	27.487	n/a	POND	5	3	[0, 0, 0]	n/a	FR1	1	R1339D
884.847	0.001	885892	REC_END	n/a	n/a	n/a	-999	3	[0, 0, 0]	n/a	FR1	1	R1339D
884.848	0.014	885893	TRIAL_END	n/a	n/a	n/a	-999	3	[0, 0, 0]	n/a	FR1	1	R1339D
884.862	0.0	885907	TRIAL_START	n/a	n/a	n/a	-999	4	[0, 0, 0]	n/a	FR1	1	R1339D
884.862	0.0	885907	TRIAL	n/a	n/a	n/a	-999	4	[0, 0, 0]	n/a	FR1	1	R1339D
884.862	24.6	885907	WAITING_START	n/a	n/a	n/a	-999	4	[0, 0, 0]	n/a	FR1	1	R1339D
909.462	0.0	910506	WAITING_END	n/a	n/a	n/a	-999	4	[0, 0, 0]	n/a	FR1	1	R1339D
909.462	10.429	910506	COUNTDOWN_START	n/a	n/a	n/a	-999	4	[0, 0, 0]	n/a	FR1	1	R1339D
919.891	0.0	920935	COUNTDOWN_END	n/a	n/a	n/a	-999	4	[0, 0, 0]	n/a	FR1	1	R1339D
919.891	1.173	920935	ORIENT_START	n/a	n/a	n/a	-999	4	[0, 0, 0]	n/a	FR1	1	R1339D
921.064	0.001	922108	ORIENT_END	n/a	n/a	n/a	-999	4	[0, 0, 0]	n/a	FR1	1	R1339D
921.065	0.94	922109	ENCODING_START	n/a	n/a	n/a	-999	4	[0, 0, 0]	n/a	FR1	1	R1339D
922.005	1.626	923049	WORD	n/a	wordpools/wordpool_EN.txt	APE	1	4	[0, 0, 0]	n/a	FR1	1	R1339D
923.631	0.875	924675	WORD_OFF	n/a	n/a	APE	1	4	[0, 0, 0]	n/a	FR1	1	R1339D
924.506	1.625	925550	WORD	n/a	wordpools/wordpool_EN.txt	SHRIMP	2	4	[0, 0, 0]	n/a	FR1	1	R1339D
926.131	0.834	927174	WORD_OFF	n/a	n/a	SHRIMP	2	4	[0, 0, 0]	n/a	FR1	1	R1339D
926.965	1.635	928008	WORD	n/a	wordpools/wordpool_EN.txt	SINK	3	4	[0, 0, 0]	n/a	FR1	1	R1339D
928.6	0.957	929643	WORD_OFF	n/a	n/a	SINK	3	4	[0, 0, 0]	n/a	FR1	1	R1339D
929.557	1.625	930600	WORD	n/a	wordpools/wordpool_EN.txt	BRANCH	4	4	[0, 0, 0]	n/a	FR1	1	R1339D
931.182	0.788	932225	WORD_OFF	n/a	n/a	BRANCH	4	4	[0, 0, 0]	n/a	FR1	1	R1339D
931.97	1.614	933013	WORD	n/a	wordpools/wordpool_EN.txt	SKI	5	4	[0, 0, 0]	n/a	FR1	1	R1339D
933.584	0.993	934627	WORD_OFF	n/a	n/a	SKI	5	4	[0, 0, 0]	n/a	FR1	1	R1339D
934.577	1.623	935620	WORD	n/a	wordpools/wordpool_EN.txt	CROW	6	4	[0, 0, 0]	n/a	FR1	1	R1339D
936.2	0.837	937243	WORD_OFF	n/a	n/a	CROW	6	4	[0, 0, 0]	n/a	FR1	1	R1339D
937.037	1.63	938080	WORD	n/a	wordpools/wordpool_EN.txt	BUSH	7	4	[0, 0, 0]	n/a	FR1	1	R1339D
938.667	0.975	939710	WORD_OFF	n/a	n/a	BUSH	7	4	[0, 0, 0]	n/a	FR1	1	R1339D
939.642	1.626	940685	WORD	n/a	wordpools/wordpool_EN.txt	SALT	8	4	[0, 0, 0]	n/a	FR1	1	R1339D
941.268	0.821	942311	WORD_OFF	n/a	n/a	SALT	8	4	[0, 0, 0]	n/a	FR1	1	R1339D
942.089	1.629	943132	WORD	n/a	wordpools/wordpool_EN.txt	VAN	9	4	[0, 0, 0]	n/a	FR1	1	R1339D
943.718	0.888	944761	WORD_OFF	n/a	n/a	VAN	9	4	[0, 0, 0]	n/a	FR1	1	R1339D
944.606	1.629	945649	WORD	n/a	wordpools/wordpool_EN.txt	SWAMP	10	4	[0, 0, 0]	n/a	FR1	1	R1339D
946.235	0.926	947277	WORD_OFF	n/a	n/a	SWAMP	10	4	[0, 0, 0]	n/a	FR1	1	R1339D
947.161	1.625	948203	WORD	n/a	wordpools/wordpool_EN.txt	HOOK	11	4	[0, 0, 0]	n/a	FR1	1	R1339D
948.786	0.784	949828	WORD_OFF	n/a	n/a	HOOK	11	4	[0, 0, 0]	n/a	FR1	1	R1339D
949.57	1.633	950612	WORD	n/a	wordpools/wordpool_EN.txt	KEY	12	4	[0, 0, 0]	n/a	FR1	1	R1339D
951.203	0.0	952245	WORD_OFF	n/a	n/a	KEY	12	4	[0, 0, 0]	n/a	FR1	1	R1339D
951.203	0.001	952245	ENCODING_END	n/a	n/a	n/a	-999	4	[0, 0, 0]	n/a	FR1	1	R1339D
951.204	0.0	952246	DISTRACT_START	n/a	n/a	n/a	-999	4	[0, 0, 0]	n/a	FR1	1	R1339D
951.204	0.015	952246	START	n/a	n/a	n/a	-999	4	[-999, -999, -999]	n/a	FR1	1	R1339D
951.219	4.251	952261	PROB	4.251	n/a	n/a	-999	4	[2, 3, 9]	14	FR1	1	R1339D
955.47	12.087	956512	PROB	12.087	n/a	n/a	-999	4	[9, 8, 8]	25	FR1	1	R1339D
967.557	4.257	968598	PROB	4.257	n/a	n/a	-999	4	[3, 9, 6]	18	FR1	1	R1339D
971.814	0.009	972855	STOP	n/a	n/a	n/a	-999	4	[-999, -999, -999]	n/a	FR1	1	R1339D
971.823	0.566	972864	DISTRACT_END	n/a	n/a	n/a	-999	4	[0, 0, 0]	n/a	FR1	1	R1339D
972.389	1.534	973430	RETRIEVAL_ORIENT_START	n/a	n/a	n/a	-999	4	[0, 0, 0]	n/a	FR1	1	R1339D
973.923	0.001	974964	RETRIEVAL_ORIENT_END	n/a	n/a	n/a	-999	4	[0, 0, 0]	n/a	FR1	1	R1339D
973.924	1.026	974965	REC_START	n/a	n/a	n/a	-999	4	[0, 0, 0]	n/a	FR1	1	R1339D
974.95	0.981	975991	REC_WORD	0.981	n/a	SKI	5	4	[0, 0, 0]	n/a	FR1	1	R1339D
975.931	0.552	976972	REC_WORD	0.552	n/a	HOOK	11	4	[0, 0, 0]	n/a	FR1	1	R1339D
976.483	10.098	977524	REC_WORD	10.098	n/a	SHRIMP	2	4	[0, 0, 0]	n/a	FR1	1	R1339D
986.581	17.356	987622	REC_WORD	17.356	n/a	BOARD	-999	4	[0, 0, 0]	n/a	FR1	1	R1339D
1003.937	0.001	1004977	REC_END	n/a	n/a	n/a	-999	4	[0, 0, 0]	n/a	FR1	1	R1339D
1003.938	0.016	1004978	TRIAL_END	n/a	n/a	n/a	-999	4	[0, 0, 0]	n/a	FR1	1	R1339D
1003.954	0.001	1004994	TRIAL_START	n/a	n/a	n/a	-999	5	[0, 0, 0]	n/a	FR1	1	R1339D
1003.955	0.0	1004995	TRIAL	n/a	n/a	n/a	-999	5	[0, 0, 0]	n/a	FR1	1	R1339D
1003.955	22.145	1004995	WAITING_START	n/a	n/a	n/a	-999	5	[0, 0, 0]	n/a	FR1	1	R1339D
1026.1	0.0	1027139	WAITING_END	n/a	n/a	n/a	-999	5	[0, 0, 0]	n/a	FR1	1	R1339D
1026.1	10.428	1027139	COUNTDOWN_START	n/a	n/a	n/a	-999	5	[0, 0, 0]	n/a	FR1	1	R1339D
1036.528	0.001	1037566	COUNTDOWN_END	n/a	n/a	n/a	-999	5	[0, 0, 0]	n/a	FR1	1	R1339D
1036.529	1.173	1037567	ORIENT_START	n/a	n/a	n/a	-999	5	[0, 0, 0]	n/a	FR1	1	R1339D
1037.702	0.0	1038740	ORIENT_END	n/a	n/a	n/a	-999	5	[0, 0, 0]	n/a	FR1	1	R1339D
1037.702	0.958	1038740	ENCODING_START	n/a	n/a	n/a	-999	5	[0, 0, 0]	n/a	FR1	1	R1339D
1038.66	1.625	1039698	WORD	n/a	wordpools/wordpool_EN.txt	PIE	1	5	[0, 0, 0]	n/a	FR1	1	R1339D
1040.285	0.841	1041323	WORD_OFF	n/a	n/a	PIE	1	5	[0, 0, 0]	n/a	FR1	1	R1339D
1041.126	1.627	1042164	WORD	n/a	wordpools/wordpool_EN.txt	PEAR	2	5	[0, 0, 0]	n/a	FR1	1	R1339D
1042.753	1.119	1043791	WORD_OFF	n/a	n/a	PEAR	2	5	[0, 0, 0]	n/a	FR1	1	R1339D
1043.872	1.631	1044910	WORD	n/a	wordpools/wordpool_EN.txt	TOAST	3	5	[0, 0, 0]	n/a	FR1	1	R1339D
1045.503	0.912	1046541	WORD_OFF	n/a	n/a	TOAST	3	5	[0, 0, 0]	n/a	FR1	1	R1339D
1046.415	1.622	1047453	WORD	n/a	wordpools/wordpool_EN.txt	PLATE	4	5	[0, 0, 0]	n/a	FR1	1	R1339D
1048.037	0.867	1049075	WORD_OFF	n/a	n/a	PLATE	4	5	[0, 0, 0]	n/a	FR1	1	R1339D
1048.904	1.634	1049942	WORD	n/a	wordpools/wordpool_EN.txt	BOOK	5	5	[0, 0, 0]	n/a	FR1	1	R1339D
1050.538	0.899	1051575	WORD_OFF	n/a	n/a	BOOK	5	5	[0, 0, 0]	n/a	FR1	1	R1339D
1051.437	1.634	1052474	WORD	n/a	wordpools/wordpool_EN.txt	HAND	6	5	[0, 0, 0]	n/a	FR1	1	R1339D
1053.071	1.069	1054108	WORD_OFF	n/a	n/a	HAND	6	5	[0, 0, 0]	n/a	FR1	1	R1339D
1054.14	1.632	1055177	WORD	n/a	wordpools/wordpool_EN.txt	TOY	7	5	[0, 0, 0]	n/a	FR1	1	R1339D
1055.772	1.144	1056809	WORD_OFF	n/a	n/a	TOY	7	5	[0, 0, 0]	n/a	FR1	1	R1339D
1056.916	1.624	1057953	WORD	n/a	wordpools/wordpool_EN.txt	NOSE	8	5	[0, 0, 0]	n/a	FR1	1	R1339D
1058.54	0.808	1059577	WORD_OFF	n/a	n/a	NOSE	8	5	[0, 0, 0]	n/a	FR1	1	R1339D
1059.348	1.625	1060385	WORD	n/a	wordpools/wordpool_EN.txt	STAR	9	5	[0, 0, 0]	n/a	FR1	1	R1339D
1060.973	1.142	1062010	WORD_OFF	n/a	n/a	STAR	9	5	[0, 0, 0]	n/a	FR1	1	R1339D
1062.115	1.625	1063152	WORD	n/a	wordpools/wordpool_EN.txt	ARK	10	5	[0, 0, 0]	n/a	FR1	1	R1339D
1063.74	1.017	1064777	WORD_OFF	n/a	n/a	ARK	10	5	[0, 0, 0]	n/a	FR1	1	R1339D
1064.757	1.633	1065794	WORD	n/a	wordpools/wordpool_EN.txt	STOOL	11	5	[0, 0, 0]	n/a	FR1	1	R1339D
1066.39	0.888	1067427	WORD_OFF	n/a	n/a	STOOL	11	5	[0, 0, 0]	n/a	FR1	1	R1339D
1067.278	1.629	1068315	WORD	n/a	wordpools/wordpool_EN.txt	DITCH	12	5	[0, 0, 0]	n/a	FR1	1	R1339D
1068.907	0.001	1069944	WORD_OFF	n/a	n/a	DITCH	12	5	[0, 0, 0]	n/a	FR1	1	R1339D
1068.908	0.0	1069945	ENCODING_END	n/a	n/a	n/a	-999	5	[0, 0, 0]	n/a	FR1	1	R1339D
1068.908	0.001	1069945	DISTRACT_START	n/a	n/a	n/a	-999	5	[0, 0, 0]	n/a	FR1	1	R1339D
1068.909	0.015	1069946	START	n/a	n/a	n/a	-999	5	[-999, -999, -999]	n/a	FR1	1	R1339D
1068.924	3.967	1069961	PROB	3.967	n/a	n/a	-999	5	[3, 8, 1]	12	FR1	1	R1339D
1072.891	2.351	1073927	PROB	2.351	n/a	n/a	-999	5	[6, 8, 2]	16	FR1	1	R1339D
1075.242	15.588	1076278	PROB	15.588	n/a	n/a	-999	5	[7, 8, 9]	24	FR1	1	R1339D
1090.83	0.015	1091865	STOP	n/a	n/a	n/a	-999	5	[-999, -999, -999]	n/a	FR1	1	R1339D
1090.845	0.574	1091880	DISTRACT_END	n/a	n/a	n/a	-999	5	[0, 0, 0]	n/a	FR1	1	R1339D
1091.419	1.643	1092454	RETRIEVAL_ORIENT_START	n/a	n/a	n/a	-999	5	[0, 0, 0]	n/a	FR1	1	R1339D
1093.062	0.0	1094097	REC_START	n/a	n/a	n/a	-999	5	[0, 0, 0]	n/a	FR1	1	R1339D
1093.062	1.73	1094097	RETRIEVAL_ORIENT_END	n/a	n/a	n/a	-999	5	[0, 0, 0]	n/a	FR1	1	R1339D
1094.792	0.691	1095827	REC_WORD	0.691	n/a	PEAR	2	5	[0, 0, 0]	n/a	FR1	1	R1339D
1095.483	0.673	1096518	REC_WORD	0.673	n/a	PIE	1	5	[0, 0, 0]	n/a	FR1	1	R1339D
1096.156	3.03	1097191	REC_WORD	3.03	n/a	PLATE	4	5	[0, 0, 0]	n/a	FR1	1	R1339D
1099.186	0.614	1100221	REC_WORD	0.614	n/a	ARK	10	5	[0, 0, 0]	n/a	FR1	1	R1339D
1099.8	23.274	1100835	REC_WORD	23.274	n/a	STAR	9	5	[0, 0, 0]	n/a	FR1	1	R1339D
1123.074	0.0	1124108	REC_END	n/a	n/a	n/a	-999	5	[0, 0, 0]	n/a	FR1	1	R1339D
1123.074	0.018	1124108	TRIAL_END	n/a	n/a	n/a	-999	5	[0, 0, 0]	n/a	FR1	1	R1339D
1123.092	0.0	1124126	TRIAL_START	n/a	n/a	n/a	-999	6	[0, 0, 0]	n/a	FR1	1	R1339D
1123.092	0.0	1124126	TRIAL	n/a	n/a	n/a	-999	6	[0, 0, 0]	n/a	FR1	1	R1339D
1123.092	3.093	1124126	WAITING_START	n/a	n/a	n/a	-999	6	[0, 0, 0]	n/a	FR1	1	R1339D
1126.185	0.0	1127219	WAITING_END	n/a	n/a	n/a	-999	6	[0, 0, 0]	n/a	FR1	1	R1339D
1126.185	10.429	1127219	COUNTDOWN_START	n/a	n/a	n/a	-999	6	[0, 0, 0]	n/a	FR1	1	R1339D
1136.614	0.0	1137647	ORIENT_START	n/a	n/a	n/a	-999	6	[0, 0, 0]	n/a	FR1	1	R1339D
1136.614	1.189	1137647	COUNTDOWN_END	n/a	n/a	n/a	-999	6	[0, 0, 0]	n/a	FR1	1	R1339D
1137.803	0.001	1138836	ORIENT_END	n/a	n/a	n/a	-999	6	[0, 0, 0]	n/a	FR1	1	R1339D
1137.804	1.103	1138837	ENCODING_START	n/a	n/a	n/a	-999	6	[0, 0, 0]	n/a	FR1	1	R1339D
1138.907	1.631	1139940	WORD	n/a	wordpools/wordpool_EN.txt	STORE	1	6	[0, 0, 0]	n/a	FR1	1	R1339D
1140.538	0.993	1141571	WORD_OFF	n/a	n/a	STORE	1	6	[0, 0, 0]	n/a	FR1	1	R1339D
1141.531	1.623	1142564	WORD	n/a	wordpools/wordpool_EN.txt	MUG	2	6	[0, 0, 0]	n/a	FR1	1	R1339D
1143.154	1.058	1144187	WORD_OFF	n/a	n/a	MUG	2	6	[0, 0, 0]	n/a	FR1	1	R1339D
1144.212	1.626	1145245	WORD	n/a	wordpools/wordpool_EN.txt	DOCK	3	6	[0, 0, 0]	n/a	FR1	1	R1339D
1145.838	0.807	1146871	WORD_OFF	n/a	n/a	DOCK	3	6	[0, 0, 0]	n/a	FR1	1	R1339D
1146.645	1.627	1147678	WORD	n/a	wordpools/wordpool_EN.txt	BANK	4	6	[0, 0, 0]	n/a	FR1	1	R1339D
1148.272	0.891	1149305	WORD_OFF	n/a	n/a	BANK	4	6	[0, 0, 0]	n/a	FR1	1	R1339D
1149.163	1.626	1150196	WORD	n/a	wordpools/wordpool_EN.txt	DRUM	5	6	[0, 0, 0]	n/a	FR1	1	R1339D
1150.789	0.762	1151822	WORD_OFF	n/a	n/a	DRUM	5	6	[0, 0, 0]	n/a	FR1	1	R1339D
1151.551	1.622	1152584	WORD	n/a	wordpools/wordpool_EN.txt	EEL	6	6	[0, 0, 0]	n/a	FR1	1	R1339D
1153.173	1.07	1154205	WORD_OFF	n/a	n/a	EEL	6	6	[0, 0, 0]	n/a	FR1	1	R1339D
1154.243	1.63	1155275	WORD	n/a	wordpools/wordpool_EN.txt	PLANE	7	6	[0, 0, 0]	n/a	FR1	1	R1339D
1155.873	1.045	1156905	WORD_OFF	n/a	n/a	PLANE	7	6	[0, 0, 0]	n/a	FR1	1	R1339D
1156.918	1.607	1157950	WORD	n/a	wordpools/wordpool_EN.txt	SKY	8	6	[0, 0, 0]	n/a	FR1	1	R1339D
1158.525	0.95	1159557	WORD_OFF	n/a	n/a	SKY	8	6	[0, 0, 0]	n/a	FR1	1	R1339D
1159.475	1.633	1160507	WORD	n/a	wordpools/wordpool_EN.txt	CLOUD	9	6	[0, 0, 0]	n/a	FR1	1	R1339D
1161.108	1.104	1162140	WORD_OFF	n/a	n/a	CLOUD	9	6	[0, 0, 0]	n/a	FR1	1	R1339D
1162.212	1.629	1163244	WORD	n/a	wordpools/wordpool_EN.txt	BEAN	10	6	[0, 0, 0]	n/a	FR1	1	R1339D
1163.841	0.97	1164873	WORD_OFF	n/a	n/a	BEAN	10	6	[0, 0, 0]	n/a	FR1	1	R1339D
1164.811	1.631	1165843	WORD	n/a	wordpools/wordpool_EN.txt	ROOM	11	6	[0, 0, 0]	n/a	FR1	1	R1339D
1166.442	0.988	1167474	WORD_OFF	n/a	n/a	ROOM	11	6	[0, 0, 0]	n/a	FR1	1	R1339D
1167.43	1.629	1168462	WORD	n/a	wordpools/wordpool_EN.txt	FISH	12	6	[0, 0, 0]	n/a	FR1	1	R1339D
1169.059	0.0	1170091	WORD_OFF	n/a	n/a	FISH	12	6	[0, 0, 0]	n/a	FR1	1	R1339D
1169.059	0.001	1170091	ENCODING_END	n/a	n/a	n/a	-999	6	[0, 0, 0]	n/a	FR1	1	R1339D
1169.06	0.0	1170092	DISTRACT_START	n/a	n/a	n/a	-999	6	[0, 0, 0]	n/a	FR1	1	R1339D
1169.06	0.015	1170092	START	n/a	n/a	n/a	-999	6	[-999, -999, -999]	n/a	FR1	1	R1339D
1169.075	2.801	1170107	PROB	2.801	n/a	n/a	-999	6	[4, 6, 1]	11	FR1	1	R1339D
1171.876	12.152	1172908	PROB	12.152	n/a	n/a	-999	6	[8, 9, 7]	24	FR1	1	R1339D
1184.028	2.568	1185059	PROB	2.568	n/a	n/a	-999	6	[7, 7, 7]	21	FR1	1	R1339D
1186.596	4.516	1187627	PROB	4.516	n/a	n/a	-999	6	[4, 7, 4]	15	FR1	1	R1339D
1191.112	0.018	1192143	STOP	n/a	n/a	n/a	-999	6	[-999, -999, -999]	n/a	FR1	1	R1339D
1191.13	0.638	1192161	DISTRACT_END	n/a	n/a	n/a	-999	6	[0, 0, 0]	n/a	FR1	1	R1339D
1191.768	1.545	1192799	RETRIEVAL_ORIENT_START	n/a	n/a	n/a	-999	6	[0, 0, 0]	n/a	FR1	1	R1339D
1193.313	0.001	1194343	RETRIEVAL_ORIENT_END	n/a	n/a	n/a	-999	6	[0, 0, 0]	n/a	FR1	1	R1339D
1193.314	4.256	1194344	REC_START	n/a	n/a	n/a	-999	6	[0, 0, 0]	n/a	FR1	1	R1339D
1197.57	0.455	1198600	REC_WORD	0.455	n/a	EEL	6	6	[0, 0, 0]	n/a	FR1	1	R1339D
1198.025	25.302	1199055	REC_WORD	25.302	n/a	FISH	12	6	[0, 0, 0]	n/a	FR1	1	R1339D
1223.327	0.0	1224356	REC_END	n/a	n/a	n/a	-999	6	[0, 0, 0]	n/a	FR1	1	R1339D
1223.327	0.015	1224356	TRIAL_END	n/a	n/a	n/a	-999	6	[0, 0, 0]	n/a	FR1	1	R1339D
1223.342	0.0	1224371	TRIAL_START	n/a	n/a	n/a	-999	7	[0, 0, 0]	n/a	FR1	1	R1339D
1223.342	0.0	1224371	TRIAL	n/a	n/a	n/a	-999	7	[0, 0, 0]	n/a	FR1	1	R1339D
1223.342	15.313	1224371	WAITING_START	n/a	n/a	n/a	-999	7	[0, 0, 0]	n/a	FR1	1	R1339D
1238.655	0.0	1239683	WAITING_END	n/a	n/a	n/a	-999	7	[0, 0, 0]	n/a	FR1	1	R1339D
1238.655	10.429	1239683	COUNTDOWN_START	n/a	n/a	n/a	-999	7	[0, 0, 0]	n/a	FR1	1	R1339D
1249.084	0.0	1250112	COUNTDOWN_END	n/a	n/a	n/a	-999	7	[0, 0, 0]	n/a	FR1	1	R1339D
1249.084	1.206	1250112	ORIENT_START	n/a	n/a	n/a	-999	7	[0, 0, 0]	n/a	FR1	1	R1339D
1250.29	0.001	1251318	ORIENT_END	n/a	n/a	n/a	-999	7	[0, 0, 0]	n/a	FR1	1	R1339D
1250.291	1.009	1251319	ENCODING_START	n/a	n/a	n/a	-999	7	[0, 0, 0]	n/a	FR1	1	R1339D
1251.3	1.624	1252328	WORD	n/a	wordpools/wordpool_EN.txt	CANE	1	7	[0, 0, 0]	n/a	FR1	1	R1339D
1252.924	1.048	1253952	WORD_OFF	n/a	n/a	CANE	1	7	[0, 0, 0]	n/a	FR1	1	R1339D
1253.972	1.637	1255000	WORD	n/a	wordpools/wordpool_EN.txt	RUG	2	7	[0, 0, 0]	n/a	FR1	1	R1339D
1255.609	0.77	1256636	WORD_OFF	n/a	n/a	RUG	2	7	[0, 0, 0]	n/a	FR1	1	R1339D
1256.379	1.63	1257406	WORD	n/a	wordpools/wordpool_EN.txt	CAGE	3	7	[0, 0, 0]	n/a	FR1	1	R1339D
1258.009	1.031	1259036	WORD_OFF	n/a	n/a	CAGE	3	7	[0, 0, 0]	n/a	FR1	1	R1339D
1259.04	1.636	1260067	WORD	n/a	wordpools/wordpool_EN.txt	LAMP	4	7	[0, 0, 0]	n/a	FR1	1	R1339D
1260.676	1.012	1261703	WORD_OFF	n/a	n/a	LAMP	4	7	[0, 0, 0]	n/a	FR1	1	R1339D
1261.688	1.638	1262715	WORD	n/a	wordpools/wordpool_EN.txt	ROAD	5	7	[0, 0, 0]	n/a	FR1	1	R1339D
1263.326	1.139	1264353	WORD_OFF	n/a	n/a	ROAD	5	7	[0, 0, 0]	n/a	FR1	1	R1339D
1264.465	1.628	1265492	WORD	n/a	wordpools/wordpool_EN.txt	SMOKE	6	7	[0, 0, 0]	n/a	FR1	1	R1339D
1266.093	1.01	1267120	WORD_OFF	n/a	n/a	SMOKE	6	7	[0, 0, 0]	n/a	FR1	1	R1339D
1267.103	1.624	1268130	WORD	n/a	wordpools/wordpool_EN.txt	SUN	7	7	[0, 0, 0]	n/a	FR1	1	R1339D
1268.727	0.951	1269754	WORD_OFF	n/a	n/a	SUN	7	7	[0, 0, 0]	n/a	FR1	1	R1339D
1269.678	1.633	1270705	WORD	n/a	wordpools/wordpool_EN.txt	SUIT	8	7	[0, 0, 0]	n/a	FR1	1	R1339D
1271.311	1.056	1272338	WORD_OFF	n/a	n/a	SUIT	8	7	[0, 0, 0]	n/a	FR1	1	R1339D
1272.367	1.628	1273394	WORD	n/a	wordpools/wordpool_EN.txt	CART	9	7	[0, 0, 0]	n/a	FR1	1	R1339D
1273.995	0.808	1275022	WORD_OFF	n/a	n/a	CART	9	7	[0, 0, 0]	n/a	FR1	1	R1339D
1274.803	1.626	1275830	WORD	n/a	wordpools/wordpool_EN.txt	SHOE	10	7	[0, 0, 0]	n/a	FR1	1	R1339D
1276.429	1.148	1277455	WORD_OFF	n/a	n/a	SHOE	10	7	[0, 0, 0]	n/a	FR1	1	R1339D
1277.577	1.635	1278603	WORD	n/a	wordpools/wordpool_EN.txt	PASTE	11	7	[0, 0, 0]	n/a	FR1	1	R1339D
1279.212	0.995	1280238	WORD_OFF	n/a	n/a	PASTE	11	7	[0, 0, 0]	n/a	FR1	1	R1339D
1280.207	1.622	1281233	WORD	n/a	wordpools/wordpool_EN.txt	TOOTH	12	7	[0, 0, 0]	n/a	FR1	1	R1339D
1281.829	0.001	1282855	WORD_OFF	n/a	n/a	TOOTH	12	7	[0, 0, 0]	n/a	FR1	1	R1339D
1281.83	0.0	1282856	ENCODING_END	n/a	n/a	n/a	-999	7	[0, 0, 0]	n/a	FR1	1	R1339D
1281.83	0.0	1282856	DISTRACT_START	n/a	n/a	n/a	-999	7	[0, 0, 0]	n/a	FR1	1	R1339D
1281.83	0.016	1282856	START	n/a	n/a	n/a	-999	7	[-999, -999, -999]	n/a	FR1	1	R1339D
1281.846	10.168	1282872	PROB	10.168	n/a	n/a	-999	7	[9, 8, 3]	20	FR1	1	R1339D
1292.014	2.234	1293040	PROB	2.234	n/a	n/a	-999	7	[5, 2, 5]	12	FR1	1	R1339D
1294.248	1.934	1295274	PROB	1.934	n/a	n/a	-999	7	[1, 6, 1]	8	FR1	1	R1339D
1296.182	14.727	1297207	PROB	14.727	n/a	n/a	-999	7	[4, 4, 5]	13	FR1	1	R1339D
1310.909	0.009	1311934	STOP	n/a	n/a	n/a	-999	7	[-999, -999, -999]	n/a	FR1	1	R1339D
1310.918	0.514	1311943	DISTRACT_END	n/a	n/a	n/a	-999	7	[0, 0, 0]	n/a	FR1	1	R1339D
1311.432	1.603	1312457	RETRIEVAL_ORIENT_START	n/a	n/a	n/a	-999	7	[0, 0, 0]	n/a	FR1	1	R1339D
1313.035	0.0	1314060	REC_START	n/a	n/a	n/a	-999	7	[0, 0, 0]	n/a	FR1	1	R1339D
1313.035	29.994	1314060	RETRIEVAL_ORIENT_END	n/a	n/a	n/a	-999	7	[0, 0, 0]	n/a	FR1	1	R1339D
1343.029	0.02	1344052	REC_WORD_VV	0.02	n/a	<>	-999	7	[0, 0, 0]	n/a	FR1	1	R1339D
1343.049	0.001	1344072	REC_END	n/a	n/a	n/a	-999	7	[0, 0, 0]	n/a	FR1	1	R1339D
1343.05	0.017	1344073	TRIAL_END	n/a	n/a	n/a	-999	7	[0, 0, 0]	n/a	FR1	1	R1339D
1343.067	0.0	1344090	TRIAL_START	n/a	n/a	n/a	-999	8	[0, 0, 0]	n/a	FR1	1	R1339D
1343.067	0.0	1344090	TRIAL	n/a	n/a	n/a	-999	8	[0, 0, 0]	n/a	FR1	1	R1339D
1343.067	34.897	1344090	WAITING_START	n/a	n/a	n/a	-999	8	[0, 0, 0]	n/a	FR1	1	R1339D
1377.964	0.0	1378985	WAITING_END	n/a	n/a	n/a	-999	8	[0, 0, 0]	n/a	FR1	1	R1339D
1377.964	10.429	1378985	COUNTDOWN_START	n/a	n/a	n/a	-999	8	[0, 0, 0]	n/a	FR1	1	R1339D
1388.393	0.0	1389414	COUNTDOWN_END	n/a	n/a	n/a	-999	8	[0, 0, 0]	n/a	FR1	1	R1339D
1388.393	1.14	1389414	ORIENT_START	n/a	n/a	n/a	-999	8	[0, 0, 0]	n/a	FR1	1	R1339D
1389.533	0.001	1390554	ORIENT_END	n/a	n/a	n/a	-999	8	[0, 0, 0]	n/a	FR1	1	R1339D
1389.534	0.99	1390555	ENCODING_START	n/a	n/a	n/a	-999	8	[0, 0, 0]	n/a	FR1	1	R1339D
1390.524	1.626	1391545	WORD	n/a	wordpools/wordpool_EN.txt	SPOON	1	8	[0, 0, 0]	n/a	FR1	1	R1339D
1392.15	0.835	1393171	WORD_OFF	n/a	n/a	SPOON	1	8	[0, 0, 0]	n/a	FR1	1	R1339D
1392.985	1.632	1394006	WORD	n/a	wordpools/wordpool_EN.txt	HAT	2	8	[0, 0, 0]	n/a	FR1	1	R1339D
1394.617	0.818	1395638	WORD_OFF	n/a	n/a	HAT	2	8	[0, 0, 0]	n/a	FR1	1	R1339D
1395.435	1.632	1396456	WORD	n/a	wordpools/wordpool_EN.txt	BADGE	3	8	[0, 0, 0]	n/a	FR1	1	R1339D
1397.067	1.119	1398088	WORD_OFF	n/a	n/a	BADGE	3	8	[0, 0, 0]	n/a	FR1	1	R1339D
1398.186	1.632	1399207	WORD	n/a	wordpools/wordpool_EN.txt	SAIL	4	8	[0, 0, 0]	n/a	FR1	1	R1339D
1399.818	0.759	1400838	WORD_OFF	n/a	n/a	SAIL	4	8	[0, 0, 0]	n/a	FR1	1	R1339D
1400.577	1.624	1401597	WORD	n/a	wordpools/wordpool_EN.txt	GLOVE	5	8	[0, 0, 0]	n/a	FR1	1	R1339D
1402.201	1.1	1403221	WORD_OFF	n/a	n/a	GLOVE	5	8	[0, 0, 0]	n/a	FR1	1	R1339D
1403.301	1.634	1404321	WORD	n/a	wordpools/wordpool_EN.txt	HEN	6	8	[0, 0, 0]	n/a	FR1	1	R1339D
1404.935	0.935	1405955	WORD_OFF	n/a	n/a	HEN	6	8	[0, 0, 0]	n/a	FR1	1	R1339D
1405.87	1.632	1406890	WORD	n/a	wordpools/wordpool_EN.txt	FOOD	7	8	[0, 0, 0]	n/a	FR1	1	R1339D
1407.502	0.967	1408522	WORD_OFF	n/a	n/a	FOOD	7	8	[0, 0, 0]	n/a	FR1	1	R1339D
1408.469	1.634	1409489	WORD	n/a	wordpools/wordpool_EN.txt	PIN	8	8	[0, 0, 0]	n/a	FR1	1	R1339D
1410.103	0.98	1411123	WORD_OFF	n/a	n/a	PIN	8	8	[0, 0, 0]	n/a	FR1	1	R1339D
1411.083	1.637	1412103	WORD	n/a	wordpools/wordpool_EN.txt	PEACH	9	8	[0, 0, 0]	n/a	FR1	1	R1339D
1412.72	1.119	1413740	WORD_OFF	n/a	n/a	PEACH	9	8	[0, 0, 0]	n/a	FR1	1	R1339D
1413.839	1.632	1414859	WORD	n/a	wordpools/wordpool_EN.txt	MAP	10	8	[0, 0, 0]	n/a	FR1	1	R1339D
1415.471	1.087	1416491	WORD_OFF	n/a	n/a	MAP	10	8	[0, 0, 0]	n/a	FR1	1	R1339D
1416.558	1.63	1417578	WORD	n/a	wordpools/wordpool_EN.txt	SHELL	11	8	[0, 0, 0]	n/a	FR1	1	R1339D
1418.188	0.777	1419208	WORD_OFF	n/a	n/a	SHELL	11	8	[0, 0, 0]	n/a	FR1	1	R1339D
1418.965	1.607	1419985	WORD	n/a	wordpools/wordpool_EN.txt	WOOD	12	8	[0, 0, 0]	n/a	FR1	1	R1339D
1420.572	0.001	1421591	WORD_OFF	n/a	n/a	WOOD	12	8	[0, 0, 0]	n/a	FR1	1	R1339D
1420.573	0.0	1421592	ENCODING_END	n/a	n/a	n/a	-999	8	[0, 0, 0]	n/a	FR1	1	R1339D
1420.573	0.0	1421592	DISTRACT_START	n/a	n/a	n/a	-999	8	[0, 0, 0]	n/a	FR1	1	R1339D
1420.573	0.016	1421592	START	n/a	n/a	n/a	-999	8	[-999, -999, -999]	n/a	FR1	1	R1339D
1420.589	2.599	1421608	PROB	2.599	n/a	n/a	-999	8	[1, 2, 3]	6	FR1	1	R1339D
1423.188	5.601	1424207	PROB	5.601	n/a	n/a	-999	8	[2, 7, 4]	13	FR1	1	R1339D
1428.789	2.618	1429808	PROB	2.618	n/a	n/a	-999	8	[5, 5, 4]	14	FR1	1	R1339D
1431.407	2.717	1432426	PROB	2.717	n/a	n/a	-999	8	[4, 5, 5]	14	FR1	1	R1339D
1434.124	2.05	1435143	PROB	2.05	n/a	n/a	-999	8	[1, 2, 3]	6	FR1	1	R1339D
1436.174	3.451	1437193	PROB	3.451	n/a	n/a	-999	8	[4, 8, 6]	18	FR1	1	R1339D
1439.625	2.366	1440644	PROB	2.366	n/a	n/a	-999	8	[2, 2, 9]	13	FR1	1	R1339D
1441.991	0.018	1443009	STOP	n/a	n/a	n/a	-999	8	[-999, -999, -999]	n/a	FR1	1	R1339D
1442.009	0.539	1443027	DISTRACT_END	n/a	n/a	n/a	-999	8	[0, 0, 0]	n/a	FR1	1	R1339D
1442.548	1.578	1443566	RETRIEVAL_ORIENT_START	n/a	n/a	n/a	-999	8	[0, 0, 0]	n/a	FR1	1	R1339D
1444.126	0.0	1445144	RETRIEVAL_ORIENT_END	n/a	n/a	n/a	-999	8	[0, 0, 0]	n/a	FR1	1	R1339D
1444.126	1.49	1445144	REC_START	n/a	n/a	n/a	-999	8	[0, 0, 0]	n/a	FR1	1	R1339D
1445.616	0.688	1446634	REC_WORD	0.688	n/a	HEN	6	8	[0, 0, 0]	n/a	FR1	1	R1339D
1446.304	0.828	1447322	REC_WORD	0.828	n/a	WOOD	12	8	[0, 0, 0]	n/a	FR1	1	R1339D
1447.132	27.007	1448150	REC_WORD	27.007	n/a	SHELL	11	8	[0, 0, 0]	n/a	FR1	1	R1339D
1474.139	0.0	1475156	REC_END	n/a	n/a	n/a	-999	8	[0, 0, 0]	n/a	FR1	1	R1339D
1474.139	0.015	1475156	TRIAL_END	n/a	n/a	n/a	-999	8	[0, 0, 0]	n/a	FR1	1	R1339D
1474.154	0.0	1475171	TRIAL_START	n/a	n/a	n/a	-999	9	[0, 0, 0]	n/a	FR1	1	R1339D
1474.154	0.0	1475171	TRIAL	n/a	n/a	n/a	-999	9	[0, 0, 0]	n/a	FR1	1	R1339D
1474.154	3.878	1475171	WAITING_START	n/a	n/a	n/a	-999	9	[0, 0, 0]	n/a	FR1	1	R1339D
1478.032	0.0	1479049	WAITING_END	n/a	n/a	n/a	-999	9	[0, 0, 0]	n/a	FR1	1	R1339D
1478.032	10.428	1479049	COUNTDOWN_START	n/a	n/a	n/a	-999	9	[0, 0, 0]	n/a	FR1	1	R1339D
1488.46	0.0	1489476	COUNTDOWN_END	n/a	n/a	n/a	-999	9	[0, 0, 0]	n/a	FR1	1	R1339D
1488.46	1.174	1489476	ORIENT_START	n/a	n/a	n/a	-999	9	[0, 0, 0]	n/a	FR1	1	R1339D
1489.634	0.001	1490650	ORIENT_END	n/a	n/a	n/a	-999	9	[0, 0, 0]	n/a	FR1	1	R1339D
1489.635	0.915	1490651	ENCODING_START	n/a	n/a	n/a	-999	9	[0, 0, 0]	n/a	FR1	1	R1339D
1490.55	1.635	1491566	WORD	n/a	wordpools/wordpool_EN.txt	LEG	1	9	[0, 0, 0]	n/a	FR1	1	R1339D
1492.185	0.866	1493201	WORD_OFF	n/a	n/a	LEG	1	9	[0, 0, 0]	n/a	FR1	1	R1339D
1493.051	1.634	1494067	WORD	n/a	wordpools/wordpool_EN.txt	BRICK	2	9	[0, 0, 0]	n/a	FR1	1	R1339D
1494.685	0.902	1495701	WORD_OFF	n/a	n/a	BRICK	2	9	[0, 0, 0]	n/a	FR1	1	R1339D
1495.587	1.632	1496603	WORD	n/a	wordpools/wordpool_EN.txt	BATH	3	9	[0, 0, 0]	n/a	FR1	1	R1339D
1497.219	1.067	1498235	WORD_OFF	n/a	n/a	BATH	3	9	[0, 0, 0]	n/a	FR1	1	R1339D
1498.286	1.633	1499302	WORD	n/a	wordpools/wordpool_EN.txt	FLAG	4	9	[0, 0, 0]	n/a	FR1	1	R1339D
1499.919	0.969	1500935	WORD_OFF	n/a	n/a	FLAG	4	9	[0, 0, 0]	n/a	FR1	1	R1339D
1500.888	1.632	1501904	WORD	n/a	wordpools/wordpool_EN.txt	LIP	5	9	[0, 0, 0]	n/a	FR1	1	R1339D
1502.52	0.996	1503535	WORD_OFF	n/a	n/a	LIP	5	9	[0, 0, 0]	n/a	FR1	1	R1339D
1503.516	1.638	1504531	WORD	n/a	wordpools/wordpool_EN.txt	BEACH	6	9	[0, 0, 0]	n/a	FR1	1	R1339D
1505.154	0.927	1506169	WORD_OFF	n/a	n/a	BEACH	6	9	[0, 0, 0]	n/a	FR1	1	R1339D
1506.081	1.623	1507096	WORD	n/a	wordpools/wordpool_EN.txt	TRASH	7	9	[0, 0, 0]	n/a	FR1	1	R1339D
1507.704	0.886	1508719	WORD_OFF	n/a	n/a	TRASH	7	9	[0, 0, 0]	n/a	FR1	1	R1339D
1508.59	1.631	1509605	WORD	n/a	wordpools/wordpool_EN.txt	SNAKE	8	9	[0, 0, 0]	n/a	FR1	1	R1339D
1510.221	0.98	1511236	WORD_OFF	n/a	n/a	SNAKE	8	9	[0, 0, 0]	n/a	FR1	1	R1339D
1511.201	1.637	1512216	WORD	n/a	wordpools/wordpool_EN.txt	SKUNK	9	9	[0, 0, 0]	n/a	FR1	1	R1339D
1512.838	0.847	1513853	WORD_OFF	n/a	n/a	SKUNK	9	9	[0, 0, 0]	n/a	FR1	1	R1339D
1513.685	1.637	1514700	WORD	n/a	wordpools/wordpool_EN.txt	AXE	10	9	[0, 0, 0]	n/a	FR1	1	R1339D
1515.322	0.834	1516337	WORD_OFF	n/a	n/a	AXE	10	9	[0, 0, 0]	n/a	FR1	1	R1339D
1516.156	1.633	1517171	WORD	n/a	wordpools/wordpool_EN.txt	TRUCK	11	9	[0, 0, 0]	n/a	FR1	1	R1339D
1517.789	0.766	1518804	WORD_OFF	n/a	n/a	TRUCK	11	9	[0, 0, 0]	n/a	FR1	1	R1339D
1518.555	1.634	1519570	WORD	n/a	wordpools/wordpool_EN.txt	BLOOM	12	9	[0, 0, 0]	n/a	FR1	1	R1339D
1520.189	0.001	1521204	WORD_OFF	n/a	n/a	BLOOM	12	9	[0, 0, 0]	n/a	FR1	1	R1339D
1520.19	0.0	1521205	ENCODING_END	n/a	n/a	n/a	-999	9	[0, 0, 0]	n/a	FR1	1	R1339D
1520.19	0.0	1521205	DISTRACT_START	n/a	n/a	n/a	-999	9	[0, 0, 0]	n/a	FR1	1	R1339D
1520.19	0.016	1521205	START	n/a	n/a	n/a	-999	9	[-999, -999, -999]	n/a	FR1	1	R1339D
1520.206	5.684	1521221	PROB	5.684	n/a	n/a	-999	9	[2, 9, 8]	19	FR1	1	R1339D
1525.89	4.084	1526904	PROB	4.084	n/a	n/a	-999	9	[8, 4, 5]	17	FR1	1	R1339D
1529.974	2.534	1530988	PROB	2.534	n/a	n/a	-999	9	[5, 2, 1]	8	FR1	1	R1339D
1532.508	4.251	1533522	PROB	4.251	n/a	n/a	-999	9	[8, 6, 8]	22	FR1	1	R1339D
1536.759	2.951	1537773	PROB	2.951	n/a	n/a	-999	9	[4, 6, 2]	12	FR1	1	R1339D
1539.71	3.333	1540724	PROB	3.333	n/a	n/a	-999	9	[5, 9, 3]	17	FR1	1	R1339D
1543.043	0.017	1544056	STOP	n/a	n/a	n/a	-999	9	[-999, -999, -999]	n/a	FR1	1	R1339D
1543.06	0.662	1544073	DISTRACT_END	n/a	n/a	n/a	-999	9	[0, 0, 0]	n/a	FR1	1	R1339D
1543.722	1.689	1544735	RETRIEVAL_ORIENT_START	n/a	n/a	n/a	-999	9	[0, 0, 0]	n/a	FR1	1	R1339D
1545.411	0.0	1546424	RETRIEVAL_ORIENT_END	n/a	n/a	n/a	-999	9	[0, 0, 0]	n/a	FR1	1	R1339D
1545.411	0.818	1546424	REC_START	n/a	n/a	n/a	-999	9	[0, 0, 0]	n/a	FR1	1	R1339D
1546.229	0.767	1547242	REC_WORD	0.767	n/a	TRUCK	11	9	[0, 0, 0]	n/a	FR1	1	R1339D
1546.996	2.334	1548009	REC_WORD	2.334	n/a	BLOOM	12	9	[0, 0, 0]	n/a	FR1	1	R1339D
1549.33	0.769	1550343	REC_WORD	0.769	n/a	AXE	10	9	[0, 0, 0]	n/a	FR1	1	R1339D
1550.099	12.072	1551112	REC_WORD	12.072	n/a	SHELL	-999	9	[0, 0, 0]	n/a	FR1	1	R1339D
1562.171	13.252	1563184	REC_WORD	13.252	n/a	WOOD	-999	9	[0, 0, 0]	n/a	FR1	1	R1339D
1575.423	0.0	1576435	REC_END	n/a	n/a	n/a	-999	9	[0, 0, 0]	n/a	FR1	1	R1339D
1575.423	0.016	1576435	TRIAL_END	n/a	n/a	n/a	-999	9	[0, 0, 0]	n/a	FR1	1	R1339D
1575.439	0.0	1576451	TRIAL_START	n/a	n/a	n/a	-999	10	[0, 0, 0]	n/a	FR1	1	R1339D
1575.439	0.001	1576451	TRIAL	n/a	n/a	n/a	-999	10	[0, 0, 0]	n/a	FR1	1	R1339D
1575.44	3.077	1576452	WAITING_START	n/a	n/a	n/a	-999	10	[0, 0, 0]	n/a	FR1	1	R1339D
1578.517	0.0	1579529	WAITING_END	n/a	n/a	n/a	-999	10	[0, 0, 0]	n/a	FR1	1	R1339D
1578.517	10.429	1579529	COUNTDOWN_START	n/a	n/a	n/a	-999	10	[0, 0, 0]	n/a	FR1	1	R1339D
1588.946	0.0	1589957	COUNTDOWN_END	n/a	n/a	n/a	-999	10	[0, 0, 0]	n/a	FR1	1	R1339D
1588.946	1.073	1589957	ORIENT_START	n/a	n/a	n/a	-999	10	[0, 0, 0]	n/a	FR1	1	R1339D
1590.019	0.0	1591030	ENCODING_START	n/a	n/a	n/a	-999	10	[0, 0, 0]	n/a	FR1	1	R1339D
1590.019	1.035	1591030	ORIENT_END	n/a	n/a	n/a	-999	10	[0, 0, 0]	n/a	FR1	1	R1339D
1591.054	1.632	1592065	WORD	n/a	wordpools/wordpool_EN.txt	TANK	1	10	[0, 0, 0]	n/a	FR1	1	R1339D
1592.686	1.048	1593697	WORD_OFF	n/a	n/a	TANK	1	10	[0, 0, 0]	n/a	FR1	1	R1339D
1593.734	1.636	1594745	WORD	n/a	wordpools/wordpool_EN.txt	ROCK	2	10	[0, 0, 0]	n/a	FR1	1	R1339D
1595.37	1.061	1596381	WORD_OFF	n/a	n/a	ROCK	2	10	[0, 0, 0]	n/a	FR1	1	R1339D
1596.431	1.623	1597442	WORD	n/a	wordpools/wordpool_EN.txt	STEM	3	10	[0, 0, 0]	n/a	FR1	1	R1339D
1598.054	1.028	1599065	WORD_OFF	n/a	n/a	STEM	3	10	[0, 0, 0]	n/a	FR1	1	R1339D
1599.082	1.622	1600093	WORD	n/a	wordpools/wordpool_EN.txt	STICK	4	10	[0, 0, 0]	n/a	FR1	1	R1339D
1600.704	1.142	1601715	WORD_OFF	n/a	n/a	STICK	4	10	[0, 0, 0]	n/a	FR1	1	R1339D
1601.846	1.625	1602857	WORD	n/a	wordpools/wordpool_EN.txt	SNAIL	5	10	[0, 0, 0]	n/a	FR1	1	R1339D
1603.471	0.879	1604482	WORD_OFF	n/a	n/a	SNAIL	5	10	[0, 0, 0]	n/a	FR1	1	R1339D
1604.35	1.639	1605360	WORD	n/a	wordpools/wordpool_EN.txt	BRIDGE	6	10	[0, 0, 0]	n/a	FR1	1	R1339D
1605.989	0.782	1606999	WORD_OFF	n/a	n/a	BRIDGE	6	10	[0, 0, 0]	n/a	FR1	1	R1339D
1606.771	1.634	1607781	WORD	n/a	wordpools/wordpool_EN.txt	SEED	7	10	[0, 0, 0]	n/a	FR1	1	R1339D
1608.405	0.879	1609415	WORD_OFF	n/a	n/a	SEED	7	10	[0, 0, 0]	n/a	FR1	1	R1339D
1609.284	1.622	1610294	WORD	n/a	wordpools/wordpool_EN.txt	PARK	8	10	[0, 0, 0]	n/a	FR1	1	R1339D
1610.906	0.751	1611916	WORD_OFF	n/a	n/a	PARK	8	10	[0, 0, 0]	n/a	FR1	1	R1339D
1611.657	1.633	1612667	WORD	n/a	wordpools/wordpool_EN.txt	HEART	9	10	[0, 0, 0]	n/a	FR1	1	R1339D
1613.29	0.827	1614300	WORD_OFF	n/a	n/a	HEART	9	10	[0, 0, 0]	n/a	FR1	1	R1339D
1614.117	1.623	1615127	WORD	n/a	wordpools/wordpool_EN.txt	DRESS	10	10	[0, 0, 0]	n/a	FR1	1	R1339D
1615.74	0.955	1616750	WORD_OFF	n/a	n/a	DRESS	10	10	[0, 0, 0]	n/a	FR1	1	R1339D
1616.695	1.629	1617705	WORD	n/a	wordpools/wordpool_EN.txt	EGG	11	10	[0, 0, 0]	n/a	FR1	1	R1339D
1618.324	0.78	1619334	WORD_OFF	n/a	n/a	EGG	11	10	[0, 0, 0]	n/a	FR1	1	R1339D
1619.104	1.62	1620114	WORD	n/a	wordpools/wordpool_EN.txt	RAT	12	10	[0, 0, 0]	n/a	FR1	1	R1339D
1620.724	0.001	1621734	WORD_OFF	n/a	n/a	RAT	12	10	[0, 0, 0]	n/a	FR1	1	R1339D
1620.725	0.0	1621735	ENCODING_END	n/a	n/a	n/a	-999	10	[0, 0, 0]	n/a	FR1	1	R1339D
1620.725	0.0	1621735	DISTRACT_START	n/a	n/a	n/a	-999	10	[0, 0, 0]	n/a	FR1	1	R1339D
1620.725	0.016	1621735	START	n/a	n/a	n/a	-999	10	[-999, -999, -999]	n/a	FR1	1	R1339D
1620.741	5.868	1621751	PROB	5.868	n/a	n/a	-999	10	[8, 7, 7]	22	FR1	1	R1339D
1626.609	2.75	1627618	PROB	2.75	n/a	n/a	-999	10	[6, 1, 4]	11	FR1	1	R1339D
1629.359	4.651	1630368	PROB	4.651	n/a	n/a	-999	10	[2, 6, 9]	17	FR1	1	R1339D
1634.01	2.467	1635019	PROB	2.467	n/a	n/a	-999	10	[4, 8, 2]	14	FR1	1	R1339D
1636.477	5.573	1637486	PROB	5.573	n/a	n/a	-999	10	[4, 7, 2]	13	FR1	1	R1339D
1642.05	0.012	1643059	STOP	n/a	n/a	n/a	-999	10	[-999, -999, -999]	n/a	FR1	1	R1339D
1642.062	0.574	1643071	DISTRACT_END	n/a	n/a	n/a	-999	10	[0, 0, 0]	n/a	FR1	1	R1339D
1642.636	1.593	1643645	RETRIEVAL_ORIENT_START	n/a	n/a	n/a	-999	10	[0, 0, 0]	n/a	FR1	1	R1339D
1644.229	0.0	1645238	RETRIEVAL_ORIENT_END	n/a	n/a	n/a	-999	10	[0, 0, 0]	n/a	FR1	1	R1339D
1644.229	29.994	1645238	REC_START	n/a	n/a	n/a	-999	10	[0, 0, 0]	n/a	FR1	1	R1339D
1674.223	0.019	1675230	REC_WORD_VV	0.019	n/a	<>	-999	10	[0, 0, 0]	n/a	FR1	1	R1339D
1674.242	0.0	1675249	REC_END	n/a	n/a	n/a	-999	10	[0, 0, 0]	n/a	FR1	1	R1339D
1674.242	0.016	1675249	TRIAL_END	n/a	n/a	n/a	-999	10	[0, 0, 0]	n/a	FR1	1	R1339D
1674.258	0.001	1675265	TRIAL_START	n/a	n/a	n/a	-999	11	[0, 0, 0]	n/a	FR1	1	R1339D
1674.259	0.0	1675266	TRIAL	n/a	n/a	n/a	-999	11	[0, 0, 0]	n/a	FR1	1	R1339D
1674.259	16.912	1675266	WAITING_START	n/a	n/a	n/a	-999	11	[0, 0, 0]	n/a	FR1	1	R1339D
1691.171	0.0	1692177	WAITING_END	n/a	n/a	n/a	-999	11	[0, 0, 0]	n/a	FR1	1	R1339D
1691.171	10.428	1692177	COUNTDOWN_START	n/a	n/a	n/a	-999	11	[0, 0, 0]	n/a	FR1	1	R1339D
1701.599	0.001	1702605	COUNTDOWN_END	n/a	n/a	n/a	-999	11	[0, 0, 0]	n/a	FR1	1	R1339D
1701.6	1.039	1702606	ORIENT_START	n/a	n/a	n/a	-999	11	[0, 0, 0]	n/a	FR1	1	R1339D
1702.639	0.001	1703645	ORIENT_END	n/a	n/a	n/a	-999	11	[0, 0, 0]	n/a	FR1	1	R1339D
1702.64	0.935	1703646	ENCODING_START	n/a	n/a	n/a	-999	11	[0, 0, 0]	n/a	FR1	1	R1339D
1703.575	1.632	1704581	WORD	n/a	wordpools/wordpool_EN.txt	BOMB	1	11	[0, 0, 0]	n/a	FR1	1	R1339D
1705.207	0.861	1706213	WORD_OFF	n/a	n/a	BOMB	1	11	[0, 0, 0]	n/a	FR1	1	R1339D
1706.068	1.622	1707074	WORD	n/a	wordpools/wordpool_EN.txt	SIGN	2	11	[0, 0, 0]	n/a	FR1	1	R1339D
1707.69	1.022	1708695	WORD_OFF	n/a	n/a	SIGN	2	11	[0, 0, 0]	n/a	FR1	1	R1339D
1708.712	1.629	1709717	WORD	n/a	wordpools/wordpool_EN.txt	FUDGE	3	11	[0, 0, 0]	n/a	FR1	1	R1339D
1710.341	0.886	1711346	WORD_OFF	n/a	n/a	FUDGE	3	11	[0, 0, 0]	n/a	FR1	1	R1339D
1711.227	1.632	1712232	WORD	n/a	wordpools/wordpool_EN.txt	OWL	4	11	[0, 0, 0]	n/a	FR1	1	R1339D
1712.859	0.948	1713864	WORD_OFF	n/a	n/a	OWL	4	11	[0, 0, 0]	n/a	FR1	1	R1339D
1713.807	1.635	1714812	WORD	n/a	wordpools/wordpool_EN.txt	MUD	5	11	[0, 0, 0]	n/a	FR1	1	R1339D
1715.442	0.771	1716447	WORD_OFF	n/a	n/a	MUD	5	11	[0, 0, 0]	n/a	FR1	1	R1339D
1716.213	1.629	1717218	WORD	n/a	wordpools/wordpool_EN.txt	MOLE	6	11	[0, 0, 0]	n/a	FR1	1	R1339D
1717.842	0.877	1718847	WORD_OFF	n/a	n/a	MOLE	6	11	[0, 0, 0]	n/a	FR1	1	R1339D
1718.719	1.624	1719724	WORD	n/a	wordpools/wordpool_EN.txt	SHIP	7	11	[0, 0, 0]	n/a	FR1	1	R1339D
1720.343	1.139	1721348	WORD_OFF	n/a	n/a	SHIP	7	11	[0, 0, 0]	n/a	FR1	1	R1339D
1721.482	1.628	1722487	WORD	n/a	wordpools/wordpool_EN.txt	HOUSE	8	11	[0, 0, 0]	n/a	FR1	1	R1339D
1723.11	1.051	1724115	WORD_OFF	n/a	n/a	HOUSE	8	11	[0, 0, 0]	n/a	FR1	1	R1339D
1724.161	1.633	1725166	WORD	n/a	wordpools/wordpool_EN.txt	FLEA	9	11	[0, 0, 0]	n/a	FR1	1	R1339D
1725.794	1.094	1726799	WORD_OFF	n/a	n/a	FLEA	9	11	[0, 0, 0]	n/a	FR1	1	R1339D
1726.888	1.623	1727893	WORD	n/a	wordpools/wordpool_EN.txt	CONE	10	11	[0, 0, 0]	n/a	FR1	1	R1339D
1728.511	0.841	1729515	WORD_OFF	n/a	n/a	CONE	10	11	[0, 0, 0]	n/a	FR1	1	R1339D
1729.352	1.626	1730356	WORD	n/a	wordpools/wordpool_EN.txt	ROSE	11	11	[0, 0, 0]	n/a	FR1	1	R1339D
1730.978	0.988	1731982	WORD_OFF	n/a	n/a	ROSE	11	11	[0, 0, 0]	n/a	FR1	1	R1339D
1731.966	1.613	1732970	WORD	n/a	wordpools/wordpool_EN.txt	DOG	12	11	[0, 0, 0]	n/a	FR1	1	R1339D
1733.579	0.001	1734583	WORD_OFF	n/a	n/a	DOG	12	11	[0, 0, 0]	n/a	FR1	1	R1339D
1733.58	0.0	1734584	ENCODING_END	n/a	n/a	n/a	-999	11	[0, 0, 0]	n/a	FR1	1	R1339D
1733.58	0.0	1734584	DISTRACT_START	n/a	n/a	n/a	-999	11	[0, 0, 0]	n/a	FR1	1	R1339D
1733.58	0.016	1734584	START	n/a	n/a	n/a	-999	11	[-999, -999, -999]	n/a	FR1	1	R1339D
1733.596	11.884	1734600	PROB	11.884	n/a	n/a	-999	11	[6, 7, 6]	19	FR1	1	R1339D
1745.48	6.201	1746484	PROB	6.201	n/a	n/a	-999	11	[7, 6, 5]	18	FR1	1	R1339D
1751.681	3.421	1752684	PROB	3.421	n/a	n/a	-999	11	[6, 7, 3]	16	FR1	1	R1339D
1755.102	0.014	1756105	STOP	n/a	n/a	n/a	-999	11	[-999, -999, -999]	n/a	FR1	1	R1339D
1755.116	0.517	1756119	DISTRACT_END	n/a	n/a	n/a	-999	11	[0, 0, 0]	n/a	FR1	1	R1339D
1755.633	1.633	1756636	RETRIEVAL_ORIENT_START	n/a	n/a	n/a	-999	11	[0, 0, 0]	n/a	FR1	1	R1339D
1757.266	0.0	1758269	RETRIEVAL_ORIENT_END	n/a	n/a	n/a	-999	11	[0, 0, 0]	n/a	FR1	1	R1339D
1757.266	1.219	1758269	REC_START	n/a	n/a	n/a	-999	11	[0, 0, 0]	n/a	FR1	1	R1339D
1758.485	0.746	1759488	REC_WORD	0.746	n/a	OWL	4	11	[0, 0, 0]	n/a	FR1	1	R1339D
1759.231	1.924	1760234	REC_WORD	1.924	n/a	FLEA	9	11	[0, 0, 0]	n/a	FR1	1	R1339D
1761.155	2.862	1762158	REC_WORD	2.862	n/a	DOG	12	11	[0, 0, 0]	n/a	FR1	1	R1339D
1764.017	5.423	1765020	REC_WORD	5.423	n/a	CONE	10	11	[0, 0, 0]	n/a	FR1	1	R1339D
1769.44	4.656	1770442	REC_WORD	4.656	n/a	SHIP	7	11	[0, 0, 0]	n/a	FR1	1	R1339D
1774.096	13.183	1775098	REC_WORD	13.183	n/a	SHRIMP	-999	11	[0, 0, 0]	n/a	FR1	1	R1339D
1787.279	0.0	1788281	REC_END	n/a	n/a	n/a	-999	11	[0, 0, 0]	n/a	FR1	1	R1339D
1787.279	0.044	1788281	TRIAL_END	n/a	n/a	n/a	-999	11	[0, 0, 0]	n/a	FR1	1	R1339D
1787.323	0.0	1788325	TRIAL_START	n/a	n/a	n/a	-999	12	[0, 0, 0]	n/a	FR1	1	R1339D
1787.323	0.0	1788325	TRIAL	n/a	n/a	n/a	-999	12	[0, 0, 0]	n/a	FR1	1	R1339D
1787.323	5.516	1788325	WAITING_START	n/a	n/a	n/a	-999	12	[0, 0, 0]	n/a	FR1	1	R1339D
1792.839	0.001	1793840	WAITING_END	n/a	n/a	n/a	-999	12	[0, 0, 0]	n/a	FR1	1	R1339D
1792.84	10.429	1793841	COUNTDOWN_START	n/a	n/a	n/a	-999	12	[0, 0, 0]	n/a	FR1	1	R1339D
1803.269	0.0	1804270	COUNTDOWN_END	n/a	n/a	n/a	-999	12	[0, 0, 0]	n/a	FR1	1	R1339D
1803.269	1.055	1804270	ORIENT_START	n/a	n/a	n/a	-999	12	[0, 0, 0]	n/a	FR1	1	R1339D
1804.324	0.001	1805325	ORIENT_END	n/a	n/a	n/a	-999	12	[0, 0, 0]	n/a	FR1	1	R1339D
1804.325	1.03	1805326	ENCODING_START	n/a	n/a	n/a	-999	12	[0, 0, 0]	n/a	FR1	1	R1339D
1805.355	1.637	1806356	WORD	n/a	wordpools/wordpool_EN.txt	HOOF	1	12	[0, 0, 0]	n/a	FR1	1	R1339D
1806.992	1.089	1807993	WORD_OFF	n/a	n/a	HOOF	1	12	[0, 0, 0]	n/a	FR1	1	R1339D
1808.081	1.628	1809082	WORD	n/a	wordpools/wordpool_EN.txt	BED	2	12	[0, 0, 0]	n/a	FR1	1	R1339D
1809.709	1.104	1810710	WORD_OFF	n/a	n/a	BED	2	12	[0, 0, 0]	n/a	FR1	1	R1339D
1810.813	1.63	1811813	WORD	n/a	wordpools/wordpool_EN.txt	PIT	3	12	[0, 0, 0]	n/a	FR1	1	R1339D
1812.443	1.058	1813443	WORD_OFF	n/a	n/a	PIT	3	12	[0, 0, 0]	n/a	FR1	1	R1339D
1813.501	1.626	1814501	WORD	n/a	wordpools/wordpool_EN.txt	GOAT	4	12	[0, 0, 0]	n/a	FR1	1	R1339D
1815.127	1.041	1816127	WORD_OFF	n/a	n/a	GOAT	4	12	[0, 0, 0]	n/a	FR1	1	R1339D
1816.168	1.626	1817168	WORD	n/a	wordpools/wordpool_EN.txt	TOE	5	12	[0, 0, 0]	n/a	FR1	1	R1339D
1817.794	1.018	1818794	WORD_OFF	n/a	n/a	TOE	5	12	[0, 0, 0]	n/a	FR1	1	R1339D
1818.812	1.632	1819812	WORD	n/a	wordpools/wordpool_EN.txt	BEAK	6	12	[0, 0, 0]	n/a	FR1	1	R1339D
1820.444	1.031	1821444	WORD_OFF	n/a	n/a	BEAK	6	12	[0, 0, 0]	n/a	FR1	1	R1339D
1821.475	1.636	1822475	WORD	n/a	wordpools/wordpool_EN.txt	GRAPE	7	12	[0, 0, 0]	n/a	FR1	1	R1339D
1823.111	0.847	1824111	WORD_OFF	n/a	n/a	GRAPE	7	12	[0, 0, 0]	n/a	FR1	1	R1339D
1823.958	1.638	1824958	WORD	n/a	wordpools/wordpool_EN.txt	FLUTE	8	12	[0, 0, 0]	n/a	FR1	1	R1339D
1825.596	0.791	1826596	WORD_OFF	n/a	n/a	FLUTE	8	12	[0, 0, 0]	n/a	FR1	1	R1339D
1826.387	1.625	1827387	WORD	n/a	wordpools/wordpool_EN.txt	STREET	9	12	[0, 0, 0]	n/a	FR1	1	R1339D
1828.012	0.833	1829012	WORD_OFF	n/a	n/a	STREET	9	12	[0, 0, 0]	n/a	FR1	1	R1339D
1828.845	1.634	1829845	WORD	n/a	wordpools/wordpool_EN.txt	FROG	10	12	[0, 0, 0]	n/a	FR1	1	R1339D
1830.479	0.841	1831478	WORD_OFF	n/a	n/a	FROG	10	12	[0, 0, 0]	n/a	FR1	1	R1339D
1831.32	1.626	1832319	WORD	n/a	wordpools/wordpool_EN.txt	FARM	11	12	[0, 0, 0]	n/a	FR1	1	R1339D
1832.946	1.109	1833945	WORD_OFF	n/a	n/a	FARM	11	12	[0, 0, 0]	n/a	FR1	1	R1339D
1834.055	1.625	1835054	WORD	n/a	wordpools/wordpool_EN.txt	CHIN	12	12	[0, 0, 0]	n/a	FR1	1	R1339D
1835.68	0.0	1836679	WORD_OFF	n/a	n/a	CHIN	12	12	[0, 0, 0]	n/a	FR1	1	R1339D
1835.68	0.001	1836679	ENCODING_END	n/a	n/a	n/a	-999	12	[0, 0, 0]	n/a	FR1	1	R1339D
1835.681	0.0	1836680	DISTRACT_START	n/a	n/a	n/a	-999	12	[0, 0, 0]	n/a	FR1	1	R1339D
1835.681	0.016	1836680	START	n/a	n/a	n/a	-999	12	[-999, -999, -999]	n/a	FR1	1	R1339D
1835.697	4.401	1836696	PROB	4.401	n/a	n/a	-999	12	[8, 3, 4]	15	FR1	1	R1339D
1840.098	2.633	1841097	PROB	2.633	n/a	n/a	-999	12	[1, 9, 1]	11	FR1	1	R1339D
1842.731	3.668	1843730	PROB	3.668	n/a	n/a	-999	12	[6, 4, 5]	15	FR1	1	R1339D
1846.399	4.334	1847398	PROB	4.334	n/a	n/a	-999	12	[2, 4, 5]	11	FR1	1	R1339D
1850.733	5.013	1851732	PROB	5.013	n/a	n/a	-999	12	[3, 4, 9]	16	FR1	1	R1339D
1855.746	0.021	1856744	STOP	n/a	n/a	n/a	-999	12	[-999, -999, -999]	n/a	FR1	1	R1339D
1855.767	0.593	1856765	DISTRACT_END	n/a	n/a	n/a	-999	12	[0, 0, 0]	n/a	FR1	1	R1339D
1856.36	1.541	1857358	RETRIEVAL_ORIENT_START	n/a	n/a	n/a	-999	12	[0, 0, 0]	n/a	FR1	1	R1339D
1857.901	0.0	1858899	RETRIEVAL_ORIENT_END	n/a	n/a	n/a	-999	12	[0, 0, 0]	n/a	FR1	1	R1339D
1857.901	0.223	1858899	REC_START	n/a	n/a	n/a	-999	12	[0, 0, 0]	n/a	FR1	1	R1339D
1858.124	0.745	1859122	REC_WORD	0.745	n/a	BEAK	6	12	[0, 0, 0]	n/a	FR1	1	R1339D
1858.869	5.604	1859867	REC_WORD	5.604	n/a	GOAT	4	12	[0, 0, 0]	n/a	FR1	1	R1339D
1864.473	23.44	1865471	REC_WORD	23.44	n/a	STREET	9	12	[0, 0, 0]	n/a	FR1	1	R1339D
1887.913	0.001	1888910	REC_END	n/a	n/a	n/a	-999	12	[0, 0, 0]	n/a	FR1	1	R1339D
1887.914	0.014	1888911	TRIAL_END	n/a	n/a	n/a	-999	12	[0, 0, 0]	n/a	FR1	1	R1339D
1887.928	0.0	1888925	TRIAL_START	n/a	n/a	n/a	-999	13	[0, 0, 0]	n/a	FR1	1	R1339D
1887.928	0.0	1888925	TRIAL	n/a	n/a	n/a	-999	13	[0, 0, 0]	n/a	FR1	1	R1339D
1887.928	40.386	1888925	WAITING_START	n/a	n/a	n/a	-999	13	[0, 0, 0]	n/a	FR1	1	R1339D
1928.314	0.0	1929309	WAITING_END	n/a	n/a	n/a	-999	13	[0, 0, 0]	n/a	FR1	1	R1339D
1928.314	10.429	1929309	COUNTDOWN_START	n/a	n/a	n/a	-999	13	[0, 0, 0]	n/a	FR1	1	R1339D
1938.743	0.0	1939737	COUNTDOWN_END	n/a	n/a	n/a	-999	13	[0, 0, 0]	n/a	FR1	1	R1339D
1938.743	1.09	1939737	ORIENT_START	n/a	n/a	n/a	-999	13	[0, 0, 0]	n/a	FR1	1	R1339D
1939.833	0.0	1940827	ORIENT_END	n/a	n/a	n/a	-999	13	[0, 0, 0]	n/a	FR1	1	R1339D
1939.833	0.918	1940827	ENCODING_START	n/a	n/a	n/a	-999	13	[0, 0, 0]	n/a	FR1	1	R1339D
1940.751	1.632	1941745	WORD	n/a	wordpools/wordpool_EN.txt	FOAM	1	13	[0, 0, 0]	n/a	FR1	1	R1339D
1942.383	1.054	1943377	WORD_OFF	n/a	n/a	FOAM	1	13	[0, 0, 0]	n/a	FR1	1	R1339D
1943.437	1.63	1944431	WORD	n/a	wordpools/wordpool_EN.txt	TIE	2	13	[0, 0, 0]	n/a	FR1	1	R1339D
1945.067	0.761	1946061	WORD_OFF	n/a	n/a	TIE	2	13	[0, 0, 0]	n/a	FR1	1	R1339D
1945.828	1.623	1946822	WORD	n/a	wordpools/wordpool_EN.txt	BARN	3	13	[0, 0, 0]	n/a	FR1	1	R1339D
1947.451	0.817	1948445	WORD_OFF	n/a	n/a	BARN	3	13	[0, 0, 0]	n/a	FR1	1	R1339D
1948.268	1.633	1949262	WORD	n/a	wordpools/wordpool_EN.txt	OAK	4	13	[0, 0, 0]	n/a	FR1	1	R1339D
1949.901	0.978	1950895	WORD_OFF	n/a	n/a	OAK	4	13	[0, 0, 0]	n/a	FR1	1	R1339D
1950.879	1.623	1951873	WORD	n/a	wordpools/wordpool_EN.txt	STEAK	5	13	[0, 0, 0]	n/a	FR1	1	R1339D
1952.502	1.023	1953496	WORD_OFF	n/a	n/a	STEAK	5	13	[0, 0, 0]	n/a	FR1	1	R1339D
1953.525	1.627	1954519	WORD	n/a	wordpools/wordpool_EN.txt	VEST	6	13	[0, 0, 0]	n/a	FR1	1	R1339D
1955.152	0.966	1956145	WORD_OFF	n/a	n/a	VEST	6	13	[0, 0, 0]	n/a	FR1	1	R1339D
1956.118	1.634	1957111	WORD	n/a	wordpools/wordpool_EN.txt	WORLD	7	13	[0, 0, 0]	n/a	FR1	1	R1339D
1957.752	0.971	1958745	WORD_OFF	n/a	n/a	WORLD	7	13	[0, 0, 0]	n/a	FR1	1	R1339D
1958.723	1.63	1959716	WORD	n/a	wordpools/wordpool_EN.txt	BEAR	8	13	[0, 0, 0]	n/a	FR1	1	R1339D
1960.353	1.053	1961346	WORD_OFF	n/a	n/a	BEAR	8	13	[0, 0, 0]	n/a	FR1	1	R1339D
1961.406	1.631	1962399	WORD	n/a	wordpools/wordpool_EN.txt	MOUSE	9	13	[0, 0, 0]	n/a	FR1	1	R1339D
1963.037	0.856	1964030	WORD_OFF	n/a	n/a	MOUSE	9	13	[0, 0, 0]	n/a	FR1	1	R1339D
1963.893	1.628	1964886	WORD	n/a	wordpools/wordpool_EN.txt	CORN	10	13	[0, 0, 0]	n/a	FR1	1	R1339D
1965.521	1.073	1966514	WORD_OFF	n/a	n/a	CORN	10	13	[0, 0, 0]	n/a	FR1	1	R1339D
1966.594	1.627	1967587	WORD	n/a	wordpools/wordpool_EN.txt	SLIME	11	13	[0, 0, 0]	n/a	FR1	1	R1339D
1968.221	1.043	1969214	WORD_OFF	n/a	n/a	SLIME	11	13	[0, 0, 0]	n/a	FR1	1	R1339D
1969.264	1.624	1970257	WORD	n/a	wordpools/wordpool_EN.txt	EAR	12	13	[0, 0, 0]	n/a	FR1	1	R1339D
1970.888	0.001	1971881	WORD_OFF	n/a	n/a	EAR	12	13	[0, 0, 0]	n/a	FR1	1	R1339D
1970.889	0.0	1971882	ENCODING_END	n/a	n/a	n/a	-999	13	[0, 0, 0]	n/a	FR1	1	R1339D
1970.889	0.0	1971882	DISTRACT_START	n/a	n/a	n/a	-999	13	[0, 0, 0]	n/a	FR1	1	R1339D
1970.889	0.016	1971882	START	n/a	n/a	n/a	-999	13	[-999, -999, -999]	n/a	FR1	1	R1339D
1970.905	3.984	1971898	PROB	3.984	n/a	n/a	-999	13	[8, 9, 1]	18	FR1	1	R1339D
1974.889	5.517	1975881	PROB	5.517	n/a	n/a	-999	13	[5, 6, 2]	13	FR1	1	R1339D
1980.406	2.984	1981398	PROB	2.984	n/a	n/a	-999	13	[2, 8, 5]	15	FR1	1	R1339D
1983.39	2.984	1984382	PROB	2.984	n/a	n/a	-999	13	[2, 4, 3]	7	FR1	1	R1339D
1986.374	7.596	1987366	PROB	7.596	n/a	n/a	-999	13	[7, 8, 8]	23	FR1	1	R1339D
1993.97	0.005	1994962	STOP	n/a	n/a	n/a	-999	13	[-999, -999, -999]	n/a	FR1	1	R1339D
1993.975	0.612	1994967	DISTRACT_END	n/a	n/a	n/a	-999	13	[0, 0, 0]	n/a	FR1	1	R1339D
1994.587	1.656	1995579	RETRIEVAL_ORIENT_START	n/a	n/a	n/a	-999	13	[0, 0, 0]	n/a	FR1	1	R1339D
1996.243	0.0	1997234	RETRIEVAL_ORIENT_END	n/a	n/a	n/a	-999	13	[0, 0, 0]	n/a	FR1	1	R1339D
1996.243	0.375	1997234	REC_START	n/a	n/a	n/a	-999	13	[0, 0, 0]	n/a	FR1	1	R1339D
1996.618	0.637	1997609	REC_WORD	0.637	n/a	EAR	12	13	[0, 0, 0]	n/a	FR1	1	R1339D
1997.255	1.026	1998246	REC_WORD	1.026	n/a	SLIME	11	13	[0, 0, 0]	n/a	FR1	1	R1339D
1998.281	1.022	1999272	REC_WORD	1.022	n/a	TREE	-999	13	[0, 0, 0]	n/a	FR1	1	R1339D
1999.303	3.231	2000294	REC_WORD	3.231	n/a	BARN	3	13	[0, 0, 0]	n/a	FR1	1	R1339D
2002.534	6.641	2003525	REC_WORD	6.641	n/a	OAK	4	13	[0, 0, 0]	n/a	FR1	1	R1339D
2009.175	17.08	2010166	REC_WORD	17.08	n/a	CORN	10	13	[0, 0, 0]	n/a	FR1	1	R1339D
2026.255	0.0	2027245	REC_END	n/a	n/a	n/a	-999	13	[0, 0, 0]	n/a	FR1	1	R1339D
2026.255	0.014	2027245	TRIAL_END	n/a	n/a	n/a	-999	13	[0, 0, 0]	n/a	FR1	1	R1339D
2026.269	0.0	2027259	TRIAL_START	n/a	n/a	n/a	-999	14	[0, 0, 0]	n/a	FR1	1	R1339D
2026.269	0.001	2027259	TRIAL	n/a	n/a	n/a	-999	14	[0, 0, 0]	n/a	FR1	1	R1339D
2026.27	4.979	2027260	WAITING_START	n/a	n/a	n/a	-999	14	[0, 0, 0]	n/a	FR1	1	R1339D
2031.249	0.001	2032239	WAITING_END	n/a	n/a	n/a	-999	14	[0, 0, 0]	n/a	FR1	1	R1339D
2031.25	10.428	2032240	COUNTDOWN_START	n/a	n/a	n/a	-999	14	[0, 0, 0]	n/a	FR1	1	R1339D
2041.678	0.001	2042667	COUNTDOWN_END	n/a	n/a	n/a	-999	14	[0, 0, 0]	n/a	FR1	1	R1339D
2041.679	1.122	2042668	ORIENT_START	n/a	n/a	n/a	-999	14	[0, 0, 0]	n/a	FR1	1	R1339D
2042.801	0.001	2043790	ORIENT_END	n/a	n/a	n/a	-999	14	[0, 0, 0]	n/a	FR1	1	R1339D
2042.802	1.145	2043791	ENCODING_START	n/a	n/a	n/a	-999	14	[0, 0, 0]	n/a	FR1	1	R1339D
2043.947	1.623	2044936	WORD	n/a	wordpools/wordpool_EN.txt	GEESE	1	14	[0, 0, 0]	n/a	FR1	1	R1339D
2045.57	0.8	2046559	WORD_OFF	n/a	n/a	GEESE	1	14	[0, 0, 0]	n/a	FR1	1	R1339D
2046.37	1.632	2047359	WORD	n/a	wordpools/wordpool_EN.txt	CLAY	2	14	[0, 0, 0]	n/a	FR1	1	R1339D
2048.002	0.908	2048991	WORD_OFF	n/a	n/a	CLAY	2	14	[0, 0, 0]	n/a	FR1	1	R1339D
2048.91	1.627	2049899	WORD	n/a	wordpools/wordpool_EN.txt	ROPE	3	14	[0, 0, 0]	n/a	FR1	1	R1339D
2050.537	0.955	2051526	WORD_OFF	n/a	n/a	ROPE	3	14	[0, 0, 0]	n/a	FR1	1	R1339D
2051.492	1.628	2052481	WORD	n/a	wordpools/wordpool_EN.txt	DESK	4	14	[0, 0, 0]	n/a	FR1	1	R1339D
2053.12	1.102	2054109	WORD_OFF	n/a	n/a	DESK	4	14	[0, 0, 0]	n/a	FR1	1	R1339D
2054.222	1.632	2055211	WORD	n/a	wordpools/wordpool_EN.txt	PHONE	5	14	[0, 0, 0]	n/a	FR1	1	R1339D
2055.854	1.009	2056843	WORD_OFF	n/a	n/a	PHONE	5	14	[0, 0, 0]	n/a	FR1	1	R1339D
2056.863	1.625	2057851	WORD	n/a	wordpools/wordpool_EN.txt	STAIR	6	14	[0, 0, 0]	n/a	FR1	1	R1339D
2058.488	0.989	2059476	WORD_OFF	n/a	n/a	STAIR	6	14	[0, 0, 0]	n/a	FR1	1	R1339D
2059.477	1.628	2060465	WORD	n/a	wordpools/wordpool_EN.txt	FOG	7	14	[0, 0, 0]	n/a	FR1	1	R1339D
2061.105	0.773	2062093	WORD_OFF	n/a	n/a	FOG	7	14	[0, 0, 0]	n/a	FR1	1	R1339D
2061.878	1.627	2062866	WORD	n/a	wordpools/wordpool_EN.txt	COUCH	8	14	[0, 0, 0]	n/a	FR1	1	R1339D
2063.505	1.115	2064493	WORD_OFF	n/a	n/a	COUCH	8	14	[0, 0, 0]	n/a	FR1	1	R1339D
2064.62	1.636	2065608	WORD	n/a	wordpools/wordpool_EN.txt	GUARD	9	14	[0, 0, 0]	n/a	FR1	1	R1339D
2066.256	0.769	2067244	WORD_OFF	n/a	n/a	GUARD	9	14	[0, 0, 0]	n/a	FR1	1	R1339D
2067.025	1.631	2068013	WORD	n/a	wordpools/wordpool_EN.txt	GLASS	10	14	[0, 0, 0]	n/a	FR1	1	R1339D
2068.656	0.914	2069644	WORD_OFF	n/a	n/a	GLASS	10	14	[0, 0, 0]	n/a	FR1	1	R1339D
2069.57	1.62	2070558	WORD	n/a	wordpools/wordpool_EN.txt	INK	11	14	[0, 0, 0]	n/a	FR1	1	R1339D
2071.19	0.972	2072178	WORD_OFF	n/a	n/a	INK	11	14	[0, 0, 0]	n/a	FR1	1	R1339D
2072.162	1.628	2073150	WORD	n/a	wordpools/wordpool_EN.txt	SHARK	12	14	[0, 0, 0]	n/a	FR1	1	R1339D
2073.79	0.001	2074778	WORD_OFF	n/a	n/a	SHARK	12	14	[0, 0, 0]	n/a	FR1	1	R1339D
2073.791	0.0	2074779	ENCODING_END	n/a	n/a	n/a	-999	14	[0, 0, 0]	n/a	FR1	1	R1339D
2073.791	0.0	2074779	DISTRACT_START	n/a	n/a	n/a	-999	14	[0, 0, 0]	n/a	FR1	1	R1339D
2073.791	0.016	2074779	START	n/a	n/a	n/a	-999	14	[-999, -999, -999]	n/a	FR1	1	R1339D
2073.807	3.95	2074795	PROB	3.95	n/a	n/a	-999	14	[3, 8, 5]	16	FR1	1	R1339D
2077.757	6.402	2078744	PROB	6.402	n/a	n/a	-999	14	[7, 6, 2]	15	FR1	1	R1339D
2084.159	2.434	2085146	PROB	2.434	n/a	n/a	-999	14	[6, 5, 1]	12	FR1	1	R1339D
2086.593	4.617	2087580	PROB	4.617	n/a	n/a	-999	14	[4, 8, 4]	16	FR1	1	R1339D
2091.21	3.316	2092197	PROB	3.316	n/a	n/a	-999	14	[9, 2, 9]	20	FR1	1	R1339D
2094.526	0.019	2095513	STOP	n/a	n/a	n/a	-999	14	[-999, -999, -999]	n/a	FR1	1	R1339D
2094.545	0.57	2095532	DISTRACT_END	n/a	n/a	n/a	-999	14	[0, 0, 0]	n/a	FR1	1	R1339D
2095.115	1.579	2096102	RETRIEVAL_ORIENT_START	n/a	n/a	n/a	-999	14	[0, 0, 0]	n/a	FR1	1	R1339D
2096.694	0.001	2097681	RETRIEVAL_ORIENT_END	n/a	n/a	n/a	-999	14	[0, 0, 0]	n/a	FR1	1	R1339D
2096.695	4.017	2097682	REC_START	n/a	n/a	n/a	-999	14	[0, 0, 0]	n/a	FR1	1	R1339D
2100.712	4.117	2101698	REC_WORD_VV	4.117	n/a	<>	-999	14	[0, 0, 0]	n/a	FR1	1	R1339D
2104.829	0.415	2105815	REC_WORD	0.415	n/a	FOG	7	14	[0, 0, 0]	n/a	FR1	1	R1339D
2105.244	1.717	2106230	REC_WORD	1.717	n/a	SLIME	-999	14	[0, 0, 0]	n/a	FR1	1	R1339D
2106.961	19.745	2107947	REC_WORD	19.745	n/a	SHARK	12	14	[0, 0, 0]	n/a	FR1	1	R1339D
2126.706	0.001	2127691	REC_END	n/a	n/a	n/a	-999	14	[0, 0, 0]	n/a	FR1	1	R1339D
2126.707	0.014	2127692	TRIAL_END	n/a	n/a	n/a	-999	14	[0, 0, 0]	n/a	FR1	1	R1339D
2126.721	0.0	2127706	TRIAL_START	n/a	n/a	n/a	-999	15	[0, 0, 0]	n/a	FR1	1	R1339D
2126.721	0.0	2127706	TRIAL	n/a	n/a	n/a	-999	15	[0, 0, 0]	n/a	FR1	1	R1339D
2126.721	204.616	2127706	WAITING_START	n/a	n/a	n/a	-999	15	[0, 0, 0]	n/a	FR1	1	R1339D
2331.337	0.001	2332312	WAITING_END	n/a	n/a	n/a	-999	15	[0, 0, 0]	n/a	FR1	1	R1339D
2331.338	10.429	2332313	COUNTDOWN_START	n/a	n/a	n/a	-999	15	[0, 0, 0]	n/a	FR1	1	R1339D
2341.767	0.001	2342742	COUNTDOWN_END	n/a	n/a	n/a	-999	15	[0, 0, 0]	n/a	FR1	1	R1339D
2341.768	1.138	2342743	ORIENT_START	n/a	n/a	n/a	-999	15	[0, 0, 0]	n/a	FR1	1	R1339D
2342.906	0.0	2343881	ENCODING_START	n/a	n/a	n/a	-999	15	[0, 0, 0]	n/a	FR1	1	R1339D
2342.906	1.088	2343881	ORIENT_END	n/a	n/a	n/a	-999	15	[0, 0, 0]	n/a	FR1	1	R1339D
2343.994	1.629	2344969	WORD	n/a	wordpools/wordpool_EN.txt	FRUIT	1	15	[0, 0, 0]	n/a	FR1	1	R1339D
2345.623	0.781	2346597	WORD_OFF	n/a	n/a	FRUIT	1	15	[0, 0, 0]	n/a	FR1	1	R1339D
2346.404	1.636	2347378	WORD	n/a	wordpools/wordpool_EN.txt	WAVE	2	15	[0, 0, 0]	n/a	FR1	1	R1339D
2348.04	0.775	2349014	WORD_OFF	n/a	n/a	WAVE	2	15	[0, 0, 0]	n/a	FR1	1	R1339D
2348.815	1.626	2349789	WORD	n/a	wordpools/wordpool_EN.txt	SCHOOL	3	15	[0, 0, 0]	n/a	FR1	1	R1339D
2350.441	0.918	2351415	WORD_OFF	n/a	n/a	SCHOOL	3	15	[0, 0, 0]	n/a	FR1	1	R1339D
2351.359	1.632	2352333	WORD	n/a	wordpools/wordpool_EN.txt	GOLD	4	15	[0, 0, 0]	n/a	FR1	1	R1339D
2352.991	1.141	2353965	WORD_OFF	n/a	n/a	GOLD	4	15	[0, 0, 0]	n/a	FR1	1	R1339D
2354.132	1.626	2355106	WORD	n/a	wordpools/wordpool_EN.txt	LAWN	5	15	[0, 0, 0]	n/a	FR1	1	R1339D
2355.758	0.839	2356732	WORD_OFF	n/a	n/a	LAWN	5	15	[0, 0, 0]	n/a	FR1	1	R1339D
2356.597	1.628	2357571	WORD	n/a	wordpools/wordpool_EN.txt	ICE	6	15	[0, 0, 0]	n/a	FR1	1	R1339D
2358.225	0.855	2359199	WORD_OFF	n/a	n/a	ICE	6	15	[0, 0, 0]	n/a	FR1	1	R1339D
2359.08	1.629	2360054	WORD	n/a	wordpools/wordpool_EN.txt	CRANE	7	15	[0, 0, 0]	n/a	FR1	1	R1339D
2360.709	1.048	2361683	WORD_OFF	n/a	n/a	CRANE	7	15	[0, 0, 0]	n/a	FR1	1	R1339D
2361.757	1.636	2362731	WORD	n/a	wordpools/wordpool_EN.txt	SNOW	8	15	[0, 0, 0]	n/a	FR1	1	R1339D
2363.393	0.769	2364367	WORD_OFF	n/a	n/a	SNOW	8	15	[0, 0, 0]	n/a	FR1	1	R1339D
2364.162	1.631	2365136	WORD	n/a	wordpools/wordpool_EN.txt	HILL	9	15	[0, 0, 0]	n/a	FR1	1	R1339D
2365.793	0.774	2366766	WORD_OFF	n/a	n/a	HILL	9	15	[0, 0, 0]	n/a	FR1	1	R1339D
2366.567	1.627	2367540	WORD	n/a	wordpools/wordpool_EN.txt	BENCH	10	15	[0, 0, 0]	n/a	FR1	1	R1339D
2368.194	1.144	2369167	WORD_OFF	n/a	n/a	BENCH	10	15	[0, 0, 0]	n/a	FR1	1	R1339D
2369.338	1.623	2370311	WORD	n/a	wordpools/wordpool_EN.txt	BAND	11	15	[0, 0, 0]	n/a	FR1	1	R1339D
2370.961	1.004	2371934	WORD_OFF	n/a	n/a	BAND	11	15	[0, 0, 0]	n/a	FR1	1	R1339D
2371.965	1.631	2372938	WORD	n/a	wordpools/wordpool_EN.txt	TRAIN	12	15	[0, 0, 0]	n/a	FR1	1	R1339D
2373.596	0.0	2374569	WORD_OFF	n/a	n/a	TRAIN	12	15	[0, 0, 0]	n/a	FR1	1	R1339D
2373.596	0.001	2374569	ENCODING_END	n/a	n/a	n/a	-999	15	[0, 0, 0]	n/a	FR1	1	R1339D
2373.597	0.0	2374570	DISTRACT_START	n/a	n/a	n/a	-999	15	[0, 0, 0]	n/a	FR1	1	R1339D
2373.597	0.014	2374570	START	n/a	n/a	n/a	-999	15	[-999, -999, -999]	n/a	FR1	1	R1339D
2373.611	2.551	2374584	PROB	2.551	n/a	n/a	-999	15	[2, 6, 1]	9	FR1	1	R1339D
2376.162	7.901	2377135	PROB	7.901	n/a	n/a	-999	15	[9, 6, 8]	23	FR1	1	R1339D
2384.063	2.217	2385036	PROB	2.217	n/a	n/a	-999	15	[1, 1, 3]	5	FR1	1	R1339D
2386.28	1.917	2387252	PROB	1.917	n/a	n/a	-999	15	[5, 1, 1]	7	FR1	1	R1339D
2388.197	2.368	2389169	PROB	2.368	n/a	n/a	-999	15	[5, 5, 3]	13	FR1	1	R1339D
2390.565	4.168	2391537	PROB	4.168	n/a	n/a	-999	15	[9, 7, 3]	19	FR1	1	R1339D
2394.733	0.016	2395705	STOP	n/a	n/a	n/a	-999	15	[-999, -999, -999]	n/a	FR1	1	R1339D
2394.749	0.514	2395721	DISTRACT_END	n/a	n/a	n/a	-999	15	[0, 0, 0]	n/a	FR1	1	R1339D
2395.263	1.653	2396235	RETRIEVAL_ORIENT_START	n/a	n/a	n/a	-999	15	[0, 0, 0]	n/a	FR1	1	R1339D
2396.916	0.0	2397888	REC_START	n/a	n/a	n/a	-999	15	[0, 0, 0]	n/a	FR1	1	R1339D
2396.916	0.744	2397888	RETRIEVAL_ORIENT_END	n/a	n/a	n/a	-999	15	[0, 0, 0]	n/a	FR1	1	R1339D
2397.66	0.638	2398632	REC_WORD	0.638	n/a	FRUIT	1	15	[0, 0, 0]	n/a	FR1	1	R1339D
2398.298	0.635	2399270	REC_WORD	0.635	n/a	WAVE	2	15	[0, 0, 0]	n/a	FR1	1	R1339D
2398.933	27.996	2399905	REC_WORD	27.996	n/a	SCHOOL	3	15	[0, 0, 0]	n/a	FR1	1	R1339D
2426.929	0.0	2427899	REC_END	n/a	n/a	n/a	-999	15	[0, 0, 0]	n/a	FR1	1	R1339D
2426.929	0.016	2427899	TRIAL_END	n/a	n/a	n/a	-999	15	[0, 0, 0]	n/a	FR1	1	R1339D
2426.945	0.0	2427915	TRIAL_START	n/a	n/a	n/a	-999	16	[0, 0, 0]	n/a	FR1	1	R1339D
2426.945	0.001	2427915	TRIAL	n/a	n/a	n/a	-999	16	[0, 0, 0]	n/a	FR1	1	R1339D
2426.946	10.211	2427916	WAITING_START	n/a	n/a	n/a	-999	16	[0, 0, 0]	n/a	FR1	1	R1339D
2437.157	0.0	2438127	WAITING_END	n/a	n/a	n/a	-999	16	[0, 0, 0]	n/a	FR1	1	R1339D
2437.157	10.429	2438127	COUNTDOWN_START	n/a	n/a	n/a	-999	16	[0, 0, 0]	n/a	FR1	1	R1339D
2447.586	0.0	2448555	COUNTDOWN_END	n/a	n/a	n/a	-999	16	[0, 0, 0]	n/a	FR1	1	R1339D
2447.586	1.189	2448555	ORIENT_START	n/a	n/a	n/a	-999	16	[0, 0, 0]	n/a	FR1	1	R1339D
2448.775	0.001	2449744	ORIENT_END	n/a	n/a	n/a	-999	16	[0, 0, 0]	n/a	FR1	1	R1339D
2448.776	0.751	2449745	ENCODING_START	n/a	n/a	n/a	-999	16	[0, 0, 0]	n/a	FR1	1	R1339D
2449.527	1.632	2450496	WORD	n/a	wordpools/wordpool_EN.txt	SHEET	1	16	[0, 0, 0]	n/a	FR1	1	R1339D
2451.159	0.919	2452128	WORD_OFF	n/a	n/a	SHEET	1	16	[0, 0, 0]	n/a	FR1	1	R1339D
2452.078	1.631	2453047	WORD	n/a	wordpools/wordpool_EN.txt	PURSE	2	16	[0, 0, 0]	n/a	FR1	1	R1339D
2453.709	0.76	2454678	WORD_OFF	n/a	n/a	PURSE	2	16	[0, 0, 0]	n/a	FR1	1	R1339D
2454.469	1.624	2455438	WORD	n/a	wordpools/wordpool_EN.txt	CAVE	3	16	[0, 0, 0]	n/a	FR1	1	R1339D
2456.093	1.147	2457062	WORD_OFF	n/a	n/a	CAVE	3	16	[0, 0, 0]	n/a	FR1	1	R1339D
2457.24	1.637	2458209	WORD	n/a	wordpools/wordpool_EN.txt	JUDGE	4	16	[0, 0, 0]	n/a	FR1	1	R1339D
2458.877	1.135	2459846	WORD_OFF	n/a	n/a	JUDGE	4	16	[0, 0, 0]	n/a	FR1	1	R1339D
2460.012	1.632	2460981	WORD	n/a	wordpools/wordpool_EN.txt	SPARK	5	16	[0, 0, 0]	n/a	FR1	1	R1339D
2461.644	0.963	2462613	WORD_OFF	n/a	n/a	SPARK	5	16	[0, 0, 0]	n/a	FR1	1	R1339D
2462.607	1.621	2463576	WORD	n/a	wordpools/wordpool_EN.txt	BALL	6	16	[0, 0, 0]	n/a	FR1	1	R1339D
2464.228	0.972	2465197	WORD_OFF	n/a	n/a	BALL	6	16	[0, 0, 0]	n/a	FR1	1	R1339D
2465.2	1.628	2466169	WORD	n/a	wordpools/wordpool_EN.txt	ARM	7	16	[0, 0, 0]	n/a	FR1	1	R1339D
2466.828	1.079	2467797	WORD_OFF	n/a	n/a	ARM	7	16	[0, 0, 0]	n/a	FR1	1	R1339D
2467.907	1.623	2468875	WORD	n/a	wordpools/wordpool_EN.txt	HORSE	8	16	[0, 0, 0]	n/a	FR1	1	R1339D
2469.53	0.789	2470498	WORD_OFF	n/a	n/a	HORSE	8	16	[0, 0, 0]	n/a	FR1	1	R1339D
2470.319	1.627	2471287	WORD	n/a	wordpools/wordpool_EN.txt	ELF	9	16	[0, 0, 0]	n/a	FR1	1	R1339D
2471.946	1.103	2472914	WORD_OFF	n/a	n/a	ELF	9	16	[0, 0, 0]	n/a	FR1	1	R1339D
2473.049	1.631	2474017	WORD	n/a	wordpools/wordpool_EN.txt	WAND	10	16	[0, 0, 0]	n/a	FR1	1	R1339D
2474.68	1.077	2475648	WORD_OFF	n/a	n/a	WAND	10	16	[0, 0, 0]	n/a	FR1	1	R1339D
2475.757	1.623	2476725	WORD	n/a	wordpools/wordpool_EN.txt	FENCE	11	16	[0, 0, 0]	n/a	FR1	1	R1339D
2477.38	0.806	2478348	WORD_OFF	n/a	n/a	FENCE	11	16	[0, 0, 0]	n/a	FR1	1	R1339D
2478.186	1.628	2479154	WORD	n/a	wordpools/wordpool_EN.txt	DIME	12	16	[0, 0, 0]	n/a	FR1	1	R1339D
2479.814	0.001	2480782	WORD_OFF	n/a	n/a	DIME	12	16	[0, 0, 0]	n/a	FR1	1	R1339D
2479.815	0.0	2480783	ENCODING_END	n/a	n/a	n/a	-999	16	[0, 0, 0]	n/a	FR1	1	R1339D
2479.815	0.0	2480783	DISTRACT_START	n/a	n/a	n/a	-999	16	[0, 0, 0]	n/a	FR1	1	R1339D
2479.815	0.016	2480783	START	n/a	n/a	n/a	-999	16	[-999, -999, -999]	n/a	FR1	1	R1339D
2479.831	3.45	2480799	PROB	3.45	n/a	n/a	-999	16	[5, 4, 9]	18	FR1	1	R1339D
2483.281	3.051	2484249	PROB	3.051	n/a	n/a	-999	16	[2, 4, 4]	10	FR1	1	R1339D
2486.332	3.484	2487300	PROB	3.484	n/a	n/a	-999	16	[7, 3, 3]	13	FR1	1	R1339D
2489.816	4.501	2490783	PROB	4.501	n/a	n/a	-999	16	[7, 6, 7]	20	FR1	1	R1339D
2494.317	4.367	2495284	PROB	4.367	n/a	n/a	-999	16	[7, 8, 1]	16	FR1	1	R1339D
2498.684	4.207	2499651	PROB	4.207	n/a	n/a	-999	16	[3, 7, 9]	19	FR1	1	R1339D
2502.891	0.011	2503858	STOP	n/a	n/a	n/a	-999	16	[-999, -999, -999]	n/a	FR1	1	R1339D
2502.902	0.564	2503869	DISTRACT_END	n/a	n/a	n/a	-999	16	[0, 0, 0]	n/a	FR1	1	R1339D
2503.466	1.653	2504433	RETRIEVAL_ORIENT_START	n/a	n/a	n/a	-999	16	[0, 0, 0]	n/a	FR1	1	R1339D
2505.119	0.0	2506086	REC_START	n/a	n/a	n/a	-999	16	[0, 0, 0]	n/a	FR1	1	R1339D
2505.119	0.581	2506086	RETRIEVAL_ORIENT_END	n/a	n/a	n/a	-999	16	[0, 0, 0]	n/a	FR1	1	R1339D
2505.7	1.091	2506667	REC_WORD	1.091	n/a	BALL	6	16	[0, 0, 0]	n/a	FR1	1	R1339D
2506.791	17.244	2507758	REC_WORD	17.244	n/a	ARM	7	16	[0, 0, 0]	n/a	FR1	1	R1339D
2524.035	7.252	2525001	REC_WORD	7.252	n/a	PURSE	2	16	[0, 0, 0]	n/a	FR1	1	R1339D
2531.287	3.846	2532252	REC_WORD	3.846	n/a	SLUDGE	-999	16	[0, 0, 0]	n/a	FR1	1	R1339D
2535.133	0.0	2536098	REC_END	n/a	n/a	n/a	-999	16	[0, 0, 0]	n/a	FR1	1	R1339D
2535.133	0.017	2536098	TRIAL_END	n/a	n/a	n/a	-999	16	[0, 0, 0]	n/a	FR1	1	R1339D
2535.15	0.0	2536115	TRIAL_START	n/a	n/a	n/a	-999	17	[0, 0, 0]	n/a	FR1	1	R1339D
2535.15	0.001	2536115	TRIAL	n/a	n/a	n/a	-999	17	[0, 0, 0]	n/a	FR1	1	R1339D
2535.151	48.365	2536116	WAITING_START	n/a	n/a	n/a	-999	17	[0, 0, 0]	n/a	FR1	1	R1339D
2583.516	0.001	2584479	WAITING_END	n/a	n/a	n/a	-999	17	[0, 0, 0]	n/a	FR1	1	R1339D
2583.517	10.429	2584480	COUNTDOWN_START	n/a	n/a	n/a	-999	17	[0, 0, 0]	n/a	FR1	1	R1339D
2593.946	0.001	2594908	COUNTDOWN_END	n/a	n/a	n/a	-999	17	[0, 0, 0]	n/a	FR1	1	R1339D
2593.947	1.155	2594909	ORIENT_START	n/a	n/a	n/a	-999	17	[0, 0, 0]	n/a	FR1	1	R1339D
2595.102	0.0	2596064	ENCODING_START	n/a	n/a	n/a	-999	17	[0, 0, 0]	n/a	FR1	1	R1339D
2595.102	1.032	2596064	ORIENT_END	n/a	n/a	n/a	-999	17	[0, 0, 0]	n/a	FR1	1	R1339D
2596.134	1.635	2597096	WORD	n/a	wordpools/wordpool_EN.txt	RIB	1	17	[0, 0, 0]	n/a	FR1	1	R1339D
2597.769	0.798	2598731	WORD_OFF	n/a	n/a	RIB	1	17	[0, 0, 0]	n/a	FR1	1	R1339D
2598.567	1.636	2599529	WORD	n/a	wordpools/wordpool_EN.txt	BOX	2	17	[0, 0, 0]	n/a	FR1	1	R1339D
2600.203	0.842	2601165	WORD_OFF	n/a	n/a	BOX	2	17	[0, 0, 0]	n/a	FR1	1	R1339D
2601.045	1.625	2602007	WORD	n/a	wordpools/wordpool_EN.txt	FAN	3	17	[0, 0, 0]	n/a	FR1	1	R1339D
2602.67	1.12	2603632	WORD_OFF	n/a	n/a	FAN	3	17	[0, 0, 0]	n/a	FR1	1	R1339D
2603.79	1.63	2604752	WORD	n/a	wordpools/wordpool_EN.txt	SOCK	4	17	[0, 0, 0]	n/a	FR1	1	R1339D
2605.42	1.016	2606382	WORD_OFF	n/a	n/a	SOCK	4	17	[0, 0, 0]	n/a	FR1	1	R1339D
2606.436	1.635	2607398	WORD	n/a	wordpools/wordpool_EN.txt	CAPE	5	17	[0, 0, 0]	n/a	FR1	1	R1339D
2608.071	0.822	2609033	WORD_OFF	n/a	n/a	CAPE	5	17	[0, 0, 0]	n/a	FR1	1	R1339D
2608.893	1.629	2609855	WORD	n/a	wordpools/wordpool_EN.txt	DOOR	6	17	[0, 0, 0]	n/a	FR1	1	R1339D
2610.522	0.952	2611484	WORD_OFF	n/a	n/a	DOOR	6	17	[0, 0, 0]	n/a	FR1	1	R1339D
2611.474	1.631	2612436	WORD	n/a	wordpools/wordpool_EN.txt	PALM	7	17	[0, 0, 0]	n/a	FR1	1	R1339D
2613.105	0.758	2614066	WORD_OFF	n/a	n/a	PALM	7	17	[0, 0, 0]	n/a	FR1	1	R1339D
2613.863	1.626	2614824	WORD	n/a	wordpools/wordpool_EN.txt	POLE	8	17	[0, 0, 0]	n/a	FR1	1	R1339D
2615.489	0.915	2616450	WORD_OFF	n/a	n/a	POLE	8	17	[0, 0, 0]	n/a	FR1	1	R1339D
2616.404	1.636	2617365	WORD	n/a	wordpools/wordpool_EN.txt	SOAP	9	17	[0, 0, 0]	n/a	FR1	1	R1339D
2618.04	1.042	2619001	WORD_OFF	n/a	n/a	SOAP	9	17	[0, 0, 0]	n/a	FR1	1	R1339D
2619.082	1.625	2620043	WORD	n/a	wordpools/wordpool_EN.txt	WING	10	17	[0, 0, 0]	n/a	FR1	1	R1339D
2620.707	0.77	2621668	WORD_OFF	n/a	n/a	WING	10	17	[0, 0, 0]	n/a	FR1	1	R1339D
2621.477	1.63	2622438	WORD	n/a	wordpools/wordpool_EN.txt	FACE	11	17	[0, 0, 0]	n/a	FR1	1	R1339D
2623.107	0.925	2624068	WORD_OFF	n/a	n/a	FACE	11	17	[0, 0, 0]	n/a	FR1	1	R1339D
2624.032	1.625	2624993	WORD	n/a	wordpools/wordpool_EN.txt	SEAT	12	17	[0, 0, 0]	n/a	FR1	1	R1339D
2625.657	0.001	2626618	WORD_OFF	n/a	n/a	SEAT	12	17	[0, 0, 0]	n/a	FR1	1	R1339D
2625.658	0.0	2626619	ENCODING_END	n/a	n/a	n/a	-999	17	[0, 0, 0]	n/a	FR1	1	R1339D
2625.658	0.0	2626619	DISTRACT_START	n/a	n/a	n/a	-999	17	[0, 0, 0]	n/a	FR1	1	R1339D
2625.658	0.016	2626619	START	n/a	n/a	n/a	-999	17	[-999, -999, -999]	n/a	FR1	1	R1339D
2625.674	3.534	2626635	PROB	3.534	n/a	n/a	-999	17	[3, 9, 2]	14	FR1	1	R1339D
2629.208	3.368	2630169	PROB	3.368	n/a	n/a	-999	17	[9, 2, 6]	17	FR1	1	R1339D
2632.576	2.216	2633536	PROB	2.216	n/a	n/a	-999	17	[7, 7, 7]	21	FR1	1	R1339D
2634.792	2.067	2635752	PROB	2.067	n/a	n/a	-999	17	[5, 2, 5]	12	FR1	1	R1339D
2636.859	3.685	2637819	PROB	3.685	n/a	n/a	-999	17	[2, 7, 2]	11	FR1	1	R1339D
2640.544	2.916	2641504	PROB	2.916	n/a	n/a	-999	17	[2, 2, 5]	9	FR1	1	R1339D
2643.46	6.125	2644420	PROB	6.125	n/a	n/a	-999	17	[6, 7, 9]	22	FR1	1	R1339D
2649.585	0.011	2650545	STOP	n/a	n/a	n/a	-999	17	[-999, -999, -999]	n/a	FR1	1	R1339D
2649.596	0.624	2650556	DISTRACT_END	n/a	n/a	n/a	-999	17	[0, 0, 0]	n/a	FR1	1	R1339D
2650.22	1.592	2651180	RETRIEVAL_ORIENT_START	n/a	n/a	n/a	-999	17	[0, 0, 0]	n/a	FR1	1	R1339D
2651.812	0.0	2652772	REC_START	n/a	n/a	n/a	-999	17	[0, 0, 0]	n/a	FR1	1	R1339D
2651.812	0.881	2652772	RETRIEVAL_ORIENT_END	n/a	n/a	n/a	-999	17	[0, 0, 0]	n/a	FR1	1	R1339D
2652.693	0.776	2653653	REC_WORD	0.776	n/a	BOX	2	17	[0, 0, 0]	n/a	FR1	1	R1339D
2653.469	2.562	2654428	REC_WORD	2.562	n/a	FAN	3	17	[0, 0, 0]	n/a	FR1	1	R1339D
2656.031	25.794	2656990	REC_WORD	25.794	n/a	SHEET	-999	17	[0, 0, 0]	n/a	FR1	1	R1339D
2681.825	0.0	2682783	REC_END	n/a	n/a	n/a	-999	17	[0, 0, 0]	n/a	FR1	1	R1339D
2681.825	0.015	2682783	TRIAL_END	n/a	n/a	n/a	-999	17	[0, 0, 0]	n/a	FR1	1	R1339D
2681.84	0.0	2682798	TRIAL_START	n/a	n/a	n/a	-999	18	[0, 0, 0]	n/a	FR1	1	R1339D
2681.84	0.0	2682798	TRIAL	n/a	n/a	n/a	-999	18	[0, 0, 0]	n/a	FR1	1	R1339D
2681.84	44.102	2682798	WAITING_START	n/a	n/a	n/a	-999	18	[0, 0, 0]	n/a	FR1	1	R1339D
2725.942	0.001	2726898	WAITING_END	n/a	n/a	n/a	-999	18	[0, 0, 0]	n/a	FR1	1	R1339D
2725.943	10.428	2726899	COUNTDOWN_START	n/a	n/a	n/a	-999	18	[0, 0, 0]	n/a	FR1	1	R1339D
2736.371	0.001	2737326	COUNTDOWN_END	n/a	n/a	n/a	-999	18	[0, 0, 0]	n/a	FR1	1	R1339D
2736.372	1.224	2737327	ORIENT_START	n/a	n/a	n/a	-999	18	[0, 0, 0]	n/a	FR1	1	R1339D
2737.596	0.0	2738551	ENCODING_START	n/a	n/a	n/a	-999	18	[0, 0, 0]	n/a	FR1	1	R1339D
2737.596	1.088	2738551	ORIENT_END	n/a	n/a	n/a	-999	18	[0, 0, 0]	n/a	FR1	1	R1339D
2738.684	1.628	2739639	WORD	n/a	wordpools/wordpool_EN.txt	WEED	1	18	[0, 0, 0]	n/a	FR1	1	R1339D
2740.312	1.004	2741267	WORD_OFF	n/a	n/a	WEED	1	18	[0, 0, 0]	n/a	FR1	1	R1339D
2741.316	1.629	2742271	WORD	n/a	wordpools/wordpool_EN.txt	LAND	2	18	[0, 0, 0]	n/a	FR1	1	R1339D
2742.945	0.816	2743900	WORD_OFF	n/a	n/a	LAND	2	18	[0, 0, 0]	n/a	FR1	1	R1339D
2743.761	1.635	2744716	WORD	n/a	wordpools/wordpool_EN.txt	MOON	3	18	[0, 0, 0]	n/a	FR1	1	R1339D
2745.396	1.037	2746351	WORD_OFF	n/a	n/a	MOON	3	18	[0, 0, 0]	n/a	FR1	1	R1339D
2746.433	1.63	2747388	WORD	n/a	wordpools/wordpool_EN.txt	ZOO	4	18	[0, 0, 0]	n/a	FR1	1	R1339D
2748.063	0.884	2749018	WORD_OFF	n/a	n/a	ZOO	4	18	[0, 0, 0]	n/a	FR1	1	R1339D
2748.947	1.617	2749902	WORD	n/a	wordpools/wordpool_EN.txt	SHIELD	5	18	[0, 0, 0]	n/a	FR1	1	R1339D
2750.564	0.929	2751519	WORD_OFF	n/a	n/a	SHIELD	5	18	[0, 0, 0]	n/a	FR1	1	R1339D
2751.493	1.621	2752448	WORD	n/a	wordpools/wordpool_EN.txt	TRAY	6	18	[0, 0, 0]	n/a	FR1	1	R1339D
2753.114	1.127	2754069	WORD_OFF	n/a	n/a	TRAY	6	18	[0, 0, 0]	n/a	FR1	1	R1339D
2754.241	1.623	2755196	WORD	n/a	wordpools/wordpool_EN.txt	CUBE	7	18	[0, 0, 0]	n/a	FR1	1	R1339D
2755.864	1.073	2756818	WORD_OFF	n/a	n/a	CUBE	7	18	[0, 0, 0]	n/a	FR1	1	R1339D
2756.937	1.629	2757891	WORD	n/a	wordpools/wordpool_EN.txt	OAR	8	18	[0, 0, 0]	n/a	FR1	1	R1339D
2758.566	0.762	2759520	WORD_OFF	n/a	n/a	OAR	8	18	[0, 0, 0]	n/a	FR1	1	R1339D
2759.328	1.637	2760282	WORD	n/a	wordpools/wordpool_EN.txt	BOAT	9	18	[0, 0, 0]	n/a	FR1	1	R1339D
2760.965	1.056	2761919	WORD_OFF	n/a	n/a	BOAT	9	18	[0, 0, 0]	n/a	FR1	1	R1339D
2762.021	1.628	2762975	WORD	n/a	wordpools/wordpool_EN.txt	HAWK	10	18	[0, 0, 0]	n/a	FR1	1	R1339D
2763.649	0.779	2764603	WORD_OFF	n/a	n/a	HAWK	10	18	[0, 0, 0]	n/a	FR1	1	R1339D
2764.428	1.622	2765382	WORD	n/a	wordpools/wordpool_EN.txt	FORT	11	18	[0, 0, 0]	n/a	FR1	1	R1339D
2766.05	0.826	2767004	WORD_OFF	n/a	n/a	FORT	11	18	[0, 0, 0]	n/a	FR1	1	R1339D
2766.876	1.624	2767830	WORD	n/a	wordpools/wordpool_EN.txt	MILK	12	18	[0, 0, 0]	n/a	FR1	1	R1339D
2768.5	0.001	2769454	WORD_OFF	n/a	n/a	MILK	12	18	[0, 0, 0]	n/a	FR1	1	R1339D
2768.501	0.0	2769455	ENCODING_END	n/a	n/a	n/a	-999	18	[0, 0, 0]	n/a	FR1	1	R1339D
2768.501	0.0	2769455	DISTRACT_START	n/a	n/a	n/a	-999	18	[0, 0, 0]	n/a	FR1	1	R1339D
2768.501	0.016	2769455	START	n/a	n/a	n/a	-999	18	[-999, -999, -999]	n/a	FR1	1	R1339D
2768.517	14.053	2769471	PROB	14.053	n/a	n/a	-999	18	[6, 5, 8]	19	FR1	1	R1339D
2782.57	4.083	2783523	PROB	4.083	n/a	n/a	-999	18	[7, 3, 5]	15	FR1	1	R1339D
2786.653	3.86	2787606	PROB	3.86	n/a	n/a	-999	18	[5, 4, 3]	12	FR1	1	R1339D
2790.513	0.009	2791466	STOP	n/a	n/a	n/a	-999	18	[-999, -999, -999]	n/a	FR1	1	R1339D
2790.522	0.609	2791475	DISTRACT_END	n/a	n/a	n/a	-999	18	[0, 0, 0]	n/a	FR1	1	R1339D
2791.131	1.623	2792084	RETRIEVAL_ORIENT_START	n/a	n/a	n/a	-999	18	[0, 0, 0]	n/a	FR1	1	R1339D
2792.754	0.001	2793707	RETRIEVAL_ORIENT_END	n/a	n/a	n/a	-999	18	[0, 0, 0]	n/a	FR1	1	R1339D
2792.755	1.575	2793708	REC_START	n/a	n/a	n/a	-999	18	[0, 0, 0]	n/a	FR1	1	R1339D
2794.33	0.855	2795283	REC_WORD	0.855	n/a	WEED	1	18	[0, 0, 0]	n/a	FR1	1	R1339D
2795.185	0.856	2796138	REC_WORD	0.856	n/a	MOON	3	18	[0, 0, 0]	n/a	FR1	1	R1339D
2796.041	1.128	2796994	REC_WORD	1.128	n/a	LAND	2	18	[0, 0, 0]	n/a	FR1	1	R1339D
2797.169	0.905	2798121	REC_WORD	0.905	n/a	OAR	8	18	[0, 0, 0]	n/a	FR1	1	R1339D
2798.074	8.927	2799026	REC_WORD	8.927	n/a	FORT	11	18	[0, 0, 0]	n/a	FR1	1	R1339D
2807.001	15.766	2807953	REC_WORD	15.766	n/a	SHIELD	5	18	[0, 0, 0]	n/a	FR1	1	R1339D
2822.767	0.0	2823718	REC_END	n/a	n/a	n/a	-999	18	[0, 0, 0]	n/a	FR1	1	R1339D
2822.767	0.015	2823718	TRIAL_END	n/a	n/a	n/a	-999	18	[0, 0, 0]	n/a	FR1	1	R1339D
2822.782	0.0	2823733	TRIAL_START	n/a	n/a	n/a	-999	19	[0, 0, 0]	n/a	FR1	1	R1339D
2822.782	0.0	2823733	TRIAL	n/a	n/a	n/a	-999	19	[0, 0, 0]	n/a	FR1	1	R1339D
2822.782	6.946	2823733	WAITING_START	n/a	n/a	n/a	-999	19	[0, 0, 0]	n/a	FR1	1	R1339D
2829.728	0.0	2830679	WAITING_END	n/a	n/a	n/a	-999	19	[0, 0, 0]	n/a	FR1	1	R1339D
2829.728	10.429	2830679	COUNTDOWN_START	n/a	n/a	n/a	-999	19	[0, 0, 0]	n/a	FR1	1	R1339D
2840.157	0.001	2841107	COUNTDOWN_END	n/a	n/a	n/a	-999	19	[0, 0, 0]	n/a	FR1	1	R1339D
2840.158	1.105	2841108	ORIENT_START	n/a	n/a	n/a	-999	19	[0, 0, 0]	n/a	FR1	1	R1339D
2841.263	0.001	2842213	ORIENT_END	n/a	n/a	n/a	-999	19	[0, 0, 0]	n/a	FR1	1	R1339D
2841.264	0.919	2842214	ENCODING_START	n/a	n/a	n/a	-999	19	[0, 0, 0]	n/a	FR1	1	R1339D
2842.183	1.631	2843133	WORD	n/a	wordpools/wordpool_EN.txt	PET	1	19	[0, 0, 0]	n/a	FR1	1	R1339D
2843.814	0.821	2844764	WORD_OFF	n/a	n/a	PET	1	19	[0, 0, 0]	n/a	FR1	1	R1339D
2844.635	1.629	2845585	WORD	n/a	wordpools/wordpool_EN.txt	MAZE	2	19	[0, 0, 0]	n/a	FR1	1	R1339D
2846.264	0.806	2847214	WORD_OFF	n/a	n/a	MAZE	2	19	[0, 0, 0]	n/a	FR1	1	R1339D
2847.07	1.628	2848020	WORD	n/a	wordpools/wordpool_EN.txt	FUR	3	19	[0, 0, 0]	n/a	FR1	1	R1339D
2848.698	1.09	2849648	WORD_OFF	n/a	n/a	FUR	3	19	[0, 0, 0]	n/a	FR1	1	R1339D
2849.788	1.627	2850738	WORD	n/a	wordpools/wordpool_EN.txt	COIN	4	19	[0, 0, 0]	n/a	FR1	1	R1339D
2851.415	1.064	2852365	WORD_OFF	n/a	n/a	COIN	4	19	[0, 0, 0]	n/a	FR1	1	R1339D
2852.479	1.637	2853429	WORD	n/a	wordpools/wordpool_EN.txt	CORD	5	19	[0, 0, 0]	n/a	FR1	1	R1339D
2854.116	0.777	2855066	WORD_OFF	n/a	n/a	CORD	5	19	[0, 0, 0]	n/a	FR1	1	R1339D
2854.893	1.623	2855843	WORD	n/a	wordpools/wordpool_EN.txt	FOOT	6	19	[0, 0, 0]	n/a	FR1	1	R1339D
2856.516	1.083	2857466	WORD_OFF	n/a	n/a	FOOT	6	19	[0, 0, 0]	n/a	FR1	1	R1339D
2857.599	1.634	2858549	WORD	n/a	wordpools/wordpool_EN.txt	MULE	7	19	[0, 0, 0]	n/a	FR1	1	R1339D
2859.233	1.144	2860182	WORD_OFF	n/a	n/a	MULE	7	19	[0, 0, 0]	n/a	FR1	1	R1339D
2860.377	1.624	2861326	WORD	n/a	wordpools/wordpool_EN.txt	BOOT	8	19	[0, 0, 0]	n/a	FR1	1	R1339D
2862.001	0.928	2862950	WORD_OFF	n/a	n/a	BOOT	8	19	[0, 0, 0]	n/a	FR1	1	R1339D
2862.929	1.623	2863878	WORD	n/a	wordpools/wordpool_EN.txt	STOVE	9	19	[0, 0, 0]	n/a	FR1	1	R1339D
2864.552	0.961	2865501	WORD_OFF	n/a	n/a	STOVE	9	19	[0, 0, 0]	n/a	FR1	1	R1339D
2865.513	1.622	2866462	WORD	n/a	wordpools/wordpool_EN.txt	PIG	10	19	[0, 0, 0]	n/a	FR1	1	R1339D
2867.135	0.994	2868084	WORD_OFF	n/a	n/a	PIG	10	19	[0, 0, 0]	n/a	FR1	1	R1339D
2868.129	1.623	2869078	WORD	n/a	wordpools/wordpool_EN.txt	CHIEF	11	19	[0, 0, 0]	n/a	FR1	1	R1339D
2869.752	1.054	2870701	WORD_OFF	n/a	n/a	CHIEF	11	19	[0, 0, 0]	n/a	FR1	1	R1339D
2870.806	1.63	2871755	WORD	n/a	wordpools/wordpool_EN.txt	CLOCK	12	19	[0, 0, 0]	n/a	FR1	1	R1339D
2872.436	0.0	2873385	WORD_OFF	n/a	n/a	CLOCK	12	19	[0, 0, 0]	n/a	FR1	1	R1339D
2872.436	0.0	2873385	ENCODING_END	n/a	n/a	n/a	-999	19	[0, 0, 0]	n/a	FR1	1	R1339D
2872.436	0.0	2873385	DISTRACT_START	n/a	n/a	n/a	-999	19	[0, 0, 0]	n/a	FR1	1	R1339D
2872.436	0.016	2873385	START	n/a	n/a	n/a	-999	19	[-999, -999, -999]	n/a	FR1	1	R1339D
2872.452	3.234	2873401	PROB	3.234	n/a	n/a	-999	19	[5, 5, 9]	19	FR1	1	R1339D
2875.686	4.852	2876635	PROB	4.852	n/a	n/a	-999	19	[5, 1, 7]	13	FR1	1	R1339D
2880.538	2.316	2881486	PROB	2.316	n/a	n/a	-999	19	[1, 2, 3]	6	FR1	1	R1339D
2882.854	3.251	2883802	PROB	3.251	n/a	n/a	-999	19	[3, 2, 7]	12	FR1	1	R1339D
2886.105	5.351	2887053	PROB	5.351	n/a	n/a	-999	19	[1, 4, 3]	8	FR1	1	R1339D
2891.456	3.25	2892404	PROB	3.25	n/a	n/a	-999	19	[5, 6, 6]	17	FR1	1	R1339D
2894.706	0.017	2895654	STOP	n/a	n/a	n/a	-999	19	[-999, -999, -999]	n/a	FR1	1	R1339D
2894.723	0.677	2895671	DISTRACT_END	n/a	n/a	n/a	-999	19	[0, 0, 0]	n/a	FR1	1	R1339D
2895.4	1.673	2896348	RETRIEVAL_ORIENT_START	n/a	n/a	n/a	-999	19	[0, 0, 0]	n/a	FR1	1	R1339D
2897.073	0.001	2898021	RETRIEVAL_ORIENT_END	n/a	n/a	n/a	-999	19	[0, 0, 0]	n/a	FR1	1	R1339D
2897.074	0.99	2898022	REC_START	n/a	n/a	n/a	-999	19	[0, 0, 0]	n/a	FR1	1	R1339D
2898.064	0.881	2899012	REC_WORD	0.881	n/a	SHIELD	-999	19	[0, 0, 0]	n/a	FR1	1	R1339D
2898.945	0.964	2899893	REC_WORD	0.964	n/a	CLOCK	12	19	[0, 0, 0]	n/a	FR1	1	R1339D
2899.909	1.035	2900856	REC_WORD	1.035	n/a	FUR	3	19	[0, 0, 0]	n/a	FR1	1	R1339D
2900.944	1.443	2901891	REC_WORD	1.443	n/a	PET	1	19	[0, 0, 0]	n/a	FR1	1	R1339D
2902.387	0.827	2903334	REC_WORD	0.827	n/a	PIG	10	19	[0, 0, 0]	n/a	FR1	1	R1339D
2903.214	23.871	2904161	REC_WORD	23.871	n/a	FORT	-999	19	[0, 0, 0]	n/a	FR1	1	R1339D
2927.085	0.001	2928031	REC_END	n/a	n/a	n/a	-999	19	[0, 0, 0]	n/a	FR1	1	R1339D
2927.086	0.014	2928032	TRIAL_END	n/a	n/a	n/a	-999	19	[0, 0, 0]	n/a	FR1	1	R1339D
2927.1	0.0	2928046	TRIAL	n/a	n/a	n/a	-999	20	[0, 0, 0]	n/a	FR1	1	R1339D
2927.1	0.0	2928046	WAITING_START	n/a	n/a	n/a	-999	20	[0, 0, 0]	n/a	FR1	1	R1339D
2927.1	6.431	2928046	TRIAL_START	n/a	n/a	n/a	-999	20	[0, 0, 0]	n/a	FR1	1	R1339D
2933.531	0.0	2934477	WAITING_END	n/a	n/a	n/a	-999	20	[0, 0, 0]	n/a	FR1	1	R1339D
2933.531	10.429	2934477	COUNTDOWN_START	n/a	n/a	n/a	-999	20	[0, 0, 0]	n/a	FR1	1	R1339D
2943.96	0.0	2944905	COUNTDOWN_END	n/a	n/a	n/a	-999	20	[0, 0, 0]	n/a	FR1	1	R1339D
2943.96	1.172	2944905	ORIENT_START	n/a	n/a	n/a	-999	20	[0, 0, 0]	n/a	FR1	1	R1339D
2945.132	0.001	2946077	ORIENT_END	n/a	n/a	n/a	-999	20	[0, 0, 0]	n/a	FR1	1	R1339D
2945.133	0.847	2946078	ENCODING_START	n/a	n/a	n/a	-999	20	[0, 0, 0]	n/a	FR1	1	R1339D
2945.98	1.636	2946925	WORD	n/a	wordpools/wordpool_EN.txt	DART	1	20	[0, 0, 0]	n/a	FR1	1	R1339D
2947.616	0.932	2948561	WORD_OFF	n/a	n/a	DART	1	20	[0, 0, 0]	n/a	FR1	1	R1339D
2948.548	1.635	2949493	WORD	n/a	wordpools/wordpool_EN.txt	STORM	2	20	[0, 0, 0]	n/a	FR1	1	R1339D
2950.183	1.065	2951128	WORD_OFF	n/a	n/a	STORM	2	20	[0, 0, 0]	n/a	FR1	1	R1339D
2951.248	1.636	2952193	WORD	n/a	wordpools/wordpool_EN.txt	RAKE	3	20	[0, 0, 0]	n/a	FR1	1	R1339D
2952.884	0.793	2953829	WORD_OFF	n/a	n/a	RAKE	3	20	[0, 0, 0]	n/a	FR1	1	R1339D
2953.677	1.624	2954622	WORD	n/a	wordpools/wordpool_EN.txt	FLOOR	4	20	[0, 0, 0]	n/a	FR1	1	R1339D
2955.301	1.031	2956246	WORD_OFF	n/a	n/a	FLOOR	4	20	[0, 0, 0]	n/a	FR1	1	R1339D
2956.332	1.636	2957277	WORD	n/a	wordpools/wordpool_EN.txt	SEAL	5	20	[0, 0, 0]	n/a	FR1	1	R1339D
2957.968	1.136	2958913	WORD_OFF	n/a	n/a	SEAL	5	20	[0, 0, 0]	n/a	FR1	1	R1339D
2959.104	1.631	2960049	WORD	n/a	wordpools/wordpool_EN.txt	LEAF	6	20	[0, 0, 0]	n/a	FR1	1	R1339D
2960.735	0.785	2961680	WORD_OFF	n/a	n/a	LEAF	6	20	[0, 0, 0]	n/a	FR1	1	R1339D
2961.52	1.632	2962464	WORD	n/a	wordpools/wordpool_EN.txt	KITE	7	20	[0, 0, 0]	n/a	FR1	1	R1339D
2963.152	0.844	2964096	WORD_OFF	n/a	n/a	KITE	7	20	[0, 0, 0]	n/a	FR1	1	R1339D
2963.996	1.608	2964940	WORD	n/a	wordpools/wordpool_EN.txt	CAT	8	20	[0, 0, 0]	n/a	FR1	1	R1339D
2965.604	1.046	2966548	WORD_OFF	n/a	n/a	CAT	8	20	[0, 0, 0]	n/a	FR1	1	R1339D
2966.65	1.637	2967594	WORD	n/a	wordpools/wordpool_EN.txt	NEST	9	20	[0, 0, 0]	n/a	FR1	1	R1339D
2968.287	1.076	2969231	WORD_OFF	n/a	n/a	NEST	9	20	[0, 0, 0]	n/a	FR1	1	R1339D
2969.363	1.624	2970307	WORD	n/a	wordpools/wordpool_EN.txt	JUICE	10	20	[0, 0, 0]	n/a	FR1	1	R1339D
2970.987	1.108	2971931	WORD_OFF	n/a	n/a	JUICE	10	20	[0, 0, 0]	n/a	FR1	1	R1339D
2972.095	1.626	2973039	WORD	n/a	wordpools/wordpool_EN.txt	SPRING	11	20	[0, 0, 0]	n/a	FR1	1	R1339D
2973.721	0.943	2974665	WORD_OFF	n/a	n/a	SPRING	11	20	[0, 0, 0]	n/a	FR1	1	R1339D
2974.664	1.624	2975608	WORD	n/a	wordpools/wordpool_EN.txt	BEE	12	20	[0, 0, 0]	n/a	FR1	1	R1339D
2976.288	0.001	2977232	WORD_OFF	n/a	n/a	BEE	12	20	[0, 0, 0]	n/a	FR1	1	R1339D
2976.289	0.0	2977233	ENCODING_END	n/a	n/a	n/a	-999	20	[0, 0, 0]	n/a	FR1	1	R1339D
2976.289	0.0	2977233	DISTRACT_START	n/a	n/a	n/a	-999	20	[0, 0, 0]	n/a	FR1	1	R1339D
2976.289	0.015	2977233	START	n/a	n/a	n/a	-999	20	[-999, -999, -999]	n/a	FR1	1	R1339D
2976.304	8.335	2977248	PROB	8.335	n/a	n/a	-999	20	[7, 7, 1]	15	FR1	1	R1339D
2984.639	2.467	2985582	PROB	2.467	n/a	n/a	-999	20	[9, 5, 5]	19	FR1	1	R1339D
2987.106	2.768	2988049	PROB	2.768	n/a	n/a	-999	20	[1, 2, 7]	10	FR1	1	R1339D
2989.874	4.8	2990817	PROB	4.8	n/a	n/a	-999	20	[5, 2, 4]	11	FR1	1	R1339D
2994.674	4.623	2995617	PROB	4.623	n/a	n/a	-999	20	[8, 4, 1]	13	FR1	1	R1339D
2999.297	0.012	3000240	STOP	n/a	n/a	n/a	-999	20	[-999, -999, -999]	n/a	FR1	1	R1339D
2999.309	0.51	3000252	DISTRACT_END	n/a	n/a	n/a	-999	20	[0, 0, 0]	n/a	FR1	1	R1339D
2999.819	1.607	3000762	RETRIEVAL_ORIENT_START	n/a	n/a	n/a	-999	20	[0, 0, 0]	n/a	FR1	1	R1339D
3001.426	0.0	3002369	RETRIEVAL_ORIENT_END	n/a	n/a	n/a	-999	20	[0, 0, 0]	n/a	FR1	1	R1339D
3001.426	3.592	3002369	REC_START	n/a	n/a	n/a	-999	20	[0, 0, 0]	n/a	FR1	1	R1339D
3005.018	1.114	3005960	REC_WORD	1.114	n/a	NEST	9	20	[0, 0, 0]	n/a	FR1	1	R1339D
3006.132	7.758	3007074	REC_WORD	7.758	n/a	KITE	7	20	[0, 0, 0]	n/a	FR1	1	R1339D
3013.89	17.548	3014832	REC_WORD	17.548	n/a	CLOCK	-999	20	[0, 0, 0]	n/a	FR1	1	R1339D
3031.438	0.0	3032379	REC_END	n/a	n/a	n/a	-999	20	[0, 0, 0]	n/a	FR1	1	R1339D
3031.438	0.015	3032379	TRIAL_END	n/a	n/a	n/a	-999	20	[0, 0, 0]	n/a	FR1	1	R1339D
3031.453	0.0	3032394	TRIAL_START	n/a	n/a	n/a	-999	21	[0, 0, 0]	n/a	FR1	1	R1339D
3031.453	0.0	3032394	TRIAL	n/a	n/a	n/a	-999	21	[0, 0, 0]	n/a	FR1	1	R1339D
3031.453	0.0	3032394	WAITING_START	n/a	n/a	n/a	-999	21	[0, 0, 0]	n/a	FR1	1	R1339D
