onset	duration	sample	trial_type	response_time	stim_file	item_name	serialpos	list	test	answer	experiment	session	subject
0.0	16.428	708	SESS_START	n/a	n/a	n/a	-999	-999	[0, 0, 0]	n/a	FR1	3	R1135E
16.428	10.428	17135	COUNTDOWN_START	n/a	n/a	n/a	-999	-999	[0, 0, 0]	n/a	FR1	3	R1135E
26.856	3.474	27562	COUNTDOWN_END	n/a	n/a	n/a	-999	-999	[0, 0, 0]	n/a	FR1	3	R1135E
30.33	2.483	31036	PRACTICE_WORD	n/a	n/a	RING	1	-1	[0, 0, 0]	n/a	FR1	3	R1135E
32.813	2.602	33519	PRACTICE_WORD	n/a	n/a	FLOOD	2	-1	[0, 0, 0]	n/a	FR1	3	R1135E
35.415	2.499	36121	PRACTICE_WORD	n/a	n/a	CAMEL	3	-1	[0, 0, 0]	n/a	FR1	3	R1135E
37.914	2.618	38620	PRACTICE_WORD	n/a	n/a	TONGUE	4	-1	[0, 0, 0]	n/a	FR1	3	R1135E
40.532	2.566	41237	PRACTICE_WORD	n/a	n/a	COTTON	5	-1	[0, 0, 0]	n/a	FR1	3	R1135E
43.098	2.418	43803	PRACTICE_WORD	n/a	n/a	IRON	6	-1	[0, 0, 0]	n/a	FR1	3	R1135E
45.516	2.616	46221	PRACTICE_WORD	n/a	n/a	RHINO	7	-1	[0, 0, 0]	n/a	FR1	3	R1135E
48.132	2.484	48837	PRACTICE_WORD	n/a	n/a	BEAM	8	-1	[0, 0, 0]	n/a	FR1	3	R1135E
50.616	2.534	51321	PRACTICE_WORD	n/a	n/a	CHEST	9	-1	[0, 0, 0]	n/a	FR1	3	R1135E
53.15	2.401	53854	PRACTICE_WORD	n/a	n/a	ATTIC	10	-1	[0, 0, 0]	n/a	FR1	3	R1135E
55.551	2.483	56255	PRACTICE_WORD	n/a	n/a	WATCH	11	-1	[0, 0, 0]	n/a	FR1	3	R1135E
58.034	1.617	58738	PRACTICE_WORD	n/a	n/a	WAGON	12	-1	[0, 0, 0]	n/a	FR1	3	R1135E
59.651	0.0	60355	PRACTICE_DISTRACT_START	n/a	n/a	n/a	-999	-1	[0, 0, 0]	n/a	FR1	3	R1135E
59.651	0.017	60355	START	n/a	n/a	n/a	-999	-1	[-999, -999, -999]	n/a	FR1	3	R1135E
59.668	7.318	60372	PROB	7.318	n/a	n/a	-999	-1	[4, 4, 8]	16	FR1	3	R1135E
66.986	11.702	67690	PROB	11.702	n/a	n/a	-999	-1	[4, 4, 5]	13	FR1	3	R1135E
78.688	13.214	79391	PROB	13.214	n/a	n/a	-999	-1	[6, 8, 3]	16	FR1	3	R1135E
91.902	0.004	92604	STOP	n/a	n/a	n/a	-999	-1	[-999, -999, -999]	n/a	FR1	3	R1135E
91.906	0.702	92608	PRACTICE_DISTRACT_END	n/a	n/a	n/a	-999	-1	[0, 0, 0]	n/a	FR1	3	R1135E
92.608	30.515	93310	PRACTICE_REC_START	n/a	n/a	n/a	-999	-1	[0, 0, 0]	n/a	FR1	3	R1135E
123.123	16.875	123823	PRACTICE_REC_END	n/a	n/a	n/a	-999	-1	[0, 0, 0]	n/a	FR1	3	R1135E
139.998	0.0	140697	TRIAL	n/a	n/a	n/a	-999	1	[0, 0, 0]	n/a	FR1	3	R1135E
139.998	10.428	140697	COUNTDOWN_START	n/a	n/a	n/a	-999	1	[0, 0, 0]	n/a	FR1	3	R1135E
150.426	0.008	151124	COUNTDOWN_END	n/a	n/a	n/a	-999	1	[0, 0, 0]	n/a	FR1	3	R1135E
150.434	2.6	151132	ORIENT	n/a	n/a	n/a	-999	1	[0, 0, 0]	n/a	FR1	3	R1135E
153.034	2.567	153732	WORD	n/a	wordpools/wordpool_EN.txt	EGG	1	1	[0, 0, 0]	n/a	FR1	3	R1135E
155.601	2.567	156299	WORD	n/a	wordpools/wordpool_EN.txt	FORK	2	1	[0, 0, 0]	n/a	FR1	3	R1135E
158.168	2.534	158865	WORD	n/a	wordpools/wordpool_EN.txt	SLUSH	3	1	[0, 0, 0]	n/a	FR1	3	R1135E
160.702	2.484	161399	WORD	n/a	wordpools/wordpool_EN.txt	SEAT	4	1	[0, 0, 0]	n/a	FR1	3	R1135E
163.186	2.55	163883	WORD	n/a	wordpools/wordpool_EN.txt	PARK	5	1	[0, 0, 0]	n/a	FR1	3	R1135E
165.736	2.501	166433	WORD	n/a	wordpools/wordpool_EN.txt	CAR	6	1	[0, 0, 0]	n/a	FR1	3	R1135E
168.237	2.383	168934	WORD	n/a	wordpools/wordpool_EN.txt	DITCH	7	1	[0, 0, 0]	n/a	FR1	3	R1135E
170.62	2.434	171317	WORD	n/a	wordpools/wordpool_EN.txt	GLOVE	8	1	[0, 0, 0]	n/a	FR1	3	R1135E
173.054	2.485	173750	WORD	n/a	wordpools/wordpool_EN.txt	PANTS	9	1	[0, 0, 0]	n/a	FR1	3	R1135E
175.539	2.533	176235	WORD	n/a	wordpools/wordpool_EN.txt	SQUARE	10	1	[0, 0, 0]	n/a	FR1	3	R1135E
178.072	2.5	178768	WORD	n/a	wordpools/wordpool_EN.txt	LEG	11	1	[0, 0, 0]	n/a	FR1	3	R1135E
180.572	1.617	181268	WORD	n/a	wordpools/wordpool_EN.txt	TRAIN	12	1	[0, 0, 0]	n/a	FR1	3	R1135E
182.189	0.001	182885	DISTRACT_START	n/a	n/a	n/a	-999	1	[0, 0, 0]	n/a	FR1	3	R1135E
182.19	0.016	182886	START	n/a	n/a	n/a	-999	1	[-999, -999, -999]	n/a	FR1	3	R1135E
182.206	9.851	182902	PROB	9.851	n/a	n/a	-999	1	[9, 2, 3]	14	FR1	3	R1135E
192.057	8.419	192752	PROB	8.419	n/a	n/a	-999	1	[3, 2, 4]	9	FR1	3	R1135E
200.476	16.287	201171	PROB	16.287	n/a	n/a	-999	1	[9, 8, 6]	23	FR1	3	R1135E
216.763	0.015	217456	STOP	n/a	n/a	n/a	-999	1	[-999, -999, -999]	n/a	FR1	3	R1135E
216.778	1.173	217471	DISTRACT_END	n/a	n/a	n/a	-999	1	[0, 0, 0]	n/a	FR1	3	R1135E
217.951	1.184	218644	REC_START	n/a	n/a	n/a	-999	1	[0, 0, 0]	n/a	FR1	3	R1135E
219.135	2.617	219828	REC_WORD	2.617	n/a	EGG	1	1	[0, 0, 0]	n/a	FR1	3	R1135E
221.752	8.536	222445	REC_WORD_VV	8.536	n/a	<>	-999	1	[0, 0, 0]	n/a	FR1	3	R1135E
230.288	17.666	230981	REC_WORD	17.666	n/a	FLOOD	-999	1	[0, 0, 0]	n/a	FR1	3	R1135E
247.954	2.863	248645	REC_END	n/a	n/a	n/a	-999	1	[0, 0, 0]	n/a	FR1	3	R1135E
250.817	0.001	251508	COUNTDOWN_START	n/a	n/a	n/a	-999	2	[0, 0, 0]	n/a	FR1	3	R1135E
250.818	10.427	251509	TRIAL	n/a	n/a	n/a	-999	2	[0, 0, 0]	n/a	FR1	3	R1135E
261.245	0.009	261935	COUNTDOWN_END	n/a	n/a	n/a	-999	2	[0, 0, 0]	n/a	FR1	3	R1135E
261.254	2.482	261944	ORIENT	n/a	n/a	n/a	-999	2	[0, 0, 0]	n/a	FR1	3	R1135E
263.736	2.434	264426	WORD	n/a	wordpools/wordpool_EN.txt	SUIT	1	2	[0, 0, 0]	n/a	FR1	3	R1135E
266.17	2.617	266860	WORD	n/a	wordpools/wordpool_EN.txt	EAR	2	2	[0, 0, 0]	n/a	FR1	3	R1135E
268.787	2.585	269477	WORD	n/a	wordpools/wordpool_EN.txt	SWORD	3	2	[0, 0, 0]	n/a	FR1	3	R1135E
271.372	2.633	272062	WORD	n/a	wordpools/wordpool_EN.txt	CLOCK	4	2	[0, 0, 0]	n/a	FR1	3	R1135E
274.005	2.451	274695	WORD	n/a	wordpools/wordpool_EN.txt	PHONE	5	2	[0, 0, 0]	n/a	FR1	3	R1135E
276.456	2.6	277145	WORD	n/a	wordpools/wordpool_EN.txt	GATE	6	2	[0, 0, 0]	n/a	FR1	3	R1135E
279.056	2.401	279745	WORD	n/a	wordpools/wordpool_EN.txt	BOOK	7	2	[0, 0, 0]	n/a	FR1	3	R1135E
281.457	2.55	282146	WORD	n/a	wordpools/wordpool_EN.txt	MOUTH	8	2	[0, 0, 0]	n/a	FR1	3	R1135E
284.007	2.501	284696	WORD	n/a	wordpools/wordpool_EN.txt	BOY	9	2	[0, 0, 0]	n/a	FR1	3	R1135E
286.508	2.433	287197	WORD	n/a	wordpools/wordpool_EN.txt	HOUSE	10	2	[0, 0, 0]	n/a	FR1	3	R1135E
288.941	2.601	289630	WORD	n/a	wordpools/wordpool_EN.txt	BLUSH	11	2	[0, 0, 0]	n/a	FR1	3	R1135E
291.542	1.616	292230	WORD	n/a	wordpools/wordpool_EN.txt	VAN	12	2	[0, 0, 0]	n/a	FR1	3	R1135E
293.158	0.001	293846	DISTRACT_START	n/a	n/a	n/a	-999	2	[0, 0, 0]	n/a	FR1	3	R1135E
293.159	0.016	293847	START	n/a	n/a	n/a	-999	2	[-999, -999, -999]	n/a	FR1	3	R1135E
293.175	11.502	293863	PROB	11.502	n/a	n/a	-999	2	[3, 5, 7]	14	FR1	3	R1135E
304.677	14.308	305365	PROB	14.308	n/a	n/a	-999	2	[5, 9, 5]	19	FR1	3	R1135E
318.985	0.011	319672	STOP	n/a	n/a	n/a	-999	2	[-999, -999, -999]	n/a	FR1	3	R1135E
318.996	1.117	319683	DISTRACT_END	n/a	n/a	n/a	-999	2	[0, 0, 0]	n/a	FR1	3	R1135E
320.113	1.987	320800	REC_START	n/a	n/a	n/a	-999	2	[0, 0, 0]	n/a	FR1	3	R1135E
322.1	4.753	322786	REC_WORD	4.753	n/a	PHONE	5	2	[0, 0, 0]	n/a	FR1	3	R1135E
326.853	10.61	327539	REC_WORD	10.61	n/a	FORK	-999	2	[0, 0, 0]	n/a	FR1	3	R1135E
337.463	12.663	338148	REC_WORD	12.663	n/a	BRANCH	-999	2	[0, 0, 0]	n/a	FR1	3	R1135E
350.126	2.526	350810	REC_END	n/a	n/a	n/a	-999	2	[0, 0, 0]	n/a	FR1	3	R1135E
352.652	0.0	353336	TRIAL	n/a	n/a	n/a	-999	3	[0, 0, 0]	n/a	FR1	3	R1135E
352.652	10.428	353336	COUNTDOWN_START	n/a	n/a	n/a	-999	3	[0, 0, 0]	n/a	FR1	3	R1135E
363.08	0.007	363764	COUNTDOWN_END	n/a	n/a	n/a	-999	3	[0, 0, 0]	n/a	FR1	3	R1135E
363.087	2.517	363771	ORIENT	n/a	n/a	n/a	-999	3	[0, 0, 0]	n/a	FR1	3	R1135E
365.604	2.434	366287	WORD	n/a	wordpools/wordpool_EN.txt	INK	1	3	[0, 0, 0]	n/a	FR1	3	R1135E
368.038	2.534	368721	WORD	n/a	wordpools/wordpool_EN.txt	BREAD	2	3	[0, 0, 0]	n/a	FR1	3	R1135E
370.572	2.5	371255	WORD	n/a	wordpools/wordpool_EN.txt	PEACH	3	3	[0, 0, 0]	n/a	FR1	3	R1135E
373.072	2.617	373755	WORD	n/a	wordpools/wordpool_EN.txt	CART	4	3	[0, 0, 0]	n/a	FR1	3	R1135E
375.689	2.467	376372	WORD	n/a	wordpools/wordpool_EN.txt	SIGN	5	3	[0, 0, 0]	n/a	FR1	3	R1135E
378.156	2.551	378839	WORD	n/a	wordpools/wordpool_EN.txt	LAWN	6	3	[0, 0, 0]	n/a	FR1	3	R1135E
380.707	2.585	381389	WORD	n/a	wordpools/wordpool_EN.txt	WHALE	7	3	[0, 0, 0]	n/a	FR1	3	R1135E
383.292	2.499	383974	WORD	n/a	wordpools/wordpool_EN.txt	STREET	8	3	[0, 0, 0]	n/a	FR1	3	R1135E
385.791	2.551	386473	WORD	n/a	wordpools/wordpool_EN.txt	STOVE	9	3	[0, 0, 0]	n/a	FR1	3	R1135E
388.342	2.617	389024	WORD	n/a	wordpools/wordpool_EN.txt	GOLD	10	3	[0, 0, 0]	n/a	FR1	3	R1135E
390.959	2.434	391641	WORD	n/a	wordpools/wordpool_EN.txt	STONE	11	3	[0, 0, 0]	n/a	FR1	3	R1135E
393.393	1.616	394075	WORD	n/a	wordpools/wordpool_EN.txt	COIN	12	3	[0, 0, 0]	n/a	FR1	3	R1135E
395.009	0.001	395690	DISTRACT_START	n/a	n/a	n/a	-999	3	[0, 0, 0]	n/a	FR1	3	R1135E
395.01	0.016	395691	START	n/a	n/a	n/a	-999	3	[-999, -999, -999]	n/a	FR1	3	R1135E
395.026	9.585	395707	PROB	9.585	n/a	n/a	-999	3	[4, 7, 1]	12	FR1	3	R1135E
404.611	8.435	405292	PROB	8.435	n/a	n/a	-999	3	[5, 2, 5]	12	FR1	3	R1135E
413.046	5.924	413726	PROB	5.924	n/a	n/a	-999	3	[1, 1, 5]	7	FR1	3	R1135E
418.97	0.01	419650	STOP	n/a	n/a	n/a	-999	3	[-999, -999, -999]	n/a	FR1	3	R1135E
418.98	1.151	419660	DISTRACT_END	n/a	n/a	n/a	-999	3	[0, 0, 0]	n/a	FR1	3	R1135E
420.131	4.222	420811	REC_START	n/a	n/a	n/a	-999	3	[0, 0, 0]	n/a	FR1	3	R1135E
424.353	1.048	425033	REC_WORD	1.048	n/a	PEACH	3	3	[0, 0, 0]	n/a	FR1	3	R1135E
425.401	2.867	426080	REC_WORD	2.867	n/a	STREET	8	3	[0, 0, 0]	n/a	FR1	3	R1135E
428.268	21.873	428947	REC_WORD_VV	21.873	n/a	<>	-999	3	[0, 0, 0]	n/a	FR1	3	R1135E
450.141	2.695	450819	REC_END	n/a	n/a	n/a	-999	3	[0, 0, 0]	n/a	FR1	3	R1135E
452.836	0.0	453514	COUNTDOWN_START	n/a	n/a	n/a	-999	4	[0, 0, 0]	n/a	FR1	3	R1135E
452.836	10.428	453514	TRIAL	n/a	n/a	n/a	-999	4	[0, 0, 0]	n/a	FR1	3	R1135E
463.264	0.008	463941	COUNTDOWN_END	n/a	n/a	n/a	-999	4	[0, 0, 0]	n/a	FR1	3	R1135E
463.272	2.516	463949	ORIENT	n/a	n/a	n/a	-999	4	[0, 0, 0]	n/a	FR1	3	R1135E
465.788	2.585	466465	WORD	n/a	wordpools/wordpool_EN.txt	GRAPE	1	4	[0, 0, 0]	n/a	FR1	3	R1135E
468.373	2.4	469050	WORD	n/a	wordpools/wordpool_EN.txt	SOAP	2	4	[0, 0, 0]	n/a	FR1	3	R1135E
470.773	2.433	471449	WORD	n/a	wordpools/wordpool_EN.txt	FISH	3	4	[0, 0, 0]	n/a	FR1	3	R1135E
473.206	2.567	473882	WORD	n/a	wordpools/wordpool_EN.txt	SHRIMP	4	4	[0, 0, 0]	n/a	FR1	3	R1135E
475.773	2.452	476449	WORD	n/a	wordpools/wordpool_EN.txt	BEAN	5	4	[0, 0, 0]	n/a	FR1	3	R1135E
478.225	2.416	478901	WORD	n/a	wordpools/wordpool_EN.txt	SPRING	6	4	[0, 0, 0]	n/a	FR1	3	R1135E
480.641	2.517	481317	WORD	n/a	wordpools/wordpool_EN.txt	LIP	7	4	[0, 0, 0]	n/a	FR1	3	R1135E
483.158	2.385	483834	WORD	n/a	wordpools/wordpool_EN.txt	RIB	8	4	[0, 0, 0]	n/a	FR1	3	R1135E
485.543	2.599	486218	WORD	n/a	wordpools/wordpool_EN.txt	RICE	9	4	[0, 0, 0]	n/a	FR1	3	R1135E
488.142	2.534	488817	WORD	n/a	wordpools/wordpool_EN.txt	DIME	10	4	[0, 0, 0]	n/a	FR1	3	R1135E
490.676	2.568	491351	WORD	n/a	wordpools/wordpool_EN.txt	STEM	11	4	[0, 0, 0]	n/a	FR1	3	R1135E
493.244	1.616	493919	WORD	n/a	wordpools/wordpool_EN.txt	LEAF	12	4	[0, 0, 0]	n/a	FR1	3	R1135E
494.86	0.001	495535	DISTRACT_START	n/a	n/a	n/a	-999	4	[0, 0, 0]	n/a	FR1	3	R1135E
494.861	0.016	495536	START	n/a	n/a	n/a	-999	4	[-999, -999, -999]	n/a	FR1	3	R1135E
494.877	8.402	495552	PROB	8.402	n/a	n/a	-999	4	[1, 3, 6]	10	FR1	3	R1135E
503.279	11.577	503953	PROB	11.577	n/a	n/a	-999	4	[4, 6, 7]	17	FR1	3	R1135E
514.856	0.008	515529	STOP	n/a	n/a	n/a	-999	4	[-999, -999, -999]	n/a	FR1	3	R1135E
514.864	1.05	515537	DISTRACT_END	n/a	n/a	n/a	-999	4	[0, 0, 0]	n/a	FR1	3	R1135E
515.914	4.2	516587	REC_START	n/a	n/a	n/a	-999	4	[0, 0, 0]	n/a	FR1	3	R1135E
520.114	25.811	520787	REC_WORD_VV	25.811	n/a	<>	-999	4	[0, 0, 0]	n/a	FR1	3	R1135E
545.925	2.428	546596	REC_END	n/a	n/a	n/a	-999	4	[0, 0, 0]	n/a	FR1	3	R1135E
548.353	0.001	549024	COUNTDOWN_START	n/a	n/a	n/a	-999	5	[0, 0, 0]	n/a	FR1	3	R1135E
548.354	10.427	549025	TRIAL	n/a	n/a	n/a	-999	5	[0, 0, 0]	n/a	FR1	3	R1135E
558.781	0.007	559451	COUNTDOWN_END	n/a	n/a	n/a	-999	5	[0, 0, 0]	n/a	FR1	3	R1135E
558.788	2.551	559458	ORIENT	n/a	n/a	n/a	-999	5	[0, 0, 0]	n/a	FR1	3	R1135E
561.339	2.383	562009	WORD	n/a	wordpools/wordpool_EN.txt	DESK	1	5	[0, 0, 0]	n/a	FR1	3	R1135E
563.722	2.618	564392	WORD	n/a	wordpools/wordpool_EN.txt	PEARL	2	5	[0, 0, 0]	n/a	FR1	3	R1135E
566.34	2.55	567010	WORD	n/a	wordpools/wordpool_EN.txt	DOG	3	5	[0, 0, 0]	n/a	FR1	3	R1135E
568.89	2.551	569560	WORD	n/a	wordpools/wordpool_EN.txt	KEY	4	5	[0, 0, 0]	n/a	FR1	3	R1135E
571.441	2.533	572111	WORD	n/a	wordpools/wordpool_EN.txt	JUDGE	5	5	[0, 0, 0]	n/a	FR1	3	R1135E
573.974	2.468	574643	WORD	n/a	wordpools/wordpool_EN.txt	MAZE	6	5	[0, 0, 0]	n/a	FR1	3	R1135E
576.442	2.432	577111	WORD	n/a	wordpools/wordpool_EN.txt	SHARK	7	5	[0, 0, 0]	n/a	FR1	3	R1135E
578.874	2.385	579543	WORD	n/a	wordpools/wordpool_EN.txt	RUG	8	5	[0, 0, 0]	n/a	FR1	3	R1135E
581.259	2.467	581928	WORD	n/a	wordpools/wordpool_EN.txt	BADGE	9	5	[0, 0, 0]	n/a	FR1	3	R1135E
583.726	2.467	584395	WORD	n/a	wordpools/wordpool_EN.txt	COUCH	10	5	[0, 0, 0]	n/a	FR1	3	R1135E
586.193	2.517	586862	WORD	n/a	wordpools/wordpool_EN.txt	SUN	11	5	[0, 0, 0]	n/a	FR1	3	R1135E
588.71	1.618	589378	WORD	n/a	wordpools/wordpool_EN.txt	MAIL	12	5	[0, 0, 0]	n/a	FR1	3	R1135E
590.328	0.0	590996	DISTRACT_START	n/a	n/a	n/a	-999	5	[0, 0, 0]	n/a	FR1	3	R1135E
590.328	0.016	590996	START	n/a	n/a	n/a	-999	5	[-999, -999, -999]	n/a	FR1	3	R1135E
590.344	7.317	591012	PROB	7.317	n/a	n/a	-999	5	[4, 6, 1]	11	FR1	3	R1135E
597.661	8.018	598329	PROB	8.018	n/a	n/a	-999	5	[2, 2, 6]	10	FR1	3	R1135E
605.679	7.91	606346	PROB	7.91	n/a	n/a	-999	5	[4, 2, 6]	12	FR1	3	R1135E
613.589	0.008	614256	STOP	n/a	n/a	n/a	-999	5	[-999, -999, -999]	n/a	FR1	3	R1135E
613.597	1.184	614264	DISTRACT_END	n/a	n/a	n/a	-999	5	[0, 0, 0]	n/a	FR1	3	R1135E
614.781	6.163	615448	REC_START	n/a	n/a	n/a	-999	5	[0, 0, 0]	n/a	FR1	3	R1135E
620.944	23.85	621610	REC_WORD	23.85	n/a	STREET	-999	5	[0, 0, 0]	n/a	FR1	3	R1135E
644.794	2.376	645459	REC_END	n/a	n/a	n/a	-999	5	[0, 0, 0]	n/a	FR1	3	R1135E
647.17	0.0	647835	TRIAL	n/a	n/a	n/a	-999	6	[0, 0, 0]	n/a	FR1	3	R1135E
647.17	10.428	647835	COUNTDOWN_START	n/a	n/a	n/a	-999	6	[0, 0, 0]	n/a	FR1	3	R1135E
657.598	0.007	658262	COUNTDOWN_END	n/a	n/a	n/a	-999	6	[0, 0, 0]	n/a	FR1	3	R1135E
657.605	2.551	658269	ORIENT	n/a	n/a	n/a	-999	6	[0, 0, 0]	n/a	FR1	3	R1135E
660.156	2.401	660820	WORD	n/a	wordpools/wordpool_EN.txt	BEE	1	6	[0, 0, 0]	n/a	FR1	3	R1135E
662.557	2.516	663220	WORD	n/a	wordpools/wordpool_EN.txt	STORE	2	6	[0, 0, 0]	n/a	FR1	3	R1135E
665.073	2.567	665736	WORD	n/a	wordpools/wordpool_EN.txt	TRASH	3	6	[0, 0, 0]	n/a	FR1	3	R1135E
667.64	2.602	668303	WORD	n/a	wordpools/wordpool_EN.txt	APE	4	6	[0, 0, 0]	n/a	FR1	3	R1135E
670.242	2.532	670905	WORD	n/a	wordpools/wordpool_EN.txt	SMOKE	5	6	[0, 0, 0]	n/a	FR1	3	R1135E
672.774	2.535	673437	WORD	n/a	wordpools/wordpool_EN.txt	MOUSE	6	6	[0, 0, 0]	n/a	FR1	3	R1135E
675.309	2.45	675972	WORD	n/a	wordpools/wordpool_EN.txt	BANK	7	6	[0, 0, 0]	n/a	FR1	3	R1135E
677.759	2.433	678421	WORD	n/a	wordpools/wordpool_EN.txt	NET	8	6	[0, 0, 0]	n/a	FR1	3	R1135E
680.192	2.417	680854	WORD	n/a	wordpools/wordpool_EN.txt	MILK	9	6	[0, 0, 0]	n/a	FR1	3	R1135E
682.609	2.484	683271	WORD	n/a	wordpools/wordpool_EN.txt	CAT	10	6	[0, 0, 0]	n/a	FR1	3	R1135E
685.093	2.534	685755	WORD	n/a	wordpools/wordpool_EN.txt	CASH	11	6	[0, 0, 0]	n/a	FR1	3	R1135E
687.627	1.601	688289	WORD	n/a	wordpools/wordpool_EN.txt	HEART	12	6	[0, 0, 0]	n/a	FR1	3	R1135E
689.228	0.001	689890	DISTRACT_START	n/a	n/a	n/a	-999	6	[0, 0, 0]	n/a	FR1	3	R1135E
689.229	0.016	689891	START	n/a	n/a	n/a	-999	6	[-999, -999, -999]	n/a	FR1	3	R1135E
689.245	8.6	689907	PROB	8.6	n/a	n/a	-999	6	[4, 5, 5]	14	FR1	3	R1135E
697.845	8.235	698506	PROB	8.235	n/a	n/a	-999	6	[2, 2, 7]	11	FR1	3	R1135E
706.08	15.713	706741	PROB	15.713	n/a	n/a	-999	6	[6, 8, 7]	20	FR1	3	R1135E
721.793	0.007	722452	STOP	n/a	n/a	n/a	-999	6	[-999, -999, -999]	n/a	FR1	3	R1135E
721.8	1.184	722459	DISTRACT_END	n/a	n/a	n/a	-999	6	[0, 0, 0]	n/a	FR1	3	R1135E
722.984	9.47	723643	REC_START	n/a	n/a	n/a	-999	6	[0, 0, 0]	n/a	FR1	3	R1135E
732.454	20.541	733113	REC_WORD	20.541	n/a	EGG	-999	6	[0, 0, 0]	n/a	FR1	3	R1135E
752.995	2.644	753652	REC_END	n/a	n/a	n/a	-999	6	[0, 0, 0]	n/a	FR1	3	R1135E
755.639	0.0	756296	TRIAL	n/a	n/a	n/a	-999	7	[0, 0, 0]	n/a	FR1	3	R1135E
755.639	10.428	756296	COUNTDOWN_START	n/a	n/a	n/a	-999	7	[0, 0, 0]	n/a	FR1	3	R1135E
766.067	0.007	766724	COUNTDOWN_END	n/a	n/a	n/a	-999	7	[0, 0, 0]	n/a	FR1	3	R1135E
766.074	2.584	766731	ORIENT	n/a	n/a	n/a	-999	7	[0, 0, 0]	n/a	FR1	3	R1135E
768.658	2.551	769314	WORD	n/a	wordpools/wordpool_EN.txt	ARM	1	7	[0, 0, 0]	n/a	FR1	3	R1135E
771.209	2.5	771865	WORD	n/a	wordpools/wordpool_EN.txt	CHEEK	2	7	[0, 0, 0]	n/a	FR1	3	R1135E
773.709	2.4	774365	WORD	n/a	wordpools/wordpool_EN.txt	TOE	3	7	[0, 0, 0]	n/a	FR1	3	R1135E
776.109	2.534	776765	WORD	n/a	wordpools/wordpool_EN.txt	PET	4	7	[0, 0, 0]	n/a	FR1	3	R1135E
778.643	2.585	779299	WORD	n/a	wordpools/wordpool_EN.txt	TENT	5	7	[0, 0, 0]	n/a	FR1	3	R1135E
781.228	2.532	781883	WORD	n/a	wordpools/wordpool_EN.txt	PURSE	6	7	[0, 0, 0]	n/a	FR1	3	R1135E
783.76	2.585	784415	WORD	n/a	wordpools/wordpool_EN.txt	CAGE	7	7	[0, 0, 0]	n/a	FR1	3	R1135E
786.345	2.516	787000	WORD	n/a	wordpools/wordpool_EN.txt	PALM	8	7	[0, 0, 0]	n/a	FR1	3	R1135E
788.861	2.469	789516	WORD	n/a	wordpools/wordpool_EN.txt	GUARD	9	7	[0, 0, 0]	n/a	FR1	3	R1135E
791.33	2.582	791985	WORD	n/a	wordpools/wordpool_EN.txt	HORN	10	7	[0, 0, 0]	n/a	FR1	3	R1135E
793.912	2.618	794567	WORD	n/a	wordpools/wordpool_EN.txt	TOY	11	7	[0, 0, 0]	n/a	FR1	3	R1135E
796.53	1.616	797184	WORD	n/a	wordpools/wordpool_EN.txt	TAIL	12	7	[0, 0, 0]	n/a	FR1	3	R1135E
798.146	0.001	798800	DISTRACT_START	n/a	n/a	n/a	-999	7	[0, 0, 0]	n/a	FR1	3	R1135E
798.147	0.016	798801	START	n/a	n/a	n/a	-999	7	[-999, -999, -999]	n/a	FR1	3	R1135E
798.163	12.902	798817	PROB	12.902	n/a	n/a	-999	7	[8, 8, 5]	21	FR1	3	R1135E
811.065	8.141	811718	PROB	8.141	n/a	n/a	-999	7	[3, 2, 4]	9	FR1	3	R1135E
819.206	0.012	819859	STOP	n/a	n/a	n/a	-999	7	[-999, -999, -999]	n/a	FR1	3	R1135E
819.218	1.167	819871	DISTRACT_END	n/a	n/a	n/a	-999	7	[0, 0, 0]	n/a	FR1	3	R1135E
820.385	3.944	821038	REC_START	n/a	n/a	n/a	-999	7	[0, 0, 0]	n/a	FR1	3	R1135E
824.329	7.945	824982	REC_WORD	7.945	n/a	TOY	11	7	[0, 0, 0]	n/a	FR1	3	R1135E
832.274	18.127	832926	REC_WORD	18.127	n/a	STREET	-999	7	[0, 0, 0]	n/a	FR1	3	R1135E
850.401	2.805	851052	REC_END	n/a	n/a	n/a	-999	7	[0, 0, 0]	n/a	FR1	3	R1135E
853.206	0.0	853857	TRIAL	n/a	n/a	n/a	-999	8	[0, 0, 0]	n/a	FR1	3	R1135E
853.206	10.428	853857	COUNTDOWN_START	n/a	n/a	n/a	-999	8	[0, 0, 0]	n/a	FR1	3	R1135E
863.634	0.007	864284	COUNTDOWN_END	n/a	n/a	n/a	-999	8	[0, 0, 0]	n/a	FR1	3	R1135E
863.641	2.618	864291	ORIENT	n/a	n/a	n/a	-999	8	[0, 0, 0]	n/a	FR1	3	R1135E
866.259	2.6	866909	WORD	n/a	wordpools/wordpool_EN.txt	CAVE	1	8	[0, 0, 0]	n/a	FR1	3	R1135E
868.859	2.451	869509	WORD	n/a	wordpools/wordpool_EN.txt	STAIR	2	8	[0, 0, 0]	n/a	FR1	3	R1135E
871.31	2.633	871959	WORD	n/a	wordpools/wordpool_EN.txt	SWAMP	3	8	[0, 0, 0]	n/a	FR1	3	R1135E
873.943	2.485	874592	WORD	n/a	wordpools/wordpool_EN.txt	WOOD	4	8	[0, 0, 0]	n/a	FR1	3	R1135E
876.428	2.449	877077	WORD	n/a	wordpools/wordpool_EN.txt	CRANE	5	8	[0, 0, 0]	n/a	FR1	3	R1135E
878.877	2.385	879526	WORD	n/a	wordpools/wordpool_EN.txt	RAKE	6	8	[0, 0, 0]	n/a	FR1	3	R1135E
881.262	2.583	881911	WORD	n/a	wordpools/wordpool_EN.txt	HAWK	7	8	[0, 0, 0]	n/a	FR1	3	R1135E
883.845	2.484	884494	WORD	n/a	wordpools/wordpool_EN.txt	PIPE	8	8	[0, 0, 0]	n/a	FR1	3	R1135E
886.329	2.417	886977	WORD	n/a	wordpools/wordpool_EN.txt	HORSE	9	8	[0, 0, 0]	n/a	FR1	3	R1135E
888.746	2.383	889394	WORD	n/a	wordpools/wordpool_EN.txt	TREE	10	8	[0, 0, 0]	n/a	FR1	3	R1135E
891.129	2.484	891777	WORD	n/a	wordpools/wordpool_EN.txt	DART	11	8	[0, 0, 0]	n/a	FR1	3	R1135E
893.613	1.618	894261	WORD	n/a	wordpools/wordpool_EN.txt	BOX	12	8	[0, 0, 0]	n/a	FR1	3	R1135E
895.231	0.001	895879	DISTRACT_START	n/a	n/a	n/a	-999	8	[0, 0, 0]	n/a	FR1	3	R1135E
895.232	0.016	895880	START	n/a	n/a	n/a	-999	8	[-999, -999, -999]	n/a	FR1	3	R1135E
895.248	11.917	895896	PROB	11.917	n/a	n/a	-999	8	[8, 3, 2]	13	FR1	3	R1135E
907.165	5.052	907812	PROB	5.052	n/a	n/a	-999	8	[2, 2, 1]	5	FR1	3	R1135E
912.217	4.706	912864	PROB	4.706	n/a	n/a	-999	8	[2, 3, 1]	6	FR1	3	R1135E
916.923	0.011	917569	STOP	n/a	n/a	n/a	-999	8	[-999, -999, -999]	n/a	FR1	3	R1135E
916.934	1.1	917580	DISTRACT_END	n/a	n/a	n/a	-999	8	[0, 0, 0]	n/a	FR1	3	R1135E
918.034	3.765	918680	REC_START	n/a	n/a	n/a	-999	8	[0, 0, 0]	n/a	FR1	3	R1135E
921.799	26.259	922445	REC_WORD	26.259	n/a	WOOD	4	8	[0, 0, 0]	n/a	FR1	3	R1135E
948.058	3.216	948702	REC_END	n/a	n/a	n/a	-999	8	[0, 0, 0]	n/a	FR1	3	R1135E
951.274	0.0	951918	COUNTDOWN_START	n/a	n/a	n/a	-999	9	[0, 0, 0]	n/a	FR1	3	R1135E
951.274	10.428	951918	TRIAL	n/a	n/a	n/a	-999	9	[0, 0, 0]	n/a	FR1	3	R1135E
961.702	0.006	962345	COUNTDOWN_END	n/a	n/a	n/a	-999	9	[0, 0, 0]	n/a	FR1	3	R1135E
961.708	2.484	962351	ORIENT	n/a	n/a	n/a	-999	9	[0, 0, 0]	n/a	FR1	3	R1135E
964.192	2.517	964835	WORD	n/a	wordpools/wordpool_EN.txt	STOOL	1	9	[0, 0, 0]	n/a	FR1	3	R1135E
966.709	2.518	967352	WORD	n/a	wordpools/wordpool_EN.txt	TEA	2	9	[0, 0, 0]	n/a	FR1	3	R1135E
969.227	2.383	969870	WORD	n/a	wordpools/wordpool_EN.txt	GEESE	3	9	[0, 0, 0]	n/a	FR1	3	R1135E
971.61	2.484	972253	WORD	n/a	wordpools/wordpool_EN.txt	SOCK	4	9	[0, 0, 0]	n/a	FR1	3	R1135E
974.094	2.435	974737	WORD	n/a	wordpools/wordpool_EN.txt	CLOWN	5	9	[0, 0, 0]	n/a	FR1	3	R1135E
976.529	2.532	977171	WORD	n/a	wordpools/wordpool_EN.txt	PIG	6	9	[0, 0, 0]	n/a	FR1	3	R1135E
979.061	2.485	979703	WORD	n/a	wordpools/wordpool_EN.txt	FLUTE	7	9	[0, 0, 0]	n/a	FR1	3	R1135E
981.546	2.433	982188	WORD	n/a	wordpools/wordpool_EN.txt	BARN	8	9	[0, 0, 0]	n/a	FR1	3	R1135E
983.979	2.401	984621	WORD	n/a	wordpools/wordpool_EN.txt	TRUCK	9	9	[0, 0, 0]	n/a	FR1	3	R1135E
986.38	2.616	987022	WORD	n/a	wordpools/wordpool_EN.txt	FAN	10	9	[0, 0, 0]	n/a	FR1	3	R1135E
988.996	2.485	989638	WORD	n/a	wordpools/wordpool_EN.txt	HAT	11	9	[0, 0, 0]	n/a	FR1	3	R1135E
991.481	1.616	992122	WORD	n/a	wordpools/wordpool_EN.txt	MUG	12	9	[0, 0, 0]	n/a	FR1	3	R1135E
993.097	0.001	993738	DISTRACT_START	n/a	n/a	n/a	-999	9	[0, 0, 0]	n/a	FR1	3	R1135E
993.098	0.016	993739	START	n/a	n/a	n/a	-999	9	[-999, -999, -999]	n/a	FR1	3	R1135E
993.114	9.001	993755	PROB	9.001	n/a	n/a	-999	9	[1, 2, 9]	12	FR1	3	R1135E
1002.115	5.685	1002756	PROB	5.685	n/a	n/a	-999	9	[4, 4, 1]	9	FR1	3	R1135E
1007.8	5.284	1008440	PROB	5.284	n/a	n/a	-999	9	[2, 2, 1]	5	FR1	3	R1135E
1013.084	17.347	1013724	PROB	17.347	n/a	n/a	-999	9	[7, 9, 5]	21	FR1	3	R1135E
1030.431	0.007	1031070	STOP	n/a	n/a	n/a	-999	9	[-999, -999, -999]	n/a	FR1	3	R1135E
1030.438	1.067	1031077	DISTRACT_END	n/a	n/a	n/a	-999	9	[0, 0, 0]	n/a	FR1	3	R1135E
1031.505	2.274	1032144	REC_START	n/a	n/a	n/a	-999	9	[0, 0, 0]	n/a	FR1	3	R1135E
1033.779	7.074	1034418	REC_WORD	7.074	n/a	MUG	12	9	[0, 0, 0]	n/a	FR1	3	R1135E
1040.853	20.663	1041491	REC_WORD	20.663	n/a	STREET	-999	9	[0, 0, 0]	n/a	FR1	3	R1135E
1061.516	4.094	1062153	REC_END	n/a	n/a	n/a	-999	9	[0, 0, 0]	n/a	FR1	3	R1135E
1065.61	0.0	1066246	TRIAL	n/a	n/a	n/a	-999	10	[0, 0, 0]	n/a	FR1	3	R1135E
1065.61	10.428	1066246	COUNTDOWN_START	n/a	n/a	n/a	-999	10	[0, 0, 0]	n/a	FR1	3	R1135E
1076.038	0.007	1076674	COUNTDOWN_END	n/a	n/a	n/a	-999	10	[0, 0, 0]	n/a	FR1	3	R1135E
1076.045	2.435	1076681	ORIENT	n/a	n/a	n/a	-999	10	[0, 0, 0]	n/a	FR1	3	R1135E
1078.48	2.582	1079115	WORD	n/a	wordpools/wordpool_EN.txt	COW	1	10	[0, 0, 0]	n/a	FR1	3	R1135E
1081.062	2.485	1081697	WORD	n/a	wordpools/wordpool_EN.txt	DOLL	2	10	[0, 0, 0]	n/a	FR1	3	R1135E
1083.547	2.6	1084182	WORD	n/a	wordpools/wordpool_EN.txt	HOOF	3	10	[0, 0, 0]	n/a	FR1	3	R1135E
1086.147	2.567	1086782	WORD	n/a	wordpools/wordpool_EN.txt	SOUP	4	10	[0, 0, 0]	n/a	FR1	3	R1135E
1088.714	2.4	1089349	WORD	n/a	wordpools/wordpool_EN.txt	STRAW	5	10	[0, 0, 0]	n/a	FR1	3	R1135E
1091.114	2.601	1091749	WORD	n/a	wordpools/wordpool_EN.txt	PASTE	6	10	[0, 0, 0]	n/a	FR1	3	R1135E
1093.715	2.383	1094349	WORD	n/a	wordpools/wordpool_EN.txt	OAK	7	10	[0, 0, 0]	n/a	FR1	3	R1135E
1096.098	2.467	1096732	WORD	n/a	wordpools/wordpool_EN.txt	CUP	8	10	[0, 0, 0]	n/a	FR1	3	R1135E
1098.565	2.484	1099199	WORD	n/a	wordpools/wordpool_EN.txt	TOAST	9	10	[0, 0, 0]	n/a	FR1	3	R1135E
1101.049	2.402	1101683	WORD	n/a	wordpools/wordpool_EN.txt	VINE	10	10	[0, 0, 0]	n/a	FR1	3	R1135E
1103.451	2.382	1104085	WORD	n/a	wordpools/wordpool_EN.txt	DOOR	11	10	[0, 0, 0]	n/a	FR1	3	R1135E
1105.833	1.602	1106467	WORD	n/a	wordpools/wordpool_EN.txt	PEAR	12	10	[0, 0, 0]	n/a	FR1	3	R1135E
1107.435	0.0	1108069	DISTRACT_START	n/a	n/a	n/a	-999	10	[0, 0, 0]	n/a	FR1	3	R1135E
1107.435	0.016	1108069	START	n/a	n/a	n/a	-999	10	[-999, -999, -999]	n/a	FR1	3	R1135E
1107.451	12.036	1108085	PROB	12.036	n/a	n/a	-999	10	[3, 7, 2]	12	FR1	3	R1135E
1119.487	6.567	1120120	PROB	6.567	n/a	n/a	-999	10	[5, 1, 3]	9	FR1	3	R1135E
1126.054	12.014	1126686	PROB	12.014	n/a	n/a	-999	10	[4, 6, 9]	19	FR1	3	R1135E
1138.068	0.004	1138699	STOP	n/a	n/a	n/a	-999	10	[-999, -999, -999]	n/a	FR1	3	R1135E
1138.072	1.118	1138703	DISTRACT_END	n/a	n/a	n/a	-999	10	[0, 0, 0]	n/a	FR1	3	R1135E
1139.19	21.866	1139821	REC_START	n/a	n/a	n/a	-999	10	[0, 0, 0]	n/a	FR1	3	R1135E
1161.056	2.175	1161686	REC_WORD	2.175	n/a	COUCH	-999	10	[0, 0, 0]	n/a	FR1	3	R1135E
1163.231	5.97	1163861	REC_WORD_VV	5.97	n/a	<>	-999	10	[0, 0, 0]	n/a	FR1	3	R1135E
1169.201	2.994	1169830	REC_END	n/a	n/a	n/a	-999	10	[0, 0, 0]	n/a	FR1	3	R1135E
1172.195	0.0	1172824	TRIAL	n/a	n/a	n/a	-999	11	[0, 0, 0]	n/a	FR1	3	R1135E
1172.195	10.428	1172824	COUNTDOWN_START	n/a	n/a	n/a	-999	11	[0, 0, 0]	n/a	FR1	3	R1135E
1182.623	0.007	1183251	COUNTDOWN_END	n/a	n/a	n/a	-999	11	[0, 0, 0]	n/a	FR1	3	R1135E
1182.63	2.501	1183258	ORIENT	n/a	n/a	n/a	-999	11	[0, 0, 0]	n/a	FR1	3	R1135E
1185.131	2.6	1185759	WORD	n/a	wordpools/wordpool_EN.txt	BEAR	1	11	[0, 0, 0]	n/a	FR1	3	R1135E
1187.731	2.45	1188359	WORD	n/a	wordpools/wordpool_EN.txt	ZOO	2	11	[0, 0, 0]	n/a	FR1	3	R1135E
1190.181	2.451	1190809	WORD	n/a	wordpools/wordpool_EN.txt	PIN	3	11	[0, 0, 0]	n/a	FR1	3	R1135E
1192.632	2.484	1193260	WORD	n/a	wordpools/wordpool_EN.txt	WORM	4	11	[0, 0, 0]	n/a	FR1	3	R1135E
1195.116	2.434	1195744	WORD	n/a	wordpools/wordpool_EN.txt	BED	5	11	[0, 0, 0]	n/a	FR1	3	R1135E
1197.55	2.617	1198177	WORD	n/a	wordpools/wordpool_EN.txt	BIRD	6	11	[0, 0, 0]	n/a	FR1	3	R1135E
1200.167	2.617	1200794	WORD	n/a	wordpools/wordpool_EN.txt	SLIME	7	11	[0, 0, 0]	n/a	FR1	3	R1135E
1202.784	2.4	1203411	WORD	n/a	wordpools/wordpool_EN.txt	BRANCH	8	11	[0, 0, 0]	n/a	FR1	3	R1135E
1205.184	2.551	1205811	WORD	n/a	wordpools/wordpool_EN.txt	BALL	9	11	[0, 0, 0]	n/a	FR1	3	R1135E
1207.735	2.501	1208362	WORD	n/a	wordpools/wordpool_EN.txt	BAT	10	11	[0, 0, 0]	n/a	FR1	3	R1135E
1210.236	2.433	1210863	WORD	n/a	wordpools/wordpool_EN.txt	WOLF	11	11	[0, 0, 0]	n/a	FR1	3	R1135E
1212.669	1.618	1213295	WORD	n/a	wordpools/wordpool_EN.txt	FUR	12	11	[0, 0, 0]	n/a	FR1	3	R1135E
1214.287	0.0	1214913	DISTRACT_START	n/a	n/a	n/a	-999	11	[0, 0, 0]	n/a	FR1	3	R1135E
1214.287	0.016	1214913	START	n/a	n/a	n/a	-999	11	[-999, -999, -999]	n/a	FR1	3	R1135E
1214.303	12.053	1214929	PROB	12.053	n/a	n/a	-999	11	[6, 9, 1]	16	FR1	3	R1135E
1226.356	12.394	1226982	PROB	12.394	n/a	n/a	-999	11	[2, 3, 9]	14	FR1	3	R1135E
1238.75	0.007	1239375	STOP	n/a	n/a	n/a	-999	11	[-999, -999, -999]	n/a	FR1	3	R1135E
1238.757	1.15	1239382	DISTRACT_END	n/a	n/a	n/a	-999	11	[0, 0, 0]	n/a	FR1	3	R1135E
1239.907	2.612	1240532	REC_START	n/a	n/a	n/a	-999	11	[0, 0, 0]	n/a	FR1	3	R1135E
1242.519	2.482	1243143	REC_WORD	2.482	n/a	WOOD	-999	11	[0, 0, 0]	n/a	FR1	3	R1135E
1245.001	4.892	1245625	REC_WORD_VV	4.892	n/a	<>	-999	11	[0, 0, 0]	n/a	FR1	3	R1135E
1249.893	20.025	1250517	REC_WORD	20.025	n/a	BUG	-999	11	[0, 0, 0]	n/a	FR1	3	R1135E
1269.918	3.878	1270541	REC_END	n/a	n/a	n/a	-999	11	[0, 0, 0]	n/a	FR1	3	R1135E
1273.796	0.0	1274418	TRIAL	n/a	n/a	n/a	-999	12	[0, 0, 0]	n/a	FR1	3	R1135E
1273.796	10.428	1274418	COUNTDOWN_START	n/a	n/a	n/a	-999	12	[0, 0, 0]	n/a	FR1	3	R1135E
1284.224	0.008	1284846	COUNTDOWN_END	n/a	n/a	n/a	-999	12	[0, 0, 0]	n/a	FR1	3	R1135E
1284.232	2.6	1284854	ORIENT	n/a	n/a	n/a	-999	12	[0, 0, 0]	n/a	FR1	3	R1135E
1286.832	2.535	1287453	WORD	n/a	wordpools/wordpool_EN.txt	BUSH	1	12	[0, 0, 0]	n/a	FR1	3	R1135E
1289.367	2.499	1289988	WORD	n/a	wordpools/wordpool_EN.txt	HAND	2	12	[0, 0, 0]	n/a	FR1	3	R1135E
1291.866	2.535	1292487	WORD	n/a	wordpools/wordpool_EN.txt	CHALK	3	12	[0, 0, 0]	n/a	FR1	3	R1135E
1294.401	2.549	1295022	WORD	n/a	wordpools/wordpool_EN.txt	FENCE	4	12	[0, 0, 0]	n/a	FR1	3	R1135E
1296.95	2.418	1297571	WORD	n/a	wordpools/wordpool_EN.txt	DEER	5	12	[0, 0, 0]	n/a	FR1	3	R1135E
1299.368	2.383	1299989	WORD	n/a	wordpools/wordpool_EN.txt	SKI	6	12	[0, 0, 0]	n/a	FR1	3	R1135E
1301.751	2.518	1302371	WORD	n/a	wordpools/wordpool_EN.txt	MULE	7	12	[0, 0, 0]	n/a	FR1	3	R1135E
1304.269	2.45	1304889	WORD	n/a	wordpools/wordpool_EN.txt	STORM	8	12	[0, 0, 0]	n/a	FR1	3	R1135E
1306.719	2.45	1307339	WORD	n/a	wordpools/wordpool_EN.txt	HILL	9	12	[0, 0, 0]	n/a	FR1	3	R1135E
1309.169	2.517	1309789	WORD	n/a	wordpools/wordpool_EN.txt	BRUSH	10	12	[0, 0, 0]	n/a	FR1	3	R1135E
1311.686	2.618	1312306	WORD	n/a	wordpools/wordpool_EN.txt	WAND	11	12	[0, 0, 0]	n/a	FR1	3	R1135E
1314.304	1.616	1314924	WORD	n/a	wordpools/wordpool_EN.txt	FOOT	12	12	[0, 0, 0]	n/a	FR1	3	R1135E
1315.92	0.001	1316540	DISTRACT_START	n/a	n/a	n/a	-999	12	[0, 0, 0]	n/a	FR1	3	R1135E
1315.921	0.016	1316541	START	n/a	n/a	n/a	-999	12	[-999, -999, -999]	n/a	FR1	3	R1135E
1315.937	10.603	1316557	PROB	10.603	n/a	n/a	-999	12	[6, 8, 1]	15	FR1	3	R1135E
1326.54	9.184	1327159	PROB	9.184	n/a	n/a	-999	12	[8, 4, 3]	15	FR1	3	R1135E
1335.724	11.642	1336342	PROB	11.642	n/a	n/a	-999	12	[4, 8, 7]	18	FR1	3	R1135E
1347.366	0.011	1347983	STOP	n/a	n/a	n/a	-999	12	[-999, -999, -999]	n/a	FR1	3	R1135E
1347.377	1.167	1347994	DISTRACT_END	n/a	n/a	n/a	-999	12	[0, 0, 0]	n/a	FR1	3	R1135E
1348.544	4.746	1349161	REC_START	n/a	n/a	n/a	-999	12	[0, 0, 0]	n/a	FR1	3	R1135E
1353.29	16.412	1353907	REC_WORD	16.412	n/a	BRANCH	-999	12	[0, 0, 0]	n/a	FR1	3	R1135E
1369.702	6.576	1370318	REC_WORD	6.576	n/a	STOVE	-999	12	[0, 0, 0]	n/a	FR1	3	R1135E
1376.278	2.277	1376893	REC_WORD	2.277	n/a	TENT	-999	12	[0, 0, 0]	n/a	FR1	3	R1135E
1378.555	2.728	1379170	REC_END	n/a	n/a	n/a	-999	12	[0, 0, 0]	n/a	FR1	3	R1135E
1381.283	0.0	1381898	COUNTDOWN_START	n/a	n/a	n/a	-999	13	[0, 0, 0]	n/a	FR1	3	R1135E
1381.283	10.428	1381898	TRIAL	n/a	n/a	n/a	-999	13	[0, 0, 0]	n/a	FR1	3	R1135E
1391.711	0.006	1392325	COUNTDOWN_END	n/a	n/a	n/a	-999	13	[0, 0, 0]	n/a	FR1	3	R1135E
1391.717	2.467	1392331	ORIENT	n/a	n/a	n/a	-999	13	[0, 0, 0]	n/a	FR1	3	R1135E
1394.184	2.617	1394798	WORD	n/a	wordpools/wordpool_EN.txt	RAT	1	13	[0, 0, 0]	n/a	FR1	3	R1135E
1396.801	2.551	1397415	WORD	n/a	wordpools/wordpool_EN.txt	BROOM	2	13	[0, 0, 0]	n/a	FR1	3	R1135E
1399.352	2.417	1399966	WORD	n/a	wordpools/wordpool_EN.txt	OWL	3	13	[0, 0, 0]	n/a	FR1	3	R1135E
1401.769	2.601	1402383	WORD	n/a	wordpools/wordpool_EN.txt	HEN	4	13	[0, 0, 0]	n/a	FR1	3	R1135E
1404.37	2.399	1404984	WORD	n/a	wordpools/wordpool_EN.txt	ANT	5	13	[0, 0, 0]	n/a	FR1	3	R1135E
1406.769	2.568	1407382	WORD	n/a	wordpools/wordpool_EN.txt	ROPE	6	13	[0, 0, 0]	n/a	FR1	3	R1135E
1409.337	2.567	1409950	WORD	n/a	wordpools/wordpool_EN.txt	STRING	7	13	[0, 0, 0]	n/a	FR1	3	R1135E
1411.904	2.518	1412517	WORD	n/a	wordpools/wordpool_EN.txt	KITE	8	13	[0, 0, 0]	n/a	FR1	3	R1135E
1414.422	2.483	1415035	WORD	n/a	wordpools/wordpool_EN.txt	FOX	9	13	[0, 0, 0]	n/a	FR1	3	R1135E
1416.905	2.468	1417518	WORD	n/a	wordpools/wordpool_EN.txt	CHIN	10	13	[0, 0, 0]	n/a	FR1	3	R1135E
1419.373	2.532	1419986	WORD	n/a	wordpools/wordpool_EN.txt	ROOF	11	13	[0, 0, 0]	n/a	FR1	3	R1135E
1421.905	1.601	1422517	WORD	n/a	wordpools/wordpool_EN.txt	THUMB	12	13	[0, 0, 0]	n/a	FR1	3	R1135E
1423.506	0.001	1424118	DISTRACT_START	n/a	n/a	n/a	-999	13	[0, 0, 0]	n/a	FR1	3	R1135E
1423.507	0.016	1424119	START	n/a	n/a	n/a	-999	13	[-999, -999, -999]	n/a	FR1	3	R1135E
1423.523	13.135	1424135	PROB	13.135	n/a	n/a	-999	13	[2, 9, 7]	17	FR1	3	R1135E
1436.658	7.734	1437269	PROB	7.734	n/a	n/a	-999	13	[6, 1, 3]	10	FR1	3	R1135E
1444.392	0.018	1445003	STOP	n/a	n/a	n/a	-999	13	[-999, -999, -999]	n/a	FR1	3	R1135E
1444.41	1.2	1445021	DISTRACT_END	n/a	n/a	n/a	-999	13	[0, 0, 0]	n/a	FR1	3	R1135E
1445.61	5.598	1446221	REC_START	n/a	n/a	n/a	-999	13	[0, 0, 0]	n/a	FR1	3	R1135E
1451.208	15.276	1451818	REC_WORD	15.276	n/a	STOVE	-999	13	[0, 0, 0]	n/a	FR1	3	R1135E
1466.484	9.136	1467093	REC_WORD	9.136	n/a	BRANCH	-999	13	[0, 0, 0]	n/a	FR1	3	R1135E
1475.62	3.962	1476229	REC_END	n/a	n/a	n/a	-999	13	[0, 0, 0]	n/a	FR1	3	R1135E
1479.582	0.0	1480191	TRIAL	n/a	n/a	n/a	-999	14	[0, 0, 0]	n/a	FR1	3	R1135E
1479.582	10.428	1480191	COUNTDOWN_START	n/a	n/a	n/a	-999	14	[0, 0, 0]	n/a	FR1	3	R1135E
1490.01	0.007	1490618	COUNTDOWN_END	n/a	n/a	n/a	-999	14	[0, 0, 0]	n/a	FR1	3	R1135E
1490.017	2.551	1490625	ORIENT	n/a	n/a	n/a	-999	14	[0, 0, 0]	n/a	FR1	3	R1135E
1492.568	2.4	1493176	WORD	n/a	wordpools/wordpool_EN.txt	TOAD	1	14	[0, 0, 0]	n/a	FR1	3	R1135E
1494.968	2.552	1495575	WORD	n/a	wordpools/wordpool_EN.txt	MUD	2	14	[0, 0, 0]	n/a	FR1	3	R1135E
1497.52	2.582	1498127	WORD	n/a	wordpools/wordpool_EN.txt	PLANT	3	14	[0, 0, 0]	n/a	FR1	3	R1135E
1500.102	2.435	1500709	WORD	n/a	wordpools/wordpool_EN.txt	FUDGE	4	14	[0, 0, 0]	n/a	FR1	3	R1135E
1502.537	2.616	1503144	WORD	n/a	wordpools/wordpool_EN.txt	TANK	5	14	[0, 0, 0]	n/a	FR1	3	R1135E
1505.153	2.417	1505760	WORD	n/a	wordpools/wordpool_EN.txt	BOARD	6	14	[0, 0, 0]	n/a	FR1	3	R1135E
1507.57	2.384	1508177	WORD	n/a	wordpools/wordpool_EN.txt	SAIL	7	14	[0, 0, 0]	n/a	FR1	3	R1135E
1509.954	2.452	1510560	WORD	n/a	wordpools/wordpool_EN.txt	SPONGE	8	14	[0, 0, 0]	n/a	FR1	3	R1135E
1512.406	2.415	1513012	WORD	n/a	wordpools/wordpool_EN.txt	JET	9	14	[0, 0, 0]	n/a	FR1	3	R1135E
1514.821	2.518	1515427	WORD	n/a	wordpools/wordpool_EN.txt	SPARK	10	14	[0, 0, 0]	n/a	FR1	3	R1135E
1517.339	2.4	1517945	WORD	n/a	wordpools/wordpool_EN.txt	SEA	11	14	[0, 0, 0]	n/a	FR1	3	R1135E
1519.739	1.601	1520345	WORD	n/a	wordpools/wordpool_EN.txt	STEAM	12	14	[0, 0, 0]	n/a	FR1	3	R1135E
1521.34	0.001	1521946	DISTRACT_START	n/a	n/a	n/a	-999	14	[0, 0, 0]	n/a	FR1	3	R1135E
1521.341	0.016	1521947	START	n/a	n/a	n/a	-999	14	[-999, -999, -999]	n/a	FR1	3	R1135E
1521.357	12.869	1521963	PROB	12.869	n/a	n/a	-999	14	[5, 7, 3]	15	FR1	3	R1135E
1534.226	11.247	1534831	PROB	11.247	n/a	n/a	-999	14	[2, 7, 9]	17	FR1	3	R1135E
1545.473	0.005	1546077	STOP	n/a	n/a	n/a	-999	14	[-999, -999, -999]	n/a	FR1	3	R1135E
1545.478	1.133	1546082	DISTRACT_END	n/a	n/a	n/a	-999	14	[0, 0, 0]	n/a	FR1	3	R1135E
1546.611	3.817	1547215	REC_START	n/a	n/a	n/a	-999	14	[0, 0, 0]	n/a	FR1	3	R1135E
1550.428	1.039	1551032	REC_WORD	1.039	n/a	STOVE	-999	14	[0, 0, 0]	n/a	FR1	3	R1135E
1551.467	9.093	1552071	REC_WORD	9.093	n/a	SAIL	7	14	[0, 0, 0]	n/a	FR1	3	R1135E
1560.56	16.068	1561163	REC_WORD	16.068	n/a	BRANCH	-999	14	[0, 0, 0]	n/a	FR1	3	R1135E
1576.628	3.255	1577230	REC_END	n/a	n/a	n/a	-999	14	[0, 0, 0]	n/a	FR1	3	R1135E
1579.883	0.0	1580485	COUNTDOWN_START	n/a	n/a	n/a	-999	15	[0, 0, 0]	n/a	FR1	3	R1135E
1579.883	10.428	1580485	TRIAL	n/a	n/a	n/a	-999	15	[0, 0, 0]	n/a	FR1	3	R1135E
1590.311	0.008	1590912	COUNTDOWN_END	n/a	n/a	n/a	-999	15	[0, 0, 0]	n/a	FR1	3	R1135E
1590.319	2.4	1590920	ORIENT	n/a	n/a	n/a	-999	15	[0, 0, 0]	n/a	FR1	3	R1135E
1592.719	2.601	1593320	WORD	n/a	wordpools/wordpool_EN.txt	SLEEVE	1	15	[0, 0, 0]	n/a	FR1	3	R1135E
1595.32	2.533	1595921	WORD	n/a	wordpools/wordpool_EN.txt	TIE	2	15	[0, 0, 0]	n/a	FR1	3	R1135E
1597.853	2.585	1598454	WORD	n/a	wordpools/wordpool_EN.txt	HOSE	3	15	[0, 0, 0]	n/a	FR1	3	R1135E
1600.438	2.549	1601038	WORD	n/a	wordpools/wordpool_EN.txt	CANE	4	15	[0, 0, 0]	n/a	FR1	3	R1135E
1602.987	2.518	1603587	WORD	n/a	wordpools/wordpool_EN.txt	TRAY	5	15	[0, 0, 0]	n/a	FR1	3	R1135E
1605.505	2.5	1606105	WORD	n/a	wordpools/wordpool_EN.txt	FARM	6	15	[0, 0, 0]	n/a	FR1	3	R1135E
1608.005	2.451	1608605	WORD	n/a	wordpools/wordpool_EN.txt	WEED	7	15	[0, 0, 0]	n/a	FR1	3	R1135E
1610.456	2.583	1611056	WORD	n/a	wordpools/wordpool_EN.txt	CAKE	8	15	[0, 0, 0]	n/a	FR1	3	R1135E
1613.039	2.418	1613639	WORD	n/a	wordpools/wordpool_EN.txt	STICK	9	15	[0, 0, 0]	n/a	FR1	3	R1135E
1615.457	2.533	1616056	WORD	n/a	wordpools/wordpool_EN.txt	SEAL	10	15	[0, 0, 0]	n/a	FR1	3	R1135E
1617.99	2.501	1618589	WORD	n/a	wordpools/wordpool_EN.txt	LAMB	11	15	[0, 0, 0]	n/a	FR1	3	R1135E
1620.491	1.616	1621090	WORD	n/a	wordpools/wordpool_EN.txt	POOL	12	15	[0, 0, 0]	n/a	FR1	3	R1135E
1622.107	0.001	1622706	DISTRACT_START	n/a	n/a	n/a	-999	15	[0, 0, 0]	n/a	FR1	3	R1135E
1622.108	0.016	1622707	START	n/a	n/a	n/a	-999	15	[-999, -999, -999]	n/a	FR1	3	R1135E
1622.124	9.751	1622723	PROB	9.751	n/a	n/a	-999	15	[2, 3, 7]	12	FR1	3	R1135E
1631.875	10.353	1632473	PROB	10.353	n/a	n/a	-999	15	[4, 5, 3]	12	FR1	3	R1135E
1642.228	0.017	1642826	STOP	n/a	n/a	n/a	-999	15	[-999, -999, -999]	n/a	FR1	3	R1135E
1642.245	1.151	1642843	DISTRACT_END	n/a	n/a	n/a	-999	15	[0, 0, 0]	n/a	FR1	3	R1135E
1643.396	5.39	1643993	REC_START	n/a	n/a	n/a	-999	15	[0, 0, 0]	n/a	FR1	3	R1135E
1648.786	2.316	1649383	REC_WORD	2.316	n/a	STOVE	-999	15	[0, 0, 0]	n/a	FR1	3	R1135E
1651.102	22.304	1651699	REC_WORD	22.304	n/a	TILE	-999	15	[0, 0, 0]	n/a	FR1	3	R1135E
1673.406	2.862	1674001	REC_END	n/a	n/a	n/a	-999	15	[0, 0, 0]	n/a	FR1	3	R1135E
1676.268	0.0	1676863	TRIAL	n/a	n/a	n/a	-999	16	[0, 0, 0]	n/a	FR1	3	R1135E
1676.268	10.428	1676863	COUNTDOWN_START	n/a	n/a	n/a	-999	16	[0, 0, 0]	n/a	FR1	3	R1135E
1686.696	0.006	1687291	COUNTDOWN_END	n/a	n/a	n/a	-999	16	[0, 0, 0]	n/a	FR1	3	R1135E
1686.702	2.417	1687297	ORIENT	n/a	n/a	n/a	-999	16	[0, 0, 0]	n/a	FR1	3	R1135E
1689.119	2.385	1689713	WORD	n/a	wordpools/wordpool_EN.txt	MOLE	1	16	[0, 0, 0]	n/a	FR1	3	R1135E
1691.504	2.466	1692098	WORD	n/a	wordpools/wordpool_EN.txt	DUCK	2	16	[0, 0, 0]	n/a	FR1	3	R1135E
1693.97	2.551	1694564	WORD	n/a	wordpools/wordpool_EN.txt	TOOTH	3	16	[0, 0, 0]	n/a	FR1	3	R1135E
1696.521	2.55	1697115	WORD	n/a	wordpools/wordpool_EN.txt	SHIRT	4	16	[0, 0, 0]	n/a	FR1	3	R1135E
1699.071	2.451	1699665	WORD	n/a	wordpools/wordpool_EN.txt	BOAT	5	16	[0, 0, 0]	n/a	FR1	3	R1135E
1701.522	2.516	1702116	WORD	n/a	wordpools/wordpool_EN.txt	BOOT	6	16	[0, 0, 0]	n/a	FR1	3	R1135E
1704.038	2.402	1704631	WORD	n/a	wordpools/wordpool_EN.txt	SKUNK	7	16	[0, 0, 0]	n/a	FR1	3	R1135E
1706.44	2.466	1707033	WORD	n/a	wordpools/wordpool_EN.txt	TEETH	8	16	[0, 0, 0]	n/a	FR1	3	R1135E
1708.906	2.601	1709499	WORD	n/a	wordpools/wordpool_EN.txt	LOCK	9	16	[0, 0, 0]	n/a	FR1	3	R1135E
1711.507	2.533	1712100	WORD	n/a	wordpools/wordpool_EN.txt	SNAKE	10	16	[0, 0, 0]	n/a	FR1	3	R1135E
1714.04	2.401	1714633	WORD	n/a	wordpools/wordpool_EN.txt	ARK	11	16	[0, 0, 0]	n/a	FR1	3	R1135E
1716.441	1.616	1717034	WORD	n/a	wordpools/wordpool_EN.txt	CALF	12	16	[0, 0, 0]	n/a	FR1	3	R1135E
1718.057	0.001	1718649	DISTRACT_START	n/a	n/a	n/a	-999	16	[0, 0, 0]	n/a	FR1	3	R1135E
1718.058	0.016	1718650	START	n/a	n/a	n/a	-999	16	[-999, -999, -999]	n/a	FR1	3	R1135E
1718.074	11.619	1718666	PROB	11.619	n/a	n/a	-999	16	[4, 1, 8]	13	FR1	3	R1135E
1729.693	8.318	1730285	PROB	8.318	n/a	n/a	-999	16	[8, 8, 2]	18	FR1	3	R1135E
1738.011	9.36	1738602	PROB	9.36	n/a	n/a	-999	16	[8, 8, 4]	20	FR1	3	R1135E
1747.371	0.009	1747961	STOP	n/a	n/a	n/a	-999	16	[-999, -999, -999]	n/a	FR1	3	R1135E
1747.38	1.216	1747970	DISTRACT_END	n/a	n/a	n/a	-999	16	[0, 0, 0]	n/a	FR1	3	R1135E
1748.596	10.341	1749186	REC_START	n/a	n/a	n/a	-999	16	[0, 0, 0]	n/a	FR1	3	R1135E
1758.937	13.561	1759527	REC_WORD	13.561	n/a	FLOOD	-999	16	[0, 0, 0]	n/a	FR1	3	R1135E
1772.498	6.115	1773087	REC_WORD	6.115	n/a	COUCH	-999	16	[0, 0, 0]	n/a	FR1	3	R1135E
1778.613	2.856	1779201	REC_END	n/a	n/a	n/a	-999	16	[0, 0, 0]	n/a	FR1	3	R1135E
1781.469	0.0	1782057	COUNTDOWN_START	n/a	n/a	n/a	-999	17	[0, 0, 0]	n/a	FR1	3	R1135E
1781.469	10.428	1782057	TRIAL	n/a	n/a	n/a	-999	17	[0, 0, 0]	n/a	FR1	3	R1135E
1791.897	0.006	1792485	COUNTDOWN_END	n/a	n/a	n/a	-999	17	[0, 0, 0]	n/a	FR1	3	R1135E
1791.903	2.419	1792491	ORIENT	n/a	n/a	n/a	-999	17	[0, 0, 0]	n/a	FR1	3	R1135E
1794.322	2.499	1794909	WORD	n/a	wordpools/wordpool_EN.txt	FOOD	1	17	[0, 0, 0]	n/a	FR1	3	R1135E
1796.821	2.501	1797408	WORD	n/a	wordpools/wordpool_EN.txt	BRICK	2	17	[0, 0, 0]	n/a	FR1	3	R1135E
1799.322	2.6	1799909	WORD	n/a	wordpools/wordpool_EN.txt	PRINCE	3	17	[0, 0, 0]	n/a	FR1	3	R1135E
1801.922	2.468	1802509	WORD	n/a	wordpools/wordpool_EN.txt	WALL	4	17	[0, 0, 0]	n/a	FR1	3	R1135E
1804.39	2.416	1804977	WORD	n/a	wordpools/wordpool_EN.txt	SHIELD	5	17	[0, 0, 0]	n/a	FR1	3	R1135E
1806.806	2.418	1807392	WORD	n/a	wordpools/wordpool_EN.txt	PIE	6	17	[0, 0, 0]	n/a	FR1	3	R1135E
1809.224	2.583	1809810	WORD	n/a	wordpools/wordpool_EN.txt	FRUIT	7	17	[0, 0, 0]	n/a	FR1	3	R1135E
1811.807	2.401	1812393	WORD	n/a	wordpools/wordpool_EN.txt	CLAY	8	17	[0, 0, 0]	n/a	FR1	3	R1135E
1814.208	2.5	1814794	WORD	n/a	wordpools/wordpool_EN.txt	SHELL	9	17	[0, 0, 0]	n/a	FR1	3	R1135E
1816.708	2.534	1817294	WORD	n/a	wordpools/wordpool_EN.txt	SPEAR	10	17	[0, 0, 0]	n/a	FR1	3	R1135E
1819.242	2.433	1819828	WORD	n/a	wordpools/wordpool_EN.txt	CLOTH	11	17	[0, 0, 0]	n/a	FR1	3	R1135E
1821.675	1.601	1822260	WORD	n/a	wordpools/wordpool_EN.txt	FROG	12	17	[0, 0, 0]	n/a	FR1	3	R1135E
1823.276	0.001	1823861	DISTRACT_START	n/a	n/a	n/a	-999	17	[0, 0, 0]	n/a	FR1	3	R1135E
1823.277	0.016	1823862	START	n/a	n/a	n/a	-999	17	[-999, -999, -999]	n/a	FR1	3	R1135E
1823.293	13.335	1823878	PROB	13.335	n/a	n/a	-999	17	[4, 7, 2]	13	FR1	3	R1135E
1836.628	6.652	1837212	PROB	6.652	n/a	n/a	-999	17	[4, 8, 4]	16	FR1	3	R1135E
1843.28	0.017	1843864	STOP	n/a	n/a	n/a	-999	17	[-999, -999, -999]	n/a	FR1	3	R1135E
1843.297	1.151	1843881	DISTRACT_END	n/a	n/a	n/a	-999	17	[0, 0, 0]	n/a	FR1	3	R1135E
1844.448	15.165	1845032	REC_START	n/a	n/a	n/a	-999	17	[0, 0, 0]	n/a	FR1	3	R1135E
1859.613	7.932	1860196	REC_WORD	7.932	n/a	STREAM	-999	17	[0, 0, 0]	n/a	FR1	3	R1135E
1867.545	6.913	1868127	REC_WORD	6.913	n/a	FLOOD	-999	17	[0, 0, 0]	n/a	FR1	3	R1135E
1874.458	4.727	1875040	REC_END	n/a	n/a	n/a	-999	17	[0, 0, 0]	n/a	FR1	3	R1135E
1879.185	0.001	1879767	COUNTDOWN_START	n/a	n/a	n/a	-999	18	[0, 0, 0]	n/a	FR1	3	R1135E
1879.186	10.427	1879768	TRIAL	n/a	n/a	n/a	-999	18	[0, 0, 0]	n/a	FR1	3	R1135E
1889.613	0.008	1890194	COUNTDOWN_END	n/a	n/a	n/a	-999	18	[0, 0, 0]	n/a	FR1	3	R1135E
1889.621	2.583	1890202	ORIENT	n/a	n/a	n/a	-999	18	[0, 0, 0]	n/a	FR1	3	R1135E
1892.204	2.634	1892785	WORD	n/a	wordpools/wordpool_EN.txt	CORD	1	18	[0, 0, 0]	n/a	FR1	3	R1135E
1894.838	2.418	1895419	WORD	n/a	wordpools/wordpool_EN.txt	WAVE	2	18	[0, 0, 0]	n/a	FR1	3	R1135E
1897.256	2.533	1897836	WORD	n/a	wordpools/wordpool_EN.txt	JUICE	3	18	[0, 0, 0]	n/a	FR1	3	R1135E
1899.789	2.568	1900369	WORD	n/a	wordpools/wordpool_EN.txt	SHEEP	4	18	[0, 0, 0]	n/a	FR1	3	R1135E
1902.357	2.55	1902937	WORD	n/a	wordpools/wordpool_EN.txt	MAP	5	18	[0, 0, 0]	n/a	FR1	3	R1135E
1904.907	2.501	1905487	WORD	n/a	wordpools/wordpool_EN.txt	PLANE	6	18	[0, 0, 0]	n/a	FR1	3	R1135E
1907.408	2.616	1907988	WORD	n/a	wordpools/wordpool_EN.txt	CONE	7	18	[0, 0, 0]	n/a	FR1	3	R1135E
1910.024	2.485	1910604	WORD	n/a	wordpools/wordpool_EN.txt	SHIP	8	18	[0, 0, 0]	n/a	FR1	3	R1135E
1912.509	2.499	1913088	WORD	n/a	wordpools/wordpool_EN.txt	BOMB	9	18	[0, 0, 0]	n/a	FR1	3	R1135E
1915.008	2.518	1915587	WORD	n/a	wordpools/wordpool_EN.txt	POLE	10	18	[0, 0, 0]	n/a	FR1	3	R1135E
1917.526	2.433	1918105	WORD	n/a	wordpools/wordpool_EN.txt	ELF	11	18	[0, 0, 0]	n/a	FR1	3	R1135E
1919.959	1.601	1920538	WORD	n/a	wordpools/wordpool_EN.txt	MOON	12	18	[0, 0, 0]	n/a	FR1	3	R1135E
1921.56	0.0	1922139	DISTRACT_START	n/a	n/a	n/a	-999	18	[0, 0, 0]	n/a	FR1	3	R1135E
1921.56	0.016	1922139	START	n/a	n/a	n/a	-999	18	[-999, -999, -999]	n/a	FR1	3	R1135E
1921.576	12.653	1922155	PROB	12.653	n/a	n/a	-999	18	[7, 4, 8]	18	FR1	3	R1135E
1934.229	9.243	1934807	PROB	9.243	n/a	n/a	-999	18	[3, 8, 2]	13	FR1	3	R1135E
1943.472	0.009	1944049	STOP	n/a	n/a	n/a	-999	18	[-999, -999, -999]	n/a	FR1	3	R1135E
1943.481	1.034	1944058	DISTRACT_END	n/a	n/a	n/a	-999	18	[0, 0, 0]	n/a	FR1	3	R1135E
1944.515	2.68	1945092	REC_START	n/a	n/a	n/a	-999	18	[0, 0, 0]	n/a	FR1	3	R1135E
1947.195	6.95	1947772	REC_WORD	6.95	n/a	FLOOD	-999	18	[0, 0, 0]	n/a	FR1	3	R1135E
1954.145	20.387	1954722	REC_WORD	20.387	n/a	JUICE	3	18	[0, 0, 0]	n/a	FR1	3	R1135E
1974.532	2.504	1975107	REC_END	n/a	n/a	n/a	-999	18	[0, 0, 0]	n/a	FR1	3	R1135E
1977.036	0.0	1977611	COUNTDOWN_START	n/a	n/a	n/a	-999	19	[0, 0, 0]	n/a	FR1	3	R1135E
1977.036	10.428	1977611	TRIAL	n/a	n/a	n/a	-999	19	[0, 0, 0]	n/a	FR1	3	R1135E
1987.464	0.008	1988038	COUNTDOWN_END	n/a	n/a	n/a	-999	19	[0, 0, 0]	n/a	FR1	3	R1135E
1987.472	2.5	1988046	ORIENT	n/a	n/a	n/a	-999	19	[0, 0, 0]	n/a	FR1	3	R1135E
1989.972	2.568	1990546	WORD	n/a	wordpools/wordpool_EN.txt	CAPE	1	19	[0, 0, 0]	n/a	FR1	3	R1135E
1992.54	2.532	1993114	WORD	n/a	wordpools/wordpool_EN.txt	FLOOR	2	19	[0, 0, 0]	n/a	FR1	3	R1135E
1995.072	2.469	1995646	WORD	n/a	wordpools/wordpool_EN.txt	ROCK	3	19	[0, 0, 0]	n/a	FR1	3	R1135E
1997.541	2.432	1998115	WORD	n/a	wordpools/wordpool_EN.txt	EEL	4	19	[0, 0, 0]	n/a	FR1	3	R1135E
1999.973	2.385	2000547	WORD	n/a	wordpools/wordpool_EN.txt	NEST	5	19	[0, 0, 0]	n/a	FR1	3	R1135E
2002.358	2.416	2002931	WORD	n/a	wordpools/wordpool_EN.txt	MOTH	6	19	[0, 0, 0]	n/a	FR1	3	R1135E
2004.774	2.468	2005347	WORD	n/a	wordpools/wordpool_EN.txt	WING	7	19	[0, 0, 0]	n/a	FR1	3	R1135E
2007.242	2.616	2007815	WORD	n/a	wordpools/wordpool_EN.txt	ROOM	8	19	[0, 0, 0]	n/a	FR1	3	R1135E
2009.858	2.402	2010431	WORD	n/a	wordpools/wordpool_EN.txt	BEACH	9	19	[0, 0, 0]	n/a	FR1	3	R1135E
2012.26	2.383	2012833	WORD	n/a	wordpools/wordpool_EN.txt	WHEEL	10	19	[0, 0, 0]	n/a	FR1	3	R1135E
2014.643	2.618	2015216	WORD	n/a	wordpools/wordpool_EN.txt	RAIN	11	19	[0, 0, 0]	n/a	FR1	3	R1135E
2017.261	1.616	2017833	WORD	n/a	wordpools/wordpool_EN.txt	GRASS	12	19	[0, 0, 0]	n/a	FR1	3	R1135E
2018.877	0.0	2019449	DISTRACT_START	n/a	n/a	n/a	-999	19	[0, 0, 0]	n/a	FR1	3	R1135E
2018.877	0.016	2019449	START	n/a	n/a	n/a	-999	19	[-999, -999, -999]	n/a	FR1	3	R1135E
2018.893	16.136	2019465	PROB	16.136	n/a	n/a	-999	19	[5, 3, 7]	15	FR1	3	R1135E
2035.029	6.54	2035600	PROB	6.54	n/a	n/a	-999	19	[7, 7, 1]	15	FR1	3	R1135E
2041.569	0.012	2042140	STOP	n/a	n/a	n/a	-999	19	[-999, -999, -999]	n/a	FR1	3	R1135E
2041.581	1.034	2042152	DISTRACT_END	n/a	n/a	n/a	-999	19	[0, 0, 0]	n/a	FR1	3	R1135E
2042.615	3.402	2043186	REC_START	n/a	n/a	n/a	-999	19	[0, 0, 0]	n/a	FR1	3	R1135E
2046.017	4.413	2046587	REC_WORD	4.413	n/a	ROOM	8	19	[0, 0, 0]	n/a	FR1	3	R1135E
2050.43	22.195	2051000	REC_WORD	22.195	n/a	BEACH	9	19	[0, 0, 0]	n/a	FR1	3	R1135E
2072.625	3.729	2073194	REC_END	n/a	n/a	n/a	-999	19	[0, 0, 0]	n/a	FR1	3	R1135E
2076.354	0.001	2076922	COUNTDOWN_START	n/a	n/a	n/a	-999	20	[0, 0, 0]	n/a	FR1	3	R1135E
2076.355	10.427	2076923	TRIAL	n/a	n/a	n/a	-999	20	[0, 0, 0]	n/a	FR1	3	R1135E
2086.782	0.006	2087350	COUNTDOWN_END	n/a	n/a	n/a	-999	20	[0, 0, 0]	n/a	FR1	3	R1135E
2086.788	2.435	2087356	ORIENT	n/a	n/a	n/a	-999	20	[0, 0, 0]	n/a	FR1	3	R1135E
2089.223	2.516	2089790	WORD	n/a	wordpools/wordpool_EN.txt	BAG	1	20	[0, 0, 0]	n/a	FR1	3	R1135E
2091.739	2.569	2092306	WORD	n/a	wordpools/wordpool_EN.txt	GOAT	2	20	[0, 0, 0]	n/a	FR1	3	R1135E
2094.308	2.382	2094875	WORD	n/a	wordpools/wordpool_EN.txt	YARD	3	20	[0, 0, 0]	n/a	FR1	3	R1135E
2096.69	2.467	2097257	WORD	n/a	wordpools/wordpool_EN.txt	SNAIL	4	20	[0, 0, 0]	n/a	FR1	3	R1135E
2099.157	2.417	2099724	WORD	n/a	wordpools/wordpool_EN.txt	SHOE	5	20	[0, 0, 0]	n/a	FR1	3	R1135E
2101.574	2.534	2102141	WORD	n/a	wordpools/wordpool_EN.txt	FLEA	6	20	[0, 0, 0]	n/a	FR1	3	R1135E
2104.108	2.551	2104674	WORD	n/a	wordpools/wordpool_EN.txt	DRUM	7	20	[0, 0, 0]	n/a	FR1	3	R1135E
2106.659	2.467	2107225	WORD	n/a	wordpools/wordpool_EN.txt	GLASS	8	20	[0, 0, 0]	n/a	FR1	3	R1135E
2109.126	2.567	2109692	WORD	n/a	wordpools/wordpool_EN.txt	NOSE	9	20	[0, 0, 0]	n/a	FR1	3	R1135E
2111.693	2.535	2112259	WORD	n/a	wordpools/wordpool_EN.txt	WEB	10	20	[0, 0, 0]	n/a	FR1	3	R1135E
2114.228	2.449	2114794	WORD	n/a	wordpools/wordpool_EN.txt	WORLD	11	20	[0, 0, 0]	n/a	FR1	3	R1135E
2116.677	1.601	2117243	WORD	n/a	wordpools/wordpool_EN.txt	PEN	12	20	[0, 0, 0]	n/a	FR1	3	R1135E
2118.278	0.001	2118844	DISTRACT_START	n/a	n/a	n/a	-999	20	[0, 0, 0]	n/a	FR1	3	R1135E
2118.279	0.016	2118845	START	n/a	n/a	n/a	-999	20	[-999, -999, -999]	n/a	FR1	3	R1135E
2118.295	10.202	2118861	PROB	10.202	n/a	n/a	-999	20	[7, 1, 3]	11	FR1	3	R1135E
2128.497	10.2	2129062	PROB	10.2	n/a	n/a	-999	20	[1, 7, 5]	13	FR1	3	R1135E
2138.697	0.017	2139261	STOP	n/a	n/a	n/a	-999	20	[-999, -999, -999]	n/a	FR1	3	R1135E
2138.714	1.101	2139278	DISTRACT_END	n/a	n/a	n/a	-999	20	[0, 0, 0]	n/a	FR1	3	R1135E
2139.815	6.823	2140379	REC_START	n/a	n/a	n/a	-999	20	[0, 0, 0]	n/a	FR1	3	R1135E
2146.638	12.348	2147202	REC_WORD	12.348	n/a	STOVE	-999	20	[0, 0, 0]	n/a	FR1	3	R1135E
2158.986	10.839	2159549	REC_WORD	10.839	n/a	FLOOR	-999	20	[0, 0, 0]	n/a	FR1	3	R1135E
2169.825	10.531	2170387	REC_END	n/a	n/a	n/a	-999	20	[0, 0, 0]	n/a	FR1	3	R1135E
2180.356	0.0	2180917	COUNTDOWN_START	n/a	n/a	n/a	-999	21	[0, 0, 0]	n/a	FR1	3	R1135E
2180.356	10.428	2180917	TRIAL	n/a	n/a	n/a	-999	21	[0, 0, 0]	n/a	FR1	3	R1135E
2190.784	0.006	2191345	COUNTDOWN_END	n/a	n/a	n/a	-999	21	[0, 0, 0]	n/a	FR1	3	R1135E
2190.79	2.485	2191351	ORIENT	n/a	n/a	n/a	-999	21	[0, 0, 0]	n/a	FR1	3	R1135E
2193.275	2.483	2193835	WORD	n/a	wordpools/wordpool_EN.txt	CORN	1	21	[0, 0, 0]	n/a	FR1	3	R1135E
2195.758	2.584	2196318	WORD	n/a	wordpools/wordpool_EN.txt	SMILE	2	21	[0, 0, 0]	n/a	FR1	3	R1135E
2198.342	2.416	2198902	WORD	n/a	wordpools/wordpool_EN.txt	SKY	3	21	[0, 0, 0]	n/a	FR1	3	R1135E
2200.758	2.434	2201318	WORD	n/a	wordpools/wordpool_EN.txt	VASE	4	21	[0, 0, 0]	n/a	FR1	3	R1135E
2203.192	2.434	2203752	WORD	n/a	wordpools/wordpool_EN.txt	BOWL	5	21	[0, 0, 0]	n/a	FR1	3	R1135E
2205.626	2.534	2206186	WORD	n/a	wordpools/wordpool_EN.txt	BAND	6	21	[0, 0, 0]	n/a	FR1	3	R1135E
2208.16	2.534	2208719	WORD	n/a	wordpools/wordpool_EN.txt	OAR	7	21	[0, 0, 0]	n/a	FR1	3	R1135E
2210.694	2.551	2211253	WORD	n/a	wordpools/wordpool_EN.txt	CHAIR	8	21	[0, 0, 0]	n/a	FR1	3	R1135E
2213.245	2.566	2213804	WORD	n/a	wordpools/wordpool_EN.txt	STEAK	9	21	[0, 0, 0]	n/a	FR1	3	R1135E
2215.811	2.418	2216370	WORD	n/a	wordpools/wordpool_EN.txt	BENCH	10	21	[0, 0, 0]	n/a	FR1	3	R1135E
2218.229	2.566	2218788	WORD	n/a	wordpools/wordpool_EN.txt	LAMP	11	21	[0, 0, 0]	n/a	FR1	3	R1135E
2220.795	1.601	2221354	WORD	n/a	wordpools/wordpool_EN.txt	HOOK	12	21	[0, 0, 0]	n/a	FR1	3	R1135E
2222.396	0.001	2222955	DISTRACT_START	n/a	n/a	n/a	-999	21	[0, 0, 0]	n/a	FR1	3	R1135E
2222.397	0.016	2222956	START	n/a	n/a	n/a	-999	21	[-999, -999, -999]	n/a	FR1	3	R1135E
2222.413	14.953	2222972	PROB	14.953	n/a	n/a	-999	21	[4, 9, 6]	19	FR1	3	R1135E
2237.366	14.061	2237924	PROB	14.061	n/a	n/a	-999	21	[5, 7, 5]	17	FR1	3	R1135E
2251.427	0.008	2251984	STOP	n/a	n/a	n/a	-999	21	[-999, -999, -999]	n/a	FR1	3	R1135E
2251.435	1.2	2251992	DISTRACT_END	n/a	n/a	n/a	-999	21	[0, 0, 0]	n/a	FR1	3	R1135E
2252.635	1.609	2253192	REC_START	n/a	n/a	n/a	-999	21	[0, 0, 0]	n/a	FR1	3	R1135E
2254.244	3.45	2254800	REC_WORD	3.45	n/a	BENCH	10	21	[0, 0, 0]	n/a	FR1	3	R1135E
2257.694	24.951	2258250	REC_WORD	24.951	n/a	ROOM	-999	21	[0, 0, 0]	n/a	FR1	3	R1135E
2282.645	3.679	2283199	REC_END	n/a	n/a	n/a	-999	21	[0, 0, 0]	n/a	FR1	3	R1135E
2286.324	0.001	2286878	COUNTDOWN_START	n/a	n/a	n/a	-999	22	[0, 0, 0]	n/a	FR1	3	R1135E
2286.325	10.427	2286879	TRIAL	n/a	n/a	n/a	-999	22	[0, 0, 0]	n/a	FR1	3	R1135E
2296.752	0.007	2297306	COUNTDOWN_END	n/a	n/a	n/a	-999	22	[0, 0, 0]	n/a	FR1	3	R1135E
2296.759	2.618	2297313	ORIENT	n/a	n/a	n/a	-999	22	[0, 0, 0]	n/a	FR1	3	R1135E
2299.377	2.582	2299930	WORD	n/a	wordpools/wordpool_EN.txt	SNOW	1	22	[0, 0, 0]	n/a	FR1	3	R1135E
2301.959	2.435	2302512	WORD	n/a	wordpools/wordpool_EN.txt	BLOOM	2	22	[0, 0, 0]	n/a	FR1	3	R1135E
2304.394	2.533	2304947	WORD	n/a	wordpools/wordpool_EN.txt	FLAME	3	22	[0, 0, 0]	n/a	FR1	3	R1135E
2306.927	2.485	2307480	WORD	n/a	wordpools/wordpool_EN.txt	FOG	4	22	[0, 0, 0]	n/a	FR1	3	R1135E
2309.412	2.416	2309965	WORD	n/a	wordpools/wordpool_EN.txt	CLOUD	5	22	[0, 0, 0]	n/a	FR1	3	R1135E
2311.828	2.501	2312381	WORD	n/a	wordpools/wordpool_EN.txt	PIT	6	22	[0, 0, 0]	n/a	FR1	3	R1135E
2314.329	2.4	2314881	WORD	n/a	wordpools/wordpool_EN.txt	POND	7	22	[0, 0, 0]	n/a	FR1	3	R1135E
2316.729	2.485	2317281	WORD	n/a	wordpools/wordpool_EN.txt	CROW	8	22	[0, 0, 0]	n/a	FR1	3	R1135E
2319.214	2.532	2319766	WORD	n/a	wordpools/wordpool_EN.txt	LAKE	9	22	[0, 0, 0]	n/a	FR1	3	R1135E
2321.746	2.568	2322298	WORD	n/a	wordpools/wordpool_EN.txt	MAT	10	22	[0, 0, 0]	n/a	FR1	3	R1135E
2324.314	2.533	2324866	WORD	n/a	wordpools/wordpool_EN.txt	CUBE	11	22	[0, 0, 0]	n/a	FR1	3	R1135E
2326.847	1.601	2327399	WORD	n/a	wordpools/wordpool_EN.txt	JEEP	12	22	[0, 0, 0]	n/a	FR1	3	R1135E
2328.448	0.001	2328999	DISTRACT_START	n/a	n/a	n/a	-999	22	[0, 0, 0]	n/a	FR1	3	R1135E
2328.449	0.016	2329000	START	n/a	n/a	n/a	-999	22	[-999, -999, -999]	n/a	FR1	3	R1135E
2328.465	10.301	2329016	PROB	10.301	n/a	n/a	-999	22	[2, 4, 7]	13	FR1	3	R1135E
2338.766	12.458	2339317	PROB	12.458	n/a	n/a	-999	22	[7, 5, 7]	19	FR1	3	R1135E
2351.224	0.012	2351774	STOP	n/a	n/a	n/a	-999	22	[-999, -999, -999]	n/a	FR1	3	R1135E
2351.236	1.184	2351786	DISTRACT_END	n/a	n/a	n/a	-999	22	[0, 0, 0]	n/a	FR1	3	R1135E
2352.42	3.797	2352970	REC_START	n/a	n/a	n/a	-999	22	[0, 0, 0]	n/a	FR1	3	R1135E
2356.217	26.213	2356767	REC_WORD	26.213	n/a	FLOOR	-999	22	[0, 0, 0]	n/a	FR1	3	R1135E
2382.43	2.812	2382978	REC_END	n/a	n/a	n/a	-999	22	[0, 0, 0]	n/a	FR1	3	R1135E
2385.242	0.0	2385790	TRIAL	n/a	n/a	n/a	-999	23	[0, 0, 0]	n/a	FR1	3	R1135E
2385.242	10.428	2385790	COUNTDOWN_START	n/a	n/a	n/a	-999	23	[0, 0, 0]	n/a	FR1	3	R1135E
2395.67	0.006	2396217	COUNTDOWN_END	n/a	n/a	n/a	-999	23	[0, 0, 0]	n/a	FR1	3	R1135E
2395.676	2.4	2396223	ORIENT	n/a	n/a	n/a	-999	23	[0, 0, 0]	n/a	FR1	3	R1135E
2398.076	2.601	2398623	WORD	n/a	wordpools/wordpool_EN.txt	DOCK	1	23	[0, 0, 0]	n/a	FR1	3	R1135E
2400.677	2.45	2401224	WORD	n/a	wordpools/wordpool_EN.txt	FOAM	2	23	[0, 0, 0]	n/a	FR1	3	R1135E
2403.127	2.534	2403673	WORD	n/a	wordpools/wordpool_EN.txt	DRESS	3	23	[0, 0, 0]	n/a	FR1	3	R1135E
2405.661	2.534	2406207	WORD	n/a	wordpools/wordpool_EN.txt	HOLE	4	23	[0, 0, 0]	n/a	FR1	3	R1135E
2408.195	2.5	2408741	WORD	n/a	wordpools/wordpool_EN.txt	SALT	5	23	[0, 0, 0]	n/a	FR1	3	R1135E
2410.695	2.535	2411241	WORD	n/a	wordpools/wordpool_EN.txt	JAR	6	23	[0, 0, 0]	n/a	FR1	3	R1135E
2413.23	2.533	2413776	WORD	n/a	wordpools/wordpool_EN.txt	ROSE	7	23	[0, 0, 0]	n/a	FR1	3	R1135E
2415.763	2.451	2416309	WORD	n/a	wordpools/wordpool_EN.txt	BEAK	8	23	[0, 0, 0]	n/a	FR1	3	R1135E
2418.214	2.533	2418759	WORD	n/a	wordpools/wordpool_EN.txt	SPOON	9	23	[0, 0, 0]	n/a	FR1	3	R1135E
2420.747	2.4	2421292	WORD	n/a	wordpools/wordpool_EN.txt	SINK	10	23	[0, 0, 0]	n/a	FR1	3	R1135E
2423.147	2.601	2423692	WORD	n/a	wordpools/wordpool_EN.txt	BATH	11	23	[0, 0, 0]	n/a	FR1	3	R1135E
2425.748	1.618	2426293	WORD	n/a	wordpools/wordpool_EN.txt	THREAD	12	23	[0, 0, 0]	n/a	FR1	3	R1135E
2427.366	0.001	2427911	DISTRACT_START	n/a	n/a	n/a	-999	23	[0, 0, 0]	n/a	FR1	3	R1135E
2427.367	0.016	2427912	START	n/a	n/a	n/a	-999	23	[-999, -999, -999]	n/a	FR1	3	R1135E
2427.383	15.701	2427928	PROB	15.701	n/a	n/a	-999	23	[9, 3, 3]	15	FR1	3	R1135E
2443.084	9.257	2443628	PROB	9.257	n/a	n/a	-999	23	[4, 6, 3]	13	FR1	3	R1135E
2452.341	0.013	2452884	STOP	n/a	n/a	n/a	-999	23	[-999, -999, -999]	n/a	FR1	3	R1135E
2452.354	1.184	2452897	DISTRACT_END	n/a	n/a	n/a	-999	23	[0, 0, 0]	n/a	FR1	3	R1135E
2453.538	30.0	2454081	REC_START	n/a	n/a	n/a	-999	23	[0, 0, 0]	n/a	FR1	3	R1135E
2483.538	0.01	2484079	REC_WORD_VV	0.01	n/a	<>	-999	23	[0, 0, 0]	n/a	FR1	3	R1135E
2483.548	3.012	2484089	REC_END	n/a	n/a	n/a	-999	23	[0, 0, 0]	n/a	FR1	3	R1135E
2486.56	0.0	2487101	COUNTDOWN_START	n/a	n/a	n/a	-999	24	[0, 0, 0]	n/a	FR1	3	R1135E
2486.56	10.428	2487101	TRIAL	n/a	n/a	n/a	-999	24	[0, 0, 0]	n/a	FR1	3	R1135E
2496.988	0.006	2497528	COUNTDOWN_END	n/a	n/a	n/a	-999	24	[0, 0, 0]	n/a	FR1	3	R1135E
2496.994	2.518	2497534	ORIENT	n/a	n/a	n/a	-999	24	[0, 0, 0]	n/a	FR1	3	R1135E
2499.512	2.449	2500052	WORD	n/a	wordpools/wordpool_EN.txt	AXE	1	24	[0, 0, 0]	n/a	FR1	3	R1135E
2501.961	2.502	2502501	WORD	n/a	wordpools/wordpool_EN.txt	ICE	2	24	[0, 0, 0]	n/a	FR1	3	R1135E
2504.463	2.399	2505003	WORD	n/a	wordpools/wordpool_EN.txt	PLATE	3	24	[0, 0, 0]	n/a	FR1	3	R1135E
2506.862	2.502	2507401	WORD	n/a	wordpools/wordpool_EN.txt	SHEET	4	24	[0, 0, 0]	n/a	FR1	3	R1135E
2509.364	2.449	2509903	WORD	n/a	wordpools/wordpool_EN.txt	JAIL	5	24	[0, 0, 0]	n/a	FR1	3	R1135E
2511.813	2.485	2512352	WORD	n/a	wordpools/wordpool_EN.txt	FILM	6	24	[0, 0, 0]	n/a	FR1	3	R1135E
2514.298	2.466	2514837	WORD	n/a	wordpools/wordpool_EN.txt	MOOSE	7	24	[0, 0, 0]	n/a	FR1	3	R1135E
2516.764	2.601	2517303	WORD	n/a	wordpools/wordpool_EN.txt	ROOT	8	24	[0, 0, 0]	n/a	FR1	3	R1135E
2519.365	2.55	2519904	WORD	n/a	wordpools/wordpool_EN.txt	CROWN	9	24	[0, 0, 0]	n/a	FR1	3	R1135E
2521.915	2.601	2522453	WORD	n/a	wordpools/wordpool_EN.txt	NAIL	10	24	[0, 0, 0]	n/a	FR1	3	R1135E
2524.516	2.383	2525054	WORD	n/a	wordpools/wordpool_EN.txt	TOOL	11	24	[0, 0, 0]	n/a	FR1	3	R1135E
2526.899	1.618	2527437	WORD	n/a	wordpools/wordpool_EN.txt	SEED	12	24	[0, 0, 0]	n/a	FR1	3	R1135E
2528.517	0.001	2529055	DISTRACT_START	n/a	n/a	n/a	-999	24	[0, 0, 0]	n/a	FR1	3	R1135E
2528.518	0.016	2529056	START	n/a	n/a	n/a	-999	24	[-999, -999, -999]	n/a	FR1	3	R1135E
2528.534	14.201	2529072	PROB	14.201	n/a	n/a	-999	24	[3, 9, 6]	18	FR1	3	R1135E
2542.735	14.477	2543272	PROB	14.477	n/a	n/a	-999	24	[9, 3, 7]	19	FR1	3	R1135E
2557.212	0.01	2557748	STOP	n/a	n/a	n/a	-999	24	[-999, -999, -999]	n/a	FR1	3	R1135E
2557.222	1.117	2557758	DISTRACT_END	n/a	n/a	n/a	-999	24	[0, 0, 0]	n/a	FR1	3	R1135E
2558.339	2.453	2558875	REC_START	n/a	n/a	n/a	-999	24	[0, 0, 0]	n/a	FR1	3	R1135E
2560.792	5.587	2561328	REC_WORD	5.587	n/a	SALT	-999	24	[0, 0, 0]	n/a	FR1	3	R1135E
2566.379	7.346	2566914	REC_WORD	7.346	n/a	FLOOR	-999	24	[0, 0, 0]	n/a	FR1	3	R1135E
2573.725	14.631	2574260	REC_WORD	14.631	n/a	BENCH	-999	24	[0, 0, 0]	n/a	FR1	3	R1135E
2588.356	3.039	2588890	REC_END	n/a	n/a	n/a	-999	24	[0, 0, 0]	n/a	FR1	3	R1135E
2591.395	0.0	2591929	TRIAL	n/a	n/a	n/a	-999	25	[0, 0, 0]	n/a	FR1	3	R1135E
2591.395	10.428	2591929	COUNTDOWN_START	n/a	n/a	n/a	-999	25	[0, 0, 0]	n/a	FR1	3	R1135E
2601.823	0.006	2602356	COUNTDOWN_END	n/a	n/a	n/a	-999	25	[0, 0, 0]	n/a	FR1	3	R1135E
2601.829	2.451	2602362	ORIENT	n/a	n/a	n/a	-999	25	[0, 0, 0]	n/a	FR1	3	R1135E
2604.28	2.483	2604813	WORD	n/a	wordpools/wordpool_EN.txt	STAR	1	25	[0, 0, 0]	n/a	FR1	3	R1135E
2606.763	2.484	2607296	WORD	n/a	wordpools/wordpool_EN.txt	SCHOOL	2	25	[0, 0, 0]	n/a	FR1	3	R1135E
2609.247	2.467	2609780	WORD	n/a	wordpools/wordpool_EN.txt	FLAG	3	25	[0, 0, 0]	n/a	FR1	3	R1135E
2611.714	2.584	2612246	WORD	n/a	wordpools/wordpool_EN.txt	VEST	4	25	[0, 0, 0]	n/a	FR1	3	R1135E
2614.298	2.417	2614830	WORD	n/a	wordpools/wordpool_EN.txt	BRIDGE	5	25	[0, 0, 0]	n/a	FR1	3	R1135E
2616.715	2.585	2617247	WORD	n/a	wordpools/wordpool_EN.txt	CLIFF	6	25	[0, 0, 0]	n/a	FR1	3	R1135E
2619.3	2.449	2619832	WORD	n/a	wordpools/wordpool_EN.txt	FACE	7	25	[0, 0, 0]	n/a	FR1	3	R1135E
2621.749	2.501	2622281	WORD	n/a	wordpools/wordpool_EN.txt	FORT	8	25	[0, 0, 0]	n/a	FR1	3	R1135E
2624.25	2.5	2624782	WORD	n/a	wordpools/wordpool_EN.txt	LAND	9	25	[0, 0, 0]	n/a	FR1	3	R1135E
2626.75	2.601	2627281	WORD	n/a	wordpools/wordpool_EN.txt	CHIEF	10	25	[0, 0, 0]	n/a	FR1	3	R1135E
2629.351	2.483	2629882	WORD	n/a	wordpools/wordpool_EN.txt	PEA	11	25	[0, 0, 0]	n/a	FR1	3	R1135E
2631.834	1.601	2632365	WORD	n/a	wordpools/wordpool_EN.txt	ROAD	12	25	[0, 0, 0]	n/a	FR1	3	R1135E
2633.435	0.001	2633966	DISTRACT_START	n/a	n/a	n/a	-999	25	[0, 0, 0]	n/a	FR1	3	R1135E
2633.436	0.016	2633967	START	n/a	n/a	n/a	-999	25	[-999, -999, -999]	n/a	FR1	3	R1135E
2633.452	5.834	2633983	PROB	5.834	n/a	n/a	-999	25	[1, 1, 3]	5	FR1	3	R1135E
2639.286	12.102	2639816	PROB	12.102	n/a	n/a	-999	25	[8, 4, 5]	17	FR1	3	R1135E
2651.388	7.335	2651918	PROB	7.335	n/a	n/a	-999	25	[2, 4, 2]	8	FR1	3	R1135E
2658.723	0.016	2659252	STOP	n/a	n/a	n/a	-999	25	[-999, -999, -999]	n/a	FR1	3	R1135E
2658.739	1.067	2659268	DISTRACT_END	n/a	n/a	n/a	-999	25	[0, 0, 0]	n/a	FR1	3	R1135E
2659.806	9.808	2660335	REC_START	n/a	n/a	n/a	-999	25	[0, 0, 0]	n/a	FR1	3	R1135E
2669.614	20.209	2670142	REC_WORD	20.209	n/a	SALT	-999	25	[0, 0, 0]	n/a	FR1	3	R1135E
2689.823	6.089	2690350	REC_END	n/a	n/a	n/a	-999	25	[0, 0, 0]	n/a	FR1	3	R1135E
2695.912	0.0	-1	SESS_END	n/a	n/a	n/a	-999	25	[0, 0, 0]	n/a	FR1	3	R1135E
