onset	duration	sample	trial_type	response_time	stim_file	item_name	serialpos	list	test	answer	experiment	session	subject
0.0	11.29	82493	SESS_START	n/a	n/a	n/a	-999	-999	[0, 0, 0]	n/a	FR1	4	R1065J
11.29	10.428	93784	COUNTDOWN_START	n/a	n/a	n/a	-999	-999	[0, 0, 0]	n/a	FR1	4	R1065J
21.718	3.758	104213	COUNTDOWN_END	n/a	n/a	n/a	-999	-999	[0, 0, 0]	n/a	FR1	4	R1065J
25.476	2.534	107971	PRACTICE_WORD	n/a	n/a	TONGUE	1	-1	[0, 0, 0]	n/a	FR1	4	R1065J
28.01	2.584	110505	PRACTICE_WORD	n/a	n/a	RHINO	2	-1	[0, 0, 0]	n/a	FR1	4	R1065J
30.594	2.55	113089	PRACTICE_WORD	n/a	n/a	WATCH	3	-1	[0, 0, 0]	n/a	FR1	4	R1065J
33.144	2.384	115639	PRACTICE_WORD	n/a	n/a	WAGON	4	-1	[0, 0, 0]	n/a	FR1	4	R1065J
35.528	2.466	118024	PRACTICE_WORD	n/a	n/a	ATTIC	5	-1	[0, 0, 0]	n/a	FR1	4	R1065J
37.994	2.451	120490	PRACTICE_WORD	n/a	n/a	COTTON	6	-1	[0, 0, 0]	n/a	FR1	4	R1065J
40.445	2.567	122941	PRACTICE_WORD	n/a	n/a	IRON	7	-1	[0, 0, 0]	n/a	FR1	4	R1065J
43.012	2.45	125508	PRACTICE_WORD	n/a	n/a	RING	8	-1	[0, 0, 0]	n/a	FR1	4	R1065J
45.462	2.434	127958	PRACTICE_WORD	n/a	n/a	CHEST	9	-1	[0, 0, 0]	n/a	FR1	4	R1065J
47.896	2.467	130392	PRACTICE_WORD	n/a	n/a	FLOOD	10	-1	[0, 0, 0]	n/a	FR1	4	R1065J
50.363	2.55	132860	PRACTICE_WORD	n/a	n/a	BEAM	11	-1	[0, 0, 0]	n/a	FR1	4	R1065J
52.913	1.618	135410	PRACTICE_WORD	n/a	n/a	CAMEL	12	-1	[0, 0, 0]	n/a	FR1	4	R1065J
54.531	0.0	137028	PRACTICE_DISTRACT_START	n/a	n/a	n/a	-999	-1	[0, 0, 0]	n/a	FR1	4	R1065J
54.531	0.017	137028	START	n/a	n/a	n/a	-999	-1	[-999, -999, -999]	n/a	FR1	4	R1065J
54.548	2.282	137045	PROB	2.282	n/a	n/a	-999	-1	[5, 6, 6]	17	FR1	4	R1065J
56.83	1.651	139327	PROB	1.651	n/a	n/a	-999	-1	[9, 1, 6]	16	FR1	4	R1065J
58.481	2.033	140978	PROB	2.033	n/a	n/a	-999	-1	[2, 7, 6]	15	FR1	4	R1065J
60.514	2.234	143011	PROB	2.234	n/a	n/a	-999	-1	[5, 8, 6]	20	FR1	4	R1065J
62.748	2.785	145245	PROB	2.785	n/a	n/a	-999	-1	[9, 8, 6]	23	FR1	4	R1065J
65.533	2.365	148031	PROB	2.365	n/a	n/a	-999	-1	[8, 3, 3]	14	FR1	4	R1065J
67.898	2.534	150396	PROB	2.534	n/a	n/a	-999	-1	[6, 8, 4]	18	FR1	4	R1065J
70.432	2.417	152930	PROB	2.417	n/a	n/a	-999	-1	[8, 9, 1]	18	FR1	4	R1065J
72.849	2.596	155347	PROB	2.596	n/a	n/a	-999	-1	[5, 9, 2]	16	FR1	4	R1065J
75.445	0.004	157943	STOP	n/a	n/a	n/a	-999	-1	[-999, -999, -999]	n/a	FR1	4	R1065J
75.449	0.603	157947	PRACTICE_DISTRACT_END	n/a	n/a	n/a	-999	-1	[0, 0, 0]	n/a	FR1	4	R1065J
76.052	30.516	158550	PRACTICE_REC_START	n/a	n/a	n/a	-999	-1	[0, 0, 0]	n/a	FR1	4	R1065J
106.568	4.553	189068	PRACTICE_REC_END	n/a	n/a	n/a	-999	-1	[0, 0, 0]	n/a	FR1	4	R1065J
111.121	0.001	193622	COUNTDOWN_START	n/a	n/a	n/a	-999	1	[0, 0, 0]	n/a	FR1	4	R1065J
111.122	10.427	193623	TRIAL	n/a	n/a	n/a	-999	1	[0, 0, 0]	n/a	FR1	4	R1065J
121.549	0.008	204050	COUNTDOWN_END	n/a	n/a	n/a	-999	1	[0, 0, 0]	n/a	FR1	4	R1065J
121.557	2.616	204058	ORIENT	n/a	n/a	n/a	-999	1	[0, 0, 0]	n/a	FR1	4	R1065J
124.173	2.584	206675	WORD	n/a	wordpools/wordpool_EN.txt	BRICK	1	1	[0, 0, 0]	n/a	FR1	4	R1065J
126.757	2.384	209259	WORD	n/a	wordpools/wordpool_EN.txt	CORD	2	1	[0, 0, 0]	n/a	FR1	4	R1065J
129.141	2.566	211643	WORD	n/a	wordpools/wordpool_EN.txt	BADGE	3	1	[0, 0, 0]	n/a	FR1	4	R1065J
131.707	2.418	214209	WORD	n/a	wordpools/wordpool_EN.txt	CASH	4	1	[0, 0, 0]	n/a	FR1	4	R1065J
134.125	2.434	216627	WORD	n/a	wordpools/wordpool_EN.txt	STEM	5	1	[0, 0, 0]	n/a	FR1	4	R1065J
136.559	2.383	219061	WORD	n/a	wordpools/wordpool_EN.txt	BEAR	6	1	[0, 0, 0]	n/a	FR1	4	R1065J
138.942	2.4	221445	WORD	n/a	wordpools/wordpool_EN.txt	BOMB	7	1	[0, 0, 0]	n/a	FR1	4	R1065J
141.342	2.484	223845	WORD	n/a	wordpools/wordpool_EN.txt	CLOWN	8	1	[0, 0, 0]	n/a	FR1	4	R1065J
143.826	2.434	226329	WORD	n/a	wordpools/wordpool_EN.txt	SPARK	9	1	[0, 0, 0]	n/a	FR1	4	R1065J
146.26	2.567	228763	WORD	n/a	wordpools/wordpool_EN.txt	GOLD	10	1	[0, 0, 0]	n/a	FR1	4	R1065J
148.827	2.5	231330	WORD	n/a	wordpools/wordpool_EN.txt	FUDGE	11	1	[0, 0, 0]	n/a	FR1	4	R1065J
151.327	1.617	233830	WORD	n/a	wordpools/wordpool_EN.txt	ROCK	12	1	[0, 0, 0]	n/a	FR1	4	R1065J
152.944	0.001	235447	DISTRACT_START	n/a	n/a	n/a	-999	1	[0, 0, 0]	n/a	FR1	4	R1065J
152.945	0.016	235448	START	n/a	n/a	n/a	-999	1	[-999, -999, -999]	n/a	FR1	4	R1065J
152.961	2.634	235464	PROB	2.634	n/a	n/a	-999	1	[8, 5, 9]	22	FR1	4	R1065J
155.595	2.283	238099	PROB	2.283	n/a	n/a	-999	1	[4, 7, 4]	15	FR1	4	R1065J
157.878	1.701	240382	PROB	1.701	n/a	n/a	-999	1	[1, 1, 5]	7	FR1	4	R1065J
159.579	2.216	242083	PROB	2.216	n/a	n/a	-999	1	[8, 1, 6]	15	FR1	4	R1065J
161.795	1.717	244299	PROB	1.717	n/a	n/a	-999	1	[1, 8, 1]	10	FR1	4	R1065J
163.512	3.351	246016	PROB	3.351	n/a	n/a	-999	1	[5, 6, 7]	20	FR1	4	R1065J
166.863	1.867	249367	PROB	1.867	n/a	n/a	-999	1	[3, 7, 1]	11	FR1	4	R1065J
168.73	1.901	251235	PROB	1.901	n/a	n/a	-999	1	[9, 1, 5]	15	FR1	4	R1065J
170.631	1.832	253136	PROB	1.832	n/a	n/a	-999	1	[6, 1, 5]	12	FR1	4	R1065J
172.463	2.7	254968	PROB	2.7	n/a	n/a	-999	1	[6, 1, 2]	8	FR1	4	R1065J
175.163	0.017	257668	STOP	n/a	n/a	n/a	-999	1	[-999, -999, -999]	n/a	FR1	4	R1065J
175.18	1.102	257685	DISTRACT_END	n/a	n/a	n/a	-999	1	[0, 0, 0]	n/a	FR1	4	R1065J
176.282	1.57	258787	REC_START	n/a	n/a	n/a	-999	1	[0, 0, 0]	n/a	FR1	4	R1065J
177.852	0.731	260357	REC_WORD_VV	0.731	n/a	<>	-999	1	[0, 0, 0]	n/a	FR1	4	R1065J
178.583	6.816	261088	REC_WORD	6.816	n/a	FUDGE	-999	1	[0, 0, 0]	n/a	FR1	4	R1065J
185.399	2.491	267905	REC_WORD	2.491	n/a	BRICK	-999	1	[0, 0, 0]	n/a	FR1	4	R1065J
187.89	18.4	270396	REC_WORD	18.4	n/a	GOLD	-999	1	[0, 0, 0]	n/a	FR1	4	R1065J
206.29	2.035	288797	REC_END	n/a	n/a	n/a	-999	1	[0, 0, 0]	n/a	FR1	4	R1065J
208.325	0.0	290832	TRIAL	n/a	n/a	n/a	-999	2	[0, 0, 0]	n/a	FR1	4	R1065J
208.325	10.428	290832	COUNTDOWN_START	n/a	n/a	n/a	-999	2	[0, 0, 0]	n/a	FR1	4	R1065J
218.753	0.006	301261	COUNTDOWN_END	n/a	n/a	n/a	-999	2	[0, 0, 0]	n/a	FR1	4	R1065J
218.759	2.501	301267	ORIENT	n/a	n/a	n/a	-999	2	[0, 0, 0]	n/a	FR1	4	R1065J
221.26	2.617	303768	WORD	n/a	wordpools/wordpool_EN.txt	SUN	1	2	[0, 0, 0]	n/a	FR1	4	R1065J
223.877	2.483	306385	WORD	n/a	wordpools/wordpool_EN.txt	FILM	2	2	[0, 0, 0]	n/a	FR1	4	R1065J
226.36	2.451	308868	WORD	n/a	wordpools/wordpool_EN.txt	STAR	3	2	[0, 0, 0]	n/a	FR1	4	R1065J
228.811	2.467	311320	WORD	n/a	wordpools/wordpool_EN.txt	GLOVE	4	2	[0, 0, 0]	n/a	FR1	4	R1065J
231.278	2.417	313787	WORD	n/a	wordpools/wordpool_EN.txt	PLATE	5	2	[0, 0, 0]	n/a	FR1	4	R1065J
233.695	2.617	316204	WORD	n/a	wordpools/wordpool_EN.txt	PEACH	6	2	[0, 0, 0]	n/a	FR1	4	R1065J
236.312	2.567	318821	WORD	n/a	wordpools/wordpool_EN.txt	CLOUD	7	2	[0, 0, 0]	n/a	FR1	4	R1065J
238.879	2.55	321388	WORD	n/a	wordpools/wordpool_EN.txt	ARK	8	2	[0, 0, 0]	n/a	FR1	4	R1065J
241.429	2.617	323938	WORD	n/a	wordpools/wordpool_EN.txt	CLAY	9	2	[0, 0, 0]	n/a	FR1	4	R1065J
244.046	2.485	326556	WORD	n/a	wordpools/wordpool_EN.txt	EAR	10	2	[0, 0, 0]	n/a	FR1	4	R1065J
246.531	2.399	329041	WORD	n/a	wordpools/wordpool_EN.txt	WAVE	11	2	[0, 0, 0]	n/a	FR1	4	R1065J
248.93	1.601	331440	WORD	n/a	wordpools/wordpool_EN.txt	MOON	12	2	[0, 0, 0]	n/a	FR1	4	R1065J
250.531	0.001	333041	DISTRACT_START	n/a	n/a	n/a	-999	2	[0, 0, 0]	n/a	FR1	4	R1065J
250.532	0.016	333042	START	n/a	n/a	n/a	-999	2	[-999, -999, -999]	n/a	FR1	4	R1065J
250.548	3.034	333058	PROB	3.034	n/a	n/a	-999	2	[2, 5, 3]	10	FR1	4	R1065J
253.582	3.116	336092	PROB	3.116	n/a	n/a	-999	2	[7, 9, 5]	21	FR1	4	R1065J
256.698	3.734	339208	PROB	3.734	n/a	n/a	-999	2	[4, 8, 5]	17	FR1	4	R1065J
260.432	1.667	342943	PROB	1.667	n/a	n/a	-999	2	[1, 8, 8]	10	FR1	4	R1065J
262.099	2.434	344610	PROB	2.434	n/a	n/a	-999	2	[7, 6, 3]	16	FR1	4	R1065J
264.533	1.866	347044	PROB	1.866	n/a	n/a	-999	2	[6, 6, 8]	20	FR1	4	R1065J
266.399	4.138	348910	PROB	4.138	n/a	n/a	-999	2	[2, 9, 1]	12	FR1	4	R1065J
270.537	0.014	353048	STOP	n/a	n/a	n/a	-999	2	[-999, -999, -999]	n/a	FR1	4	R1065J
270.551	1.15	353062	DISTRACT_END	n/a	n/a	n/a	-999	2	[0, 0, 0]	n/a	FR1	4	R1065J
271.701	1.751	354212	REC_START	n/a	n/a	n/a	-999	2	[0, 0, 0]	n/a	FR1	4	R1065J
273.452	2.041	355964	REC_WORD	2.041	n/a	STAR	-999	2	[0, 0, 0]	n/a	FR1	4	R1065J
275.493	2.32	358005	REC_WORD	2.32	n/a	CLOUD	-999	2	[0, 0, 0]	n/a	FR1	4	R1065J
277.813	3.695	360325	REC_WORD	3.695	n/a	ARK	-999	2	[0, 0, 0]	n/a	FR1	4	R1065J
281.508	20.203	364020	REC_WORD	20.203	n/a	SUN	-999	2	[0, 0, 0]	n/a	FR1	4	R1065J
301.711	2.51	384224	REC_END	n/a	n/a	n/a	-999	2	[0, 0, 0]	n/a	FR1	4	R1065J
304.221	0.001	386735	COUNTDOWN_START	n/a	n/a	n/a	-999	3	[0, 0, 0]	n/a	FR1	4	R1065J
304.222	10.427	386736	TRIAL	n/a	n/a	n/a	-999	3	[0, 0, 0]	n/a	FR1	4	R1065J
314.649	0.007	397163	COUNTDOWN_END	n/a	n/a	n/a	-999	3	[0, 0, 0]	n/a	FR1	4	R1065J
314.656	2.551	397170	ORIENT	n/a	n/a	n/a	-999	3	[0, 0, 0]	n/a	FR1	4	R1065J
317.207	2.384	399721	WORD	n/a	wordpools/wordpool_EN.txt	DOG	1	3	[0, 0, 0]	n/a	FR1	4	R1065J
319.591	2.616	402106	WORD	n/a	wordpools/wordpool_EN.txt	GOAT	2	3	[0, 0, 0]	n/a	FR1	4	R1065J
322.207	2.567	404722	WORD	n/a	wordpools/wordpool_EN.txt	HEN	3	3	[0, 0, 0]	n/a	FR1	4	R1065J
324.774	2.534	407289	WORD	n/a	wordpools/wordpool_EN.txt	DUCK	4	3	[0, 0, 0]	n/a	FR1	4	R1065J
327.308	2.4	409823	WORD	n/a	wordpools/wordpool_EN.txt	PET	5	3	[0, 0, 0]	n/a	FR1	4	R1065J
329.708	2.484	412223	WORD	n/a	wordpools/wordpool_EN.txt	SPOON	6	3	[0, 0, 0]	n/a	FR1	4	R1065J
332.192	2.584	414707	WORD	n/a	wordpools/wordpool_EN.txt	BLUSH	7	3	[0, 0, 0]	n/a	FR1	4	R1065J
334.776	2.617	417292	WORD	n/a	wordpools/wordpool_EN.txt	TRUCK	8	3	[0, 0, 0]	n/a	FR1	4	R1065J
337.393	2.45	419909	WORD	n/a	wordpools/wordpool_EN.txt	FLEA	9	3	[0, 0, 0]	n/a	FR1	4	R1065J
339.843	2.384	422359	WORD	n/a	wordpools/wordpool_EN.txt	JEEP	10	3	[0, 0, 0]	n/a	FR1	4	R1065J
342.227	2.617	424743	WORD	n/a	wordpools/wordpool_EN.txt	TOAST	11	3	[0, 0, 0]	n/a	FR1	4	R1065J
344.844	1.617	427360	WORD	n/a	wordpools/wordpool_EN.txt	RAT	12	3	[0, 0, 0]	n/a	FR1	4	R1065J
346.461	0.001	428977	DISTRACT_START	n/a	n/a	n/a	-999	3	[0, 0, 0]	n/a	FR1	4	R1065J
346.462	0.015	428978	START	n/a	n/a	n/a	-999	3	[-999, -999, -999]	n/a	FR1	4	R1065J
346.477	2.517	428993	PROB	2.517	n/a	n/a	-999	3	[6, 2, 9]	17	FR1	4	R1065J
348.994	2.051	431511	PROB	2.051	n/a	n/a	-999	3	[2, 2, 7]	11	FR1	4	R1065J
351.045	2.067	433562	PROB	2.067	n/a	n/a	-999	3	[4, 7, 2]	13	FR1	4	R1065J
353.112	1.8	435629	PROB	1.8	n/a	n/a	-999	3	[1, 6, 3]	10	FR1	4	R1065J
354.912	1.784	437429	PROB	1.784	n/a	n/a	-999	3	[8, 1, 5]	14	FR1	4	R1065J
356.696	2.783	439213	PROB	2.783	n/a	n/a	-999	3	[1, 6, 2]	9	FR1	4	R1065J
359.479	2.201	441996	PROB	2.201	n/a	n/a	-999	3	[1, 2, 9]	12	FR1	4	R1065J
361.68	2.217	444197	PROB	2.217	n/a	n/a	-999	3	[9, 3, 8]	20	FR1	4	R1065J
363.897	2.316	446415	PROB	2.316	n/a	n/a	-999	3	[2, 1, 3]	6	FR1	4	R1065J
366.213	2.457	448731	PROB	2.457	n/a	n/a	-999	3	[4, 4, 6]	14	FR1	4	R1065J
368.67	0.011	451188	STOP	n/a	n/a	n/a	-999	3	[-999, -999, -999]	n/a	FR1	4	R1065J
368.681	1.234	451199	DISTRACT_END	n/a	n/a	n/a	-999	3	[0, 0, 0]	n/a	FR1	4	R1065J
369.915	2.509	452433	REC_START	n/a	n/a	n/a	-999	3	[0, 0, 0]	n/a	FR1	4	R1065J
372.424	1.655	454942	REC_WORD	1.655	n/a	PET	-999	3	[0, 0, 0]	n/a	FR1	4	R1065J
374.079	2.624	456597	REC_WORD	2.624	n/a	TRUCK	-999	3	[0, 0, 0]	n/a	FR1	4	R1065J
376.703	3.149	459221	REC_WORD	3.149	n/a	JEEP	-999	3	[0, 0, 0]	n/a	FR1	4	R1065J
379.852	4.438	462371	REC_WORD	4.438	n/a	FLEA	-999	3	[0, 0, 0]	n/a	FR1	4	R1065J
384.29	14.575	466809	REC_WORD	14.575	n/a	GOAT	-999	3	[0, 0, 0]	n/a	FR1	4	R1065J
398.865	1.06	481385	REC_WORD	1.06	n/a	HEN	-999	3	[0, 0, 0]	n/a	FR1	4	R1065J
399.925	2.927	482445	REC_END	n/a	n/a	n/a	-999	3	[0, 0, 0]	n/a	FR1	4	R1065J
402.852	0.0	485372	COUNTDOWN_START	n/a	n/a	n/a	-999	4	[0, 0, 0]	n/a	FR1	4	R1065J
402.852	10.428	485372	TRIAL	n/a	n/a	n/a	-999	4	[0, 0, 0]	n/a	FR1	4	R1065J
413.28	0.007	495801	COUNTDOWN_END	n/a	n/a	n/a	-999	4	[0, 0, 0]	n/a	FR1	4	R1065J
413.287	2.45	495808	ORIENT	n/a	n/a	n/a	-999	4	[0, 0, 0]	n/a	FR1	4	R1065J
415.737	2.434	498258	WORD	n/a	wordpools/wordpool_EN.txt	MAZE	1	4	[0, 0, 0]	n/a	FR1	4	R1065J
418.171	2.6	500692	WORD	n/a	wordpools/wordpool_EN.txt	FACE	2	4	[0, 0, 0]	n/a	FR1	4	R1065J
420.771	2.5	503292	WORD	n/a	wordpools/wordpool_EN.txt	VASE	3	4	[0, 0, 0]	n/a	FR1	4	R1065J
423.271	2.551	505793	WORD	n/a	wordpools/wordpool_EN.txt	DITCH	4	4	[0, 0, 0]	n/a	FR1	4	R1065J
425.822	2.55	508344	WORD	n/a	wordpools/wordpool_EN.txt	BAND	5	4	[0, 0, 0]	n/a	FR1	4	R1065J
428.372	2.534	510894	WORD	n/a	wordpools/wordpool_EN.txt	BALL	6	4	[0, 0, 0]	n/a	FR1	4	R1065J
430.906	2.4	513428	WORD	n/a	wordpools/wordpool_EN.txt	SQUARE	7	4	[0, 0, 0]	n/a	FR1	4	R1065J
433.306	2.617	515828	WORD	n/a	wordpools/wordpool_EN.txt	CHAIR	8	4	[0, 0, 0]	n/a	FR1	4	R1065J
435.923	2.434	518445	WORD	n/a	wordpools/wordpool_EN.txt	STRING	9	4	[0, 0, 0]	n/a	FR1	4	R1065J
438.357	2.501	520880	WORD	n/a	wordpools/wordpool_EN.txt	BOARD	10	4	[0, 0, 0]	n/a	FR1	4	R1065J
440.858	2.5	523381	WORD	n/a	wordpools/wordpool_EN.txt	SLUSH	11	4	[0, 0, 0]	n/a	FR1	4	R1065J
443.358	1.617	525881	WORD	n/a	wordpools/wordpool_EN.txt	BAT	12	4	[0, 0, 0]	n/a	FR1	4	R1065J
444.975	0.0	527498	DISTRACT_START	n/a	n/a	n/a	-999	4	[0, 0, 0]	n/a	FR1	4	R1065J
444.975	0.016	527498	START	n/a	n/a	n/a	-999	4	[-999, -999, -999]	n/a	FR1	4	R1065J
444.991	4.284	527514	PROB	4.284	n/a	n/a	-999	4	[2, 8, 4]	12	FR1	4	R1065J
449.275	3.134	531798	PROB	3.134	n/a	n/a	-999	4	[6, 3, 2]	11	FR1	4	R1065J
452.409	2.3	534933	PROB	2.3	n/a	n/a	-999	4	[3, 4, 7]	14	FR1	4	R1065J
454.709	1.902	537233	PROB	1.902	n/a	n/a	-999	4	[4, 5, 1]	10	FR1	4	R1065J
456.611	1.766	539135	PROB	1.766	n/a	n/a	-999	4	[8, 8, 4]	20	FR1	4	R1065J
458.377	2.016	540901	PROB	2.016	n/a	n/a	-999	4	[7, 7, 5]	19	FR1	4	R1065J
460.393	1.751	542917	PROB	1.751	n/a	n/a	-999	4	[2, 8, 3]	13	FR1	4	R1065J
462.144	2.033	544668	PROB	2.033	n/a	n/a	-999	4	[7, 8, 3]	18	FR1	4	R1065J
464.177	2.29	546701	PROB	2.29	n/a	n/a	-999	4	[7, 3, 5]	15	FR1	4	R1065J
466.467	0.011	548991	STOP	n/a	n/a	n/a	-999	4	[-999, -999, -999]	n/a	FR1	4	R1065J
466.478	1.152	549002	DISTRACT_END	n/a	n/a	n/a	-999	4	[0, 0, 0]	n/a	FR1	4	R1065J
467.63	3.381	550155	REC_START	n/a	n/a	n/a	-999	4	[0, 0, 0]	n/a	FR1	4	R1065J
471.011	3.258	553536	REC_WORD	3.258	n/a	BAND	-999	4	[0, 0, 0]	n/a	FR1	4	R1065J
474.269	3.717	556794	REC_WORD	3.717	n/a	BALL	-999	4	[0, 0, 0]	n/a	FR1	4	R1065J
477.986	19.654	560511	REC_WORD	19.654	n/a	SQUARE	-999	4	[0, 0, 0]	n/a	FR1	4	R1065J
497.64	2.592	580167	REC_END	n/a	n/a	n/a	-999	4	[0, 0, 0]	n/a	FR1	4	R1065J
500.232	0.0	582759	TRIAL	n/a	n/a	n/a	-999	5	[0, 0, 0]	n/a	FR1	4	R1065J
500.232	10.428	582759	COUNTDOWN_START	n/a	n/a	n/a	-999	5	[0, 0, 0]	n/a	FR1	4	R1065J
510.66	0.007	593187	COUNTDOWN_END	n/a	n/a	n/a	-999	5	[0, 0, 0]	n/a	FR1	4	R1065J
510.667	2.434	593194	ORIENT	n/a	n/a	n/a	-999	5	[0, 0, 0]	n/a	FR1	4	R1065J
513.101	2.518	595629	WORD	n/a	wordpools/wordpool_EN.txt	PANTS	1	5	[0, 0, 0]	n/a	FR1	4	R1065J
515.619	2.449	598147	WORD	n/a	wordpools/wordpool_EN.txt	PEN	2	5	[0, 0, 0]	n/a	FR1	4	R1065J
518.068	2.634	600596	WORD	n/a	wordpools/wordpool_EN.txt	SHEEP	3	5	[0, 0, 0]	n/a	FR1	4	R1065J
520.702	2.384	603230	WORD	n/a	wordpools/wordpool_EN.txt	BATH	4	5	[0, 0, 0]	n/a	FR1	4	R1065J
523.086	2.451	605614	WORD	n/a	wordpools/wordpool_EN.txt	BED	5	5	[0, 0, 0]	n/a	FR1	4	R1065J
525.537	2.449	608065	WORD	n/a	wordpools/wordpool_EN.txt	SMILE	6	5	[0, 0, 0]	n/a	FR1	4	R1065J
527.986	2.618	610515	WORD	n/a	wordpools/wordpool_EN.txt	RIB	7	5	[0, 0, 0]	n/a	FR1	4	R1065J
530.604	2.45	613133	WORD	n/a	wordpools/wordpool_EN.txt	FOAM	8	5	[0, 0, 0]	n/a	FR1	4	R1065J
533.054	2.467	615583	WORD	n/a	wordpools/wordpool_EN.txt	PIG	9	5	[0, 0, 0]	n/a	FR1	4	R1065J
535.521	2.567	618050	WORD	n/a	wordpools/wordpool_EN.txt	CROW	10	5	[0, 0, 0]	n/a	FR1	4	R1065J
538.088	2.451	620617	WORD	n/a	wordpools/wordpool_EN.txt	THREAD	11	5	[0, 0, 0]	n/a	FR1	4	R1065J
540.539	1.616	623068	WORD	n/a	wordpools/wordpool_EN.txt	TRAY	12	5	[0, 0, 0]	n/a	FR1	4	R1065J
542.155	0.001	624685	DISTRACT_START	n/a	n/a	n/a	-999	5	[0, 0, 0]	n/a	FR1	4	R1065J
542.156	0.016	624686	START	n/a	n/a	n/a	-999	5	[-999, -999, -999]	n/a	FR1	4	R1065J
542.172	2.25	624702	PROB	2.25	n/a	n/a	-999	5	[1, 3, 7]	11	FR1	4	R1065J
544.422	2.135	626952	PROB	2.135	n/a	n/a	-999	5	[4, 7, 2]	13	FR1	4	R1065J
546.557	1.699	629087	PROB	1.699	n/a	n/a	-999	5	[7, 7, 7]	21	FR1	4	R1065J
548.256	1.767	630786	PROB	1.767	n/a	n/a	-999	5	[1, 9, 8]	18	FR1	4	R1065J
550.023	2.167	632553	PROB	2.167	n/a	n/a	-999	5	[6, 9, 9]	24	FR1	4	R1065J
552.19	2.283	634720	PROB	2.283	n/a	n/a	-999	5	[3, 1, 1]	5	FR1	4	R1065J
554.473	2.017	637003	PROB	2.017	n/a	n/a	-999	5	[8, 5, 8]	18	FR1	4	R1065J
556.49	2.034	639020	PROB	2.034	n/a	n/a	-999	5	[1, 2, 9]	12	FR1	4	R1065J
558.524	1.767	641055	PROB	1.767	n/a	n/a	-999	5	[1, 1, 5]	7	FR1	4	R1065J
560.291	2.351	642822	PROB	2.351	n/a	n/a	-999	5	[8, 1, 9]	18	FR1	4	R1065J
562.642	0.016	645173	STOP	n/a	n/a	n/a	-999	5	[-999, -999, -999]	n/a	FR1	4	R1065J
562.658	1.184	645189	DISTRACT_END	n/a	n/a	n/a	-999	5	[0, 0, 0]	n/a	FR1	4	R1065J
563.842	3.816	646373	REC_START	n/a	n/a	n/a	-999	5	[0, 0, 0]	n/a	FR1	4	R1065J
567.658	1.857	650189	REC_WORD	1.857	n/a	BATH	-999	5	[0, 0, 0]	n/a	FR1	4	R1065J
569.515	2.546	652046	REC_WORD	2.546	n/a	SMILE	-999	5	[0, 0, 0]	n/a	FR1	4	R1065J
572.061	19.84	654593	REC_WORD	19.84	n/a	BED	-999	5	[0, 0, 0]	n/a	FR1	4	R1065J
591.901	1.952	674434	REC_WORD	1.952	n/a	FOAM	-999	5	[0, 0, 0]	n/a	FR1	4	R1065J
593.853	3.66	676386	REC_END	n/a	n/a	n/a	-999	5	[0, 0, 0]	n/a	FR1	4	R1065J
597.513	0.0	680046	TRIAL	n/a	n/a	n/a	-999	6	[0, 0, 0]	n/a	FR1	4	R1065J
597.513	10.428	680046	COUNTDOWN_START	n/a	n/a	n/a	-999	6	[0, 0, 0]	n/a	FR1	4	R1065J
607.941	0.007	690475	COUNTDOWN_END	n/a	n/a	n/a	-999	6	[0, 0, 0]	n/a	FR1	4	R1065J
607.948	2.433	690482	ORIENT	n/a	n/a	n/a	-999	6	[0, 0, 0]	n/a	FR1	4	R1065J
610.381	2.567	692915	WORD	n/a	wordpools/wordpool_EN.txt	MAT	1	6	[0, 0, 0]	n/a	FR1	4	R1065J
612.948	2.567	695482	WORD	n/a	wordpools/wordpool_EN.txt	FUR	2	6	[0, 0, 0]	n/a	FR1	4	R1065J
615.515	2.384	698049	WORD	n/a	wordpools/wordpool_EN.txt	SINK	3	6	[0, 0, 0]	n/a	FR1	4	R1065J
617.899	2.567	700434	WORD	n/a	wordpools/wordpool_EN.txt	TIE	4	6	[0, 0, 0]	n/a	FR1	4	R1065J
620.466	2.4	703001	WORD	n/a	wordpools/wordpool_EN.txt	CANE	5	6	[0, 0, 0]	n/a	FR1	4	R1065J
622.866	2.551	705401	WORD	n/a	wordpools/wordpool_EN.txt	BRUSH	6	6	[0, 0, 0]	n/a	FR1	4	R1065J
625.417	2.617	707952	WORD	n/a	wordpools/wordpool_EN.txt	EEL	7	6	[0, 0, 0]	n/a	FR1	4	R1065J
628.034	2.467	710569	WORD	n/a	wordpools/wordpool_EN.txt	STOOL	8	6	[0, 0, 0]	n/a	FR1	4	R1065J
630.501	2.6	713036	WORD	n/a	wordpools/wordpool_EN.txt	DOLL	9	6	[0, 0, 0]	n/a	FR1	4	R1065J
633.101	2.601	715637	WORD	n/a	wordpools/wordpool_EN.txt	BOOT	10	6	[0, 0, 0]	n/a	FR1	4	R1065J
635.702	2.583	718238	WORD	n/a	wordpools/wordpool_EN.txt	HAT	11	6	[0, 0, 0]	n/a	FR1	4	R1065J
638.285	1.617	720821	WORD	n/a	wordpools/wordpool_EN.txt	ARM	12	6	[0, 0, 0]	n/a	FR1	4	R1065J
639.902	0.001	722438	DISTRACT_START	n/a	n/a	n/a	-999	6	[0, 0, 0]	n/a	FR1	4	R1065J
639.903	0.016	722439	START	n/a	n/a	n/a	-999	6	[-999, -999, -999]	n/a	FR1	4	R1065J
639.919	3.083	722455	PROB	3.083	n/a	n/a	-999	6	[3, 6, 5]	14	FR1	4	R1065J
643.002	2.517	725538	PROB	2.517	n/a	n/a	-999	6	[5, 1, 4]	10	FR1	4	R1065J
645.519	2.085	728055	PROB	2.085	n/a	n/a	-999	6	[2, 2, 1]	5	FR1	4	R1065J
647.604	3.666	730141	PROB	3.666	n/a	n/a	-999	6	[3, 8, 1]	12	FR1	4	R1065J
651.27	3.001	733807	PROB	3.001	n/a	n/a	-999	6	[6, 2, 5]	14	FR1	4	R1065J
654.271	3.351	736808	PROB	3.351	n/a	n/a	-999	6	[9, 7, 1]	17	FR1	4	R1065J
657.622	2.233	740159	PROB	2.233	n/a	n/a	-999	6	[7, 2, 2]	11	FR1	4	R1065J
659.855	1.967	742392	PROB	1.967	n/a	n/a	-999	6	[2, 3, 3]	8	FR1	4	R1065J
661.822	0.016	744360	STOP	n/a	n/a	n/a	-999	6	[-999, -999, -999]	n/a	FR1	4	R1065J
661.838	1.034	744376	DISTRACT_END	n/a	n/a	n/a	-999	6	[0, 0, 0]	n/a	FR1	4	R1065J
662.872	2.165	745410	REC_START	n/a	n/a	n/a	-999	6	[0, 0, 0]	n/a	FR1	4	R1065J
665.037	2.763	747575	REC_WORD	2.763	n/a	STOOL	-999	6	[0, 0, 0]	n/a	FR1	4	R1065J
667.8	25.086	750338	REC_WORD	25.086	n/a	ARM	-999	6	[0, 0, 0]	n/a	FR1	4	R1065J
692.886	2.774	775426	REC_END	n/a	n/a	n/a	-999	6	[0, 0, 0]	n/a	FR1	4	R1065J
695.66	0.0	778200	TRIAL	n/a	n/a	n/a	-999	7	[0, 0, 0]	n/a	FR1	4	R1065J
695.66	10.428	778200	COUNTDOWN_START	n/a	n/a	n/a	-999	7	[0, 0, 0]	n/a	FR1	4	R1065J
706.088	0.007	788628	COUNTDOWN_END	n/a	n/a	n/a	-999	7	[0, 0, 0]	n/a	FR1	4	R1065J
706.095	2.518	788635	ORIENT	n/a	n/a	n/a	-999	7	[0, 0, 0]	n/a	FR1	4	R1065J
708.613	2.466	791154	WORD	n/a	wordpools/wordpool_EN.txt	MAP	1	7	[0, 0, 0]	n/a	FR1	4	R1065J
711.079	2.518	793620	WORD	n/a	wordpools/wordpool_EN.txt	GRAPE	2	7	[0, 0, 0]	n/a	FR1	4	R1065J
713.597	2.466	796138	WORD	n/a	wordpools/wordpool_EN.txt	HOSE	3	7	[0, 0, 0]	n/a	FR1	4	R1065J
716.063	2.4	798604	WORD	n/a	wordpools/wordpool_EN.txt	TRAIN	4	7	[0, 0, 0]	n/a	FR1	4	R1065J
718.463	2.601	801004	WORD	n/a	wordpools/wordpool_EN.txt	BOOK	5	7	[0, 0, 0]	n/a	FR1	4	R1065J
721.064	2.484	803605	WORD	n/a	wordpools/wordpool_EN.txt	TREE	6	7	[0, 0, 0]	n/a	FR1	4	R1065J
723.548	2.4	806090	WORD	n/a	wordpools/wordpool_EN.txt	RAIN	7	7	[0, 0, 0]	n/a	FR1	4	R1065J
725.948	2.517	808490	WORD	n/a	wordpools/wordpool_EN.txt	CAR	8	7	[0, 0, 0]	n/a	FR1	4	R1065J
728.465	2.567	811007	WORD	n/a	wordpools/wordpool_EN.txt	POLE	9	7	[0, 0, 0]	n/a	FR1	4	R1065J
731.032	2.601	813574	WORD	n/a	wordpools/wordpool_EN.txt	KEY	10	7	[0, 0, 0]	n/a	FR1	4	R1065J
733.633	2.599	816175	WORD	n/a	wordpools/wordpool_EN.txt	PEA	11	7	[0, 0, 0]	n/a	FR1	4	R1065J
736.232	1.617	818774	WORD	n/a	wordpools/wordpool_EN.txt	JAIL	12	7	[0, 0, 0]	n/a	FR1	4	R1065J
737.849	0.001	820392	DISTRACT_START	n/a	n/a	n/a	-999	7	[0, 0, 0]	n/a	FR1	4	R1065J
737.85	0.016	820393	START	n/a	n/a	n/a	-999	7	[-999, -999, -999]	n/a	FR1	4	R1065J
737.866	2.384	820409	PROB	2.384	n/a	n/a	-999	7	[8, 5, 1]	14	FR1	4	R1065J
740.25	3.0	822793	PROB	3.0	n/a	n/a	-999	7	[1, 8, 7]	16	FR1	4	R1065J
743.25	1.9	825793	PROB	1.9	n/a	n/a	-999	7	[5, 1, 8]	14	FR1	4	R1065J
745.15	2.234	827693	PROB	2.234	n/a	n/a	-999	7	[7, 2, 5]	14	FR1	4	R1065J
747.384	2.034	829927	PROB	2.034	n/a	n/a	-999	7	[8, 5, 8]	18	FR1	4	R1065J
749.418	2.234	831961	PROB	2.234	n/a	n/a	-999	7	[1, 5, 7]	13	FR1	4	R1065J
751.652	3.333	834196	PROB	3.333	n/a	n/a	-999	7	[5, 9, 6]	20	FR1	4	R1065J
754.985	1.95	837529	PROB	1.95	n/a	n/a	-999	7	[5, 1, 4]	10	FR1	4	R1065J
756.935	1.917	839479	PROB	1.917	n/a	n/a	-999	7	[8, 4, 8]	20	FR1	4	R1065J
758.852	0.017	841396	STOP	n/a	n/a	n/a	-999	7	[-999, -999, -999]	n/a	FR1	4	R1065J
758.869	1.085	841413	DISTRACT_END	n/a	n/a	n/a	-999	7	[0, 0, 0]	n/a	FR1	4	R1065J
759.954	2.718	842498	REC_START	n/a	n/a	n/a	-999	7	[0, 0, 0]	n/a	FR1	4	R1065J
762.672	2.592	845216	REC_WORD	2.592	n/a	TRAIN	-999	7	[0, 0, 0]	n/a	FR1	4	R1065J
765.264	4.967	847808	REC_WORD	4.967	n/a	POLE	-999	7	[0, 0, 0]	n/a	FR1	4	R1065J
770.231	2.541	852776	REC_WORD	2.541	n/a	TREE	-999	7	[0, 0, 0]	n/a	FR1	4	R1065J
772.772	17.188	855317	REC_WORD	17.188	n/a	RAIN	-999	7	[0, 0, 0]	n/a	FR1	4	R1065J
789.96	2.964	872506	REC_END	n/a	n/a	n/a	-999	7	[0, 0, 0]	n/a	FR1	4	R1065J
792.924	0.0	875470	TRIAL	n/a	n/a	n/a	-999	8	[0, 0, 0]	n/a	FR1	4	R1065J
792.924	10.428	875470	COUNTDOWN_START	n/a	n/a	n/a	-999	8	[0, 0, 0]	n/a	FR1	4	R1065J
803.352	0.007	885899	COUNTDOWN_END	n/a	n/a	n/a	-999	8	[0, 0, 0]	n/a	FR1	4	R1065J
803.359	2.467	885906	ORIENT	n/a	n/a	n/a	-999	8	[0, 0, 0]	n/a	FR1	4	R1065J
805.826	2.6	888373	WORD	n/a	wordpools/wordpool_EN.txt	DRUM	1	8	[0, 0, 0]	n/a	FR1	4	R1065J
808.426	2.567	890973	WORD	n/a	wordpools/wordpool_EN.txt	HEART	2	8	[0, 0, 0]	n/a	FR1	4	R1065J
810.993	2.568	893541	WORD	n/a	wordpools/wordpool_EN.txt	SWORD	3	8	[0, 0, 0]	n/a	FR1	4	R1065J
813.561	2.533	896109	WORD	n/a	wordpools/wordpool_EN.txt	BENCH	4	8	[0, 0, 0]	n/a	FR1	4	R1065J
816.094	2.617	898642	WORD	n/a	wordpools/wordpool_EN.txt	PIPE	5	8	[0, 0, 0]	n/a	FR1	4	R1065J
818.711	2.45	901259	WORD	n/a	wordpools/wordpool_EN.txt	FAN	6	8	[0, 0, 0]	n/a	FR1	4	R1065J
821.161	2.385	903709	WORD	n/a	wordpools/wordpool_EN.txt	COUCH	7	8	[0, 0, 0]	n/a	FR1	4	R1065J
823.546	2.566	906094	WORD	n/a	wordpools/wordpool_EN.txt	KITE	8	8	[0, 0, 0]	n/a	FR1	4	R1065J
826.112	2.501	908661	WORD	n/a	wordpools/wordpool_EN.txt	LIP	9	8	[0, 0, 0]	n/a	FR1	4	R1065J
828.613	2.399	911162	WORD	n/a	wordpools/wordpool_EN.txt	LAWN	10	8	[0, 0, 0]	n/a	FR1	4	R1065J
831.012	2.518	913561	WORD	n/a	wordpools/wordpool_EN.txt	FORK	11	8	[0, 0, 0]	n/a	FR1	4	R1065J
833.53	1.616	916079	WORD	n/a	wordpools/wordpool_EN.txt	AXE	12	8	[0, 0, 0]	n/a	FR1	4	R1065J
835.146	0.001	917695	DISTRACT_START	n/a	n/a	n/a	-999	8	[0, 0, 0]	n/a	FR1	4	R1065J
835.147	0.016	917696	START	n/a	n/a	n/a	-999	8	[-999, -999, -999]	n/a	FR1	4	R1065J
835.163	2.767	917712	PROB	2.767	n/a	n/a	-999	8	[8, 1, 7]	16	FR1	4	R1065J
837.93	1.618	920479	PROB	1.618	n/a	n/a	-999	8	[1, 1, 8]	10	FR1	4	R1065J
839.548	1.549	922097	PROB	1.549	n/a	n/a	-999	8	[2, 5, 5]	12	FR1	4	R1065J
841.097	2.067	923647	PROB	2.067	n/a	n/a	-999	8	[5, 5, 9]	19	FR1	4	R1065J
843.164	1.867	925714	PROB	1.867	n/a	n/a	-999	8	[9, 9, 2]	20	FR1	4	R1065J
845.031	2.134	927581	PROB	2.134	n/a	n/a	-999	8	[2, 8, 6]	16	FR1	4	R1065J
847.165	2.017	929715	PROB	2.017	n/a	n/a	-999	8	[6, 9, 4]	19	FR1	4	R1065J
849.182	2.567	931732	PROB	2.567	n/a	n/a	-999	8	[3, 6, 9]	18	FR1	4	R1065J
851.749	1.967	934299	PROB	1.967	n/a	n/a	-999	8	[3, 2, 9]	14	FR1	4	R1065J
853.716	1.894	936266	PROB	1.894	n/a	n/a	-999	8	[8, 8, 4]	20	FR1	4	R1065J
855.61	0.007	938160	STOP	n/a	n/a	n/a	-999	8	[-999, -999, -999]	n/a	FR1	4	R1065J
855.617	1.083	938167	DISTRACT_END	n/a	n/a	n/a	-999	8	[0, 0, 0]	n/a	FR1	4	R1065J
856.7	2.52	939251	REC_START	n/a	n/a	n/a	-999	8	[0, 0, 0]	n/a	FR1	4	R1065J
859.22	3.879	941771	REC_WORD	3.879	n/a	COUCH	-999	8	[0, 0, 0]	n/a	FR1	4	R1065J
863.099	7.522	945650	REC_WORD	7.522	n/a	LIP	-999	8	[0, 0, 0]	n/a	FR1	4	R1065J
870.621	16.091	953172	REC_WORD	16.091	n/a	AXE	-999	8	[0, 0, 0]	n/a	FR1	4	R1065J
886.712	5.559	969265	REC_END	n/a	n/a	n/a	-999	8	[0, 0, 0]	n/a	FR1	4	R1065J
892.271	0.0	974824	COUNTDOWN_START	n/a	n/a	n/a	-999	9	[0, 0, 0]	n/a	FR1	4	R1065J
892.271	10.428	974824	TRIAL	n/a	n/a	n/a	-999	9	[0, 0, 0]	n/a	FR1	4	R1065J
902.699	0.007	985253	COUNTDOWN_END	n/a	n/a	n/a	-999	9	[0, 0, 0]	n/a	FR1	4	R1065J
902.706	2.383	985260	ORIENT	n/a	n/a	n/a	-999	9	[0, 0, 0]	n/a	FR1	4	R1065J
905.089	2.584	987643	WORD	n/a	wordpools/wordpool_EN.txt	TANK	1	9	[0, 0, 0]	n/a	FR1	4	R1065J
907.673	2.551	990227	WORD	n/a	wordpools/wordpool_EN.txt	PLANT	2	9	[0, 0, 0]	n/a	FR1	4	R1065J
910.224	2.6	992778	WORD	n/a	wordpools/wordpool_EN.txt	JET	3	9	[0, 0, 0]	n/a	FR1	4	R1065J
912.824	2.567	995378	WORD	n/a	wordpools/wordpool_EN.txt	BEACH	4	9	[0, 0, 0]	n/a	FR1	4	R1065J
915.391	2.6	997945	WORD	n/a	wordpools/wordpool_EN.txt	VAN	5	9	[0, 0, 0]	n/a	FR1	4	R1065J
917.991	2.401	1000546	WORD	n/a	wordpools/wordpool_EN.txt	WING	6	9	[0, 0, 0]	n/a	FR1	4	R1065J
920.392	2.417	1002947	WORD	n/a	wordpools/wordpool_EN.txt	BOAT	7	9	[0, 0, 0]	n/a	FR1	4	R1065J
922.809	2.517	1005364	WORD	n/a	wordpools/wordpool_EN.txt	SHARK	8	9	[0, 0, 0]	n/a	FR1	4	R1065J
925.326	2.4	1007881	WORD	n/a	wordpools/wordpool_EN.txt	LAMP	9	9	[0, 0, 0]	n/a	FR1	4	R1065J
927.726	2.534	1010281	WORD	n/a	wordpools/wordpool_EN.txt	CUP	10	9	[0, 0, 0]	n/a	FR1	4	R1065J
930.26	2.4	1012815	WORD	n/a	wordpools/wordpool_EN.txt	FLAME	11	9	[0, 0, 0]	n/a	FR1	4	R1065J
932.66	1.617	1015216	WORD	n/a	wordpools/wordpool_EN.txt	GLASS	12	9	[0, 0, 0]	n/a	FR1	4	R1065J
934.277	0.001	1016833	DISTRACT_START	n/a	n/a	n/a	-999	9	[0, 0, 0]	n/a	FR1	4	R1065J
934.278	0.016	1016834	START	n/a	n/a	n/a	-999	9	[-999, -999, -999]	n/a	FR1	4	R1065J
934.294	3.017	1016850	PROB	3.017	n/a	n/a	-999	9	[5, 4, 5]	14	FR1	4	R1065J
937.311	1.817	1019867	PROB	1.817	n/a	n/a	-999	9	[6, 4, 8]	18	FR1	4	R1065J
939.128	1.85	1021684	PROB	1.85	n/a	n/a	-999	9	[9, 4, 9]	22	FR1	4	R1065J
940.978	1.817	1023534	PROB	1.817	n/a	n/a	-999	9	[8, 6, 6]	22	FR1	4	R1065J
942.795	2.184	1025351	PROB	2.184	n/a	n/a	-999	9	[6, 1, 7]	14	FR1	4	R1065J
944.979	2.433	1027535	PROB	2.433	n/a	n/a	-999	9	[4, 9, 5]	18	FR1	4	R1065J
947.412	2.135	1029969	PROB	2.135	n/a	n/a	-999	9	[1, 8, 6]	15	FR1	4	R1065J
949.547	1.849	1032104	PROB	1.849	n/a	n/a	-999	9	[5, 3, 3]	11	FR1	4	R1065J
951.396	1.867	1033953	PROB	1.867	n/a	n/a	-999	9	[4, 1, 5]	10	FR1	4	R1065J
953.263	2.503	1035820	PROB	2.503	n/a	n/a	-999	9	[8, 9, 5]	22	FR1	4	R1065J
955.766	0.014	1038323	STOP	n/a	n/a	n/a	-999	9	[-999, -999, -999]	n/a	FR1	4	R1065J
955.78	1.118	1038337	DISTRACT_END	n/a	n/a	n/a	-999	9	[0, 0, 0]	n/a	FR1	4	R1065J
956.898	4.818	1039455	REC_START	n/a	n/a	n/a	-999	9	[0, 0, 0]	n/a	FR1	4	R1065J
961.716	2.558	1044274	REC_WORD	2.558	n/a	BEACH	-999	9	[0, 0, 0]	n/a	FR1	4	R1065J
964.274	3.023	1046832	REC_WORD	3.023	n/a	JET	-999	9	[0, 0, 0]	n/a	FR1	4	R1065J
967.297	19.612	1049855	REC_WORD	19.612	n/a	WING	-999	9	[0, 0, 0]	n/a	FR1	4	R1065J
986.909	3.109	1069468	REC_END	n/a	n/a	n/a	-999	9	[0, 0, 0]	n/a	FR1	4	R1065J
990.018	0.001	1072577	COUNTDOWN_START	n/a	n/a	n/a	-999	10	[0, 0, 0]	n/a	FR1	4	R1065J
990.019	10.427	1072578	TRIAL	n/a	n/a	n/a	-999	10	[0, 0, 0]	n/a	FR1	4	R1065J
1000.446	0.007	1083006	COUNTDOWN_END	n/a	n/a	n/a	-999	10	[0, 0, 0]	n/a	FR1	4	R1065J
1000.453	2.384	1083013	ORIENT	n/a	n/a	n/a	-999	10	[0, 0, 0]	n/a	FR1	4	R1065J
1002.837	2.6	1085397	WORD	n/a	wordpools/wordpool_EN.txt	JAR	1	10	[0, 0, 0]	n/a	FR1	4	R1065J
1005.437	2.567	1087998	WORD	n/a	wordpools/wordpool_EN.txt	STORM	2	10	[0, 0, 0]	n/a	FR1	4	R1065J
1008.004	2.501	1090565	WORD	n/a	wordpools/wordpool_EN.txt	OAR	3	10	[0, 0, 0]	n/a	FR1	4	R1065J
1010.505	2.55	1093066	WORD	n/a	wordpools/wordpool_EN.txt	STAIR	4	10	[0, 0, 0]	n/a	FR1	4	R1065J
1013.055	2.501	1095616	WORD	n/a	wordpools/wordpool_EN.txt	WORM	5	10	[0, 0, 0]	n/a	FR1	4	R1065J
1015.556	2.566	1098117	WORD	n/a	wordpools/wordpool_EN.txt	MOTH	6	10	[0, 0, 0]	n/a	FR1	4	R1065J
1018.122	2.418	1100683	WORD	n/a	wordpools/wordpool_EN.txt	SOAP	7	10	[0, 0, 0]	n/a	FR1	4	R1065J
1020.54	2.433	1103102	WORD	n/a	wordpools/wordpool_EN.txt	CLOTH	8	10	[0, 0, 0]	n/a	FR1	4	R1065J
1022.973	2.384	1105535	WORD	n/a	wordpools/wordpool_EN.txt	WEB	9	10	[0, 0, 0]	n/a	FR1	4	R1065J
1025.357	2.55	1107919	WORD	n/a	wordpools/wordpool_EN.txt	DIME	10	10	[0, 0, 0]	n/a	FR1	4	R1065J
1027.907	2.617	1110469	WORD	n/a	wordpools/wordpool_EN.txt	CRANE	11	10	[0, 0, 0]	n/a	FR1	4	R1065J
1030.524	1.617	1113086	WORD	n/a	wordpools/wordpool_EN.txt	STRAW	12	10	[0, 0, 0]	n/a	FR1	4	R1065J
1032.141	0.001	1114703	DISTRACT_START	n/a	n/a	n/a	-999	10	[0, 0, 0]	n/a	FR1	4	R1065J
1032.142	0.016	1114704	START	n/a	n/a	n/a	-999	10	[-999, -999, -999]	n/a	FR1	4	R1065J
1032.158	2.6	1114720	PROB	2.6	n/a	n/a	-999	10	[7, 7, 4]	18	FR1	4	R1065J
1034.758	3.2	1117320	PROB	3.2	n/a	n/a	-999	10	[9, 8, 6]	23	FR1	4	R1065J
1037.958	2.068	1120521	PROB	2.068	n/a	n/a	-999	10	[9, 2, 8]	19	FR1	4	R1065J
1040.026	2.4	1122589	PROB	2.4	n/a	n/a	-999	10	[3, 4, 4]	10	FR1	4	R1065J
1042.426	4.234	1124989	PROB	4.234	n/a	n/a	-999	10	[6, 9, 9]	24	FR1	4	R1065J
1046.66	2.984	1129223	PROB	2.984	n/a	n/a	-999	10	[9, 2, 3]	17	FR1	4	R1065J
1049.644	2.083	1132207	PROB	2.083	n/a	n/a	-999	10	[5, 7, 9]	21	FR1	4	R1065J
1051.727	4.212	1134291	PROB	4.212	n/a	n/a	-999	10	[3, 2, 3]	8	FR1	4	R1065J
1055.939	0.022	1138503	STOP	n/a	n/a	n/a	-999	10	[-999, -999, -999]	n/a	FR1	4	R1065J
1055.961	1.034	1138525	DISTRACT_END	n/a	n/a	n/a	-999	10	[0, 0, 0]	n/a	FR1	4	R1065J
1056.995	15.146	1139559	REC_START	n/a	n/a	n/a	-999	10	[0, 0, 0]	n/a	FR1	4	R1065J
1072.141	14.864	1154706	REC_WORD	14.864	n/a	WORM	-999	10	[0, 0, 0]	n/a	FR1	4	R1065J
1087.005	4.579	1169571	REC_END	n/a	n/a	n/a	-999	10	[0, 0, 0]	n/a	FR1	4	R1065J
1091.584	0.0	1174150	TRIAL	n/a	n/a	n/a	-999	11	[0, 0, 0]	n/a	FR1	4	R1065J
1091.584	10.428	1174150	COUNTDOWN_START	n/a	n/a	n/a	-999	11	[0, 0, 0]	n/a	FR1	4	R1065J
1102.012	0.006	1184579	COUNTDOWN_END	n/a	n/a	n/a	-999	11	[0, 0, 0]	n/a	FR1	4	R1065J
1102.018	2.5	1184585	ORIENT	n/a	n/a	n/a	-999	11	[0, 0, 0]	n/a	FR1	4	R1065J
1104.518	2.45	1187085	WORD	n/a	wordpools/wordpool_EN.txt	BEE	1	11	[0, 0, 0]	n/a	FR1	4	R1065J
1106.968	2.585	1189535	WORD	n/a	wordpools/wordpool_EN.txt	WOOD	2	11	[0, 0, 0]	n/a	FR1	4	R1065J
1109.553	2.516	1192120	WORD	n/a	wordpools/wordpool_EN.txt	ROOT	3	11	[0, 0, 0]	n/a	FR1	4	R1065J
1112.069	2.484	1194637	WORD	n/a	wordpools/wordpool_EN.txt	NOSE	4	11	[0, 0, 0]	n/a	FR1	4	R1065J
1114.553	2.6	1197121	WORD	n/a	wordpools/wordpool_EN.txt	CAT	5	11	[0, 0, 0]	n/a	FR1	4	R1065J
1117.153	2.6	1199721	WORD	n/a	wordpools/wordpool_EN.txt	SKUNK	6	11	[0, 0, 0]	n/a	FR1	4	R1065J
1119.753	2.584	1202321	WORD	n/a	wordpools/wordpool_EN.txt	BRANCH	7	11	[0, 0, 0]	n/a	FR1	4	R1065J
1122.337	2.434	1204905	WORD	n/a	wordpools/wordpool_EN.txt	FROG	8	11	[0, 0, 0]	n/a	FR1	4	R1065J
1124.771	2.45	1207339	WORD	n/a	wordpools/wordpool_EN.txt	FRUIT	9	11	[0, 0, 0]	n/a	FR1	4	R1065J
1127.221	2.484	1209790	WORD	n/a	wordpools/wordpool_EN.txt	STREET	10	11	[0, 0, 0]	n/a	FR1	4	R1065J
1129.705	2.534	1212274	WORD	n/a	wordpools/wordpool_EN.txt	STORE	11	11	[0, 0, 0]	n/a	FR1	4	R1065J
1132.239	1.616	1214808	WORD	n/a	wordpools/wordpool_EN.txt	CHEEK	12	11	[0, 0, 0]	n/a	FR1	4	R1065J
1133.855	0.001	1216424	DISTRACT_START	n/a	n/a	n/a	-999	11	[0, 0, 0]	n/a	FR1	4	R1065J
1133.856	0.016	1216425	START	n/a	n/a	n/a	-999	11	[-999, -999, -999]	n/a	FR1	4	R1065J
1133.872	4.467	1216441	PROB	4.467	n/a	n/a	-999	11	[7, 6, 8]	21	FR1	4	R1065J
1138.339	2.984	1220908	PROB	2.984	n/a	n/a	-999	11	[9, 5, 2]	16	FR1	4	R1065J
1141.323	2.084	1223893	PROB	2.084	n/a	n/a	-999	11	[2, 6, 9]	17	FR1	4	R1065J
1143.407	1.983	1225977	PROB	1.983	n/a	n/a	-999	11	[4, 7, 1]	12	FR1	4	R1065J
1145.39	2.134	1227960	PROB	2.134	n/a	n/a	-999	11	[8, 7, 2]	17	FR1	4	R1065J
1147.524	2.433	1230094	PROB	2.433	n/a	n/a	-999	11	[7, 1, 8]	16	FR1	4	R1065J
1149.957	1.95	1232527	PROB	1.95	n/a	n/a	-999	11	[1, 4, 9]	14	FR1	4	R1065J
1151.907	3.021	1234477	PROB	3.021	n/a	n/a	-999	11	[5, 4, 2]	11	FR1	4	R1065J
1154.928	0.014	1237499	STOP	n/a	n/a	n/a	-999	11	[-999, -999, -999]	n/a	FR1	4	R1065J
1154.942	1.084	1237513	DISTRACT_END	n/a	n/a	n/a	-999	11	[0, 0, 0]	n/a	FR1	4	R1065J
1156.026	4.574	1238597	REC_START	n/a	n/a	n/a	-999	11	[0, 0, 0]	n/a	FR1	4	R1065J
1160.6	4.066	1243171	REC_WORD	4.066	n/a	BEE	-999	11	[0, 0, 0]	n/a	FR1	4	R1065J
1164.666	10.424	1247237	REC_WORD	10.424	n/a	CAT	-999	11	[0, 0, 0]	n/a	FR1	4	R1065J
1175.09	10.946	1257662	REC_WORD	10.946	n/a	STREET	-999	11	[0, 0, 0]	n/a	FR1	4	R1065J
1186.036	2.877	1268609	REC_END	n/a	n/a	n/a	-999	11	[0, 0, 0]	n/a	FR1	4	R1065J
1188.913	0.0	1271486	TRIAL	n/a	n/a	n/a	-999	12	[0, 0, 0]	n/a	FR1	4	R1065J
1188.913	10.428	1271486	COUNTDOWN_START	n/a	n/a	n/a	-999	12	[0, 0, 0]	n/a	FR1	4	R1065J
1199.341	0.007	1281914	COUNTDOWN_END	n/a	n/a	n/a	-999	12	[0, 0, 0]	n/a	FR1	4	R1065J
1199.348	2.634	1281921	ORIENT	n/a	n/a	n/a	-999	12	[0, 0, 0]	n/a	FR1	4	R1065J
1201.982	2.533	1284556	WORD	n/a	wordpools/wordpool_EN.txt	SPONGE	1	12	[0, 0, 0]	n/a	FR1	4	R1065J
1204.515	2.451	1287089	WORD	n/a	wordpools/wordpool_EN.txt	PIT	2	12	[0, 0, 0]	n/a	FR1	4	R1065J
1206.966	2.45	1289540	WORD	n/a	wordpools/wordpool_EN.txt	SNAIL	3	12	[0, 0, 0]	n/a	FR1	4	R1065J
1209.416	2.55	1291990	WORD	n/a	wordpools/wordpool_EN.txt	DEER	4	12	[0, 0, 0]	n/a	FR1	4	R1065J
1211.966	2.484	1294540	WORD	n/a	wordpools/wordpool_EN.txt	PALM	5	12	[0, 0, 0]	n/a	FR1	4	R1065J
1214.45	2.4	1297024	WORD	n/a	wordpools/wordpool_EN.txt	MUD	6	12	[0, 0, 0]	n/a	FR1	4	R1065J
1216.85	2.567	1299425	WORD	n/a	wordpools/wordpool_EN.txt	DART	7	12	[0, 0, 0]	n/a	FR1	4	R1065J
1219.417	2.451	1301992	WORD	n/a	wordpools/wordpool_EN.txt	TENT	8	12	[0, 0, 0]	n/a	FR1	4	R1065J
1221.868	2.617	1304443	WORD	n/a	wordpools/wordpool_EN.txt	FISH	9	12	[0, 0, 0]	n/a	FR1	4	R1065J
1224.485	2.383	1307060	WORD	n/a	wordpools/wordpool_EN.txt	SHRIMP	10	12	[0, 0, 0]	n/a	FR1	4	R1065J
1226.868	2.568	1309443	WORD	n/a	wordpools/wordpool_EN.txt	SNAKE	11	12	[0, 0, 0]	n/a	FR1	4	R1065J
1229.436	1.617	1312011	WORD	n/a	wordpools/wordpool_EN.txt	VINE	12	12	[0, 0, 0]	n/a	FR1	4	R1065J
1231.053	0.0	1313629	DISTRACT_START	n/a	n/a	n/a	-999	12	[0, 0, 0]	n/a	FR1	4	R1065J
1231.053	0.016	1313629	START	n/a	n/a	n/a	-999	12	[-999, -999, -999]	n/a	FR1	4	R1065J
1231.069	3.784	1313645	PROB	3.784	n/a	n/a	-999	12	[6, 8, 5]	19	FR1	4	R1065J
1234.853	2.367	1317429	PROB	2.367	n/a	n/a	-999	12	[1, 6, 7]	14	FR1	4	R1065J
1237.22	1.717	1319796	PROB	1.717	n/a	n/a	-999	12	[7, 3, 2]	12	FR1	4	R1065J
1238.937	1.966	1321513	PROB	1.966	n/a	n/a	-999	12	[2, 1, 5]	8	FR1	4	R1065J
1240.903	1.702	1323479	PROB	1.702	n/a	n/a	-999	12	[6, 3, 2]	11	FR1	4	R1065J
1242.605	3.951	1325181	PROB	3.951	n/a	n/a	-999	12	[9, 6, 9]	25	FR1	4	R1065J
1246.556	2.249	1329133	PROB	2.249	n/a	n/a	-999	12	[3, 3, 4]	10	FR1	4	R1065J
1248.805	3.337	1331382	PROB	3.337	n/a	n/a	-999	12	[4, 7, 6]	17	FR1	4	R1065J
1252.142	0.013	1334719	STOP	n/a	n/a	n/a	-999	12	[-999, -999, -999]	n/a	FR1	4	R1065J
1252.155	1.034	1334732	DISTRACT_END	n/a	n/a	n/a	-999	12	[0, 0, 0]	n/a	FR1	4	R1065J
1253.189	1.879	1335766	REC_START	n/a	n/a	n/a	-999	12	[0, 0, 0]	n/a	FR1	4	R1065J
1255.068	1.763	1337645	REC_WORD	1.763	n/a	TENT	-999	12	[0, 0, 0]	n/a	FR1	4	R1065J
1256.831	2.305	1339408	REC_WORD	2.305	n/a	FISH	-999	12	[0, 0, 0]	n/a	FR1	4	R1065J
1259.136	2.733	1341713	REC_WORD	2.733	n/a	SHRIMP	-999	12	[0, 0, 0]	n/a	FR1	4	R1065J
1261.869	21.333	1344447	REC_WORD	21.333	n/a	SNAKE	-999	12	[0, 0, 0]	n/a	FR1	4	R1065J
1283.202	4.658	1365781	REC_END	n/a	n/a	n/a	-999	12	[0, 0, 0]	n/a	FR1	4	R1065J
1287.86	0.001	1370439	COUNTDOWN_START	n/a	n/a	n/a	-999	13	[0, 0, 0]	n/a	FR1	4	R1065J
1287.861	10.427	1370440	TRIAL	n/a	n/a	n/a	-999	13	[0, 0, 0]	n/a	FR1	4	R1065J
1298.288	0.007	1380868	COUNTDOWN_END	n/a	n/a	n/a	-999	13	[0, 0, 0]	n/a	FR1	4	R1065J
1298.295	2.451	1380875	ORIENT	n/a	n/a	n/a	-999	13	[0, 0, 0]	n/a	FR1	4	R1065J
1300.746	2.533	1383326	WORD	n/a	wordpools/wordpool_EN.txt	CAPE	1	13	[0, 0, 0]	n/a	FR1	4	R1065J
1303.279	2.534	1385859	WORD	n/a	wordpools/wordpool_EN.txt	ROPE	2	13	[0, 0, 0]	n/a	FR1	4	R1065J
1305.813	2.617	1388394	WORD	n/a	wordpools/wordpool_EN.txt	DOCK	3	13	[0, 0, 0]	n/a	FR1	4	R1065J
1308.43	2.55	1391011	WORD	n/a	wordpools/wordpool_EN.txt	FORT	4	13	[0, 0, 0]	n/a	FR1	4	R1065J
1310.98	2.384	1393561	WORD	n/a	wordpools/wordpool_EN.txt	STEAM	5	13	[0, 0, 0]	n/a	FR1	4	R1065J
1313.364	2.384	1395945	WORD	n/a	wordpools/wordpool_EN.txt	SAIL	6	13	[0, 0, 0]	n/a	FR1	4	R1065J
1315.748	2.55	1398329	WORD	n/a	wordpools/wordpool_EN.txt	SLIME	7	13	[0, 0, 0]	n/a	FR1	4	R1065J
1318.298	2.517	1400879	WORD	n/a	wordpools/wordpool_EN.txt	HOOK	8	13	[0, 0, 0]	n/a	FR1	4	R1065J
1320.815	2.551	1403397	WORD	n/a	wordpools/wordpool_EN.txt	PRINCE	9	13	[0, 0, 0]	n/a	FR1	4	R1065J
1323.366	2.533	1405948	WORD	n/a	wordpools/wordpool_EN.txt	FLAG	10	13	[0, 0, 0]	n/a	FR1	4	R1065J
1325.899	2.5	1408481	WORD	n/a	wordpools/wordpool_EN.txt	SEA	11	13	[0, 0, 0]	n/a	FR1	4	R1065J
1328.399	1.617	1410981	WORD	n/a	wordpools/wordpool_EN.txt	HORN	12	13	[0, 0, 0]	n/a	FR1	4	R1065J
1330.016	0.001	1412598	DISTRACT_START	n/a	n/a	n/a	-999	13	[0, 0, 0]	n/a	FR1	4	R1065J
1330.017	0.016	1412599	START	n/a	n/a	n/a	-999	13	[-999, -999, -999]	n/a	FR1	4	R1065J
1330.033	2.984	1412615	PROB	2.984	n/a	n/a	-999	13	[1, 8, 1]	10	FR1	4	R1065J
1333.017	2.017	1415599	PROB	2.017	n/a	n/a	-999	13	[1, 7, 5]	13	FR1	4	R1065J
1335.034	2.45	1417617	PROB	2.45	n/a	n/a	-999	13	[7, 4, 3]	14	FR1	4	R1065J
1337.484	2.135	1420067	PROB	2.135	n/a	n/a	-999	13	[7, 1, 3]	11	FR1	4	R1065J
1339.619	2.182	1422202	PROB	2.182	n/a	n/a	-999	13	[2, 7, 6]	15	FR1	4	R1065J
1341.801	2.017	1424384	PROB	2.017	n/a	n/a	-999	13	[3, 4, 2]	9	FR1	4	R1065J
1343.818	2.067	1426401	PROB	2.067	n/a	n/a	-999	13	[8, 1, 5]	14	FR1	4	R1065J
1345.885	1.967	1428468	PROB	1.967	n/a	n/a	-999	13	[3, 7, 2]	12	FR1	4	R1065J
1347.852	2.223	1430435	PROB	2.223	n/a	n/a	-999	13	[5, 7, 7]	17	FR1	4	R1065J
1350.075	0.011	1432659	STOP	n/a	n/a	n/a	-999	13	[-999, -999, -999]	n/a	FR1	4	R1065J
1350.086	1.101	1432670	DISTRACT_END	n/a	n/a	n/a	-999	13	[0, 0, 0]	n/a	FR1	4	R1065J
1351.187	2.439	1433771	REC_START	n/a	n/a	n/a	-999	13	[0, 0, 0]	n/a	FR1	4	R1065J
1353.626	2.393	1436210	REC_WORD	2.393	n/a	FLAG	-999	13	[0, 0, 0]	n/a	FR1	4	R1065J
1356.019	3.337	1438603	REC_WORD	3.337	n/a	SEA	-999	13	[0, 0, 0]	n/a	FR1	4	R1065J
1359.356	4.299	1441940	REC_WORD	4.299	n/a	HOOK	-999	13	[0, 0, 0]	n/a	FR1	4	R1065J
1363.655	7.677	1446239	REC_WORD	7.677	n/a	HOLE	-999	13	[0, 0, 0]	n/a	FR1	4	R1065J
1371.332	3.117	1453917	REC_WORD_VV	3.117	n/a	<>	-999	13	[0, 0, 0]	n/a	FR1	4	R1065J
1374.449	6.748	1457034	REC_WORD	6.748	n/a	FORT	-999	13	[0, 0, 0]	n/a	FR1	4	R1065J
1381.197	3.644	1463783	REC_END	n/a	n/a	n/a	-999	13	[0, 0, 0]	n/a	FR1	4	R1065J
1384.841	0.0	1467427	TRIAL	n/a	n/a	n/a	-999	14	[0, 0, 0]	n/a	FR1	4	R1065J
1384.841	10.428	1467427	COUNTDOWN_START	n/a	n/a	n/a	-999	14	[0, 0, 0]	n/a	FR1	4	R1065J
1395.269	0.007	1477856	COUNTDOWN_END	n/a	n/a	n/a	-999	14	[0, 0, 0]	n/a	FR1	4	R1065J
1395.276	2.567	1477863	ORIENT	n/a	n/a	n/a	-999	14	[0, 0, 0]	n/a	FR1	4	R1065J
1397.843	2.4	1480430	WORD	n/a	wordpools/wordpool_EN.txt	SOCK	1	14	[0, 0, 0]	n/a	FR1	4	R1065J
1400.243	2.5	1482830	WORD	n/a	wordpools/wordpool_EN.txt	LEG	2	14	[0, 0, 0]	n/a	FR1	4	R1065J
1402.743	2.417	1485330	WORD	n/a	wordpools/wordpool_EN.txt	TOY	3	14	[0, 0, 0]	n/a	FR1	4	R1065J
1405.16	2.402	1487747	WORD	n/a	wordpools/wordpool_EN.txt	BUSH	4	14	[0, 0, 0]	n/a	FR1	4	R1065J
1407.562	2.532	1490149	WORD	n/a	wordpools/wordpool_EN.txt	OAK	5	14	[0, 0, 0]	n/a	FR1	4	R1065J
1410.094	2.567	1492682	WORD	n/a	wordpools/wordpool_EN.txt	SHOE	6	14	[0, 0, 0]	n/a	FR1	4	R1065J
1412.661	2.484	1495249	WORD	n/a	wordpools/wordpool_EN.txt	ROAD	7	14	[0, 0, 0]	n/a	FR1	4	R1065J
1415.145	2.451	1497733	WORD	n/a	wordpools/wordpool_EN.txt	FOX	8	14	[0, 0, 0]	n/a	FR1	4	R1065J
1417.596	2.55	1500184	WORD	n/a	wordpools/wordpool_EN.txt	SEAT	9	14	[0, 0, 0]	n/a	FR1	4	R1065J
1420.146	2.401	1502734	WORD	n/a	wordpools/wordpool_EN.txt	SWAMP	10	14	[0, 0, 0]	n/a	FR1	4	R1065J
1422.547	2.6	1505135	WORD	n/a	wordpools/wordpool_EN.txt	FOOT	11	14	[0, 0, 0]	n/a	FR1	4	R1065J
1425.147	1.616	1507736	WORD	n/a	wordpools/wordpool_EN.txt	GRASS	12	14	[0, 0, 0]	n/a	FR1	4	R1065J
1426.763	0.001	1509352	DISTRACT_START	n/a	n/a	n/a	-999	14	[0, 0, 0]	n/a	FR1	4	R1065J
1426.764	0.016	1509353	START	n/a	n/a	n/a	-999	14	[-999, -999, -999]	n/a	FR1	4	R1065J
1426.78	2.868	1509369	PROB	2.868	n/a	n/a	-999	14	[8, 1, 6]	15	FR1	4	R1065J
1429.648	2.066	1512237	PROB	2.066	n/a	n/a	-999	14	[6, 2, 4]	12	FR1	4	R1065J
1431.714	1.95	1514303	PROB	1.95	n/a	n/a	-999	14	[2, 8, 4]	14	FR1	4	R1065J
1433.664	1.968	1516253	PROB	1.968	n/a	n/a	-999	14	[2, 3, 7]	12	FR1	4	R1065J
1435.632	2.716	1518221	PROB	2.716	n/a	n/a	-999	14	[4, 2, 4]	10	FR1	4	R1065J
1438.348	1.851	1520937	PROB	1.851	n/a	n/a	-999	14	[1, 1, 6]	8	FR1	4	R1065J
1440.199	2.517	1522789	PROB	2.517	n/a	n/a	-999	14	[9, 5, 4]	18	FR1	4	R1065J
1442.716	2.05	1525306	PROB	2.05	n/a	n/a	-999	14	[1, 6, 7]	14	FR1	4	R1065J
1444.766	2.923	1527356	PROB	2.923	n/a	n/a	-999	14	[3, 9, 4]	16	FR1	4	R1065J
1447.689	0.011	1530279	STOP	n/a	n/a	n/a	-999	14	[-999, -999, -999]	n/a	FR1	4	R1065J
1447.7	1.034	1530290	DISTRACT_END	n/a	n/a	n/a	-999	14	[0, 0, 0]	n/a	FR1	4	R1065J
1448.734	2.256	1531324	REC_START	n/a	n/a	n/a	-999	14	[0, 0, 0]	n/a	FR1	4	R1065J
1450.99	1.965	1533580	REC_WORD	1.965	n/a	SOCK	-999	14	[0, 0, 0]	n/a	FR1	4	R1065J
1452.955	2.024	1535545	REC_WORD	2.024	n/a	FOOT	-999	14	[0, 0, 0]	n/a	FR1	4	R1065J
1454.979	3.847	1537570	REC_WORD	3.847	n/a	SHOE	-999	14	[0, 0, 0]	n/a	FR1	4	R1065J
1458.826	19.918	1541417	REC_WORD	19.918	n/a	LEG	-999	14	[0, 0, 0]	n/a	FR1	4	R1065J
1478.744	3.427	1561336	REC_END	n/a	n/a	n/a	-999	14	[0, 0, 0]	n/a	FR1	4	R1065J
1482.171	0.001	1564763	COUNTDOWN_START	n/a	n/a	n/a	-999	15	[0, 0, 0]	n/a	FR1	4	R1065J
1482.172	10.427	1564764	TRIAL	n/a	n/a	n/a	-999	15	[0, 0, 0]	n/a	FR1	4	R1065J
1492.599	0.008	1575192	COUNTDOWN_END	n/a	n/a	n/a	-999	15	[0, 0, 0]	n/a	FR1	4	R1065J
1492.607	2.616	1575200	ORIENT	n/a	n/a	n/a	-999	15	[0, 0, 0]	n/a	FR1	4	R1065J
1495.223	2.401	1577816	WORD	n/a	wordpools/wordpool_EN.txt	JUICE	1	15	[0, 0, 0]	n/a	FR1	4	R1065J
1497.624	2.566	1580217	WORD	n/a	wordpools/wordpool_EN.txt	LAKE	2	15	[0, 0, 0]	n/a	FR1	4	R1065J
1500.19	2.435	1582784	WORD	n/a	wordpools/wordpool_EN.txt	SALT	3	15	[0, 0, 0]	n/a	FR1	4	R1065J
1502.625	2.533	1585219	WORD	n/a	wordpools/wordpool_EN.txt	MAIL	4	15	[0, 0, 0]	n/a	FR1	4	R1065J
1505.158	2.533	1587752	WORD	n/a	wordpools/wordpool_EN.txt	LAND	5	15	[0, 0, 0]	n/a	FR1	4	R1065J
1507.691	2.618	1590285	WORD	n/a	wordpools/wordpool_EN.txt	PLANE	6	15	[0, 0, 0]	n/a	FR1	4	R1065J
1510.309	2.517	1592903	WORD	n/a	wordpools/wordpool_EN.txt	SHIP	7	15	[0, 0, 0]	n/a	FR1	4	R1065J
1512.826	2.55	1595420	WORD	n/a	wordpools/wordpool_EN.txt	TRASH	8	15	[0, 0, 0]	n/a	FR1	4	R1065J
1515.376	2.434	1597971	WORD	n/a	wordpools/wordpool_EN.txt	NET	9	15	[0, 0, 0]	n/a	FR1	4	R1065J
1517.81	2.433	1600405	WORD	n/a	wordpools/wordpool_EN.txt	SMOKE	10	15	[0, 0, 0]	n/a	FR1	4	R1065J
1520.243	2.484	1602838	WORD	n/a	wordpools/wordpool_EN.txt	SHEET	11	15	[0, 0, 0]	n/a	FR1	4	R1065J
1522.727	1.617	1605322	WORD	n/a	wordpools/wordpool_EN.txt	APE	12	15	[0, 0, 0]	n/a	FR1	4	R1065J
1524.344	0.001	1606939	DISTRACT_START	n/a	n/a	n/a	-999	15	[0, 0, 0]	n/a	FR1	4	R1065J
1524.345	0.015	1606940	START	n/a	n/a	n/a	-999	15	[-999, -999, -999]	n/a	FR1	4	R1065J
1524.36	3.101	1606955	PROB	3.101	n/a	n/a	-999	15	[6, 4, 4]	14	FR1	4	R1065J
1527.461	2.284	1610056	PROB	2.284	n/a	n/a	-999	15	[9, 6, 3]	18	FR1	4	R1065J
1529.745	3.384	1612341	PROB	3.384	n/a	n/a	-999	15	[4, 7, 9]	20	FR1	4	R1065J
1533.129	3.55	1615725	PROB	3.55	n/a	n/a	-999	15	[3, 9, 7]	19	FR1	4	R1065J
1536.679	2.6	1619275	PROB	2.6	n/a	n/a	-999	15	[6, 6, 5]	17	FR1	4	R1065J
1539.279	2.051	1621875	PROB	2.051	n/a	n/a	-999	15	[9, 9, 5]	23	FR1	4	R1065J
1541.33	2.767	1623926	PROB	2.767	n/a	n/a	-999	15	[2, 1, 4]	7	FR1	4	R1065J
1544.097	2.213	1626694	PROB	2.213	n/a	n/a	-999	15	[3, 1, 4]	8	FR1	4	R1065J
1546.31	0.004	1628907	STOP	n/a	n/a	n/a	-999	15	[-999, -999, -999]	n/a	FR1	4	R1065J
1546.314	1.218	1628911	DISTRACT_END	n/a	n/a	n/a	-999	15	[0, 0, 0]	n/a	FR1	4	R1065J
1547.532	2.393	1630129	REC_START	n/a	n/a	n/a	-999	15	[0, 0, 0]	n/a	FR1	4	R1065J
1549.925	2.27	1632522	REC_WORD	2.27	n/a	MAIL	-999	15	[0, 0, 0]	n/a	FR1	4	R1065J
1552.195	5.518	1634792	REC_WORD	5.518	n/a	LAND	-999	15	[0, 0, 0]	n/a	FR1	4	R1065J
1557.713	5.529	1640310	REC_WORD	5.529	n/a	TRASH	-999	15	[0, 0, 0]	n/a	FR1	4	R1065J
1563.242	14.301	1645840	REC_WORD	14.301	n/a	PLANE	-999	15	[0, 0, 0]	n/a	FR1	4	R1065J
1577.543	3.093	1660142	REC_END	n/a	n/a	n/a	-999	15	[0, 0, 0]	n/a	FR1	4	R1065J
1580.636	0.001	1663235	COUNTDOWN_START	n/a	n/a	n/a	-999	16	[0, 0, 0]	n/a	FR1	4	R1065J
1580.637	10.427	1663236	TRIAL	n/a	n/a	n/a	-999	16	[0, 0, 0]	n/a	FR1	4	R1065J
1591.064	0.006	1673664	COUNTDOWN_END	n/a	n/a	n/a	-999	16	[0, 0, 0]	n/a	FR1	4	R1065J
1591.07	2.45	1673670	ORIENT	n/a	n/a	n/a	-999	16	[0, 0, 0]	n/a	FR1	4	R1065J
1593.52	2.517	1676120	WORD	n/a	wordpools/wordpool_EN.txt	LEAF	1	16	[0, 0, 0]	n/a	FR1	4	R1065J
1596.037	2.502	1678637	WORD	n/a	wordpools/wordpool_EN.txt	POOL	2	16	[0, 0, 0]	n/a	FR1	4	R1065J
1598.539	2.466	1681139	WORD	n/a	wordpools/wordpool_EN.txt	CART	3	16	[0, 0, 0]	n/a	FR1	4	R1065J
1601.005	2.584	1683605	WORD	n/a	wordpools/wordpool_EN.txt	BARN	4	16	[0, 0, 0]	n/a	FR1	4	R1065J
1603.589	2.45	1686190	WORD	n/a	wordpools/wordpool_EN.txt	STOVE	5	16	[0, 0, 0]	n/a	FR1	4	R1065J
1606.039	2.501	1688640	WORD	n/a	wordpools/wordpool_EN.txt	FENCE	6	16	[0, 0, 0]	n/a	FR1	4	R1065J
1608.54	2.45	1691141	WORD	n/a	wordpools/wordpool_EN.txt	HORSE	7	16	[0, 0, 0]	n/a	FR1	4	R1065J
1610.99	2.517	1693591	WORD	n/a	wordpools/wordpool_EN.txt	POND	8	16	[0, 0, 0]	n/a	FR1	4	R1065J
1613.507	2.483	1696108	WORD	n/a	wordpools/wordpool_EN.txt	HAWK	9	16	[0, 0, 0]	n/a	FR1	4	R1065J
1615.99	2.384	1698591	WORD	n/a	wordpools/wordpool_EN.txt	INK	10	16	[0, 0, 0]	n/a	FR1	4	R1065J
1618.374	2.467	1700976	WORD	n/a	wordpools/wordpool_EN.txt	NEST	11	16	[0, 0, 0]	n/a	FR1	4	R1065J
1620.841	1.617	1703443	WORD	n/a	wordpools/wordpool_EN.txt	FLUTE	12	16	[0, 0, 0]	n/a	FR1	4	R1065J
1622.458	0.0	1705060	DISTRACT_START	n/a	n/a	n/a	-999	16	[0, 0, 0]	n/a	FR1	4	R1065J
1622.458	0.016	1705060	START	n/a	n/a	n/a	-999	16	[-999, -999, -999]	n/a	FR1	4	R1065J
1622.474	3.434	1705076	PROB	3.434	n/a	n/a	-999	16	[9, 1, 2]	12	FR1	4	R1065J
1625.908	1.901	1708510	PROB	1.901	n/a	n/a	-999	16	[1, 9, 9]	19	FR1	4	R1065J
1627.809	2.017	1710411	PROB	2.017	n/a	n/a	-999	16	[7, 5, 9]	21	FR1	4	R1065J
1629.826	3.434	1712428	PROB	3.434	n/a	n/a	-999	16	[5, 7, 2]	14	FR1	4	R1065J
1633.26	1.95	1715863	PROB	1.95	n/a	n/a	-999	16	[7, 1, 1]	9	FR1	4	R1065J
1635.21	2.75	1717813	PROB	2.75	n/a	n/a	-999	16	[2, 4, 3]	9	FR1	4	R1065J
1637.96	1.95	1720563	PROB	1.95	n/a	n/a	-999	16	[9, 4, 1]	14	FR1	4	R1065J
1639.91	2.234	1722513	PROB	2.234	n/a	n/a	-999	16	[1, 4, 5]	10	FR1	4	R1065J
1642.144	2.004	1724747	PROB	2.004	n/a	n/a	-999	16	[9, 7, 1]	17	FR1	4	R1065J
1644.148	0.013	1726751	STOP	n/a	n/a	n/a	-999	16	[-999, -999, -999]	n/a	FR1	4	R1065J
1644.161	1.151	1726764	DISTRACT_END	n/a	n/a	n/a	-999	16	[0, 0, 0]	n/a	FR1	4	R1065J
1645.312	4.235	1727915	REC_START	n/a	n/a	n/a	-999	16	[0, 0, 0]	n/a	FR1	4	R1065J
1649.547	1.918	1732151	REC_WORD	1.918	n/a	FENCE	-999	16	[0, 0, 0]	n/a	FR1	4	R1065J
1651.465	18.336	1734069	REC_WORD	18.336	n/a	HORSE	-999	16	[0, 0, 0]	n/a	FR1	4	R1065J
1669.801	1.215	1752406	REC_WORD	1.215	n/a	HAWK	-999	16	[0, 0, 0]	n/a	FR1	4	R1065J
1671.016	4.311	1753621	REC_WORD	4.311	n/a	NEST	-999	16	[0, 0, 0]	n/a	FR1	4	R1065J
1675.327	3.772	1757932	REC_END	n/a	n/a	n/a	-999	16	[0, 0, 0]	n/a	FR1	4	R1065J
1679.099	0.0	1761705	TRIAL	n/a	n/a	n/a	-999	17	[0, 0, 0]	n/a	FR1	4	R1065J
1679.099	10.428	1761705	COUNTDOWN_START	n/a	n/a	n/a	-999	17	[0, 0, 0]	n/a	FR1	4	R1065J
1689.527	0.008	1772133	COUNTDOWN_END	n/a	n/a	n/a	-999	17	[0, 0, 0]	n/a	FR1	4	R1065J
1689.535	2.433	1772141	ORIENT	n/a	n/a	n/a	-999	17	[0, 0, 0]	n/a	FR1	4	R1065J
1691.968	2.383	1774574	WORD	n/a	wordpools/wordpool_EN.txt	CHALK	1	17	[0, 0, 0]	n/a	FR1	4	R1065J
1694.351	2.467	1776958	WORD	n/a	wordpools/wordpool_EN.txt	ICE	2	17	[0, 0, 0]	n/a	FR1	4	R1065J
1696.818	2.517	1779425	WORD	n/a	wordpools/wordpool_EN.txt	CONE	3	17	[0, 0, 0]	n/a	FR1	4	R1065J
1699.335	2.501	1781942	WORD	n/a	wordpools/wordpool_EN.txt	WEED	4	17	[0, 0, 0]	n/a	FR1	4	R1065J
1701.836	2.517	1784443	WORD	n/a	wordpools/wordpool_EN.txt	MULE	5	17	[0, 0, 0]	n/a	FR1	4	R1065J
1704.353	2.617	1786960	WORD	n/a	wordpools/wordpool_EN.txt	TAIL	6	17	[0, 0, 0]	n/a	FR1	4	R1065J
1706.97	2.484	1789577	WORD	n/a	wordpools/wordpool_EN.txt	SNOW	7	17	[0, 0, 0]	n/a	FR1	4	R1065J
1709.454	2.616	1792062	WORD	n/a	wordpools/wordpool_EN.txt	FOG	8	17	[0, 0, 0]	n/a	FR1	4	R1065J
1712.07	2.434	1794678	WORD	n/a	wordpools/wordpool_EN.txt	SHIELD	9	17	[0, 0, 0]	n/a	FR1	4	R1065J
1714.504	2.467	1797112	WORD	n/a	wordpools/wordpool_EN.txt	PARK	10	17	[0, 0, 0]	n/a	FR1	4	R1065J
1716.971	2.517	1799579	WORD	n/a	wordpools/wordpool_EN.txt	SIGN	11	17	[0, 0, 0]	n/a	FR1	4	R1065J
1719.488	1.617	1802096	WORD	n/a	wordpools/wordpool_EN.txt	SHIRT	12	17	[0, 0, 0]	n/a	FR1	4	R1065J
1721.105	0.001	1803713	DISTRACT_START	n/a	n/a	n/a	-999	17	[0, 0, 0]	n/a	FR1	4	R1065J
1721.106	0.016	1803714	START	n/a	n/a	n/a	-999	17	[-999, -999, -999]	n/a	FR1	4	R1065J
1721.122	2.85	1803730	PROB	2.85	n/a	n/a	-999	17	[4, 2, 1]	7	FR1	4	R1065J
1723.972	2.2	1806581	PROB	2.2	n/a	n/a	-999	17	[1, 8, 4]	13	FR1	4	R1065J
1726.172	2.234	1808781	PROB	2.234	n/a	n/a	-999	17	[7, 8, 7]	25	FR1	4	R1065J
1728.406	2.017	1811015	PROB	2.017	n/a	n/a	-999	17	[1, 3, 8]	12	FR1	4	R1065J
1730.423	1.767	1813032	PROB	1.767	n/a	n/a	-999	17	[5, 5, 5]	15	FR1	4	R1065J
1732.19	2.368	1814799	PROB	2.368	n/a	n/a	-999	17	[9, 2, 4]	15	FR1	4	R1065J
1734.558	2.349	1817167	PROB	2.349	n/a	n/a	-999	17	[2, 6, 6]	14	FR1	4	R1065J
1736.907	2.167	1819516	PROB	2.167	n/a	n/a	-999	17	[5, 2, 5]	12	FR1	4	R1065J
1739.074	2.279	1821684	PROB	2.279	n/a	n/a	-999	17	[1, 2, 4]	7	FR1	4	R1065J
1741.353	0.005	1823963	STOP	n/a	n/a	n/a	-999	17	[-999, -999, -999]	n/a	FR1	4	R1065J
1741.358	1.202	1823968	DISTRACT_END	n/a	n/a	n/a	-999	17	[0, 0, 0]	n/a	FR1	4	R1065J
1742.56	7.708	1825170	REC_START	n/a	n/a	n/a	-999	17	[0, 0, 0]	n/a	FR1	4	R1065J
1750.268	22.301	1832878	REC_WORD	22.301	n/a	SIGN	-999	17	[0, 0, 0]	n/a	FR1	4	R1065J
1772.569	3.028	1855181	REC_END	n/a	n/a	n/a	-999	17	[0, 0, 0]	n/a	FR1	4	R1065J
1775.597	0.0	1858209	COUNTDOWN_START	n/a	n/a	n/a	-999	18	[0, 0, 0]	n/a	FR1	4	R1065J
1775.597	10.428	1858209	TRIAL	n/a	n/a	n/a	-999	18	[0, 0, 0]	n/a	FR1	4	R1065J
1786.025	0.006	1868638	COUNTDOWN_END	n/a	n/a	n/a	-999	18	[0, 0, 0]	n/a	FR1	4	R1065J
1786.031	2.467	1868644	ORIENT	n/a	n/a	n/a	-999	18	[0, 0, 0]	n/a	FR1	4	R1065J
1788.498	2.517	1871111	WORD	n/a	wordpools/wordpool_EN.txt	PASTE	1	18	[0, 0, 0]	n/a	FR1	4	R1065J
1791.015	2.5	1873628	WORD	n/a	wordpools/wordpool_EN.txt	SUIT	2	18	[0, 0, 0]	n/a	FR1	4	R1065J
1793.515	2.551	1876128	WORD	n/a	wordpools/wordpool_EN.txt	THUMB	3	18	[0, 0, 0]	n/a	FR1	4	R1065J
1796.066	2.534	1878679	WORD	n/a	wordpools/wordpool_EN.txt	CHIEF	4	18	[0, 0, 0]	n/a	FR1	4	R1065J
1798.6	2.55	1881214	WORD	n/a	wordpools/wordpool_EN.txt	JUDGE	5	18	[0, 0, 0]	n/a	FR1	4	R1065J
1801.15	2.534	1883764	WORD	n/a	wordpools/wordpool_EN.txt	BANK	6	18	[0, 0, 0]	n/a	FR1	4	R1065J
1803.684	2.633	1886298	WORD	n/a	wordpools/wordpool_EN.txt	CLIFF	7	18	[0, 0, 0]	n/a	FR1	4	R1065J
1806.317	2.584	1888931	WORD	n/a	wordpools/wordpool_EN.txt	SPEAR	8	18	[0, 0, 0]	n/a	FR1	4	R1065J
1808.901	2.484	1891515	WORD	n/a	wordpools/wordpool_EN.txt	COIN	9	18	[0, 0, 0]	n/a	FR1	4	R1065J
1811.385	2.45	1893999	WORD	n/a	wordpools/wordpool_EN.txt	BEAN	10	18	[0, 0, 0]	n/a	FR1	4	R1065J
1813.835	2.55	1896450	WORD	n/a	wordpools/wordpool_EN.txt	RICE	11	18	[0, 0, 0]	n/a	FR1	4	R1065J
1816.385	1.617	1899000	WORD	n/a	wordpools/wordpool_EN.txt	MOOSE	12	18	[0, 0, 0]	n/a	FR1	4	R1065J
1818.002	0.001	1900617	DISTRACT_START	n/a	n/a	n/a	-999	18	[0, 0, 0]	n/a	FR1	4	R1065J
1818.003	0.016	1900618	START	n/a	n/a	n/a	-999	18	[-999, -999, -999]	n/a	FR1	4	R1065J
1818.019	2.984	1900634	PROB	2.984	n/a	n/a	-999	18	[9, 8, 3]	20	FR1	4	R1065J
1821.003	1.618	1903618	PROB	1.618	n/a	n/a	-999	18	[5, 5, 1]	11	FR1	4	R1065J
1822.621	1.916	1905236	PROB	1.916	n/a	n/a	-999	18	[7, 1, 1]	9	FR1	4	R1065J
1824.537	2.233	1907152	PROB	2.233	n/a	n/a	-999	18	[3, 5, 6]	14	FR1	4	R1065J
1826.77	1.851	1909385	PROB	1.851	n/a	n/a	-999	18	[3, 9, 1]	13	FR1	4	R1065J
1828.621	2.416	1911237	PROB	2.416	n/a	n/a	-999	18	[7, 6, 3]	16	FR1	4	R1065J
1831.037	2.801	1913653	PROB	2.801	n/a	n/a	-999	18	[6, 7, 9]	22	FR1	4	R1065J
1833.838	2.183	1916454	PROB	2.183	n/a	n/a	-999	18	[6, 9, 7]	22	FR1	4	R1065J
1836.021	1.784	1918637	PROB	1.784	n/a	n/a	-999	18	[7, 7, 7]	21	FR1	4	R1065J
1837.805	2.033	1920421	PROB	2.033	n/a	n/a	-999	18	[2, 2, 9]	13	FR1	4	R1065J
1839.838	0.017	1922454	STOP	n/a	n/a	n/a	-999	18	[-999, -999, -999]	n/a	FR1	4	R1065J
1839.855	1.185	1922471	DISTRACT_END	n/a	n/a	n/a	-999	18	[0, 0, 0]	n/a	FR1	4	R1065J
1841.04	2.665	1923656	REC_START	n/a	n/a	n/a	-999	18	[0, 0, 0]	n/a	FR1	4	R1065J
1843.705	1.862	1926322	REC_WORD	1.862	n/a	BEAN	-999	18	[0, 0, 0]	n/a	FR1	4	R1065J
1845.567	2.627	1928184	REC_WORD	2.627	n/a	RICE	-999	18	[0, 0, 0]	n/a	FR1	4	R1065J
1848.194	1.698	1930811	REC_WORD	1.698	n/a	CHIEF	-999	18	[0, 0, 0]	n/a	FR1	4	R1065J
1849.892	15.802	1932509	REC_WORD	15.802	n/a	JUDGE	-999	18	[0, 0, 0]	n/a	FR1	4	R1065J
1865.694	5.358	1948312	REC_WORD	5.358	n/a	COIN	-999	18	[0, 0, 0]	n/a	FR1	4	R1065J
1871.052	2.658	1953670	REC_END	n/a	n/a	n/a	-999	18	[0, 0, 0]	n/a	FR1	4	R1065J
1873.71	0.0	1956329	TRIAL	n/a	n/a	n/a	-999	19	[0, 0, 0]	n/a	FR1	4	R1065J
1873.71	10.428	1956329	COUNTDOWN_START	n/a	n/a	n/a	-999	19	[0, 0, 0]	n/a	FR1	4	R1065J
1884.138	0.007	1966757	COUNTDOWN_END	n/a	n/a	n/a	-999	19	[0, 0, 0]	n/a	FR1	4	R1065J
1884.145	2.468	1966764	ORIENT	n/a	n/a	n/a	-999	19	[0, 0, 0]	n/a	FR1	4	R1065J
1886.613	2.466	1969232	WORD	n/a	wordpools/wordpool_EN.txt	STICK	1	19	[0, 0, 0]	n/a	FR1	4	R1065J
1889.079	2.617	1971699	WORD	n/a	wordpools/wordpool_EN.txt	PEARL	2	19	[0, 0, 0]	n/a	FR1	4	R1065J
1891.696	2.517	1974316	WORD	n/a	wordpools/wordpool_EN.txt	NAIL	3	19	[0, 0, 0]	n/a	FR1	4	R1065J
1894.213	2.45	1976833	WORD	n/a	wordpools/wordpool_EN.txt	BEAK	4	19	[0, 0, 0]	n/a	FR1	4	R1065J
1896.663	2.517	1979283	WORD	n/a	wordpools/wordpool_EN.txt	SEAL	5	19	[0, 0, 0]	n/a	FR1	4	R1065J
1899.18	2.435	1981800	WORD	n/a	wordpools/wordpool_EN.txt	PIN	6	19	[0, 0, 0]	n/a	FR1	4	R1065J
1901.615	2.466	1984235	WORD	n/a	wordpools/wordpool_EN.txt	WOLF	7	19	[0, 0, 0]	n/a	FR1	4	R1065J
1904.081	2.568	1986702	WORD	n/a	wordpools/wordpool_EN.txt	HAND	8	19	[0, 0, 0]	n/a	FR1	4	R1065J
1906.649	2.533	1989270	WORD	n/a	wordpools/wordpool_EN.txt	BOX	9	19	[0, 0, 0]	n/a	FR1	4	R1065J
1909.182	2.484	1991803	WORD	n/a	wordpools/wordpool_EN.txt	CAVE	10	19	[0, 0, 0]	n/a	FR1	4	R1065J
1911.666	2.466	1994287	WORD	n/a	wordpools/wordpool_EN.txt	ZOO	11	19	[0, 0, 0]	n/a	FR1	4	R1065J
1914.132	1.617	1996753	WORD	n/a	wordpools/wordpool_EN.txt	CALF	12	19	[0, 0, 0]	n/a	FR1	4	R1065J
1915.749	0.001	1998370	DISTRACT_START	n/a	n/a	n/a	-999	19	[0, 0, 0]	n/a	FR1	4	R1065J
1915.75	0.016	1998371	START	n/a	n/a	n/a	-999	19	[-999, -999, -999]	n/a	FR1	4	R1065J
1915.766	2.367	1998387	PROB	2.367	n/a	n/a	-999	19	[5, 5, 1]	11	FR1	4	R1065J
1918.133	2.734	2000755	PROB	2.734	n/a	n/a	-999	19	[5, 3, 4]	12	FR1	4	R1065J
1920.867	2.734	2003489	PROB	2.734	n/a	n/a	-999	19	[3, 6, 7]	16	FR1	4	R1065J
1923.601	1.934	2006223	PROB	1.934	n/a	n/a	-999	19	[9, 9, 6]	24	FR1	4	R1065J
1925.535	2.8	2008157	PROB	2.8	n/a	n/a	-999	19	[7, 4, 3]	14	FR1	4	R1065J
1928.335	1.9	2010957	PROB	1.9	n/a	n/a	-999	19	[8, 5, 8]	21	FR1	4	R1065J
1930.235	2.368	2012857	PROB	2.368	n/a	n/a	-999	19	[3, 4, 8]	15	FR1	4	R1065J
1932.603	2.082	2015226	PROB	2.082	n/a	n/a	-999	19	[2, 4, 1]	7	FR1	4	R1065J
1934.685	2.103	2017308	PROB	2.103	n/a	n/a	-999	19	[3, 9, 7]	19	FR1	4	R1065J
1936.788	0.014	2019411	STOP	n/a	n/a	n/a	-999	19	[-999, -999, -999]	n/a	FR1	4	R1065J
1936.802	1.185	2019425	DISTRACT_END	n/a	n/a	n/a	-999	19	[0, 0, 0]	n/a	FR1	4	R1065J
1937.987	2.527	2020610	REC_START	n/a	n/a	n/a	-999	19	[0, 0, 0]	n/a	FR1	4	R1065J
1940.514	2.881	2023137	REC_WORD	2.881	n/a	BOX	-999	19	[0, 0, 0]	n/a	FR1	4	R1065J
1943.395	4.01	2026018	REC_WORD	4.01	n/a	CAVE	-999	19	[0, 0, 0]	n/a	FR1	4	R1065J
1947.405	20.594	2030029	REC_WORD	20.594	n/a	ZOO	-999	19	[0, 0, 0]	n/a	FR1	4	R1065J
1967.999	2.258	2050624	REC_END	n/a	n/a	n/a	-999	19	[0, 0, 0]	n/a	FR1	4	R1065J
1970.257	0.0	2052882	COUNTDOWN_START	n/a	n/a	n/a	-999	20	[0, 0, 0]	n/a	FR1	4	R1065J
1970.257	10.428	2052882	TRIAL	n/a	n/a	n/a	-999	20	[0, 0, 0]	n/a	FR1	4	R1065J
1980.685	0.007	2063311	COUNTDOWN_END	n/a	n/a	n/a	-999	20	[0, 0, 0]	n/a	FR1	4	R1065J
1980.692	2.634	2063318	ORIENT	n/a	n/a	n/a	-999	20	[0, 0, 0]	n/a	FR1	4	R1065J
1983.326	2.517	2065952	WORD	n/a	wordpools/wordpool_EN.txt	LOCK	1	20	[0, 0, 0]	n/a	FR1	4	R1065J
1985.843	2.567	2068469	WORD	n/a	wordpools/wordpool_EN.txt	VEST	2	20	[0, 0, 0]	n/a	FR1	4	R1065J
1988.41	2.45	2071036	WORD	n/a	wordpools/wordpool_EN.txt	HOUSE	3	20	[0, 0, 0]	n/a	FR1	4	R1065J
1990.86	2.601	2073486	WORD	n/a	wordpools/wordpool_EN.txt	ROOM	4	20	[0, 0, 0]	n/a	FR1	4	R1065J
1993.461	2.45	2076088	WORD	n/a	wordpools/wordpool_EN.txt	LAMB	5	20	[0, 0, 0]	n/a	FR1	4	R1065J
1995.911	2.45	2078538	WORD	n/a	wordpools/wordpool_EN.txt	ROSE	6	20	[0, 0, 0]	n/a	FR1	4	R1065J
1998.361	2.534	2080988	WORD	n/a	wordpools/wordpool_EN.txt	SKY	7	20	[0, 0, 0]	n/a	FR1	4	R1065J
2000.895	2.517	2083522	WORD	n/a	wordpools/wordpool_EN.txt	MUG	8	20	[0, 0, 0]	n/a	FR1	4	R1065J
2003.412	2.517	2086039	WORD	n/a	wordpools/wordpool_EN.txt	WALL	9	20	[0, 0, 0]	n/a	FR1	4	R1065J
2005.929	2.4	2088556	WORD	n/a	wordpools/wordpool_EN.txt	TEA	10	20	[0, 0, 0]	n/a	FR1	4	R1065J
2008.329	2.467	2090957	WORD	n/a	wordpools/wordpool_EN.txt	HOOF	11	20	[0, 0, 0]	n/a	FR1	4	R1065J
2010.796	1.617	2093424	WORD	n/a	wordpools/wordpool_EN.txt	BOWL	12	20	[0, 0, 0]	n/a	FR1	4	R1065J
2012.413	0.001	2095041	DISTRACT_START	n/a	n/a	n/a	-999	20	[0, 0, 0]	n/a	FR1	4	R1065J
2012.414	0.016	2095042	START	n/a	n/a	n/a	-999	20	[-999, -999, -999]	n/a	FR1	4	R1065J
2012.43	2.583	2095058	PROB	2.583	n/a	n/a	-999	20	[5, 3, 2]	10	FR1	4	R1065J
2015.013	2.602	2097641	PROB	2.602	n/a	n/a	-999	20	[2, 7, 1]	10	FR1	4	R1065J
2017.615	2.049	2100243	PROB	2.049	n/a	n/a	-999	20	[7, 2, 3]	12	FR1	4	R1065J
2019.664	3.151	2102292	PROB	3.151	n/a	n/a	-999	20	[4, 3, 7]	14	FR1	4	R1065J
2022.815	4.05	2105444	PROB	4.05	n/a	n/a	-999	20	[1, 7, 5]	13	FR1	4	R1065J
2026.865	1.967	2109494	PROB	1.967	n/a	n/a	-999	20	[3, 9, 1]	13	FR1	4	R1065J
2028.832	1.917	2111461	PROB	1.917	n/a	n/a	-999	20	[8, 2, 2]	12	FR1	4	R1065J
2030.749	1.98	2113378	PROB	1.98	n/a	n/a	-999	20	[2, 7, 3]	12	FR1	4	R1065J
2032.729	0.003	2115358	STOP	n/a	n/a	n/a	-999	20	[-999, -999, -999]	n/a	FR1	4	R1065J
2032.732	1.034	2115361	DISTRACT_END	n/a	n/a	n/a	-999	20	[0, 0, 0]	n/a	FR1	4	R1065J
2033.766	2.267	2116395	REC_START	n/a	n/a	n/a	-999	20	[0, 0, 0]	n/a	FR1	4	R1065J
2036.033	3.215	2118662	REC_WORD	3.215	n/a	HOOF	-999	20	[0, 0, 0]	n/a	FR1	4	R1065J
2039.248	3.05	2121878	REC_WORD	3.05	n/a	BOWL	-999	20	[0, 0, 0]	n/a	FR1	4	R1065J
2042.298	2.26	2124928	REC_WORD	2.26	n/a	SKY	-999	20	[0, 0, 0]	n/a	FR1	4	R1065J
2044.558	2.376	2127188	REC_WORD	2.376	n/a	ROOM	-999	20	[0, 0, 0]	n/a	FR1	4	R1065J
2046.934	2.698	2129564	REC_WORD	2.698	n/a	HOUSE	-999	20	[0, 0, 0]	n/a	FR1	4	R1065J
2049.632	14.151	2132262	REC_WORD	14.151	n/a	ROSE	-999	20	[0, 0, 0]	n/a	FR1	4	R1065J
2063.783	2.588	2146414	REC_END	n/a	n/a	n/a	-999	20	[0, 0, 0]	n/a	FR1	4	R1065J
2066.371	0.0	2149002	TRIAL	n/a	n/a	n/a	-999	21	[0, 0, 0]	n/a	FR1	4	R1065J
2066.371	10.428	2149002	COUNTDOWN_START	n/a	n/a	n/a	-999	21	[0, 0, 0]	n/a	FR1	4	R1065J
2076.799	0.007	2159431	COUNTDOWN_END	n/a	n/a	n/a	-999	21	[0, 0, 0]	n/a	FR1	4	R1065J
2076.806	2.383	2159438	ORIENT	n/a	n/a	n/a	-999	21	[0, 0, 0]	n/a	FR1	4	R1065J
2079.189	2.385	2161821	WORD	n/a	wordpools/wordpool_EN.txt	RUG	1	21	[0, 0, 0]	n/a	FR1	4	R1065J
2081.574	2.566	2164207	WORD	n/a	wordpools/wordpool_EN.txt	YARD	2	21	[0, 0, 0]	n/a	FR1	4	R1065J
2084.14	2.6	2166773	WORD	n/a	wordpools/wordpool_EN.txt	HOLE	3	21	[0, 0, 0]	n/a	FR1	4	R1065J
2086.74	2.467	2169373	WORD	n/a	wordpools/wordpool_EN.txt	WHALE	4	21	[0, 0, 0]	n/a	FR1	4	R1065J
2089.207	2.501	2171840	WORD	n/a	wordpools/wordpool_EN.txt	HILL	5	21	[0, 0, 0]	n/a	FR1	4	R1065J
2091.708	2.5	2174341	WORD	n/a	wordpools/wordpool_EN.txt	ROOF	6	21	[0, 0, 0]	n/a	FR1	4	R1065J
2094.208	2.5	2176841	WORD	n/a	wordpools/wordpool_EN.txt	ANT	7	21	[0, 0, 0]	n/a	FR1	4	R1065J
2096.708	2.534	2179342	WORD	n/a	wordpools/wordpool_EN.txt	CAGE	8	21	[0, 0, 0]	n/a	FR1	4	R1065J
2099.242	2.584	2181876	WORD	n/a	wordpools/wordpool_EN.txt	TOAD	9	21	[0, 0, 0]	n/a	FR1	4	R1065J
2101.826	2.45	2184460	WORD	n/a	wordpools/wordpool_EN.txt	MOUTH	10	21	[0, 0, 0]	n/a	FR1	4	R1065J
2104.276	2.434	2186910	WORD	n/a	wordpools/wordpool_EN.txt	MOLE	11	21	[0, 0, 0]	n/a	FR1	4	R1065J
2106.71	1.617	2189344	WORD	n/a	wordpools/wordpool_EN.txt	SHELL	12	21	[0, 0, 0]	n/a	FR1	4	R1065J
2108.327	0.0	2190961	DISTRACT_START	n/a	n/a	n/a	-999	21	[0, 0, 0]	n/a	FR1	4	R1065J
2108.327	0.016	2190961	START	n/a	n/a	n/a	-999	21	[-999, -999, -999]	n/a	FR1	4	R1065J
2108.343	4.384	2190977	PROB	4.384	n/a	n/a	-999	21	[4, 8, 7]	19	FR1	4	R1065J
2112.727	1.902	2195362	PROB	1.902	n/a	n/a	-999	21	[1, 9, 6]	16	FR1	4	R1065J
2114.629	1.882	2197264	PROB	1.882	n/a	n/a	-999	21	[6, 5, 3]	14	FR1	4	R1065J
2116.511	1.851	2199146	PROB	1.851	n/a	n/a	-999	21	[5, 3, 5]	13	FR1	4	R1065J
2118.362	2.284	2200997	PROB	2.284	n/a	n/a	-999	21	[1, 5, 6]	12	FR1	4	R1065J
2120.646	2.001	2203281	PROB	2.001	n/a	n/a	-999	21	[4, 1, 2]	7	FR1	4	R1065J
2122.647	2.615	2205282	PROB	2.615	n/a	n/a	-999	21	[5, 7, 8]	25	FR1	4	R1065J
2125.262	3.881	2207897	PROB	3.881	n/a	n/a	-999	21	[1, 6, 9]	16	FR1	4	R1065J
2129.143	0.003	2211779	STOP	n/a	n/a	n/a	-999	21	[-999, -999, -999]	n/a	FR1	4	R1065J
2129.146	1.068	2211782	DISTRACT_END	n/a	n/a	n/a	-999	21	[0, 0, 0]	n/a	FR1	4	R1065J
2130.214	1.877	2212850	REC_START	n/a	n/a	n/a	-999	21	[0, 0, 0]	n/a	FR1	4	R1065J
2132.091	2.317	2214727	REC_WORD	2.317	n/a	TOAD	-999	21	[0, 0, 0]	n/a	FR1	4	R1065J
2134.408	2.658	2217044	REC_WORD	2.658	n/a	HOLE	-999	21	[0, 0, 0]	n/a	FR1	4	R1065J
2137.066	3.241	2219702	REC_WORD	3.241	n/a	ANT	-999	21	[0, 0, 0]	n/a	FR1	4	R1065J
2140.307	12.552	2222943	REC_WORD	12.552	n/a	LAWN	-999	21	[0, 0, 0]	n/a	FR1	4	R1065J
2152.859	7.367	2235496	REC_WORD	7.367	n/a	ROOF	-999	21	[0, 0, 0]	n/a	FR1	4	R1065J
2160.226	2.142	2242864	REC_END	n/a	n/a	n/a	-999	21	[0, 0, 0]	n/a	FR1	4	R1065J
2162.368	0.0	2245006	TRIAL	n/a	n/a	n/a	-999	22	[0, 0, 0]	n/a	FR1	4	R1065J
2162.368	10.428	2245006	COUNTDOWN_START	n/a	n/a	n/a	-999	22	[0, 0, 0]	n/a	FR1	4	R1065J
2172.796	0.006	2255435	COUNTDOWN_END	n/a	n/a	n/a	-999	22	[0, 0, 0]	n/a	FR1	4	R1065J
2172.802	2.601	2255441	ORIENT	n/a	n/a	n/a	-999	22	[0, 0, 0]	n/a	FR1	4	R1065J
2175.403	2.434	2258042	WORD	n/a	wordpools/wordpool_EN.txt	RAKE	1	22	[0, 0, 0]	n/a	FR1	4	R1065J
2177.837	2.567	2260476	WORD	n/a	wordpools/wordpool_EN.txt	CROWN	2	22	[0, 0, 0]	n/a	FR1	4	R1065J
2180.404	2.617	2263043	WORD	n/a	wordpools/wordpool_EN.txt	TOOTH	3	22	[0, 0, 0]	n/a	FR1	4	R1065J
2183.021	2.568	2265660	WORD	n/a	wordpools/wordpool_EN.txt	TOE	4	22	[0, 0, 0]	n/a	FR1	4	R1065J
2185.589	2.432	2268228	WORD	n/a	wordpools/wordpool_EN.txt	CORN	5	22	[0, 0, 0]	n/a	FR1	4	R1065J
2188.021	2.602	2270661	WORD	n/a	wordpools/wordpool_EN.txt	GUARD	6	22	[0, 0, 0]	n/a	FR1	4	R1065J
2190.623	2.482	2273263	WORD	n/a	wordpools/wordpool_EN.txt	DESK	7	22	[0, 0, 0]	n/a	FR1	4	R1065J
2193.105	2.551	2275745	WORD	n/a	wordpools/wordpool_EN.txt	TEETH	8	22	[0, 0, 0]	n/a	FR1	4	R1065J
2195.656	2.4	2278296	WORD	n/a	wordpools/wordpool_EN.txt	TOOL	9	22	[0, 0, 0]	n/a	FR1	4	R1065J
2198.056	2.518	2280696	WORD	n/a	wordpools/wordpool_EN.txt	BRIDGE	10	22	[0, 0, 0]	n/a	FR1	4	R1065J
2200.574	2.55	2283214	WORD	n/a	wordpools/wordpool_EN.txt	WHEEL	11	22	[0, 0, 0]	n/a	FR1	4	R1065J
2203.124	1.616	2285765	WORD	n/a	wordpools/wordpool_EN.txt	CUBE	12	22	[0, 0, 0]	n/a	FR1	4	R1065J
2204.74	0.001	2287381	DISTRACT_START	n/a	n/a	n/a	-999	22	[0, 0, 0]	n/a	FR1	4	R1065J
2204.741	0.016	2287382	START	n/a	n/a	n/a	-999	22	[-999, -999, -999]	n/a	FR1	4	R1065J
2204.757	4.001	2287398	PROB	4.001	n/a	n/a	-999	22	[3, 5, 6]	14	FR1	4	R1065J
2208.758	2.35	2291399	PROB	2.35	n/a	n/a	-999	22	[4, 3, 5]	12	FR1	4	R1065J
2211.108	2.184	2293749	PROB	2.184	n/a	n/a	-999	22	[1, 7, 8]	16	FR1	4	R1065J
2213.292	2.5	2295933	PROB	2.5	n/a	n/a	-999	22	[4, 4, 6]	16	FR1	4	R1065J
2215.792	3.084	2298433	PROB	3.084	n/a	n/a	-999	22	[9, 8, 4]	21	FR1	4	R1065J
2218.876	2.617	2301518	PROB	2.617	n/a	n/a	-999	22	[3, 8, 3]	14	FR1	4	R1065J
2221.493	2.283	2304135	PROB	2.283	n/a	n/a	-999	22	[9, 7, 9]	25	FR1	4	R1065J
2223.776	2.884	2306418	PROB	2.884	n/a	n/a	-999	22	[9, 5, 3]	17	FR1	4	R1065J
2226.66	0.017	2309302	STOP	n/a	n/a	n/a	-999	22	[-999, -999, -999]	n/a	FR1	4	R1065J
2226.677	1.201	2309319	DISTRACT_END	n/a	n/a	n/a	-999	22	[0, 0, 0]	n/a	FR1	4	R1065J
2227.878	30.0	2310520	REC_START	n/a	n/a	n/a	-999	22	[0, 0, 0]	n/a	FR1	4	R1065J
2257.878	0.01	2340522	REC_WORD_VV	0.01	n/a	<>	-999	22	[0, 0, 0]	n/a	FR1	4	R1065J
2257.888	3.611	2340532	REC_END	n/a	n/a	n/a	-999	22	[0, 0, 0]	n/a	FR1	4	R1065J
2261.499	0.0	2344144	TRIAL	n/a	n/a	n/a	-999	23	[0, 0, 0]	n/a	FR1	4	R1065J
2261.499	10.428	2344144	COUNTDOWN_START	n/a	n/a	n/a	-999	23	[0, 0, 0]	n/a	FR1	4	R1065J
2271.927	0.006	2354572	COUNTDOWN_END	n/a	n/a	n/a	-999	23	[0, 0, 0]	n/a	FR1	4	R1065J
2271.933	2.501	2354578	ORIENT	n/a	n/a	n/a	-999	23	[0, 0, 0]	n/a	FR1	4	R1065J
2274.434	2.4	2357079	WORD	n/a	wordpools/wordpool_EN.txt	COW	1	23	[0, 0, 0]	n/a	FR1	4	R1065J
2276.834	2.6	2359480	WORD	n/a	wordpools/wordpool_EN.txt	PHONE	2	23	[0, 0, 0]	n/a	FR1	4	R1065J
2279.434	2.401	2362080	WORD	n/a	wordpools/wordpool_EN.txt	BOY	3	23	[0, 0, 0]	n/a	FR1	4	R1065J
2281.835	2.4	2364481	WORD	n/a	wordpools/wordpool_EN.txt	PIE	4	23	[0, 0, 0]	n/a	FR1	4	R1065J
2284.235	2.385	2366881	WORD	n/a	wordpools/wordpool_EN.txt	BREAD	5	23	[0, 0, 0]	n/a	FR1	4	R1065J
2286.62	2.582	2369266	WORD	n/a	wordpools/wordpool_EN.txt	PURSE	6	23	[0, 0, 0]	n/a	FR1	4	R1065J
2289.202	2.402	2371848	WORD	n/a	wordpools/wordpool_EN.txt	WORLD	7	23	[0, 0, 0]	n/a	FR1	4	R1065J
2291.604	2.566	2374251	WORD	n/a	wordpools/wordpool_EN.txt	CLOCK	8	23	[0, 0, 0]	n/a	FR1	4	R1065J
2294.17	2.451	2376817	WORD	n/a	wordpools/wordpool_EN.txt	DRESS	9	23	[0, 0, 0]	n/a	FR1	4	R1065J
2296.621	2.583	2379268	WORD	n/a	wordpools/wordpool_EN.txt	SCHOOL	10	23	[0, 0, 0]	n/a	FR1	4	R1065J
2299.204	2.566	2381851	WORD	n/a	wordpools/wordpool_EN.txt	CHIN	11	23	[0, 0, 0]	n/a	FR1	4	R1065J
2301.77	1.618	2384417	WORD	n/a	wordpools/wordpool_EN.txt	FLOOR	12	23	[0, 0, 0]	n/a	FR1	4	R1065J
2303.388	0.001	2386035	DISTRACT_START	n/a	n/a	n/a	-999	23	[0, 0, 0]	n/a	FR1	4	R1065J
2303.389	0.015	2386036	START	n/a	n/a	n/a	-999	23	[-999, -999, -999]	n/a	FR1	4	R1065J
2303.404	3.001	2386051	PROB	3.001	n/a	n/a	-999	23	[8, 2, 8]	18	FR1	4	R1065J
2306.405	1.833	2389053	PROB	1.833	n/a	n/a	-999	23	[1, 6, 1]	8	FR1	4	R1065J
2308.238	1.667	2390886	PROB	1.667	n/a	n/a	-999	23	[1, 3, 1]	5	FR1	4	R1065J
2309.905	2.15	2392553	PROB	2.15	n/a	n/a	-999	23	[5, 8, 3]	16	FR1	4	R1065J
2312.055	1.934	2394703	PROB	1.934	n/a	n/a	-999	23	[4, 1, 5]	10	FR1	4	R1065J
2313.989	2.017	2396637	PROB	2.017	n/a	n/a	-999	23	[5, 7, 9]	21	FR1	4	R1065J
2316.006	2.517	2398654	PROB	2.517	n/a	n/a	-999	23	[3, 3, 9]	15	FR1	4	R1065J
2318.523	2.151	2401171	PROB	2.151	n/a	n/a	-999	23	[2, 3, 6]	11	FR1	4	R1065J
2320.674	2.0	2403323	PROB	2.0	n/a	n/a	-999	23	[6, 8, 2]	16	FR1	4	R1065J
2322.674	2.695	2405323	PROB	2.695	n/a	n/a	-999	23	[8, 7, 6]	21	FR1	4	R1065J
2325.369	0.005	2408018	STOP	n/a	n/a	n/a	-999	23	[-999, -999, -999]	n/a	FR1	4	R1065J
2325.374	1.134	2408023	DISTRACT_END	n/a	n/a	n/a	-999	23	[0, 0, 0]	n/a	FR1	4	R1065J
2326.508	2.208	2409157	REC_START	n/a	n/a	n/a	-999	23	[0, 0, 0]	n/a	FR1	4	R1065J
2328.716	1.436	2411365	REC_WORD	1.436	n/a	BOY	-999	23	[0, 0, 0]	n/a	FR1	4	R1065J
2330.152	3.1	2412801	REC_WORD	3.1	n/a	PHONE	-999	23	[0, 0, 0]	n/a	FR1	4	R1065J
2333.252	4.175	2415901	REC_WORD	4.175	n/a	PIE	-999	23	[0, 0, 0]	n/a	FR1	4	R1065J
2337.427	12.372	2420077	REC_WORD	12.372	n/a	FLOOR	-999	23	[0, 0, 0]	n/a	FR1	4	R1065J
2349.799	6.727	2432449	REC_WORD	6.727	n/a	WORLD	-999	23	[0, 0, 0]	n/a	FR1	4	R1065J
2356.526	2.037	2439177	REC_END	n/a	n/a	n/a	-999	23	[0, 0, 0]	n/a	FR1	4	R1065J
2358.563	0.0	2441214	TRIAL	n/a	n/a	n/a	-999	24	[0, 0, 0]	n/a	FR1	4	R1065J
2358.563	10.428	2441214	COUNTDOWN_START	n/a	n/a	n/a	-999	24	[0, 0, 0]	n/a	FR1	4	R1065J
2368.991	0.006	2451643	COUNTDOWN_END	n/a	n/a	n/a	-999	24	[0, 0, 0]	n/a	FR1	4	R1065J
2368.997	2.601	2451649	ORIENT	n/a	n/a	n/a	-999	24	[0, 0, 0]	n/a	FR1	4	R1065J
2371.598	2.4	2454250	WORD	n/a	wordpools/wordpool_EN.txt	STEAK	1	24	[0, 0, 0]	n/a	FR1	4	R1065J
2373.998	2.5	2456650	WORD	n/a	wordpools/wordpool_EN.txt	EGG	2	24	[0, 0, 0]	n/a	FR1	4	R1065J
2376.498	2.417	2459150	WORD	n/a	wordpools/wordpool_EN.txt	BLOOM	3	24	[0, 0, 0]	n/a	FR1	4	R1065J
2378.915	2.618	2461567	WORD	n/a	wordpools/wordpool_EN.txt	PEAR	4	24	[0, 0, 0]	n/a	FR1	4	R1065J
2381.533	2.516	2464186	WORD	n/a	wordpools/wordpool_EN.txt	FOOD	5	24	[0, 0, 0]	n/a	FR1	4	R1065J
2384.049	2.601	2466702	WORD	n/a	wordpools/wordpool_EN.txt	SLEEVE	6	24	[0, 0, 0]	n/a	FR1	4	R1065J
2386.65	2.533	2469303	WORD	n/a	wordpools/wordpool_EN.txt	ELF	7	24	[0, 0, 0]	n/a	FR1	4	R1065J
2389.183	2.584	2471836	WORD	n/a	wordpools/wordpool_EN.txt	GEESE	8	24	[0, 0, 0]	n/a	FR1	4	R1065J
2391.767	2.383	2474420	WORD	n/a	wordpools/wordpool_EN.txt	BAG	9	24	[0, 0, 0]	n/a	FR1	4	R1065J
2394.15	2.435	2476803	WORD	n/a	wordpools/wordpool_EN.txt	SPRING	10	24	[0, 0, 0]	n/a	FR1	4	R1065J
2396.585	2.566	2479239	WORD	n/a	wordpools/wordpool_EN.txt	MILK	11	24	[0, 0, 0]	n/a	FR1	4	R1065J
2399.151	1.617	2481805	WORD	n/a	wordpools/wordpool_EN.txt	FARM	12	24	[0, 0, 0]	n/a	FR1	4	R1065J
2400.768	0.001	2483422	DISTRACT_START	n/a	n/a	n/a	-999	24	[0, 0, 0]	n/a	FR1	4	R1065J
2400.769	0.016	2483423	START	n/a	n/a	n/a	-999	24	[-999, -999, -999]	n/a	FR1	4	R1065J
2400.785	2.835	2483439	PROB	2.835	n/a	n/a	-999	24	[9, 6, 2]	17	FR1	4	R1065J
2403.62	3.049	2486274	PROB	3.049	n/a	n/a	-999	24	[1, 8, 9]	18	FR1	4	R1065J
2406.669	1.885	2489323	PROB	1.885	n/a	n/a	-999	24	[1, 8, 5]	14	FR1	4	R1065J
2408.554	1.582	2491208	PROB	1.582	n/a	n/a	-999	24	[1, 3, 1]	5	FR1	4	R1065J
2410.136	1.817	2492790	PROB	1.817	n/a	n/a	-999	24	[9, 8, 1]	18	FR1	4	R1065J
2411.953	2.3	2494608	PROB	2.3	n/a	n/a	-999	24	[1, 4, 8]	13	FR1	4	R1065J
2414.253	2.767	2496908	PROB	2.767	n/a	n/a	-999	24	[2, 2, 3]	7	FR1	4	R1065J
2417.02	2.401	2499675	PROB	2.401	n/a	n/a	-999	24	[4, 3, 5]	12	FR1	4	R1065J
2419.421	2.386	2502076	PROB	2.386	n/a	n/a	-999	24	[1, 7, 7]	15	FR1	4	R1065J
2421.807	0.014	2504462	STOP	n/a	n/a	n/a	-999	24	[-999, -999, -999]	n/a	FR1	4	R1065J
2421.821	1.084	2504476	DISTRACT_END	n/a	n/a	n/a	-999	24	[0, 0, 0]	n/a	FR1	4	R1065J
2422.905	1.789	2505560	REC_START	n/a	n/a	n/a	-999	24	[0, 0, 0]	n/a	FR1	4	R1065J
2424.694	1.683	2507349	REC_WORD	1.683	n/a	BLOOM	-999	24	[0, 0, 0]	n/a	FR1	4	R1065J
2426.377	2.608	2509033	REC_WORD	2.608	n/a	SPRING	-999	24	[0, 0, 0]	n/a	FR1	4	R1065J
2428.985	11.803	2511641	REC_WORD	11.803	n/a	FOOD	-999	24	[0, 0, 0]	n/a	FR1	4	R1065J
2440.788	2.509	2523445	REC_WORD	2.509	n/a	MILK	-999	24	[0, 0, 0]	n/a	FR1	4	R1065J
2443.297	9.617	2525954	REC_WORD	9.617	n/a	STEAK	-999	24	[0, 0, 0]	n/a	FR1	4	R1065J
2452.914	2.212	2535571	REC_END	n/a	n/a	n/a	-999	24	[0, 0, 0]	n/a	FR1	4	R1065J
2455.126	0.0	2537784	TRIAL	n/a	n/a	n/a	-999	25	[0, 0, 0]	n/a	FR1	4	R1065J
2455.126	10.428	2537784	COUNTDOWN_START	n/a	n/a	n/a	-999	25	[0, 0, 0]	n/a	FR1	4	R1065J
2465.554	0.008	2548212	COUNTDOWN_END	n/a	n/a	n/a	-999	25	[0, 0, 0]	n/a	FR1	4	R1065J
2465.562	2.616	2548220	ORIENT	n/a	n/a	n/a	-999	25	[0, 0, 0]	n/a	FR1	4	R1065J
2468.178	2.5	2550836	WORD	n/a	wordpools/wordpool_EN.txt	SKI	1	25	[0, 0, 0]	n/a	FR1	4	R1065J
2470.678	2.617	2553337	WORD	n/a	wordpools/wordpool_EN.txt	BIRD	2	25	[0, 0, 0]	n/a	FR1	4	R1065J
2473.295	2.567	2555954	WORD	n/a	wordpools/wordpool_EN.txt	DOOR	3	25	[0, 0, 0]	n/a	FR1	4	R1065J
2475.862	2.584	2558521	WORD	n/a	wordpools/wordpool_EN.txt	OWL	4	25	[0, 0, 0]	n/a	FR1	4	R1065J
2478.446	2.417	2561105	WORD	n/a	wordpools/wordpool_EN.txt	SOUP	5	25	[0, 0, 0]	n/a	FR1	4	R1065J
2480.863	2.583	2563522	WORD	n/a	wordpools/wordpool_EN.txt	STONE	6	25	[0, 0, 0]	n/a	FR1	4	R1065J
2483.446	2.484	2566105	WORD	n/a	wordpools/wordpool_EN.txt	MOUSE	7	25	[0, 0, 0]	n/a	FR1	4	R1065J
2485.93	2.417	2568590	WORD	n/a	wordpools/wordpool_EN.txt	CAKE	8	25	[0, 0, 0]	n/a	FR1	4	R1065J
2488.347	2.484	2571007	WORD	n/a	wordpools/wordpool_EN.txt	BROOM	9	25	[0, 0, 0]	n/a	FR1	4	R1065J
2490.831	2.567	2573491	WORD	n/a	wordpools/wordpool_EN.txt	SEED	10	25	[0, 0, 0]	n/a	FR1	4	R1065J
2493.398	2.434	2576058	WORD	n/a	wordpools/wordpool_EN.txt	GATE	11	25	[0, 0, 0]	n/a	FR1	4	R1065J
2495.832	1.617	2578492	WORD	n/a	wordpools/wordpool_EN.txt	WAND	12	25	[0, 0, 0]	n/a	FR1	4	R1065J
2497.449	0.0	2580109	DISTRACT_START	n/a	n/a	n/a	-999	25	[0, 0, 0]	n/a	FR1	4	R1065J
2497.449	0.016	2580109	START	n/a	n/a	n/a	-999	25	[-999, -999, -999]	n/a	FR1	4	R1065J
2497.465	2.467	2580125	PROB	2.467	n/a	n/a	-999	25	[1, 9, 2]	12	FR1	4	R1065J
2499.932	1.718	2582593	PROB	1.718	n/a	n/a	-999	25	[8, 1, 3]	12	FR1	4	R1065J
2501.65	1.934	2584311	PROB	1.934	n/a	n/a	-999	25	[8, 5, 7]	20	FR1	4	R1065J
2503.584	2.633	2586245	PROB	2.633	n/a	n/a	-999	25	[7, 7, 9]	23	FR1	4	R1065J
2506.217	2.368	2588878	PROB	2.368	n/a	n/a	-999	25	[4, 5, 3]	12	FR1	4	R1065J
2508.585	2.315	2591246	PROB	2.315	n/a	n/a	-999	25	[1, 1, 9]	11	FR1	4	R1065J
2510.9	1.801	2593561	PROB	1.801	n/a	n/a	-999	25	[6, 8, 8]	22	FR1	4	R1065J
2512.701	3.534	2595362	PROB	3.534	n/a	n/a	-999	25	[8, 6, 2]	16	FR1	4	R1065J
2516.235	2.137	2598897	PROB	2.137	n/a	n/a	-999	25	[3, 5, 7]	15	FR1	4	R1065J
2518.372	0.013	2601034	STOP	n/a	n/a	n/a	-999	25	[-999, -999, -999]	n/a	FR1	4	R1065J
2518.385	1.051	2601047	DISTRACT_END	n/a	n/a	n/a	-999	25	[0, 0, 0]	n/a	FR1	4	R1065J
2519.436	18.929	2602098	REC_START	n/a	n/a	n/a	-999	25	[0, 0, 0]	n/a	FR1	4	R1065J
2538.365	11.083	2621028	REC_WORD	11.083	n/a	WAND	-999	25	[0, 0, 0]	n/a	FR1	4	R1065J
2549.448	2.775	2632112	REC_END	n/a	n/a	n/a	-999	25	[0, 0, 0]	n/a	FR1	4	R1065J
2552.223	0.0	2634887	SESS_END	n/a	n/a	n/a	-999	25	[0, 0, 0]	n/a	FR1	4	R1065J
