onset	duration	sample	trial_type	response_time	stim_file	item_name	serialpos	list	test	answer	experiment	session	subject
0.0	1.341	4530	INSTRUCT_START	n/a	n/a	n/a	-999	-999	[0, 0, 0]	n/a	FR1	1	R1398J
1.341	60.074	5869	INSTRUCT_END	n/a	n/a	n/a	-999	-999	[0, 0, 0]	n/a	FR1	1	R1398J
61.415	10.364	65943	COUNTDOWN_START	n/a	n/a	n/a	-999	-999	[0, 0, 0]	n/a	FR1	1	R1398J
71.779	0.0	76309	COUNTDOWN_END	n/a	n/a	n/a	-999	-999	[0, 0, 0]	n/a	FR1	1	R1398J
71.779	1.987	76309	ENCODING_START	n/a	n/a	n/a	-999	-1	[0, 0, 0]	n/a	FR1	1	R1398J
73.766	1.615	78293	WORD	n/a	n/a	CUBE	1	-1	[0, 0, 0]	n/a	FR1	1	R1398J
75.381	0.868	79905	WORD_OFF	n/a	n/a	CUBE	1	-1	[0, 0, 0]	n/a	FR1	1	R1398J
76.249	1.616	80773	WORD	n/a	n/a	FARM	2	-1	[0, 0, 0]	n/a	FR1	1	R1398J
77.865	0.999	82393	WORD_OFF	n/a	n/a	FARM	2	-1	[0, 0, 0]	n/a	FR1	1	R1398J
78.864	1.601	83394	WORD	n/a	n/a	FLAME	3	-1	[0, 0, 0]	n/a	FR1	1	R1398J
80.465	0.834	84989	WORD_OFF	n/a	n/a	FLAME	3	-1	[0, 0, 0]	n/a	FR1	1	R1398J
81.299	1.615	85824	WORD	n/a	n/a	VAULT	4	-1	[0, 0, 0]	n/a	FR1	1	R1398J
82.914	0.951	87444	WORD_OFF	n/a	n/a	VAULT	4	-1	[0, 0, 0]	n/a	FR1	1	R1398J
83.865	1.616	88395	WORD	n/a	n/a	FACE	5	-1	[0, 0, 0]	n/a	FR1	1	R1398J
85.481	0.801	90007	WORD_OFF	n/a	n/a	FACE	5	-1	[0, 0, 0]	n/a	FR1	1	R1398J
86.282	1.6	90809	WORD	n/a	n/a	THIEF	6	-1	[0, 0, 0]	n/a	FR1	1	R1398J
87.882	0.8	92413	WORD_OFF	n/a	n/a	THIEF	6	-1	[0, 0, 0]	n/a	FR1	1	R1398J
88.682	1.6	93206	WORD	n/a	n/a	SMOG	7	-1	[0, 0, 0]	n/a	FR1	1	R1398J
90.282	0.966	94810	WORD_OFF	n/a	n/a	SMOG	7	-1	[0, 0, 0]	n/a	FR1	1	R1398J
91.248	1.6	95777	WORD	n/a	n/a	GIRL	8	-1	[0, 0, 0]	n/a	FR1	1	R1398J
92.848	0.9	97373	WORD_OFF	n/a	n/a	GIRL	8	-1	[0, 0, 0]	n/a	FR1	1	R1398J
93.748	1.6	98274	WORD	n/a	n/a	CHILD	9	-1	[0, 0, 0]	n/a	FR1	1	R1398J
95.348	0.783	99877	WORD_OFF	n/a	n/a	CHILD	9	-1	[0, 0, 0]	n/a	FR1	1	R1398J
96.131	1.601	100654	WORD	n/a	n/a	MOUSE	10	-1	[0, 0, 0]	n/a	FR1	1	R1398J
97.732	0.95	102258	WORD_OFF	n/a	n/a	MOUSE	10	-1	[0, 0, 0]	n/a	FR1	1	R1398J
98.682	1.616	103209	WORD	n/a	n/a	CHEST	11	-1	[0, 0, 0]	n/a	FR1	1	R1398J
100.298	0.767	104821	WORD_OFF	n/a	n/a	CHEST	11	-1	[0, 0, 0]	n/a	FR1	1	R1398J
101.065	1.618	105590	WORD	n/a	n/a	STOOL	12	-1	[0, 0, 0]	n/a	FR1	1	R1398J
102.683	0.0	107208	START	n/a	n/a	n/a	-999	-1	[-999, -999, -999]	n/a	FR1	1	R1398J
102.683	0.0	107208	PROB	0.0	n/a	n/a	-999	-1	[3, 4, 1]	8	FR1	1	R1398J
102.682	0.001	107210	WORD_OFF	n/a	n/a	STOOL	12	-1	[0, 0, 0]	n/a	FR1	1	R1398J
102.683	0.0	107210	ENCODING_END	n/a	n/a	n/a	-999	-1	[0, 0, 0]	n/a	FR1	1	R1398J
102.683	3.549	107210	DISTRACT_START	n/a	n/a	n/a	-999	-1	[0, 0, 0]	n/a	FR1	1	R1398J
106.232	3.8	110757	PROB	3.8	n/a	n/a	-999	-1	[6, 4, 1]	11	FR1	1	R1398J
110.032	3.083	114557	PROB	3.083	n/a	n/a	-999	-1	[6, 1, 4]	11	FR1	1	R1398J
113.115	4.351	117639	PROB	4.351	n/a	n/a	-999	-1	[8, 5, 7]	20	FR1	1	R1398J
117.466	4.15	121990	PROB	4.15	n/a	n/a	-999	-1	[3, 7, 4]	14	FR1	1	R1398J
121.616	2.999	126140	PROB	2.999	n/a	n/a	-999	-1	[4, 1, 2]	7	FR1	1	R1398J
124.615	0.0	129139	STOP	n/a	n/a	n/a	-999	-1	[-999, -999, -999]	n/a	FR1	1	R1398J
124.615	1.233	129141	DISTRACT_END	n/a	n/a	n/a	-999	-1	[0, 0, 0]	n/a	FR1	1	R1398J
125.848	0.878	130373	REC_START	n/a	n/a	n/a	-999	-1	[0, 0, 0]	n/a	FR1	1	R1398J
126.726	0.629	131250	REC_WORD_VV	0.629	n/a	<>	-999	-1	[0, 0, 0]	n/a	FR1	1	R1398J
127.355	0.685	131879	REC_WORD	0.685	n/a	GIRL	8	-1	[0, 0, 0]	n/a	FR1	1	R1398J
128.04	1.0	132564	REC_WORD	1.0	n/a	FACE	5	-1	[0, 0, 0]	n/a	FR1	1	R1398J
129.04	0.378	133564	REC_WORD_VV	0.378	n/a	<>	-999	-1	[0, 0, 0]	n/a	FR1	1	R1398J
129.418	0.43	133942	REC_WORD_VV	0.43	n/a	<>	-999	-1	[0, 0, 0]	n/a	FR1	1	R1398J
129.848	1.727	134372	REC_WORD	1.727	n/a	BARN	-999	-1	[0, 0, 0]	n/a	FR1	1	R1398J
131.575	6.42	136099	REC_WORD_VV	6.42	n/a	<>	-999	-1	[0, 0, 0]	n/a	FR1	1	R1398J
137.995	5.524	142518	REC_WORD	5.524	n/a	BOY	-999	-1	[0, 0, 0]	n/a	FR1	1	R1398J
143.519	4.801	148042	REC_WORD	4.801	n/a	CUBE	1	-1	[0, 0, 0]	n/a	FR1	1	R1398J
148.32	1.697	152843	REC_WORD_VV	1.697	n/a	<>	-999	-1	[0, 0, 0]	n/a	FR1	1	R1398J
150.017	4.346	154540	REC_WORD_VV	4.346	n/a	<>	-999	-1	[0, 0, 0]	n/a	FR1	1	R1398J
154.363	1.0	158886	REC_WORD_VV	1.0	n/a	<>	-999	-1	[0, 0, 0]	n/a	FR1	1	R1398J
155.363	1.73	159886	REC_WORD_VV	1.73	n/a	<>	-999	-1	[0, 0, 0]	n/a	FR1	1	R1398J
157.093	8.172	161613	REC_END	n/a	n/a	n/a	-999	-1	[0, 0, 0]	n/a	FR1	1	R1398J
165.265	10.365	169789	COUNTDOWN_START	n/a	n/a	n/a	-999	1	[0, 0, 0]	n/a	FR1	1	R1398J
175.63	0.0	180155	COUNTDOWN_END	n/a	n/a	n/a	-999	1	[0, 0, 0]	n/a	FR1	1	R1398J
175.63	2.069	180155	ENCODING_START	n/a	n/a	n/a	-999	1	[0, 0, 0]	n/a	FR1	1	R1398J
177.699	1.616	182222	WORD	n/a	wordpools/wordpool_long_EN.txt	WASP	1	1	[0, 0, 0]	n/a	FR1	1	R1398J
179.315	0.883	183842	WORD_OFF	n/a	n/a	WASP	1	1	[0, 0, 0]	n/a	FR1	1	R1398J
180.198	1.617	184718	WORD	n/a	wordpools/wordpool_long_EN.txt	SOAP	2	1	[0, 0, 0]	n/a	FR1	1	R1398J
181.815	0.984	186338	WORD_OFF	n/a	n/a	SOAP	2	1	[0, 0, 0]	n/a	FR1	1	R1398J
182.799	1.6	187322	WORD	n/a	wordpools/wordpool_long_EN.txt	POND	3	1	[0, 0, 0]	n/a	FR1	1	R1398J
184.399	0.8	188918	WORD_OFF	n/a	n/a	POND	3	1	[0, 0, 0]	n/a	FR1	1	R1398J
185.199	1.616	189719	WORD	n/a	wordpools/wordpool_long_EN.txt	SHARK	4	1	[0, 0, 0]	n/a	FR1	1	R1398J
186.815	0.934	191340	WORD_OFF	n/a	n/a	SHARK	4	1	[0, 0, 0]	n/a	FR1	1	R1398J
187.749	1.616	192274	WORD	n/a	wordpools/wordpool_long_EN.txt	SUN	5	1	[0, 0, 0]	n/a	FR1	1	R1398J
189.365	1.0	193886	WORD_OFF	n/a	n/a	SUN	5	1	[0, 0, 0]	n/a	FR1	1	R1398J
190.365	1.617	194886	WORD	n/a	wordpools/wordpool_long_EN.txt	TRIBE	6	1	[0, 0, 0]	n/a	FR1	1	R1398J
191.982	0.933	196506	WORD_OFF	n/a	n/a	TRIBE	6	1	[0, 0, 0]	n/a	FR1	1	R1398J
192.915	1.617	197440	WORD	n/a	wordpools/wordpool_long_EN.txt	SLEEVE	7	1	[0, 0, 0]	n/a	FR1	1	R1398J
194.532	0.95	199052	WORD_OFF	n/a	n/a	SLEEVE	7	1	[0, 0, 0]	n/a	FR1	1	R1398J
195.482	1.6	200003	WORD	n/a	wordpools/wordpool_long_EN.txt	BOY	8	1	[0, 0, 0]	n/a	FR1	1	R1398J
197.082	0.783	201607	WORD_OFF	n/a	n/a	BOY	8	1	[0, 0, 0]	n/a	FR1	1	R1398J
197.865	1.6	202384	WORD	n/a	wordpools/wordpool_long_EN.txt	PIT	9	1	[0, 0, 0]	n/a	FR1	1	R1398J
199.465	0.899	203988	WORD_OFF	n/a	n/a	PIT	9	1	[0, 0, 0]	n/a	FR1	1	R1398J
200.364	1.601	204889	WORD	n/a	wordpools/wordpool_long_EN.txt	SNAKE	10	1	[0, 0, 0]	n/a	FR1	1	R1398J
201.965	0.967	206484	WORD_OFF	n/a	n/a	SNAKE	10	1	[0, 0, 0]	n/a	FR1	1	R1398J
202.932	1.617	207451	WORD	n/a	wordpools/wordpool_long_EN.txt	LAMP	11	1	[0, 0, 0]	n/a	FR1	1	R1398J
204.549	1.0	209072	WORD_OFF	n/a	n/a	LAMP	11	1	[0, 0, 0]	n/a	FR1	1	R1398J
205.549	1.616	210072	WORD	n/a	wordpools/wordpool_long_EN.txt	SKUNK	12	1	[0, 0, 0]	n/a	FR1	1	R1398J
207.165	0.001	211684	WORD_OFF	n/a	n/a	SKUNK	12	1	[0, 0, 0]	n/a	FR1	1	R1398J
207.166	0.001	211687	PROB	0.001	n/a	n/a	-999	1	[3, 1, 5]	9	FR1	1	R1398J
207.167	0.0	211688	START	n/a	n/a	n/a	-999	1	[-999, -999, -999]	n/a	FR1	1	R1398J
207.167	0.0	211692	ENCODING_END	n/a	n/a	n/a	-999	1	[0, 0, 0]	n/a	FR1	1	R1398J
207.167	6.032	211692	DISTRACT_START	n/a	n/a	n/a	-999	1	[0, 0, 0]	n/a	FR1	1	R1398J
213.199	3.183	217719	PROB	3.183	n/a	n/a	-999	1	[1, 1, 8]	10	FR1	1	R1398J
216.382	3.95	220902	PROB	3.95	n/a	n/a	-999	1	[8, 8, 3]	19	FR1	1	R1398J
220.332	3.133	224852	PROB	3.133	n/a	n/a	-999	1	[3, 1, 3]	7	FR1	1	R1398J
223.465	8.567	227985	PROB	8.567	n/a	n/a	-999	1	[5, 1, 5]	11	FR1	1	R1398J
232.032	0.0	236550	DISTRACT_END	n/a	n/a	n/a	-999	1	[0, 0, 0]	n/a	FR1	1	R1398J
232.032	1.182	236551	STOP	n/a	n/a	n/a	-999	1	[-999, -999, -999]	n/a	FR1	1	R1398J
233.214	1.078	237732	REC_START	n/a	n/a	n/a	-999	1	[0, 0, 0]	n/a	FR1	1	R1398J
234.292	1.342	238811	REC_WORD_VV	1.342	n/a	<>	-999	1	[0, 0, 0]	n/a	FR1	1	R1398J
235.634	1.573	240153	REC_WORD	1.573	n/a	PIT	9	1	[0, 0, 0]	n/a	FR1	1	R1398J
237.207	0.979	241726	REC_WORD_VV	0.979	n/a	<>	-999	1	[0, 0, 0]	n/a	FR1	1	R1398J
238.186	1.882	242705	REC_WORD	1.882	n/a	SNAKE	10	1	[0, 0, 0]	n/a	FR1	1	R1398J
240.068	2.044	244587	REC_WORD	2.044	n/a	BOY	8	1	[0, 0, 0]	n/a	FR1	1	R1398J
242.112	10.105	246631	REC_WORD_VV	10.105	n/a	<>	-999	1	[0, 0, 0]	n/a	FR1	1	R1398J
252.217	2.098	256736	REC_WORD_VV	2.098	n/a	<>	-999	1	[0, 0, 0]	n/a	FR1	1	R1398J
254.315	2.878	258834	REC_WORD_VV	2.878	n/a	<>	-999	1	[0, 0, 0]	n/a	FR1	1	R1398J
257.193	7.233	261711	REC_WORD_VV	7.233	n/a	<>	-999	1	[0, 0, 0]	n/a	FR1	1	R1398J
264.426	1.888	268947	REC_END	n/a	n/a	n/a	-999	1	[0, 0, 0]	n/a	FR1	1	R1398J
266.314	10.366	270832	COUNTDOWN_START	n/a	n/a	n/a	-999	1	[0, 0, 0]	n/a	FR1	1	R1398J
276.68	0.0	281198	COUNTDOWN_END	n/a	n/a	n/a	-999	1	[0, 0, 0]	n/a	FR1	1	R1398J
276.68	1.985	281198	ENCODING_START	n/a	n/a	n/a	-999	2	[0, 0, 0]	n/a	FR1	1	R1398J
278.665	1.617	283182	WORD	n/a	wordpools/wordpool_long_EN.txt	POOL	1	2	[0, 0, 0]	n/a	FR1	1	R1398J
280.282	0.833	284803	WORD_OFF	n/a	n/a	POOL	1	2	[0, 0, 0]	n/a	FR1	1	R1398J
281.115	1.6	285638	WORD	n/a	wordpools/wordpool_long_EN.txt	INN	2	2	[0, 0, 0]	n/a	FR1	1	R1398J
282.715	0.833	287233	WORD_OFF	n/a	n/a	INN	2	2	[0, 0, 0]	n/a	FR1	1	R1398J
283.548	1.6	288068	WORD	n/a	wordpools/wordpool_long_EN.txt	BLADE	3	2	[0, 0, 0]	n/a	FR1	1	R1398J
285.148	0.8	289663	WORD_OFF	n/a	n/a	BLADE	3	2	[0, 0, 0]	n/a	FR1	1	R1398J
285.948	1.617	290465	WORD	n/a	wordpools/wordpool_long_EN.txt	DIME	4	2	[0, 0, 0]	n/a	FR1	1	R1398J
287.565	0.8	292086	WORD_OFF	n/a	n/a	DIME	4	2	[0, 0, 0]	n/a	FR1	1	R1398J
288.365	1.6	292883	WORD	n/a	wordpools/wordpool_long_EN.txt	MOUTH	5	2	[0, 0, 0]	n/a	FR1	1	R1398J
289.965	0.783	294483	WORD_OFF	n/a	n/a	MOUTH	5	2	[0, 0, 0]	n/a	FR1	1	R1398J
290.748	1.617	295268	WORD	n/a	wordpools/wordpool_long_EN.txt	BROOM	6	2	[0, 0, 0]	n/a	FR1	1	R1398J
292.365	1.0	296880	WORD_OFF	n/a	n/a	BROOM	6	2	[0, 0, 0]	n/a	FR1	1	R1398J
293.365	1.6	297880	WORD	n/a	wordpools/wordpool_long_EN.txt	TOY	7	2	[0, 0, 0]	n/a	FR1	1	R1398J
294.965	0.817	299484	WORD_OFF	n/a	n/a	TOY	7	2	[0, 0, 0]	n/a	FR1	1	R1398J
295.782	1.6	300303	WORD	n/a	wordpools/wordpool_long_EN.txt	FRIEND	8	2	[0, 0, 0]	n/a	FR1	1	R1398J
297.382	0.9	301898	WORD_OFF	n/a	n/a	FRIEND	8	2	[0, 0, 0]	n/a	FR1	1	R1398J
298.282	1.616	302799	WORD	n/a	wordpools/wordpool_long_EN.txt	SNAIL	9	2	[0, 0, 0]	n/a	FR1	1	R1398J
299.898	0.8	304419	WORD_OFF	n/a	n/a	SNAIL	9	2	[0, 0, 0]	n/a	FR1	1	R1398J
300.698	1.601	305213	WORD	n/a	wordpools/wordpool_long_EN.txt	FOOD	10	2	[0, 0, 0]	n/a	FR1	1	R1398J
302.299	0.849	306817	WORD_OFF	n/a	n/a	FOOD	10	2	[0, 0, 0]	n/a	FR1	1	R1398J
303.148	1.6	307668	WORD	n/a	wordpools/wordpool_long_EN.txt	SPOUSE	11	2	[0, 0, 0]	n/a	FR1	1	R1398J
304.748	0.816	309264	WORD_OFF	n/a	n/a	SPOUSE	11	2	[0, 0, 0]	n/a	FR1	1	R1398J
305.564	1.602	310082	WORD	n/a	wordpools/wordpool_long_EN.txt	WORM	12	2	[0, 0, 0]	n/a	FR1	1	R1398J
307.166	0.0	311682	START	n/a	n/a	n/a	-999	2	[-999, -999, -999]	n/a	FR1	1	R1398J
307.166	0.0	311682	PROB	0.0	n/a	n/a	-999	2	[6, 1, 2]	9	FR1	1	R1398J
307.165	0.001	311686	WORD_OFF	n/a	n/a	WORM	12	2	[0, 0, 0]	n/a	FR1	1	R1398J
307.166	0.0	311686	ENCODING_END	n/a	n/a	n/a	-999	2	[0, 0, 0]	n/a	FR1	1	R1398J
307.166	3.583	311686	DISTRACT_START	n/a	n/a	n/a	-999	2	[0, 0, 0]	n/a	FR1	1	R1398J
310.749	4.017	315265	PROB	4.017	n/a	n/a	-999	2	[7, 8, 5]	20	FR1	1	R1398J
314.766	3.716	319282	PROB	3.716	n/a	n/a	-999	2	[3, 4, 1]	8	FR1	1	R1398J
318.482	2.918	322998	PROB	2.918	n/a	n/a	-999	2	[3, 4, 4]	11	FR1	1	R1398J
321.4	3.116	325916	PROB	3.116	n/a	n/a	-999	2	[1, 8, 8]	17	FR1	1	R1398J
324.516	3.984	329032	PROB	3.984	n/a	n/a	-999	2	[1, 3, 8]	12	FR1	1	R1398J
328.5	0.0	333014	DISTRACT_END	n/a	n/a	n/a	-999	2	[0, 0, 0]	n/a	FR1	1	R1398J
328.5	1.332	333015	STOP	n/a	n/a	n/a	-999	2	[-999, -999, -999]	n/a	FR1	1	R1398J
329.832	0.613	334345	REC_START	n/a	n/a	n/a	-999	2	[0, 0, 0]	n/a	FR1	1	R1398J
330.445	0.355	334960	REC_WORD_VV	0.355	n/a	<>	-999	2	[0, 0, 0]	n/a	FR1	1	R1398J
330.8	0.67	335315	REC_WORD	0.67	n/a	BLADE	3	2	[0, 0, 0]	n/a	FR1	1	R1398J
331.47	1.254	335985	REC_WORD	1.254	n/a	COIN	-999	2	[0, 0, 0]	n/a	FR1	1	R1398J
332.724	7.558	337239	REC_WORD_VV	7.558	n/a	<>	-999	2	[0, 0, 0]	n/a	FR1	1	R1398J
340.282	6.595	344797	REC_WORD	6.595	n/a	SPOUSE	11	2	[0, 0, 0]	n/a	FR1	1	R1398J
346.877	2.054	351392	REC_WORD	2.054	n/a	MOUTH	5	2	[0, 0, 0]	n/a	FR1	1	R1398J
348.931	12.116	353446	REC_WORD_VV	12.116	n/a	<>	-999	2	[0, 0, 0]	n/a	FR1	1	R1398J
361.047	1.684	365560	REC_END	n/a	n/a	n/a	-999	2	[0, 0, 0]	n/a	FR1	1	R1398J
362.731	10.362	367246	COUNTDOWN_START	n/a	n/a	n/a	-999	2	[0, 0, 0]	n/a	FR1	1	R1398J
373.093	0.0	377604	COUNTDOWN_END	n/a	n/a	n/a	-999	2	[0, 0, 0]	n/a	FR1	1	R1398J
373.093	2.155	377612	ENCODING_START	n/a	n/a	n/a	-999	3	[0, 0, 0]	n/a	FR1	1	R1398J
375.248	1.6	379762	WORD	n/a	wordpools/wordpool_long_EN.txt	BAR	1	3	[0, 0, 0]	n/a	FR1	1	R1398J
376.848	0.967	381365	WORD_OFF	n/a	n/a	BAR	1	3	[0, 0, 0]	n/a	FR1	1	R1398J
377.815	1.6	382333	WORD	n/a	wordpools/wordpool_long_EN.txt	CRANE	2	3	[0, 0, 0]	n/a	FR1	1	R1398J
379.415	0.832	383928	WORD_OFF	n/a	n/a	CRANE	2	3	[0, 0, 0]	n/a	FR1	1	R1398J
380.247	1.601	384763	WORD	n/a	wordpools/wordpool_long_EN.txt	BEAN	3	3	[0, 0, 0]	n/a	FR1	1	R1398J
381.848	0.767	386359	WORD_OFF	n/a	n/a	BEAN	3	3	[0, 0, 0]	n/a	FR1	1	R1398J
382.615	1.6	387127	WORD	n/a	wordpools/wordpool_long_EN.txt	BIRD	4	3	[0, 0, 0]	n/a	FR1	1	R1398J
384.215	0.916	388731	WORD_OFF	n/a	n/a	BIRD	4	3	[0, 0, 0]	n/a	FR1	1	R1398J
385.131	1.617	389649	WORD	n/a	wordpools/wordpool_long_EN.txt	GATE	5	3	[0, 0, 0]	n/a	FR1	1	R1398J
386.748	0.884	391261	WORD_OFF	n/a	n/a	GATE	5	3	[0, 0, 0]	n/a	FR1	1	R1398J
387.632	1.616	392145	WORD	n/a	wordpools/wordpool_long_EN.txt	RAIL	6	3	[0, 0, 0]	n/a	FR1	1	R1398J
389.248	0.833	393765	WORD_OFF	n/a	n/a	RAIL	6	3	[0, 0, 0]	n/a	FR1	1	R1398J
390.081	1.6	394592	WORD	n/a	wordpools/wordpool_long_EN.txt	PURSE	7	3	[0, 0, 0]	n/a	FR1	1	R1398J
391.681	0.967	396196	WORD_OFF	n/a	n/a	PURSE	7	3	[0, 0, 0]	n/a	FR1	1	R1398J
392.648	1.6	397163	WORD	n/a	wordpools/wordpool_long_EN.txt	ROPE	8	3	[0, 0, 0]	n/a	FR1	1	R1398J
394.248	0.932	398759	WORD_OFF	n/a	n/a	ROPE	8	3	[0, 0, 0]	n/a	FR1	1	R1398J
395.18	1.6	399693	WORD	n/a	wordpools/wordpool_long_EN.txt	LAND	9	3	[0, 0, 0]	n/a	FR1	1	R1398J
396.78	0.834	401296	WORD_OFF	n/a	n/a	LAND	9	3	[0, 0, 0]	n/a	FR1	1	R1398J
397.614	1.601	402131	WORD	n/a	wordpools/wordpool_long_EN.txt	HEART	10	3	[0, 0, 0]	n/a	FR1	1	R1398J
399.215	0.85	403727	WORD_OFF	n/a	n/a	HEART	10	3	[0, 0, 0]	n/a	FR1	1	R1398J
400.065	1.6	404578	WORD	n/a	wordpools/wordpool_long_EN.txt	CROWN	11	3	[0, 0, 0]	n/a	FR1	1	R1398J
401.665	0.882	406182	WORD_OFF	n/a	n/a	CROWN	11	3	[0, 0, 0]	n/a	FR1	1	R1398J
402.547	1.601	407058	WORD	n/a	wordpools/wordpool_long_EN.txt	TRENCH	12	3	[0, 0, 0]	n/a	FR1	1	R1398J
404.148	0.0	408660	START	n/a	n/a	n/a	-999	3	[-999, -999, -999]	n/a	FR1	1	R1398J
404.148	0.0	408660	PROB	0.0	n/a	n/a	-999	3	[3, 4, 1]	8	FR1	1	R1398J
404.148	0.0	408662	WORD_OFF	n/a	n/a	TRENCH	12	3	[0, 0, 0]	n/a	FR1	1	R1398J
404.148	0.0	408662	ENCODING_END	n/a	n/a	n/a	-999	3	[0, 0, 0]	n/a	FR1	1	R1398J
404.148	3.683	408662	DISTRACT_START	n/a	n/a	n/a	-999	3	[0, 0, 0]	n/a	FR1	1	R1398J
407.831	3.501	412343	PROB	3.501	n/a	n/a	-999	3	[7, 1, 6]	14	FR1	1	R1398J
411.332	3.049	415844	PROB	3.049	n/a	n/a	-999	3	[2, 2, 4]	8	FR1	1	R1398J
414.381	2.517	418893	PROB	2.517	n/a	n/a	-999	3	[3, 3, 3]	9	FR1	1	R1398J
416.898	2.95	421410	PROB	2.95	n/a	n/a	-999	3	[1, 6, 8]	15	FR1	1	R1398J
419.848	3.167	424360	PROB	3.167	n/a	n/a	-999	3	[6, 7, 5]	18	FR1	1	R1398J
423.015	2.715	427527	PROB	2.715	n/a	n/a	-999	3	[8, 6, 4]	18	FR1	1	R1398J
425.73	0.0	430241	STOP	n/a	n/a	n/a	-999	3	[-999, -999, -999]	n/a	FR1	1	R1398J
425.73	1.367	430246	DISTRACT_END	n/a	n/a	n/a	-999	3	[0, 0, 0]	n/a	FR1	1	R1398J
427.097	0.727	431610	REC_START	n/a	n/a	n/a	-999	3	[0, 0, 0]	n/a	FR1	1	R1398J
427.824	0.95	432335	REC_WORD_VV	0.95	n/a	<>	-999	3	[0, 0, 0]	n/a	FR1	1	R1398J
428.774	0.598	433285	REC_WORD	0.598	n/a	PLIER	-999	3	[0, 0, 0]	n/a	FR1	1	R1398J
429.372	1.979	433883	REC_WORD	1.979	n/a	CRANE	2	3	[0, 0, 0]	n/a	FR1	1	R1398J
431.351	3.092	435862	REC_WORD_VV	3.092	n/a	<>	-999	3	[0, 0, 0]	n/a	FR1	1	R1398J
434.443	1.877	438954	REC_WORD	1.877	n/a	LIFT	-999	3	[0, 0, 0]	n/a	FR1	1	R1398J
436.32	13.004	440831	REC_WORD_VV	13.004	n/a	<>	-999	3	[0, 0, 0]	n/a	FR1	1	R1398J
449.324	1.904	453834	REC_WORD	1.904	n/a	TRUCK	-999	3	[0, 0, 0]	n/a	FR1	1	R1398J
451.228	7.076	455738	REC_WORD_VV	7.076	n/a	<>	-999	3	[0, 0, 0]	n/a	FR1	1	R1398J
458.304	1.627	462817	REC_END	n/a	n/a	n/a	-999	3	[0, 0, 0]	n/a	FR1	1	R1398J
459.931	10.365	464445	COUNTDOWN_START	n/a	n/a	n/a	-999	3	[0, 0, 0]	n/a	FR1	1	R1398J
470.296	0.0	474804	COUNTDOWN_END	n/a	n/a	n/a	-999	3	[0, 0, 0]	n/a	FR1	1	R1398J
470.296	2.019	474812	ENCODING_START	n/a	n/a	n/a	-999	4	[0, 0, 0]	n/a	FR1	1	R1398J
472.315	1.6	476829	WORD	n/a	wordpools/wordpool_long_EN.txt	HORN	1	4	[0, 0, 0]	n/a	FR1	1	R1398J
473.915	0.968	478424	WORD_OFF	n/a	n/a	HORN	1	4	[0, 0, 0]	n/a	FR1	1	R1398J
474.883	1.614	479392	WORD	n/a	wordpools/wordpool_long_EN.txt	BROOK	2	4	[0, 0, 0]	n/a	FR1	1	R1398J
476.497	1.001	481004	WORD_OFF	n/a	n/a	BROOK	2	4	[0, 0, 0]	n/a	FR1	1	R1398J
477.498	1.6	482004	WORD	n/a	wordpools/wordpool_long_EN.txt	SLIME	3	4	[0, 0, 0]	n/a	FR1	1	R1398J
479.098	0.85	483608	WORD_OFF	n/a	n/a	SLIME	3	4	[0, 0, 0]	n/a	FR1	1	R1398J
479.948	1.617	484459	WORD	n/a	wordpools/wordpool_long_EN.txt	SPRING	4	4	[0, 0, 0]	n/a	FR1	1	R1398J
481.565	0.949	486079	WORD_OFF	n/a	n/a	SPRING	4	4	[0, 0, 0]	n/a	FR1	1	R1398J
482.514	1.6	487022	WORD	n/a	wordpools/wordpool_long_EN.txt	GUARD	5	4	[0, 0, 0]	n/a	FR1	1	R1398J
484.114	0.866	488625	WORD_OFF	n/a	n/a	GUARD	5	4	[0, 0, 0]	n/a	FR1	1	R1398J
484.98	1.602	489493	WORD	n/a	wordpools/wordpool_long_EN.txt	FRAME	6	4	[0, 0, 0]	n/a	FR1	1	R1398J
486.582	0.816	491089	WORD_OFF	n/a	n/a	FRAME	6	4	[0, 0, 0]	n/a	FR1	1	R1398J
487.398	1.617	491907	WORD	n/a	wordpools/wordpool_long_EN.txt	BOMB	7	4	[0, 0, 0]	n/a	FR1	1	R1398J
489.015	0.966	493528	WORD_OFF	n/a	n/a	BOMB	7	4	[0, 0, 0]	n/a	FR1	1	R1398J
489.981	1.6	494486	WORD	n/a	wordpools/wordpool_long_EN.txt	CHALK	8	4	[0, 0, 0]	n/a	FR1	1	R1398J
491.581	0.9	496090	WORD_OFF	n/a	n/a	CHALK	8	4	[0, 0, 0]	n/a	FR1	1	R1398J
492.481	1.6	496991	WORD	n/a	wordpools/wordpool_long_EN.txt	OWL	9	4	[0, 0, 0]	n/a	FR1	1	R1398J
494.081	0.766	498595	WORD_OFF	n/a	n/a	OWL	9	4	[0, 0, 0]	n/a	FR1	1	R1398J
494.847	1.601	499356	WORD	n/a	wordpools/wordpool_long_EN.txt	BOOK	10	4	[0, 0, 0]	n/a	FR1	1	R1398J
496.448	0.899	500959	WORD_OFF	n/a	n/a	BOOK	10	4	[0, 0, 0]	n/a	FR1	1	R1398J
497.347	1.601	501860	WORD	n/a	wordpools/wordpool_long_EN.txt	HEDGE	11	4	[0, 0, 0]	n/a	FR1	1	R1398J
498.948	0.766	503456	WORD_OFF	n/a	n/a	HEDGE	11	4	[0, 0, 0]	n/a	FR1	1	R1398J
499.714	1.6	504225	WORD	n/a	wordpools/wordpool_long_EN.txt	VEST	12	4	[0, 0, 0]	n/a	FR1	1	R1398J
501.314	0.0	505820	WORD_OFF	n/a	n/a	VEST	12	4	[0, 0, 0]	n/a	FR1	1	R1398J
501.314	0.001	505822	PROB	0.001	n/a	n/a	-999	4	[1, 1, 7]	9	FR1	1	R1398J
501.315	0.0	505823	START	n/a	n/a	n/a	-999	4	[-999, -999, -999]	n/a	FR1	1	R1398J
501.315	0.0	505828	ENCODING_END	n/a	n/a	n/a	-999	4	[0, 0, 0]	n/a	FR1	1	R1398J
501.315	2.85	505828	DISTRACT_START	n/a	n/a	n/a	-999	4	[0, 0, 0]	n/a	FR1	1	R1398J
504.165	3.066	508673	PROB	3.066	n/a	n/a	-999	4	[1, 8, 8]	17	FR1	1	R1398J
507.231	3.418	511739	PROB	3.418	n/a	n/a	-999	4	[8, 4, 1]	13	FR1	1	R1398J
510.649	3.232	515157	PROB	3.232	n/a	n/a	-999	4	[3, 8, 7]	18	FR1	1	R1398J
513.881	3.268	518389	PROB	3.268	n/a	n/a	-999	4	[8, 7, 6]	21	FR1	1	R1398J
517.149	2.832	521657	PROB	2.832	n/a	n/a	-999	4	[4, 1, 1]	6	FR1	1	R1398J
519.981	3.1	524489	PROB	3.1	n/a	n/a	-999	4	[5, 1, 1]	7	FR1	1	R1398J
523.081	0.0	527586	DISTRACT_END	n/a	n/a	n/a	-999	4	[0, 0, 0]	n/a	FR1	1	R1398J
523.081	1.384	527588	STOP	n/a	n/a	n/a	-999	4	[-999, -999, -999]	n/a	FR1	1	R1398J
524.465	0.667	528975	REC_START	n/a	n/a	n/a	-999	4	[0, 0, 0]	n/a	FR1	1	R1398J
525.132	0.802	529639	REC_WORD_VV	0.802	n/a	<>	-999	4	[0, 0, 0]	n/a	FR1	1	R1398J
525.934	0.434	530441	REC_WORD	0.434	n/a	BOOK	10	4	[0, 0, 0]	n/a	FR1	1	R1398J
526.368	0.883	530875	REC_WORD	0.883	n/a	BROOK	2	4	[0, 0, 0]	n/a	FR1	1	R1398J
527.251	6.347	531758	REC_WORD_VV	6.347	n/a	<>	-999	4	[0, 0, 0]	n/a	FR1	1	R1398J
533.598	4.634	538105	REC_WORD_VV	4.634	n/a	<>	-999	4	[0, 0, 0]	n/a	FR1	1	R1398J
538.232	3.103	542739	REC_WORD	3.103	n/a	FARM	-999	4	[0, 0, 0]	n/a	FR1	1	R1398J
541.335	6.055	545842	REC_WORD_VV	6.055	n/a	<>	-999	4	[0, 0, 0]	n/a	FR1	1	R1398J
547.39	8.298	551896	REC_WORD_VV	8.298	n/a	<>	-999	4	[0, 0, 0]	n/a	FR1	1	R1398J
555.688	1.827	560198	REC_END	n/a	n/a	n/a	-999	4	[0, 0, 0]	n/a	FR1	1	R1398J
557.515	10.365	562025	COUNTDOWN_START	n/a	n/a	n/a	-999	4	[0, 0, 0]	n/a	FR1	1	R1398J
567.88	0.0	572383	COUNTDOWN_END	n/a	n/a	n/a	-999	4	[0, 0, 0]	n/a	FR1	1	R1398J
567.88	2.152	572383	ENCODING_START	n/a	n/a	n/a	-999	5	[0, 0, 0]	n/a	FR1	1	R1398J
570.032	1.617	574541	WORD	n/a	wordpools/wordpool_long_EN.txt	BUG	1	5	[0, 0, 0]	n/a	FR1	1	R1398J
571.649	0.966	576153	WORD_OFF	n/a	n/a	BUG	1	5	[0, 0, 0]	n/a	FR1	1	R1398J
572.615	1.6	577120	WORD	n/a	wordpools/wordpool_long_EN.txt	BEEF	2	5	[0, 0, 0]	n/a	FR1	1	R1398J
574.215	0.966	578724	WORD_OFF	n/a	n/a	BEEF	2	5	[0, 0, 0]	n/a	FR1	1	R1398J
575.181	1.601	579683	WORD	n/a	wordpools/wordpool_long_EN.txt	FLEET	3	5	[0, 0, 0]	n/a	FR1	1	R1398J
576.782	0.766	581286	WORD_OFF	n/a	n/a	FLEET	3	5	[0, 0, 0]	n/a	FR1	1	R1398J
577.548	1.6	582055	WORD	n/a	wordpools/wordpool_long_EN.txt	YARD	4	5	[0, 0, 0]	n/a	FR1	1	R1398J
579.148	0.9	583651	WORD_OFF	n/a	n/a	YARD	4	5	[0, 0, 0]	n/a	FR1	1	R1398J
580.048	1.6	584552	WORD	n/a	wordpools/wordpool_long_EN.txt	HILL	5	5	[0, 0, 0]	n/a	FR1	1	R1398J
581.648	0.851	586155	WORD_OFF	n/a	n/a	HILL	5	5	[0, 0, 0]	n/a	FR1	1	R1398J
582.499	1.616	587007	WORD	n/a	wordpools/wordpool_long_EN.txt	WOLF	6	5	[0, 0, 0]	n/a	FR1	1	R1398J
584.115	0.833	588619	WORD_OFF	n/a	n/a	WOLF	6	5	[0, 0, 0]	n/a	FR1	1	R1398J
584.948	1.6	589454	WORD	n/a	wordpools/wordpool_long_EN.txt	HOLE	7	5	[0, 0, 0]	n/a	FR1	1	R1398J
586.548	0.984	591058	WORD_OFF	n/a	n/a	HOLE	7	5	[0, 0, 0]	n/a	FR1	1	R1398J
587.532	1.6	592041	WORD	n/a	wordpools/wordpool_long_EN.txt	HAZE	8	5	[0, 0, 0]	n/a	FR1	1	R1398J
589.132	0.95	593637	WORD_OFF	n/a	n/a	HAZE	8	5	[0, 0, 0]	n/a	FR1	1	R1398J
590.082	1.617	594587	WORD	n/a	wordpools/wordpool_long_EN.txt	SLIDE	9	5	[0, 0, 0]	n/a	FR1	1	R1398J
591.699	0.932	596208	WORD_OFF	n/a	n/a	SLIDE	9	5	[0, 0, 0]	n/a	FR1	1	R1398J
592.631	1.6	597134	WORD	n/a	wordpools/wordpool_long_EN.txt	SPONGE	10	5	[0, 0, 0]	n/a	FR1	1	R1398J
594.231	0.9	598737	WORD_OFF	n/a	n/a	SPONGE	10	5	[0, 0, 0]	n/a	FR1	1	R1398J
595.131	1.6	599638	WORD	n/a	wordpools/wordpool_long_EN.txt	LOCK	11	5	[0, 0, 0]	n/a	FR1	1	R1398J
596.731	1.0	601234	WORD_OFF	n/a	n/a	LOCK	11	5	[0, 0, 0]	n/a	FR1	1	R1398J
597.731	1.602	602234	WORD	n/a	wordpools/wordpool_long_EN.txt	BRIDGE	12	5	[0, 0, 0]	n/a	FR1	1	R1398J
599.333	0.0	603837	START	n/a	n/a	n/a	-999	5	[-999, -999, -999]	n/a	FR1	1	R1398J
599.333	0.0	603837	PROB	0.0	n/a	n/a	-999	5	[6, 1, 8]	15	FR1	1	R1398J
599.332	0.001	603838	WORD_OFF	n/a	n/a	BRIDGE	12	5	[0, 0, 0]	n/a	FR1	1	R1398J
599.333	0.0	603838	ENCODING_END	n/a	n/a	n/a	-999	5	[0, 0, 0]	n/a	FR1	1	R1398J
599.333	3.883	603838	DISTRACT_START	n/a	n/a	n/a	-999	5	[0, 0, 0]	n/a	FR1	1	R1398J
603.216	4.666	607720	PROB	4.666	n/a	n/a	-999	5	[1, 3, 8]	12	FR1	1	R1398J
607.882	2.45	612386	PROB	2.45	n/a	n/a	-999	5	[6, 1, 4]	11	FR1	1	R1398J
610.332	3.8	614836	PROB	3.8	n/a	n/a	-999	5	[7, 1, 4]	12	FR1	1	R1398J
614.132	3.384	618636	PROB	3.384	n/a	n/a	-999	5	[2, 7, 5]	14	FR1	1	R1398J
617.516	2.866	622019	PROB	2.866	n/a	n/a	-999	5	[7, 5, 6]	18	FR1	1	R1398J
620.382	0.0	624885	DISTRACT_END	n/a	n/a	n/a	-999	5	[0, 0, 0]	n/a	FR1	1	R1398J
620.382	1.183	624885	STOP	n/a	n/a	n/a	-999	5	[-999, -999, -999]	n/a	FR1	1	R1398J
621.565	1.154	626067	REC_START	n/a	n/a	n/a	-999	5	[0, 0, 0]	n/a	FR1	1	R1398J
622.719	1.312	627222	REC_WORD_VV	1.312	n/a	<>	-999	5	[0, 0, 0]	n/a	FR1	1	R1398J
624.031	1.53	628534	REC_WORD	1.53	n/a	BUG	1	5	[0, 0, 0]	n/a	FR1	1	R1398J
625.561	3.073	630064	REC_WORD_VV	3.073	n/a	<>	-999	5	[0, 0, 0]	n/a	FR1	1	R1398J
628.634	3.147	633137	REC_WORD	3.147	n/a	POLE	-999	5	[0, 0, 0]	n/a	FR1	1	R1398J
631.781	2.168	636284	REC_WORD	2.168	n/a	FLEET	3	5	[0, 0, 0]	n/a	FR1	1	R1398J
633.949	4.414	638452	REC_WORD_VV	4.414	n/a	<>	-999	5	[0, 0, 0]	n/a	FR1	1	R1398J
638.363	1.467	642866	REC_WORD	1.467	n/a	HILL	5	5	[0, 0, 0]	n/a	FR1	1	R1398J
639.83	2.478	644333	REC_WORD_VV	2.478	n/a	<>	-999	5	[0, 0, 0]	n/a	FR1	1	R1398J
642.308	5.661	646810	REC_WORD	5.661	n/a	SPONGE	10	5	[0, 0, 0]	n/a	FR1	1	R1398J
647.969	4.809	652471	REC_WORD_VV	4.809	n/a	<>	-999	5	[0, 0, 0]	n/a	FR1	1	R1398J
652.778	1.453	657282	REC_END	n/a	n/a	n/a	-999	5	[0, 0, 0]	n/a	FR1	1	R1398J
654.231	10.365	658737	COUNTDOWN_START	n/a	n/a	n/a	-999	5	[0, 0, 0]	n/a	FR1	1	R1398J
664.596	0.0	669095	COUNTDOWN_END	n/a	n/a	n/a	-999	5	[0, 0, 0]	n/a	FR1	1	R1398J
664.596	1.919	669103	ENCODING_START	n/a	n/a	n/a	-999	6	[0, 0, 0]	n/a	FR1	1	R1398J
666.515	1.6	671013	WORD	n/a	wordpools/wordpool_long_EN.txt	HUT	1	6	[0, 0, 0]	n/a	FR1	1	R1398J
668.115	0.949	672616	WORD_OFF	n/a	n/a	HUT	1	6	[0, 0, 0]	n/a	FR1	1	R1398J
669.064	1.601	673567	WORD	n/a	wordpools/wordpool_long_EN.txt	YACHT	2	6	[0, 0, 0]	n/a	FR1	1	R1398J
670.665	0.832	675171	WORD_OFF	n/a	n/a	YACHT	2	6	[0, 0, 0]	n/a	FR1	1	R1398J
671.497	1.601	675998	WORD	n/a	wordpools/wordpool_long_EN.txt	RUG	3	6	[0, 0, 0]	n/a	FR1	1	R1398J
673.098	0.949	677601	WORD_OFF	n/a	n/a	RUG	3	6	[0, 0, 0]	n/a	FR1	1	R1398J
674.047	1.601	678552	WORD	n/a	wordpools/wordpool_long_EN.txt	PEARL	4	6	[0, 0, 0]	n/a	FR1	1	R1398J
675.648	0.884	680147	WORD_OFF	n/a	n/a	PEARL	4	6	[0, 0, 0]	n/a	FR1	1	R1398J
676.532	1.6	681032	WORD	n/a	wordpools/wordpool_long_EN.txt	BLUSH	5	6	[0, 0, 0]	n/a	FR1	1	R1398J
678.132	0.865	682636	WORD_OFF	n/a	n/a	BLUSH	5	6	[0, 0, 0]	n/a	FR1	1	R1398J
678.997	1.601	683495	WORD	n/a	wordpools/wordpool_long_EN.txt	RUST	6	6	[0, 0, 0]	n/a	FR1	1	R1398J
680.598	0.867	685099	WORD_OFF	n/a	n/a	RUST	6	6	[0, 0, 0]	n/a	FR1	1	R1398J
681.465	1.615	685967	WORD	n/a	wordpools/wordpool_long_EN.txt	BATH	7	6	[0, 0, 0]	n/a	FR1	1	R1398J
683.08	0.818	687579	WORD_OFF	n/a	n/a	BATH	7	6	[0, 0, 0]	n/a	FR1	1	R1398J
683.898	1.6	688398	WORD	n/a	wordpools/wordpool_long_EN.txt	THRONE	8	6	[0, 0, 0]	n/a	FR1	1	R1398J
685.498	0.966	690001	WORD_OFF	n/a	n/a	THRONE	8	6	[0, 0, 0]	n/a	FR1	1	R1398J
686.464	1.601	690968	WORD	n/a	wordpools/wordpool_long_EN.txt	MAT	9	6	[0, 0, 0]	n/a	FR1	1	R1398J
688.065	0.782	692564	WORD_OFF	n/a	n/a	MAT	9	6	[0, 0, 0]	n/a	FR1	1	R1398J
688.847	1.601	693349	WORD	n/a	wordpools/wordpool_long_EN.txt	CROSS	10	6	[0, 0, 0]	n/a	FR1	1	R1398J
690.448	0.866	694953	WORD_OFF	n/a	n/a	CROSS	10	6	[0, 0, 0]	n/a	FR1	1	R1398J
691.314	1.601	695813	WORD	n/a	wordpools/wordpool_long_EN.txt	TILE	11	6	[0, 0, 0]	n/a	FR1	1	R1398J
692.915	0.799	697416	WORD_OFF	n/a	n/a	TILE	11	6	[0, 0, 0]	n/a	FR1	1	R1398J
693.714	1.6	698218	WORD	n/a	wordpools/wordpool_long_EN.txt	SKI	12	6	[0, 0, 0]	n/a	FR1	1	R1398J
695.314	0.001	699814	WORD_OFF	n/a	n/a	SKI	12	6	[0, 0, 0]	n/a	FR1	1	R1398J
695.315	0.0	699815	START	n/a	n/a	n/a	-999	6	[-999, -999, -999]	n/a	FR1	1	R1398J
695.315	0.0	699815	PROB	0.0	n/a	n/a	-999	6	[6, 6, 3]	15	FR1	1	R1398J
695.315	0.0	699822	ENCODING_END	n/a	n/a	n/a	-999	6	[0, 0, 0]	n/a	FR1	1	R1398J
695.315	3.618	699822	DISTRACT_START	n/a	n/a	n/a	-999	6	[0, 0, 0]	n/a	FR1	1	R1398J
698.933	4.865	703433	PROB	4.865	n/a	n/a	-999	6	[6, 7, 7]	20	FR1	1	R1398J
703.798	3.016	708298	PROB	3.016	n/a	n/a	-999	6	[5, 6, 3]	14	FR1	1	R1398J
706.814	5.134	711314	PROB	5.134	n/a	n/a	-999	6	[1, 7, 4]	12	FR1	1	R1398J
711.948	3.8	716448	PROB	3.8	n/a	n/a	-999	6	[3, 7, 7]	17	FR1	1	R1398J
715.748	0.0	720247	STOP	n/a	n/a	n/a	-999	6	[-999, -999, -999]	n/a	FR1	1	R1398J
715.748	1.333	720249	DISTRACT_END	n/a	n/a	n/a	-999	6	[0, 0, 0]	n/a	FR1	1	R1398J
717.081	1.076	721580	REC_START	n/a	n/a	n/a	-999	6	[0, 0, 0]	n/a	FR1	1	R1398J
718.157	1.858	722656	REC_WORD_VV	1.858	n/a	<>	-999	6	[0, 0, 0]	n/a	FR1	1	R1398J
720.015	1.0	724514	REC_WORD_VV	1.0	n/a	<>	-999	6	[0, 0, 0]	n/a	FR1	1	R1398J
721.015	2.758	725514	REC_WORD_VV	2.758	n/a	<>	-999	6	[0, 0, 0]	n/a	FR1	1	R1398J
723.773	7.212	728272	REC_WORD_VV	7.212	n/a	<>	-999	6	[0, 0, 0]	n/a	FR1	1	R1398J
730.985	5.532	735484	REC_WORD_VV	5.532	n/a	<>	-999	6	[0, 0, 0]	n/a	FR1	1	R1398J
736.517	5.834	741015	REC_WORD_VV	5.834	n/a	<>	-999	6	[0, 0, 0]	n/a	FR1	1	R1398J
742.351	5.94	746849	REC_WORD_VV	5.94	n/a	<>	-999	6	[0, 0, 0]	n/a	FR1	1	R1398J
748.291	1.706	752787	REC_END	n/a	n/a	n/a	-999	6	[0, 0, 0]	n/a	FR1	1	R1398J
749.997	10.366	754498	COUNTDOWN_START	n/a	n/a	n/a	-999	6	[0, 0, 0]	n/a	FR1	1	R1398J
760.363	0.0	764864	COUNTDOWN_END	n/a	n/a	n/a	-999	6	[0, 0, 0]	n/a	FR1	1	R1398J
760.363	2.052	764864	ENCODING_START	n/a	n/a	n/a	-999	7	[0, 0, 0]	n/a	FR1	1	R1398J
762.415	1.6	766914	WORD	n/a	wordpools/wordpool_long_EN.txt	SALT	1	7	[0, 0, 0]	n/a	FR1	1	R1398J
764.015	0.966	768510	WORD_OFF	n/a	n/a	SALT	1	7	[0, 0, 0]	n/a	FR1	1	R1398J
764.981	1.6	769477	WORD	n/a	wordpools/wordpool_long_EN.txt	EEL	2	7	[0, 0, 0]	n/a	FR1	1	R1398J
766.581	0.834	771081	WORD_OFF	n/a	n/a	EEL	2	7	[0, 0, 0]	n/a	FR1	1	R1398J
767.415	1.6	771916	WORD	n/a	wordpools/wordpool_long_EN.txt	SEAL	3	7	[0, 0, 0]	n/a	FR1	1	R1398J
769.015	0.951	773511	WORD_OFF	n/a	n/a	SEAL	3	7	[0, 0, 0]	n/a	FR1	1	R1398J
769.966	1.616	774462	WORD	n/a	wordpools/wordpool_long_EN.txt	MOLE	4	7	[0, 0, 0]	n/a	FR1	1	R1398J
771.582	0.783	776082	WORD_OFF	n/a	n/a	MOLE	4	7	[0, 0, 0]	n/a	FR1	1	R1398J
772.365	1.601	776859	WORD	n/a	wordpools/wordpool_long_EN.txt	BRANCH	5	7	[0, 0, 0]	n/a	FR1	1	R1398J
773.966	0.816	778463	WORD_OFF	n/a	n/a	BRANCH	5	7	[0, 0, 0]	n/a	FR1	1	R1398J
774.782	1.616	779281	WORD	n/a	wordpools/wordpool_long_EN.txt	SEA	6	7	[0, 0, 0]	n/a	FR1	1	R1398J
776.398	0.983	780893	WORD_OFF	n/a	n/a	SEA	6	7	[0, 0, 0]	n/a	FR1	1	R1398J
777.381	1.601	781877	WORD	n/a	wordpools/wordpool_long_EN.txt	SOCK	7	7	[0, 0, 0]	n/a	FR1	1	R1398J
778.982	0.833	783481	WORD_OFF	n/a	n/a	SOCK	7	7	[0, 0, 0]	n/a	FR1	1	R1398J
779.815	1.6	784316	WORD	n/a	wordpools/wordpool_long_EN.txt	DOCK	8	7	[0, 0, 0]	n/a	FR1	1	R1398J
781.415	0.833	785911	WORD_OFF	n/a	n/a	DOCK	8	7	[0, 0, 0]	n/a	FR1	1	R1398J
782.248	1.601	786746	WORD	n/a	wordpools/wordpool_long_EN.txt	DART	9	7	[0, 0, 0]	n/a	FR1	1	R1398J
783.849	0.883	788341	WORD_OFF	n/a	n/a	DART	9	7	[0, 0, 0]	n/a	FR1	1	R1398J
784.732	1.6	789226	WORD	n/a	wordpools/wordpool_long_EN.txt	SWORD	10	7	[0, 0, 0]	n/a	FR1	1	R1398J
786.332	0.8	790830	WORD_OFF	n/a	n/a	SWORD	10	7	[0, 0, 0]	n/a	FR1	1	R1398J
787.132	1.616	791632	WORD	n/a	wordpools/wordpool_long_EN.txt	CARD	11	7	[0, 0, 0]	n/a	FR1	1	R1398J
788.748	0.784	793244	WORD_OFF	n/a	n/a	CARD	11	7	[0, 0, 0]	n/a	FR1	1	R1398J
789.532	1.616	794029	WORD	n/a	wordpools/wordpool_long_EN.txt	GROUND	12	7	[0, 0, 0]	n/a	FR1	1	R1398J
791.148	0.001	795644	PROB	0.001	n/a	n/a	-999	7	[3, 7, 5]	15	FR1	1	R1398J
791.149	0.0	795645	START	n/a	n/a	n/a	-999	7	[-999, -999, -999]	n/a	FR1	1	R1398J
791.148	0.001	795649	WORD_OFF	n/a	n/a	GROUND	12	7	[0, 0, 0]	n/a	FR1	1	R1398J
791.149	0.0	795649	ENCODING_END	n/a	n/a	n/a	-999	7	[0, 0, 0]	n/a	FR1	1	R1398J
791.149	3.167	795649	DISTRACT_START	n/a	n/a	n/a	-999	7	[0, 0, 0]	n/a	FR1	1	R1398J
794.316	3.767	798812	PROB	3.767	n/a	n/a	-999	7	[4, 4, 2]	10	FR1	1	R1398J
798.083	2.967	802579	PROB	2.967	n/a	n/a	-999	7	[5, 2, 5]	12	FR1	1	R1398J
801.05	3.066	805546	PROB	3.066	n/a	n/a	-999	7	[2, 3, 2]	7	FR1	1	R1398J
804.116	2.966	808612	PROB	2.966	n/a	n/a	-999	7	[5, 3, 4]	12	FR1	1	R1398J
807.082	2.816	811578	PROB	2.816	n/a	n/a	-999	7	[2, 4, 6]	12	FR1	1	R1398J
809.898	4.383	814393	PROB	4.383	n/a	n/a	-999	7	[3, 4, 7]	14	FR1	1	R1398J
814.281	0.0	818776	STOP	n/a	n/a	n/a	-999	7	[-999, -999, -999]	n/a	FR1	1	R1398J
814.281	1.35	818779	DISTRACT_END	n/a	n/a	n/a	-999	7	[0, 0, 0]	n/a	FR1	1	R1398J
815.631	0.857	820127	REC_START	n/a	n/a	n/a	-999	7	[0, 0, 0]	n/a	FR1	1	R1398J
816.488	0.632	820983	REC_WORD	0.632	n/a	SALT	1	7	[0, 0, 0]	n/a	FR1	1	R1398J
817.12	0.783	821615	REC_WORD	0.783	n/a	SEAL	3	7	[0, 0, 0]	n/a	FR1	1	R1398J
817.903	1.533	822398	REC_WORD	1.533	n/a	EEL	2	7	[0, 0, 0]	n/a	FR1	1	R1398J
819.436	2.75	823931	REC_WORD_VV	2.75	n/a	<>	-999	7	[0, 0, 0]	n/a	FR1	1	R1398J
822.186	1.183	826681	REC_WORD	1.183	n/a	DART	9	7	[0, 0, 0]	n/a	FR1	1	R1398J
823.369	1.631	827864	REC_WORD	1.631	n/a	DOCK	8	7	[0, 0, 0]	n/a	FR1	1	R1398J
825.0	17.513	829495	REC_WORD_VV	17.513	n/a	<>	-999	7	[0, 0, 0]	n/a	FR1	1	R1398J
842.513	4.328	847007	REC_WORD_VV	4.328	n/a	<>	-999	7	[0, 0, 0]	n/a	FR1	1	R1398J
846.841	1.607	851333	REC_END	n/a	n/a	n/a	-999	7	[0, 0, 0]	n/a	FR1	1	R1398J
848.448	10.365	852945	COUNTDOWN_START	n/a	n/a	n/a	-999	7	[0, 0, 0]	n/a	FR1	1	R1398J
858.813	0.0	863304	COUNTDOWN_END	n/a	n/a	n/a	-999	7	[0, 0, 0]	n/a	FR1	1	R1398J
858.813	1.819	863312	ENCODING_START	n/a	n/a	n/a	-999	8	[0, 0, 0]	n/a	FR1	1	R1398J
860.632	1.616	865122	WORD	n/a	wordpools/wordpool_long_EN.txt	ARK	1	8	[0, 0, 0]	n/a	FR1	1	R1398J
862.248	0.967	866743	WORD_OFF	n/a	n/a	ARK	1	8	[0, 0, 0]	n/a	FR1	1	R1398J
863.215	1.6	867710	WORD	n/a	wordpools/wordpool_long_EN.txt	PARK	2	8	[0, 0, 0]	n/a	FR1	1	R1398J
864.815	0.933	869313	WORD_OFF	n/a	n/a	PARK	2	8	[0, 0, 0]	n/a	FR1	1	R1398J
865.748	1.6	870239	WORD	n/a	wordpools/wordpool_long_EN.txt	MAZE	3	8	[0, 0, 0]	n/a	FR1	1	R1398J
867.348	0.884	871843	WORD_OFF	n/a	n/a	MAZE	3	8	[0, 0, 0]	n/a	FR1	1	R1398J
868.232	1.6	872728	WORD	n/a	wordpools/wordpool_long_EN.txt	GREASE	4	8	[0, 0, 0]	n/a	FR1	1	R1398J
869.832	0.866	874323	WORD_OFF	n/a	n/a	GREASE	4	8	[0, 0, 0]	n/a	FR1	1	R1398J
870.698	1.6	875191	WORD	n/a	wordpools/wordpool_long_EN.txt	LEAF	5	8	[0, 0, 0]	n/a	FR1	1	R1398J
872.298	0.767	876795	WORD_OFF	n/a	n/a	LEAF	5	8	[0, 0, 0]	n/a	FR1	1	R1398J
873.065	1.6	877555	WORD	n/a	wordpools/wordpool_long_EN.txt	BAND	6	8	[0, 0, 0]	n/a	FR1	1	R1398J
874.665	0.967	879159	WORD_OFF	n/a	n/a	BAND	6	8	[0, 0, 0]	n/a	FR1	1	R1398J
875.632	1.617	880126	WORD	n/a	wordpools/wordpool_long_EN.txt	QUEEN	7	8	[0, 0, 0]	n/a	FR1	1	R1398J
877.249	0.899	881738	WORD_OFF	n/a	n/a	QUEEN	7	8	[0, 0, 0]	n/a	FR1	1	R1398J
878.148	1.601	882639	WORD	n/a	wordpools/wordpool_long_EN.txt	STRING	8	8	[0, 0, 0]	n/a	FR1	1	R1398J
879.749	0.983	884243	WORD_OFF	n/a	n/a	STRING	8	8	[0, 0, 0]	n/a	FR1	1	R1398J
880.732	1.616	885227	WORD	n/a	wordpools/wordpool_long_EN.txt	STEAM	9	8	[0, 0, 0]	n/a	FR1	1	R1398J
882.348	0.834	886839	WORD_OFF	n/a	n/a	STEAM	9	8	[0, 0, 0]	n/a	FR1	1	R1398J
883.182	1.615	887674	WORD	n/a	wordpools/wordpool_long_EN.txt	STRAW	10	8	[0, 0, 0]	n/a	FR1	1	R1398J
884.797	0.817	889294	WORD_OFF	n/a	n/a	STRAW	10	8	[0, 0, 0]	n/a	FR1	1	R1398J
885.614	1.601	890104	WORD	n/a	wordpools/wordpool_long_EN.txt	HOUSE	11	8	[0, 0, 0]	n/a	FR1	1	R1398J
887.215	0.933	891708	WORD_OFF	n/a	n/a	HOUSE	11	8	[0, 0, 0]	n/a	FR1	1	R1398J
888.148	1.6	892642	WORD	n/a	wordpools/wordpool_long_EN.txt	STREET	12	8	[0, 0, 0]	n/a	FR1	1	R1398J
889.748	0.001	894237	WORD_OFF	n/a	n/a	STREET	12	8	[0, 0, 0]	n/a	FR1	1	R1398J
889.749	0.001	894241	PROB	0.001	n/a	n/a	-999	8	[5, 2, 1]	8	FR1	1	R1398J
889.75	0.0	894242	START	n/a	n/a	n/a	-999	8	[-999, -999, -999]	n/a	FR1	1	R1398J
889.75	0.0	894246	ENCODING_END	n/a	n/a	n/a	-999	8	[0, 0, 0]	n/a	FR1	1	R1398J
889.75	3.799	894246	DISTRACT_START	n/a	n/a	n/a	-999	8	[0, 0, 0]	n/a	FR1	1	R1398J
893.549	3.766	898041	PROB	3.766	n/a	n/a	-999	8	[4, 2, 3]	9	FR1	1	R1398J
897.315	3.318	901807	PROB	3.318	n/a	n/a	-999	8	[6, 1, 5]	12	FR1	1	R1398J
900.633	5.048	905125	PROB	5.048	n/a	n/a	-999	8	[2, 7, 6]	15	FR1	1	R1398J
905.681	3.202	910172	PROB	3.202	n/a	n/a	-999	8	[4, 1, 3]	8	FR1	1	R1398J
908.883	4.148	913374	PROB	4.148	n/a	n/a	-999	8	[6, 8, 6]	20	FR1	1	R1398J
913.031	0.0	917522	STOP	n/a	n/a	n/a	-999	8	[-999, -999, -999]	n/a	FR1	1	R1398J
913.031	1.167	917525	DISTRACT_END	n/a	n/a	n/a	-999	8	[0, 0, 0]	n/a	FR1	1	R1398J
914.198	0.153	918690	REC_START	n/a	n/a	n/a	-999	8	[0, 0, 0]	n/a	FR1	1	R1398J
914.351	0.386	918842	REC_WORD_VV	0.386	n/a	<>	-999	8	[0, 0, 0]	n/a	FR1	1	R1398J
914.737	1.509	919228	REC_WORD	1.509	n/a	CROWN	-999	8	[0, 0, 0]	n/a	FR1	1	R1398J
916.246	1.718	920737	REC_WORD_VV	1.718	n/a	<>	-999	8	[0, 0, 0]	n/a	FR1	1	R1398J
917.964	1.439	922455	REC_WORD	1.439	n/a	ARK	1	8	[0, 0, 0]	n/a	FR1	1	R1398J
919.403	2.036	923894	REC_WORD	2.036	n/a	MARK	-999	8	[0, 0, 0]	n/a	FR1	1	R1398J
921.439	12.252	925930	REC_WORD_VV	12.252	n/a	<>	-999	8	[0, 0, 0]	n/a	FR1	1	R1398J
933.691	1.577	938181	REC_WORD_VV	1.577	n/a	<>	-999	8	[0, 0, 0]	n/a	FR1	1	R1398J
935.268	4.005	939758	REC_WORD_VV	4.005	n/a	<>	-999	8	[0, 0, 0]	n/a	FR1	1	R1398J
939.273	0.847	943763	REC_WORD	0.847	n/a	WALL	-999	8	[0, 0, 0]	n/a	FR1	1	R1398J
940.12	5.295	944610	REC_WORD_VV	5.295	n/a	<>	-999	8	[0, 0, 0]	n/a	FR1	1	R1398J
945.415	2.867	949905	REC_END	n/a	n/a	n/a	-999	8	[0, 0, 0]	n/a	FR1	1	R1398J
948.282	10.361	952774	COUNTDOWN_START	n/a	n/a	n/a	-999	8	[0, 0, 0]	n/a	FR1	1	R1398J
958.643	0.0	963132	COUNTDOWN_END	n/a	n/a	n/a	-999	8	[0, 0, 0]	n/a	FR1	1	R1398J
958.643	2.139	963132	ENCODING_START	n/a	n/a	n/a	-999	9	[0, 0, 0]	n/a	FR1	1	R1398J
960.782	1.615	965273	WORD	n/a	wordpools/wordpool_long_EN.txt	WOOD	1	9	[0, 0, 0]	n/a	FR1	1	R1398J
962.397	0.85	966885	WORD_OFF	n/a	n/a	WOOD	1	9	[0, 0, 0]	n/a	FR1	1	R1398J
963.247	1.601	967736	WORD	n/a	wordpools/wordpool_long_EN.txt	HOOK	2	9	[0, 0, 0]	n/a	FR1	1	R1398J
964.848	0.867	969340	WORD_OFF	n/a	n/a	HOOK	2	9	[0, 0, 0]	n/a	FR1	1	R1398J
965.715	1.6	970208	WORD	n/a	wordpools/wordpool_long_EN.txt	RAFT	3	9	[0, 0, 0]	n/a	FR1	1	R1398J
967.315	1.0	971804	WORD_OFF	n/a	n/a	RAFT	3	9	[0, 0, 0]	n/a	FR1	1	R1398J
968.315	1.6	972804	WORD	n/a	wordpools/wordpool_long_EN.txt	OX	4	9	[0, 0, 0]	n/a	FR1	1	R1398J
969.915	0.982	974408	WORD_OFF	n/a	n/a	OX	4	9	[0, 0, 0]	n/a	FR1	1	R1398J
970.897	1.601	975383	WORD	n/a	wordpools/wordpool_long_EN.txt	PET	5	9	[0, 0, 0]	n/a	FR1	1	R1398J
972.498	0.883	976987	WORD_OFF	n/a	n/a	PET	5	9	[0, 0, 0]	n/a	FR1	1	R1398J
973.381	1.601	977871	WORD	n/a	wordpools/wordpool_long_EN.txt	DUST	6	9	[0, 0, 0]	n/a	FR1	1	R1398J
974.982	0.799	979475	WORD_OFF	n/a	n/a	DUST	6	9	[0, 0, 0]	n/a	FR1	1	R1398J
975.781	1.601	980269	WORD	n/a	wordpools/wordpool_long_EN.txt	BOWL	7	9	[0, 0, 0]	n/a	FR1	1	R1398J
977.382	0.783	981872	WORD_OFF	n/a	n/a	BOWL	7	9	[0, 0, 0]	n/a	FR1	1	R1398J
978.165	1.6	982658	WORD	n/a	wordpools/wordpool_long_EN.txt	SHIP	8	9	[0, 0, 0]	n/a	FR1	1	R1398J
979.765	0.983	984253	WORD_OFF	n/a	n/a	SHIP	8	9	[0, 0, 0]	n/a	FR1	1	R1398J
980.748	1.617	985237	WORD	n/a	wordpools/wordpool_long_EN.txt	JUDGE	9	9	[0, 0, 0]	n/a	FR1	1	R1398J
982.365	1.0	986857	WORD_OFF	n/a	n/a	JUDGE	9	9	[0, 0, 0]	n/a	FR1	1	R1398J
983.365	1.6	987857	WORD	n/a	wordpools/wordpool_long_EN.txt	THUMB	10	9	[0, 0, 0]	n/a	FR1	1	R1398J
984.965	0.965	989453	WORD_OFF	n/a	n/a	THUMB	10	9	[0, 0, 0]	n/a	FR1	1	R1398J
985.93	1.601	990420	WORD	n/a	wordpools/wordpool_long_EN.txt	CLAY	11	9	[0, 0, 0]	n/a	FR1	1	R1398J
987.531	0.983	992024	WORD_OFF	n/a	n/a	CLAY	11	9	[0, 0, 0]	n/a	FR1	1	R1398J
988.514	1.601	992999	WORD	n/a	wordpools/wordpool_long_EN.txt	MAP	12	9	[0, 0, 0]	n/a	FR1	1	R1398J
990.115	0.007	994603	PROB	0.007	n/a	n/a	-999	9	[8, 5, 4]	17	FR1	1	R1398J
990.122	0.0	994610	START	n/a	n/a	n/a	-999	9	[-999, -999, -999]	n/a	FR1	1	R1398J
990.115	0.007	994611	WORD_OFF	n/a	n/a	MAP	12	9	[0, 0, 0]	n/a	FR1	1	R1398J
990.122	0.0	994611	ENCODING_END	n/a	n/a	n/a	-999	9	[0, 0, 0]	n/a	FR1	1	R1398J
990.122	3.343	994611	DISTRACT_START	n/a	n/a	n/a	-999	9	[0, 0, 0]	n/a	FR1	1	R1398J
993.465	3.6	997953	PROB	3.6	n/a	n/a	-999	9	[2, 7, 2]	11	FR1	1	R1398J
997.065	3.15	1001553	PROB	3.15	n/a	n/a	-999	9	[8, 4, 4]	16	FR1	1	R1398J
1000.215	3.45	1004703	PROB	3.45	n/a	n/a	-999	9	[5, 4, 5]	14	FR1	1	R1398J
1003.665	3.533	1008152	PROB	3.533	n/a	n/a	-999	9	[5, 4, 8]	17	FR1	1	R1398J
1007.198	2.451	1011685	PROB	2.451	n/a	n/a	-999	9	[5, 1, 5]	11	FR1	1	R1398J
1009.649	3.232	1014136	PROB	3.232	n/a	n/a	-999	9	[7, 2, 3]	12	FR1	1	R1398J
1012.881	0.0	1017368	STOP	n/a	n/a	n/a	-999	9	[-999, -999, -999]	n/a	FR1	1	R1398J
1012.881	1.35	1017369	DISTRACT_END	n/a	n/a	n/a	-999	9	[0, 0, 0]	n/a	FR1	1	R1398J
1014.231	0.468	1018717	REC_START	n/a	n/a	n/a	-999	9	[0, 0, 0]	n/a	FR1	1	R1398J
1014.699	0.825	1019186	REC_WORD	0.825	n/a	OX	4	9	[0, 0, 0]	n/a	FR1	1	R1398J
1015.524	1.569	1020011	REC_WORD	1.569	n/a	DIRT	-999	9	[0, 0, 0]	n/a	FR1	1	R1398J
1017.093	1.35	1021580	REC_WORD_VV	1.35	n/a	<>	-999	9	[0, 0, 0]	n/a	FR1	1	R1398J
1018.443	3.137	1022930	REC_WORD	3.137	n/a	RAFT	3	9	[0, 0, 0]	n/a	FR1	1	R1398J
1021.58	2.144	1026067	REC_WORD	2.144	n/a	CLAY	11	9	[0, 0, 0]	n/a	FR1	1	R1398J
1023.724	6.008	1028211	REC_WORD_VV	6.008	n/a	<>	-999	9	[0, 0, 0]	n/a	FR1	1	R1398J
1029.732	1.603	1034218	REC_WORD	1.603	n/a	SAND	-999	9	[0, 0, 0]	n/a	FR1	1	R1398J
1031.335	11.639	1035821	REC_WORD_VV	11.639	n/a	<>	-999	9	[0, 0, 0]	n/a	FR1	1	R1398J
1042.974	2.466	1047460	REC_WORD	2.466	n/a	HOOK	2	9	[0, 0, 0]	n/a	FR1	1	R1398J
1045.44	1.675	1049923	REC_END	n/a	n/a	n/a	-999	9	[0, 0, 0]	n/a	FR1	1	R1398J
1047.115	10.366	1051602	COUNTDOWN_START	n/a	n/a	n/a	-999	9	[0, 0, 0]	n/a	FR1	1	R1398J
1057.481	0.0	1061968	COUNTDOWN_END	n/a	n/a	n/a	-999	9	[0, 0, 0]	n/a	FR1	1	R1398J
1057.481	1.934	1061968	ENCODING_START	n/a	n/a	n/a	-999	10	[0, 0, 0]	n/a	FR1	1	R1398J
1059.415	1.6	1063902	WORD	n/a	wordpools/wordpool_long_EN.txt	SHOE	1	10	[0, 0, 0]	n/a	FR1	1	R1398J
1061.015	0.866	1065498	WORD_OFF	n/a	n/a	SHOE	1	10	[0, 0, 0]	n/a	FR1	1	R1398J
1061.881	1.601	1066366	WORD	n/a	wordpools/wordpool_long_EN.txt	COIN	2	10	[0, 0, 0]	n/a	FR1	1	R1398J
1063.482	0.8	1067970	WORD_OFF	n/a	n/a	COIN	2	10	[0, 0, 0]	n/a	FR1	1	R1398J
1064.282	1.6	1068771	WORD	n/a	wordpools/wordpool_long_EN.txt	SPARK	3	10	[0, 0, 0]	n/a	FR1	1	R1398J
1065.882	0.916	1070367	WORD_OFF	n/a	n/a	SPARK	3	10	[0, 0, 0]	n/a	FR1	1	R1398J
1066.798	1.6	1071285	WORD	n/a	wordpools/wordpool_long_EN.txt	CLOTH	4	10	[0, 0, 0]	n/a	FR1	1	R1398J
1068.398	0.867	1072880	WORD_OFF	n/a	n/a	CLOTH	4	10	[0, 0, 0]	n/a	FR1	1	R1398J
1069.265	1.6	1073748	WORD	n/a	wordpools/wordpool_long_EN.txt	LAWN	5	10	[0, 0, 0]	n/a	FR1	1	R1398J
1070.865	0.867	1075352	WORD_OFF	n/a	n/a	LAWN	5	10	[0, 0, 0]	n/a	FR1	1	R1398J
1071.732	1.6	1076220	WORD	n/a	wordpools/wordpool_long_EN.txt	ROD	6	10	[0, 0, 0]	n/a	FR1	1	R1398J
1073.332	0.983	1077815	WORD_OFF	n/a	n/a	ROD	6	10	[0, 0, 0]	n/a	FR1	1	R1398J
1074.315	1.617	1078799	WORD	n/a	wordpools/wordpool_long_EN.txt	SKATE	7	10	[0, 0, 0]	n/a	FR1	1	R1398J
1075.932	0.766	1080419	WORD_OFF	n/a	n/a	SKATE	7	10	[0, 0, 0]	n/a	FR1	1	R1398J
1076.698	1.616	1081180	WORD	n/a	wordpools/wordpool_long_EN.txt	SHIELD	8	10	[0, 0, 0]	n/a	FR1	1	R1398J
1078.314	0.801	1082800	WORD_OFF	n/a	n/a	SHIELD	8	10	[0, 0, 0]	n/a	FR1	1	R1398J
1079.115	1.6	1083602	WORD	n/a	wordpools/wordpool_long_EN.txt	INK	9	10	[0, 0, 0]	n/a	FR1	1	R1398J
1080.715	0.95	1085197	WORD_OFF	n/a	n/a	INK	9	10	[0, 0, 0]	n/a	FR1	1	R1398J
1081.665	1.6	1086148	WORD	n/a	wordpools/wordpool_long_EN.txt	MEAT	10	10	[0, 0, 0]	n/a	FR1	1	R1398J
1083.265	0.967	1087752	WORD_OFF	n/a	n/a	MEAT	10	10	[0, 0, 0]	n/a	FR1	1	R1398J
1084.232	1.6	1088719	WORD	n/a	wordpools/wordpool_long_EN.txt	COD	11	10	[0, 0, 0]	n/a	FR1	1	R1398J
1085.832	0.866	1090314	WORD_OFF	n/a	n/a	COD	11	10	[0, 0, 0]	n/a	FR1	1	R1398J
1086.698	1.601	1091182	WORD	n/a	wordpools/wordpool_long_EN.txt	WEB	12	10	[0, 0, 0]	n/a	FR1	1	R1398J
1088.299	0.001	1092783	PROB	0.001	n/a	n/a	-999	10	[2, 5, 8]	15	FR1	1	R1398J
1088.3	0.0	1092784	START	n/a	n/a	n/a	-999	10	[-999, -999, -999]	n/a	FR1	1	R1398J
1088.299	0.001	1092786	WORD_OFF	n/a	n/a	WEB	12	10	[0, 0, 0]	n/a	FR1	1	R1398J
1088.3	0.0	1092786	ENCODING_END	n/a	n/a	n/a	-999	10	[0, 0, 0]	n/a	FR1	1	R1398J
1088.3	3.999	1092786	DISTRACT_START	n/a	n/a	n/a	-999	10	[0, 0, 0]	n/a	FR1	1	R1398J
1092.299	3.133	1096783	PROB	3.133	n/a	n/a	-999	10	[3, 5, 1]	9	FR1	1	R1398J
1095.432	3.633	1099916	PROB	3.633	n/a	n/a	-999	10	[4, 7, 2]	13	FR1	1	R1398J
1099.065	2.801	1103548	PROB	2.801	n/a	n/a	-999	10	[4, 2, 8]	14	FR1	1	R1398J
1101.866	2.717	1106349	PROB	2.717	n/a	n/a	-999	10	[3, 3, 5]	11	FR1	1	R1398J
1104.583	4.115	1109066	PROB	4.115	n/a	n/a	-999	10	[8, 7, 2]	17	FR1	1	R1398J
1108.698	0.0	1113180	DISTRACT_END	n/a	n/a	n/a	-999	10	[0, 0, 0]	n/a	FR1	1	R1398J
1108.698	1.083	1113181	STOP	n/a	n/a	n/a	-999	10	[-999, -999, -999]	n/a	FR1	1	R1398J
1109.781	1.027	1114263	REC_START	n/a	n/a	n/a	-999	10	[0, 0, 0]	n/a	FR1	1	R1398J
1110.808	0.318	1115291	REC_WORD_VV	0.318	n/a	<>	-999	10	[0, 0, 0]	n/a	FR1	1	R1398J
1111.126	2.212	1115609	REC_WORD	2.212	n/a	SPARK	3	10	[0, 0, 0]	n/a	FR1	1	R1398J
1113.338	5.335	1117821	REC_WORD_VV	5.335	n/a	<>	-999	10	[0, 0, 0]	n/a	FR1	1	R1398J
1118.673	1.361	1123156	REC_WORD	1.361	n/a	SEAL	-999	10	[0, 0, 0]	n/a	FR1	1	R1398J
1120.034	3.567	1124517	REC_WORD_VV	3.567	n/a	<>	-999	10	[0, 0, 0]	n/a	FR1	1	R1398J
1123.601	3.051	1128083	REC_WORD	3.051	n/a	COIN	2	10	[0, 0, 0]	n/a	FR1	1	R1398J
1126.652	14.326	1131134	REC_WORD_VV	14.326	n/a	<>	-999	10	[0, 0, 0]	n/a	FR1	1	R1398J
1140.978	1.537	1145461	REC_END	n/a	n/a	n/a	-999	10	[0, 0, 0]	n/a	FR1	1	R1398J
1142.515	10.366	1146999	COUNTDOWN_START	n/a	n/a	n/a	-999	10	[0, 0, 0]	n/a	FR1	1	R1398J
1152.881	0.0	1157365	COUNTDOWN_END	n/a	n/a	n/a	-999	10	[0, 0, 0]	n/a	FR1	1	R1398J
1152.881	2.168	1157365	ENCODING_START	n/a	n/a	n/a	-999	11	[0, 0, 0]	n/a	FR1	1	R1398J
1155.049	1.599	1159531	WORD	n/a	wordpools/wordpool_long_EN.txt	FORT	1	11	[0, 0, 0]	n/a	FR1	1	R1398J
1156.648	1.0	1161127	WORD_OFF	n/a	n/a	FORT	1	11	[0, 0, 0]	n/a	FR1	1	R1398J
1157.648	1.6	1162127	WORD	n/a	wordpools/wordpool_long_EN.txt	VASE	2	11	[0, 0, 0]	n/a	FR1	1	R1398J
1159.248	0.9	1163731	WORD_OFF	n/a	n/a	VASE	2	11	[0, 0, 0]	n/a	FR1	1	R1398J
1160.148	1.6	1164632	WORD	n/a	wordpools/wordpool_long_EN.txt	JAIL	3	11	[0, 0, 0]	n/a	FR1	1	R1398J
1161.748	0.967	1166227	WORD_OFF	n/a	n/a	JAIL	3	11	[0, 0, 0]	n/a	FR1	1	R1398J
1162.715	1.6	1167194	WORD	n/a	wordpools/wordpool_long_EN.txt	DEER	4	11	[0, 0, 0]	n/a	FR1	1	R1398J
1164.315	0.8	1168798	WORD_OFF	n/a	n/a	DEER	4	11	[0, 0, 0]	n/a	FR1	1	R1398J
1165.115	1.6	1169600	WORD	n/a	wordpools/wordpool_long_EN.txt	ARCH	5	11	[0, 0, 0]	n/a	FR1	1	R1398J
1166.715	0.933	1171195	WORD_OFF	n/a	n/a	ARCH	5	11	[0, 0, 0]	n/a	FR1	1	R1398J
1167.648	1.6	1172130	WORD	n/a	wordpools/wordpool_long_EN.txt	STAIR	6	11	[0, 0, 0]	n/a	FR1	1	R1398J
1169.248	0.817	1173733	WORD_OFF	n/a	n/a	STAIR	6	11	[0, 0, 0]	n/a	FR1	1	R1398J
1170.065	1.617	1174543	WORD	n/a	wordpools/wordpool_long_EN.txt	STORE	7	11	[0, 0, 0]	n/a	FR1	1	R1398J
1171.682	0.966	1176164	WORD_OFF	n/a	n/a	STORE	7	11	[0, 0, 0]	n/a	FR1	1	R1398J
1172.648	1.6	1177131	WORD	n/a	wordpools/wordpool_long_EN.txt	SKY	8	11	[0, 0, 0]	n/a	FR1	1	R1398J
1174.248	0.816	1178726	WORD_OFF	n/a	n/a	SKY	8	11	[0, 0, 0]	n/a	FR1	1	R1398J
1175.064	1.6	1179553	WORD	n/a	wordpools/wordpool_long_EN.txt	FUR	9	11	[0, 0, 0]	n/a	FR1	1	R1398J
1176.664	0.984	1181148	WORD_OFF	n/a	n/a	FUR	9	11	[0, 0, 0]	n/a	FR1	1	R1398J
1177.648	1.6	1182132	WORD	n/a	wordpools/wordpool_long_EN.txt	YOLK	10	11	[0, 0, 0]	n/a	FR1	1	R1398J
1179.248	0.95	1183728	WORD_OFF	n/a	n/a	YOLK	10	11	[0, 0, 0]	n/a	FR1	1	R1398J
1180.198	1.6	1184678	WORD	n/a	wordpools/wordpool_long_EN.txt	TOWN	11	11	[0, 0, 0]	n/a	FR1	1	R1398J
1181.798	0.9	1186282	WORD_OFF	n/a	n/a	TOWN	11	11	[0, 0, 0]	n/a	FR1	1	R1398J
1182.698	1.601	1187183	WORD	n/a	wordpools/wordpool_long_EN.txt	CONE	12	11	[0, 0, 0]	n/a	FR1	1	R1398J
1184.299	0.001	1188779	WORD_OFF	n/a	n/a	CONE	12	11	[0, 0, 0]	n/a	FR1	1	R1398J
1184.3	0.0	1188779	ENCODING_END	n/a	n/a	n/a	-999	11	[0, 0, 0]	n/a	FR1	1	R1398J
1184.299	0.001	1188779	PROB	0.001	n/a	n/a	-999	11	[1, 1, 5]	7	FR1	1	R1398J
1184.3	0.0	1188780	START	n/a	n/a	n/a	-999	11	[-999, -999, -999]	n/a	FR1	1	R1398J
1184.3	3.132	1188787	DISTRACT_START	n/a	n/a	n/a	-999	11	[0, 0, 0]	n/a	FR1	1	R1398J
1187.432	2.833	1191912	PROB	2.833	n/a	n/a	-999	11	[3, 7, 2]	12	FR1	1	R1398J
1190.265	2.768	1194745	PROB	2.768	n/a	n/a	-999	11	[6, 5, 3]	14	FR1	1	R1398J
1193.033	2.732	1197513	PROB	2.732	n/a	n/a	-999	11	[8, 6, 3]	17	FR1	1	R1398J
1195.765	5.101	1200244	PROB	5.101	n/a	n/a	-999	11	[8, 7, 8]	23	FR1	1	R1398J
1200.866	3.416	1205345	PROB	3.416	n/a	n/a	-999	11	[4, 7, 2]	13	FR1	1	R1398J
1204.282	3.133	1208761	PROB	3.133	n/a	n/a	-999	11	[2, 1, 1]	4	FR1	1	R1398J
1207.415	0.0	1211892	DISTRACT_END	n/a	n/a	n/a	-999	11	[0, 0, 0]	n/a	FR1	1	R1398J
1207.415	1.166	1211894	STOP	n/a	n/a	n/a	-999	11	[-999, -999, -999]	n/a	FR1	1	R1398J
1208.581	1.257	1213058	REC_START	n/a	n/a	n/a	-999	11	[0, 0, 0]	n/a	FR1	1	R1398J
1209.838	3.392	1214317	REC_WORD_VV	3.392	n/a	<>	-999	11	[0, 0, 0]	n/a	FR1	1	R1398J
1213.23	3.279	1217709	REC_WORD	3.279	n/a	SHIELD	-999	11	[0, 0, 0]	n/a	FR1	1	R1398J
1216.509	5.638	1220988	REC_WORD_VV	5.638	n/a	<>	-999	11	[0, 0, 0]	n/a	FR1	1	R1398J
1222.147	1.0	1226625	REC_WORD_VV	1.0	n/a	<>	-999	11	[0, 0, 0]	n/a	FR1	1	R1398J
1223.147	5.789	1227625	REC_WORD_VV	5.789	n/a	<>	-999	11	[0, 0, 0]	n/a	FR1	1	R1398J
1228.936	2.237	1233414	REC_WORD	2.237	n/a	VASE	2	11	[0, 0, 0]	n/a	FR1	1	R1398J
1231.173	0.632	1235651	REC_WORD_VV	0.632	n/a	<>	-999	11	[0, 0, 0]	n/a	FR1	1	R1398J
1231.805	2.901	1236283	REC_WORD	2.901	n/a	FORT	1	11	[0, 0, 0]	n/a	FR1	1	R1398J
1234.706	5.086	1239184	REC_WORD_VV	5.086	n/a	<>	-999	11	[0, 0, 0]	n/a	FR1	1	R1398J
1239.792	1.906	1244273	REC_END	n/a	n/a	n/a	-999	11	[0, 0, 0]	n/a	FR1	1	R1398J
1241.698	10.366	1246174	COUNTDOWN_START	n/a	n/a	n/a	-999	11	[0, 0, 0]	n/a	FR1	1	R1398J
1252.064	0.0	1256540	COUNTDOWN_END	n/a	n/a	n/a	-999	11	[0, 0, 0]	n/a	FR1	1	R1398J
1252.064	2.168	1256540	ENCODING_START	n/a	n/a	n/a	-999	12	[0, 0, 0]	n/a	FR1	1	R1398J
1254.232	1.6	1258706	WORD	n/a	wordpools/wordpool_long_EN.txt	BOX	1	12	[0, 0, 0]	n/a	FR1	1	R1398J
1255.832	0.783	1260310	WORD_OFF	n/a	n/a	BOX	1	12	[0, 0, 0]	n/a	FR1	1	R1398J
1256.615	1.6	1261095	WORD	n/a	wordpools/wordpool_long_EN.txt	LACE	2	12	[0, 0, 0]	n/a	FR1	1	R1398J
1258.215	0.966	1262691	WORD_OFF	n/a	n/a	LACE	2	12	[0, 0, 0]	n/a	FR1	1	R1398J
1259.181	1.601	1263658	WORD	n/a	wordpools/wordpool_long_EN.txt	BREAD	3	12	[0, 0, 0]	n/a	FR1	1	R1398J
1260.782	0.85	1265262	WORD_OFF	n/a	n/a	BREAD	3	12	[0, 0, 0]	n/a	FR1	1	R1398J
1261.632	1.6	1266105	WORD	n/a	wordpools/wordpool_long_EN.txt	PALM	4	12	[0, 0, 0]	n/a	FR1	1	R1398J
1263.232	0.866	1267709	WORD_OFF	n/a	n/a	PALM	4	12	[0, 0, 0]	n/a	FR1	1	R1398J
1264.098	1.601	1268577	WORD	n/a	wordpools/wordpool_long_EN.txt	SPACE	5	12	[0, 0, 0]	n/a	FR1	1	R1398J
1265.699	0.766	1270180	WORD_OFF	n/a	n/a	SPACE	5	12	[0, 0, 0]	n/a	FR1	1	R1398J
1266.465	1.617	1270941	WORD	n/a	wordpools/wordpool_long_EN.txt	SWAMP	6	12	[0, 0, 0]	n/a	FR1	1	R1398J
1268.082	0.883	1272561	WORD_OFF	n/a	n/a	SWAMP	6	12	[0, 0, 0]	n/a	FR1	1	R1398J
1268.965	1.6	1273446	WORD	n/a	wordpools/wordpool_long_EN.txt	CLOWN	7	12	[0, 0, 0]	n/a	FR1	1	R1398J
1270.565	0.917	1275041	WORD_OFF	n/a	n/a	CLOWN	7	12	[0, 0, 0]	n/a	FR1	1	R1398J
1271.482	1.6	1275959	WORD	n/a	wordpools/wordpool_long_EN.txt	CHEEK	8	12	[0, 0, 0]	n/a	FR1	1	R1398J
1273.082	0.932	1277563	WORD_OFF	n/a	n/a	CHEEK	8	12	[0, 0, 0]	n/a	FR1	1	R1398J
1274.014	1.601	1278488	WORD	n/a	wordpools/wordpool_long_EN.txt	TROUT	9	12	[0, 0, 0]	n/a	FR1	1	R1398J
1275.615	0.984	1280092	WORD_OFF	n/a	n/a	TROUT	9	12	[0, 0, 0]	n/a	FR1	1	R1398J
1276.599	1.616	1281076	WORD	n/a	wordpools/wordpool_long_EN.txt	BEAST	10	12	[0, 0, 0]	n/a	FR1	1	R1398J
1278.215	0.817	1282696	WORD_OFF	n/a	n/a	BEAST	10	12	[0, 0, 0]	n/a	FR1	1	R1398J
1279.032	1.6	1283506	WORD	n/a	wordpools/wordpool_long_EN.txt	MOP	11	12	[0, 0, 0]	n/a	FR1	1	R1398J
1280.632	0.8	1285110	WORD_OFF	n/a	n/a	MOP	11	12	[0, 0, 0]	n/a	FR1	1	R1398J
1281.432	1.6	1285912	WORD	n/a	wordpools/wordpool_long_EN.txt	SLUG	12	12	[0, 0, 0]	n/a	FR1	1	R1398J
1283.032	0.001	1287507	WORD_OFF	n/a	n/a	SLUG	12	12	[0, 0, 0]	n/a	FR1	1	R1398J
1283.033	0.0	1287507	ENCODING_END	n/a	n/a	n/a	-999	12	[0, 0, 0]	n/a	FR1	1	R1398J
1283.032	0.001	1287508	PROB	0.001	n/a	n/a	-999	12	[5, 6, 4]	15	FR1	1	R1398J
1283.033	0.0	1287509	START	n/a	n/a	n/a	-999	12	[-999, -999, -999]	n/a	FR1	1	R1398J
1283.033	3.332	1287516	DISTRACT_START	n/a	n/a	n/a	-999	12	[0, 0, 0]	n/a	FR1	1	R1398J
1286.365	2.917	1290841	PROB	2.917	n/a	n/a	-999	12	[7, 8, 3]	18	FR1	1	R1398J
1289.282	2.884	1293758	PROB	2.884	n/a	n/a	-999	12	[7, 6, 2]	15	FR1	1	R1398J
1292.166	2.682	1296641	PROB	2.682	n/a	n/a	-999	12	[2, 3, 5]	10	FR1	1	R1398J
1294.848	3.801	1299323	PROB	3.801	n/a	n/a	-999	12	[2, 1, 5]	8	FR1	1	R1398J
1298.649	2.966	1303124	PROB	2.966	n/a	n/a	-999	12	[2, 4, 8]	14	FR1	1	R1398J
1301.615	2.933	1306090	PROB	2.933	n/a	n/a	-999	12	[3, 1, 5]	9	FR1	1	R1398J
1304.548	0.0	1309023	STOP	n/a	n/a	n/a	-999	12	[-999, -999, -999]	n/a	FR1	1	R1398J
1304.548	1.233	1309025	DISTRACT_END	n/a	n/a	n/a	-999	12	[0, 0, 0]	n/a	FR1	1	R1398J
1305.781	1.095	1310257	REC_START	n/a	n/a	n/a	-999	12	[0, 0, 0]	n/a	FR1	1	R1398J
1306.876	0.462	1311351	REC_WORD_VV	0.462	n/a	<>	-999	12	[0, 0, 0]	n/a	FR1	1	R1398J
1307.338	1.921	1311813	REC_WORD	1.921	n/a	BEAST	10	12	[0, 0, 0]	n/a	FR1	1	R1398J
1309.259	6.991	1313734	REC_WORD_VV	6.991	n/a	<>	-999	12	[0, 0, 0]	n/a	FR1	1	R1398J
1316.25	1.412	1320724	REC_WORD	1.412	n/a	BEAST	10	12	[0, 0, 0]	n/a	FR1	1	R1398J
1317.662	3.594	1322136	REC_WORD_VV	3.594	n/a	<>	-999	12	[0, 0, 0]	n/a	FR1	1	R1398J
1321.256	1.0	1325730	REC_WORD_VV	1.0	n/a	<>	-999	12	[0, 0, 0]	n/a	FR1	1	R1398J
1322.256	2.608	1326730	REC_WORD_VV	2.608	n/a	<>	-999	12	[0, 0, 0]	n/a	FR1	1	R1398J
1324.864	6.669	1329338	REC_WORD_VV	6.669	n/a	<>	-999	12	[0, 0, 0]	n/a	FR1	1	R1398J
1331.533	5.444	1336007	REC_WORD_VV	5.444	n/a	<>	-999	12	[0, 0, 0]	n/a	FR1	1	R1398J
1336.977	0.0	1341447	REC_END	n/a	n/a	n/a	-999	12	[0, 0, 0]	n/a	FR1	1	R1398J
