onset	duration	sample	trial_type	response_time	stim_file	item_name	serialpos	list	test	answer	experiment	session	subject
0.0	0.0	5681	INSTRUCT_START	n/a	n/a	n/a	-999	-999	[0, 0, 0]	n/a	FR1	1	R1147P
0.0	10.971	5681	INSTRUCT_END	n/a	n/a	n/a	-999	-999	[0, 0, 0]	n/a	FR1	1	R1147P
10.971	0.0	16651	SESS_START	n/a	n/a	n/a	-999	-999	[0, 0, 0]	n/a	FR1	1	R1147P
10.971	169.803	16651	MIC_TEST	n/a	n/a	n/a	-999	-999	[0, 0, 0]	n/a	FR1	1	R1147P
180.774	12.746	186445	PRACTICE_TRIAL	n/a	n/a	n/a	-999	-1	[0, 0, 0]	n/a	FR1	1	R1147P
193.52	10.428	199191	COUNTDOWN_START	n/a	n/a	n/a	-999	-1	[0, 0, 0]	n/a	FR1	1	R1147P
203.948	0.007	209618	COUNTDOWN_END	n/a	n/a	n/a	-999	-1	[0, 0, 0]	n/a	FR1	1	R1147P
203.955	1.617	209625	PRACTICE_ORIENT	n/a	n/a	n/a	-999	-1	[0, 0, 0]	n/a	FR1	1	R1147P
205.572	2.017	211242	PRACTICE_ORIENT_OFF	n/a	n/a	n/a	-999	-1	[0, 0, 0]	n/a	FR1	1	R1147P
207.589	1.617	213259	PRACTICE_WORD	n/a	n/a	CHEST	1	-1	[0, 0, 0]	n/a	FR1	1	R1147P
209.206	0.983	214876	PRACTICE_WORD_OFF	n/a	n/a	CHEST	-999	-1	[0, 0, 0]	n/a	FR1	1	R1147P
210.189	1.618	215859	PRACTICE_WORD	n/a	n/a	TONGUE	2	-1	[0, 0, 0]	n/a	FR1	1	R1147P
211.807	0.933	217477	PRACTICE_WORD_OFF	n/a	n/a	TONGUE	-999	-1	[0, 0, 0]	n/a	FR1	1	R1147P
212.74	1.617	218410	PRACTICE_WORD	n/a	n/a	BEAM	3	-1	[0, 0, 0]	n/a	FR1	1	R1147P
214.357	0.967	220027	PRACTICE_WORD_OFF	n/a	n/a	BEAM	-999	-1	[0, 0, 0]	n/a	FR1	1	R1147P
215.324	1.617	220994	PRACTICE_WORD	n/a	n/a	ATTIC	4	-1	[0, 0, 0]	n/a	FR1	1	R1147P
216.941	0.8	222611	PRACTICE_WORD_OFF	n/a	n/a	ATTIC	-999	-1	[0, 0, 0]	n/a	FR1	1	R1147P
217.741	1.617	223411	PRACTICE_WORD	n/a	n/a	COTTON	5	-1	[0, 0, 0]	n/a	FR1	1	R1147P
219.358	0.984	225027	PRACTICE_WORD_OFF	n/a	n/a	COTTON	-999	-1	[0, 0, 0]	n/a	FR1	1	R1147P
220.342	1.617	226011	PRACTICE_WORD	n/a	n/a	CAMEL	6	-1	[0, 0, 0]	n/a	FR1	1	R1147P
221.959	0.8	227628	PRACTICE_WORD_OFF	n/a	n/a	CAMEL	-999	-1	[0, 0, 0]	n/a	FR1	1	R1147P
222.759	1.617	228428	PRACTICE_WORD	n/a	n/a	RHINO	7	-1	[0, 0, 0]	n/a	FR1	1	R1147P
224.376	0.917	230045	PRACTICE_WORD_OFF	n/a	n/a	RHINO	-999	-1	[0, 0, 0]	n/a	FR1	1	R1147P
225.293	1.617	230962	PRACTICE_WORD	n/a	n/a	WATCH	8	-1	[0, 0, 0]	n/a	FR1	1	R1147P
226.91	0.9	232579	PRACTICE_WORD_OFF	n/a	n/a	WATCH	-999	-1	[0, 0, 0]	n/a	FR1	1	R1147P
227.81	1.617	233479	PRACTICE_WORD	n/a	n/a	IRON	9	-1	[0, 0, 0]	n/a	FR1	1	R1147P
229.427	0.95	235096	PRACTICE_WORD_OFF	n/a	n/a	IRON	-999	-1	[0, 0, 0]	n/a	FR1	1	R1147P
230.377	1.617	236046	PRACTICE_WORD	n/a	n/a	RING	10	-1	[0, 0, 0]	n/a	FR1	1	R1147P
231.994	0.9	237663	PRACTICE_WORD_OFF	n/a	n/a	RING	-999	-1	[0, 0, 0]	n/a	FR1	1	R1147P
232.894	1.617	238563	PRACTICE_WORD	n/a	n/a	WAGON	11	-1	[0, 0, 0]	n/a	FR1	1	R1147P
234.511	0.967	240180	PRACTICE_WORD_OFF	n/a	n/a	WAGON	-999	-1	[0, 0, 0]	n/a	FR1	1	R1147P
235.478	1.617	241147	PRACTICE_WORD	n/a	n/a	FLOOD	12	-1	[0, 0, 0]	n/a	FR1	1	R1147P
237.095	0.0	242764	PRACTICE_WORD_OFF	n/a	n/a	FLOOD	-999	-1	[0, 0, 0]	n/a	FR1	1	R1147P
237.095	0.0	242764	DISTRACT_START	n/a	n/a	n/a	-999	-1	[0, 0, 0]	n/a	FR1	1	R1147P
237.095	0.016	242764	START	n/a	n/a	n/a	-999	-1	[-999, -999, -999]	n/a	FR1	1	R1147P
237.111	4.535	242780	PROB	4.535	n/a	n/a	-999	-1	[6, 5, 2]	13	FR1	1	R1147P
241.646	4.334	247314	PROB	4.334	n/a	n/a	-999	-1	[5, 6, 3]	14	FR1	1	R1147P
245.98	3.2	251648	PROB	3.2	n/a	n/a	-999	-1	[2, 2, 3]	7	FR1	1	R1147P
249.18	4.201	254848	PROB	4.201	n/a	n/a	-999	-1	[9, 7, 5]	21	FR1	1	R1147P
253.381	5.236	259049	PROB	5.236	n/a	n/a	-999	-1	[1, 4, 3]	8	FR1	1	R1147P
258.617	0.015	264284	STOP	n/a	n/a	n/a	-999	-1	[-999, -999, -999]	n/a	FR1	1	R1147P
258.632	0.534	264299	DISTRACT_END	n/a	n/a	n/a	-999	-1	[0, 0, 0]	n/a	FR1	1	R1147P
259.166	0.517	264833	RETRIEVAL_ORIENT	n/a	n/a	n/a	-999	-1	[0, 0, 0]	n/a	FR1	1	R1147P
259.683	30.013	265350	PRACTICE_REC_START	n/a	n/a	n/a	-999	-1	[0, 0, 0]	n/a	FR1	1	R1147P
289.696	19.729	295362	PRACTICE_REC_END	n/a	n/a	n/a	-999	-1	[0, 0, 0]	n/a	FR1	1	R1147P
309.425	0.5	315090	TRIAL	n/a	n/a	n/a	-999	1	[0, 0, 0]	n/a	FR1	1	R1147P
309.925	10.428	315590	COUNTDOWN_START	n/a	n/a	n/a	-999	1	[0, 0, 0]	n/a	FR1	1	R1147P
320.353	0.007	326017	COUNTDOWN_END	n/a	n/a	n/a	-999	1	[0, 0, 0]	n/a	FR1	1	R1147P
320.36	1.617	326024	ORIENT	n/a	n/a	n/a	-999	1	[0, 0, 0]	n/a	FR1	1	R1147P
321.977	1.851	327641	ORIENT_OFF	n/a	n/a	n/a	-999	1	[0, 0, 0]	n/a	FR1	1	R1147P
323.828	1.617	329492	WORD	n/a	wordpools/wordpool_EN.txt	ZOO	1	1	[0, 0, 0]	n/a	FR1	1	R1147P
325.445	0.883	331109	WORD_OFF	n/a	n/a	ZOO	1	1	[0, 0, 0]	n/a	FR1	1	R1147P
326.328	1.617	331992	WORD	n/a	wordpools/wordpool_EN.txt	WORM	2	1	[0, 0, 0]	n/a	FR1	1	R1147P
327.945	0.767	333609	WORD_OFF	n/a	n/a	WORM	2	1	[0, 0, 0]	n/a	FR1	1	R1147P
328.712	1.617	334376	WORD	n/a	wordpools/wordpool_EN.txt	SNAKE	3	1	[0, 0, 0]	n/a	FR1	1	R1147P
330.329	0.95	335993	WORD_OFF	n/a	n/a	SNAKE	3	1	[0, 0, 0]	n/a	FR1	1	R1147P
331.279	1.617	336943	WORD	n/a	wordpools/wordpool_EN.txt	WEB	4	1	[0, 0, 0]	n/a	FR1	1	R1147P
332.896	0.967	338560	WORD_OFF	n/a	n/a	WEB	4	1	[0, 0, 0]	n/a	FR1	1	R1147P
333.863	1.617	339527	WORD	n/a	wordpools/wordpool_EN.txt	FUDGE	5	1	[0, 0, 0]	n/a	FR1	1	R1147P
335.48	0.9	341143	WORD_OFF	n/a	n/a	FUDGE	5	1	[0, 0, 0]	n/a	FR1	1	R1147P
336.38	1.617	342043	WORD	n/a	wordpools/wordpool_EN.txt	SHELL	6	1	[0, 0, 0]	n/a	FR1	1	R1147P
337.997	0.9	343660	WORD_OFF	n/a	n/a	SHELL	6	1	[0, 0, 0]	n/a	FR1	1	R1147P
338.897	1.617	344560	WORD	n/a	wordpools/wordpool_EN.txt	MUD	7	1	[0, 0, 0]	n/a	FR1	1	R1147P
340.514	0.9	346177	WORD_OFF	n/a	n/a	MUD	7	1	[0, 0, 0]	n/a	FR1	1	R1147P
341.414	1.617	347077	WORD	n/a	wordpools/wordpool_EN.txt	FOOD	8	1	[0, 0, 0]	n/a	FR1	1	R1147P
343.031	0.8	348694	WORD_OFF	n/a	n/a	FOOD	8	1	[0, 0, 0]	n/a	FR1	1	R1147P
343.831	1.618	349494	WORD	n/a	wordpools/wordpool_EN.txt	CAVE	9	1	[0, 0, 0]	n/a	FR1	1	R1147P
345.449	1.0	351112	WORD_OFF	n/a	n/a	CAVE	9	1	[0, 0, 0]	n/a	FR1	1	R1147P
346.449	1.617	352112	WORD	n/a	wordpools/wordpool_EN.txt	SEAL	10	1	[0, 0, 0]	n/a	FR1	1	R1147P
348.066	0.883	353729	WORD_OFF	n/a	n/a	SEAL	10	1	[0, 0, 0]	n/a	FR1	1	R1147P
348.949	1.617	354612	WORD	n/a	wordpools/wordpool_EN.txt	MOLE	11	1	[0, 0, 0]	n/a	FR1	1	R1147P
350.566	0.884	356229	WORD_OFF	n/a	n/a	MOLE	11	1	[0, 0, 0]	n/a	FR1	1	R1147P
351.45	1.617	357113	WORD	n/a	wordpools/wordpool_EN.txt	SPONGE	12	1	[0, 0, 0]	n/a	FR1	1	R1147P
353.067	0.0	358730	WORD_OFF	n/a	n/a	SPONGE	12	1	[0, 0, 0]	n/a	FR1	1	R1147P
353.067	0.0	358730	DISTRACT_START	n/a	n/a	n/a	-999	1	[0, 0, 0]	n/a	FR1	1	R1147P
353.067	0.016	358730	START	n/a	n/a	n/a	-999	1	[-999, -999, -999]	n/a	FR1	1	R1147P
353.083	4.301	358746	PROB	4.301	n/a	n/a	-999	1	[5, 6, 2]	13	FR1	1	R1147P
357.384	3.467	363046	PROB	3.467	n/a	n/a	-999	1	[9, 3, 9]	21	FR1	1	R1147P
360.851	4.951	366513	PROB	4.951	n/a	n/a	-999	1	[1, 6, 7]	14	FR1	1	R1147P
365.802	5.101	371464	PROB	5.101	n/a	n/a	-999	1	[6, 9, 1]	18	FR1	1	R1147P
370.903	5.578	376565	PROB	5.578	n/a	n/a	-999	1	[5, 6, 3]	14	FR1	1	R1147P
376.481	0.006	382142	STOP	n/a	n/a	n/a	-999	1	[-999, -999, -999]	n/a	FR1	1	R1147P
376.487	0.617	382148	DISTRACT_END	n/a	n/a	n/a	-999	1	[0, 0, 0]	n/a	FR1	1	R1147P
377.104	0.518	382765	RETRIEVAL_ORIENT	n/a	n/a	n/a	-999	1	[0, 0, 0]	n/a	FR1	1	R1147P
377.622	4.807	383283	REC_START	n/a	n/a	n/a	-999	1	[0, 0, 0]	n/a	FR1	1	R1147P
382.429	0.603	388090	REC_WORD	0.603	n/a	WORM	2	1	[0, 0, 0]	n/a	FR1	1	R1147P
383.032	3.77	388693	REC_WORD	3.77	n/a	ZOO	1	1	[0, 0, 0]	n/a	FR1	1	R1147P
386.802	3.332	392463	REC_WORD_VV	3.332	n/a	<>	-999	1	[0, 0, 0]	n/a	FR1	1	R1147P
390.134	17.5	395795	REC_WORD	17.5	n/a	EEL	-999	1	[0, 0, 0]	n/a	FR1	1	R1147P
407.634	5.594	413294	REC_END	n/a	n/a	n/a	-999	1	[0, 0, 0]	n/a	FR1	1	R1147P
413.228	0.5	418887	TRIAL	n/a	n/a	n/a	-999	2	[0, 0, 0]	n/a	FR1	1	R1147P
413.728	10.428	419387	COUNTDOWN_START	n/a	n/a	n/a	-999	2	[0, 0, 0]	n/a	FR1	1	R1147P
424.156	0.007	429815	COUNTDOWN_END	n/a	n/a	n/a	-999	2	[0, 0, 0]	n/a	FR1	1	R1147P
424.163	1.617	429822	ORIENT	n/a	n/a	n/a	-999	2	[0, 0, 0]	n/a	FR1	1	R1147P
425.78	2.167	431439	ORIENT_OFF	n/a	n/a	n/a	-999	2	[0, 0, 0]	n/a	FR1	1	R1147P
427.947	1.617	433606	WORD	n/a	wordpools/wordpool_EN.txt	VEST	1	2	[0, 0, 0]	n/a	FR1	1	R1147P
429.564	0.95	435223	WORD_OFF	n/a	n/a	VEST	1	2	[0, 0, 0]	n/a	FR1	1	R1147P
430.514	1.617	436173	WORD	n/a	wordpools/wordpool_EN.txt	HOSE	2	2	[0, 0, 0]	n/a	FR1	1	R1147P
432.131	0.917	437789	WORD_OFF	n/a	n/a	HOSE	2	2	[0, 0, 0]	n/a	FR1	1	R1147P
433.048	1.617	438706	WORD	n/a	wordpools/wordpool_EN.txt	SLEEVE	3	2	[0, 0, 0]	n/a	FR1	1	R1147P
434.665	0.85	440323	WORD_OFF	n/a	n/a	SLEEVE	3	2	[0, 0, 0]	n/a	FR1	1	R1147P
435.515	1.617	441173	WORD	n/a	wordpools/wordpool_EN.txt	PEN	4	2	[0, 0, 0]	n/a	FR1	1	R1147P
437.132	0.967	442790	WORD_OFF	n/a	n/a	PEN	4	2	[0, 0, 0]	n/a	FR1	1	R1147P
438.099	1.617	443757	WORD	n/a	wordpools/wordpool_EN.txt	DOLL	5	2	[0, 0, 0]	n/a	FR1	1	R1147P
439.716	1.0	445374	WORD_OFF	n/a	n/a	DOLL	5	2	[0, 0, 0]	n/a	FR1	1	R1147P
440.716	1.617	446374	WORD	n/a	wordpools/wordpool_EN.txt	JEEP	6	2	[0, 0, 0]	n/a	FR1	1	R1147P
442.333	0.801	447991	WORD_OFF	n/a	n/a	JEEP	6	2	[0, 0, 0]	n/a	FR1	1	R1147P
443.134	1.617	448792	WORD	n/a	wordpools/wordpool_EN.txt	TREE	7	2	[0, 0, 0]	n/a	FR1	1	R1147P
444.751	0.916	450409	WORD_OFF	n/a	n/a	TREE	7	2	[0, 0, 0]	n/a	FR1	1	R1147P
445.667	1.617	451325	WORD	n/a	wordpools/wordpool_EN.txt	DRUM	8	2	[0, 0, 0]	n/a	FR1	1	R1147P
447.284	0.967	452942	WORD_OFF	n/a	n/a	DRUM	8	2	[0, 0, 0]	n/a	FR1	1	R1147P
448.251	1.617	453909	WORD	n/a	wordpools/wordpool_EN.txt	BRUSH	9	2	[0, 0, 0]	n/a	FR1	1	R1147P
449.868	0.9	455526	WORD_OFF	n/a	n/a	BRUSH	9	2	[0, 0, 0]	n/a	FR1	1	R1147P
450.768	1.617	456426	WORD	n/a	wordpools/wordpool_EN.txt	CHALK	10	2	[0, 0, 0]	n/a	FR1	1	R1147P
452.385	0.883	458042	WORD_OFF	n/a	n/a	CHALK	10	2	[0, 0, 0]	n/a	FR1	1	R1147P
453.268	1.618	458925	WORD	n/a	wordpools/wordpool_EN.txt	OAR	11	2	[0, 0, 0]	n/a	FR1	1	R1147P
454.886	0.967	460543	WORD_OFF	n/a	n/a	OAR	11	2	[0, 0, 0]	n/a	FR1	1	R1147P
455.853	1.617	461510	WORD	n/a	wordpools/wordpool_EN.txt	NOSE	12	2	[0, 0, 0]	n/a	FR1	1	R1147P
457.47	0.0	463127	DISTRACT_START	n/a	n/a	n/a	-999	2	[0, 0, 0]	n/a	FR1	1	R1147P
457.47	0.0	463127	WORD_OFF	n/a	n/a	NOSE	12	2	[0, 0, 0]	n/a	FR1	1	R1147P
457.47	0.016	463127	START	n/a	n/a	n/a	-999	2	[-999, -999, -999]	n/a	FR1	1	R1147P
457.486	6.451	463143	PROB	6.451	n/a	n/a	-999	2	[2, 8, 7]	17	FR1	1	R1147P
463.937	4.618	469594	PROB	4.618	n/a	n/a	-999	2	[2, 8, 7]	17	FR1	1	R1147P
468.555	3.701	474212	PROB	3.701	n/a	n/a	-999	2	[5, 7, 1]	13	FR1	1	R1147P
472.256	4.517	477912	PROB	4.517	n/a	n/a	-999	2	[8, 8, 2]	18	FR1	1	R1147P
476.773	3.244	482429	PROB	3.244	n/a	n/a	-999	2	[4, 1, 7]	12	FR1	1	R1147P
480.017	0.007	485673	STOP	n/a	n/a	n/a	-999	2	[-999, -999, -999]	n/a	FR1	1	R1147P
480.024	0.7	485680	DISTRACT_END	n/a	n/a	n/a	-999	2	[0, 0, 0]	n/a	FR1	1	R1147P
480.724	0.517	486380	RETRIEVAL_ORIENT	n/a	n/a	n/a	-999	2	[0, 0, 0]	n/a	FR1	1	R1147P
481.241	4.3	486897	REC_START	n/a	n/a	n/a	-999	2	[0, 0, 0]	n/a	FR1	1	R1147P
485.541	0.65	491197	REC_WORD	0.65	n/a	VEST	1	2	[0, 0, 0]	n/a	FR1	1	R1147P
486.191	2.097	491847	REC_WORD	2.097	n/a	ROW	-999	2	[0, 0, 0]	n/a	FR1	1	R1147P
488.288	18.681	493944	REC_WORD	18.681	n/a	OAR	11	2	[0, 0, 0]	n/a	FR1	1	R1147P
506.969	4.285	512624	REC_WORD_VV	4.285	n/a	<>	-999	2	[0, 0, 0]	n/a	FR1	1	R1147P
511.254	7.394	516908	REC_END	n/a	n/a	n/a	-999	2	[0, 0, 0]	n/a	FR1	1	R1147P
518.648	0.5	524302	TRIAL	n/a	n/a	n/a	-999	3	[0, 0, 0]	n/a	FR1	1	R1147P
519.148	10.428	524802	COUNTDOWN_START	n/a	n/a	n/a	-999	3	[0, 0, 0]	n/a	FR1	1	R1147P
529.576	0.007	535229	COUNTDOWN_END	n/a	n/a	n/a	-999	3	[0, 0, 0]	n/a	FR1	1	R1147P
529.583	1.617	535236	ORIENT	n/a	n/a	n/a	-999	3	[0, 0, 0]	n/a	FR1	1	R1147P
531.2	2.017	536853	ORIENT_OFF	n/a	n/a	n/a	-999	3	[0, 0, 0]	n/a	FR1	1	R1147P
533.217	1.617	538870	WORD	n/a	wordpools/wordpool_EN.txt	BEE	1	3	[0, 0, 0]	n/a	FR1	1	R1147P
534.834	0.984	540487	WORD_OFF	n/a	n/a	BEE	1	3	[0, 0, 0]	n/a	FR1	1	R1147P
535.818	1.617	541471	WORD	n/a	wordpools/wordpool_EN.txt	TOAD	2	3	[0, 0, 0]	n/a	FR1	1	R1147P
537.435	0.916	543088	WORD_OFF	n/a	n/a	TOAD	2	3	[0, 0, 0]	n/a	FR1	1	R1147P
538.351	1.618	544004	WORD	n/a	wordpools/wordpool_EN.txt	POLE	3	3	[0, 0, 0]	n/a	FR1	1	R1147P
539.969	0.833	545622	WORD_OFF	n/a	n/a	POLE	3	3	[0, 0, 0]	n/a	FR1	1	R1147P
540.802	1.617	546455	WORD	n/a	wordpools/wordpool_EN.txt	HEART	4	3	[0, 0, 0]	n/a	FR1	1	R1147P
542.419	0.833	548072	WORD_OFF	n/a	n/a	HEART	4	3	[0, 0, 0]	n/a	FR1	1	R1147P
543.252	1.617	548905	WORD	n/a	wordpools/wordpool_EN.txt	STAR	5	3	[0, 0, 0]	n/a	FR1	1	R1147P
544.869	0.784	550522	WORD_OFF	n/a	n/a	STAR	5	3	[0, 0, 0]	n/a	FR1	1	R1147P
545.653	1.617	551306	WORD	n/a	wordpools/wordpool_EN.txt	EGG	6	3	[0, 0, 0]	n/a	FR1	1	R1147P
547.27	0.883	552923	WORD_OFF	n/a	n/a	EGG	6	3	[0, 0, 0]	n/a	FR1	1	R1147P
548.153	1.617	553805	WORD	n/a	wordpools/wordpool_EN.txt	CLOCK	7	3	[0, 0, 0]	n/a	FR1	1	R1147P
549.77	0.767	555422	WORD_OFF	n/a	n/a	CLOCK	7	3	[0, 0, 0]	n/a	FR1	1	R1147P
550.537	1.617	556189	WORD	n/a	wordpools/wordpool_EN.txt	JUICE	8	3	[0, 0, 0]	n/a	FR1	1	R1147P
552.154	0.884	557806	WORD_OFF	n/a	n/a	JUICE	8	3	[0, 0, 0]	n/a	FR1	1	R1147P
553.038	1.617	558690	WORD	n/a	wordpools/wordpool_EN.txt	HOOF	9	3	[0, 0, 0]	n/a	FR1	1	R1147P
554.655	0.883	560307	WORD_OFF	n/a	n/a	HOOF	9	3	[0, 0, 0]	n/a	FR1	1	R1147P
555.538	1.617	561190	WORD	n/a	wordpools/wordpool_EN.txt	MOON	10	3	[0, 0, 0]	n/a	FR1	1	R1147P
557.155	0.867	562807	WORD_OFF	n/a	n/a	MOON	10	3	[0, 0, 0]	n/a	FR1	1	R1147P
558.022	1.617	563674	WORD	n/a	wordpools/wordpool_EN.txt	CORD	11	3	[0, 0, 0]	n/a	FR1	1	R1147P
559.639	0.883	565291	WORD_OFF	n/a	n/a	CORD	11	3	[0, 0, 0]	n/a	FR1	1	R1147P
560.522	1.617	566174	WORD	n/a	wordpools/wordpool_EN.txt	SNAIL	12	3	[0, 0, 0]	n/a	FR1	1	R1147P
562.139	0.0	567791	WORD_OFF	n/a	n/a	SNAIL	12	3	[0, 0, 0]	n/a	FR1	1	R1147P
562.139	0.001	567791	DISTRACT_START	n/a	n/a	n/a	-999	3	[0, 0, 0]	n/a	FR1	1	R1147P
562.14	0.016	567792	START	n/a	n/a	n/a	-999	3	[-999, -999, -999]	n/a	FR1	1	R1147P
562.156	5.468	567808	PROB	5.468	n/a	n/a	-999	3	[5, 5, 8]	18	FR1	1	R1147P
567.624	5.601	573275	PROB	5.601	n/a	n/a	-999	3	[7, 9, 6]	22	FR1	1	R1147P
573.225	4.334	578876	PROB	4.334	n/a	n/a	-999	3	[7, 1, 2]	10	FR1	1	R1147P
577.559	6.29	583210	PROB	6.29	n/a	n/a	-999	3	[1, 7, 1]	9	FR1	1	R1147P
583.849	0.011	589500	STOP	n/a	n/a	n/a	-999	3	[-999, -999, -999]	n/a	FR1	1	R1147P
583.86	0.684	589511	DISTRACT_END	n/a	n/a	n/a	-999	3	[0, 0, 0]	n/a	FR1	1	R1147P
584.544	0.517	590195	RETRIEVAL_ORIENT	n/a	n/a	n/a	-999	3	[0, 0, 0]	n/a	FR1	1	R1147P
585.061	1.117	590712	REC_START	n/a	n/a	n/a	-999	3	[0, 0, 0]	n/a	FR1	1	R1147P
586.178	10.883	591829	REC_WORD_VV	10.883	n/a	<>	-999	3	[0, 0, 0]	n/a	FR1	1	R1147P
597.061	2.182	602711	REC_WORD_VV	2.182	n/a	<>	-999	3	[0, 0, 0]	n/a	FR1	1	R1147P
599.243	2.325	604893	REC_WORD_VV	2.325	n/a	<>	-999	3	[0, 0, 0]	n/a	FR1	1	R1147P
601.568	13.502	607218	REC_WORD	13.502	n/a	TURTLE	-999	3	[0, 0, 0]	n/a	FR1	1	R1147P
615.07	6.797	620719	REC_END	n/a	n/a	n/a	-999	3	[0, 0, 0]	n/a	FR1	1	R1147P
621.867	0.5	627516	TRIAL	n/a	n/a	n/a	-999	4	[0, 0, 0]	n/a	FR1	1	R1147P
622.367	10.428	628016	COUNTDOWN_START	n/a	n/a	n/a	-999	4	[0, 0, 0]	n/a	FR1	1	R1147P
632.795	0.008	638443	COUNTDOWN_END	n/a	n/a	n/a	-999	4	[0, 0, 0]	n/a	FR1	1	R1147P
632.803	1.617	638451	ORIENT	n/a	n/a	n/a	-999	4	[0, 0, 0]	n/a	FR1	1	R1147P
634.42	2.05	640068	ORIENT_OFF	n/a	n/a	n/a	-999	4	[0, 0, 0]	n/a	FR1	1	R1147P
636.47	1.617	642118	WORD	n/a	wordpools/wordpool_EN.txt	SWAMP	1	4	[0, 0, 0]	n/a	FR1	1	R1147P
638.087	1.0	643735	WORD_OFF	n/a	n/a	SWAMP	1	4	[0, 0, 0]	n/a	FR1	1	R1147P
639.087	1.617	644735	WORD	n/a	wordpools/wordpool_EN.txt	FRUIT	2	4	[0, 0, 0]	n/a	FR1	1	R1147P
640.704	0.934	646352	WORD_OFF	n/a	n/a	FRUIT	2	4	[0, 0, 0]	n/a	FR1	1	R1147P
641.638	1.617	647286	WORD	n/a	wordpools/wordpool_EN.txt	BLOOM	3	4	[0, 0, 0]	n/a	FR1	1	R1147P
643.255	0.816	648903	WORD_OFF	n/a	n/a	BLOOM	3	4	[0, 0, 0]	n/a	FR1	1	R1147P
644.071	1.617	649719	WORD	n/a	wordpools/wordpool_EN.txt	DEER	4	4	[0, 0, 0]	n/a	FR1	1	R1147P
645.688	0.884	651335	WORD_OFF	n/a	n/a	DEER	4	4	[0, 0, 0]	n/a	FR1	1	R1147P
646.572	1.617	652219	WORD	n/a	wordpools/wordpool_EN.txt	OAK	5	4	[0, 0, 0]	n/a	FR1	1	R1147P
648.189	0.85	653836	WORD_OFF	n/a	n/a	OAK	5	4	[0, 0, 0]	n/a	FR1	1	R1147P
649.039	1.617	654686	WORD	n/a	wordpools/wordpool_EN.txt	FOG	6	4	[0, 0, 0]	n/a	FR1	1	R1147P
650.656	0.817	656303	WORD_OFF	n/a	n/a	FOG	6	4	[0, 0, 0]	n/a	FR1	1	R1147P
651.473	1.617	657120	WORD	n/a	wordpools/wordpool_EN.txt	BUSH	7	4	[0, 0, 0]	n/a	FR1	1	R1147P
653.09	0.817	658737	WORD_OFF	n/a	n/a	BUSH	7	4	[0, 0, 0]	n/a	FR1	1	R1147P
653.907	1.617	659554	WORD	n/a	wordpools/wordpool_EN.txt	SPRING	8	4	[0, 0, 0]	n/a	FR1	1	R1147P
655.524	0.766	661171	WORD_OFF	n/a	n/a	SPRING	8	4	[0, 0, 0]	n/a	FR1	1	R1147P
656.29	1.617	661937	WORD	n/a	wordpools/wordpool_EN.txt	BOOT	9	4	[0, 0, 0]	n/a	FR1	1	R1147P
657.907	0.817	663554	WORD_OFF	n/a	n/a	BOOT	9	4	[0, 0, 0]	n/a	FR1	1	R1147P
658.724	1.617	664371	WORD	n/a	wordpools/wordpool_EN.txt	CUBE	10	4	[0, 0, 0]	n/a	FR1	1	R1147P
660.341	0.934	665988	WORD_OFF	n/a	n/a	CUBE	10	4	[0, 0, 0]	n/a	FR1	1	R1147P
661.275	1.617	666922	WORD	n/a	wordpools/wordpool_EN.txt	SNOW	11	4	[0, 0, 0]	n/a	FR1	1	R1147P
662.892	0.833	668539	WORD_OFF	n/a	n/a	SNOW	11	4	[0, 0, 0]	n/a	FR1	1	R1147P
663.725	1.617	669372	WORD	n/a	wordpools/wordpool_EN.txt	MOTH	12	4	[0, 0, 0]	n/a	FR1	1	R1147P
665.342	0.0	670988	DISTRACT_START	n/a	n/a	n/a	-999	4	[0, 0, 0]	n/a	FR1	1	R1147P
665.342	0.001	670988	WORD_OFF	n/a	n/a	MOTH	12	4	[0, 0, 0]	n/a	FR1	1	R1147P
665.343	0.016	670989	START	n/a	n/a	n/a	-999	4	[-999, -999, -999]	n/a	FR1	1	R1147P
665.359	5.067	671005	PROB	5.067	n/a	n/a	-999	4	[4, 2, 8]	14	FR1	1	R1147P
670.426	3.918	676072	PROB	3.918	n/a	n/a	-999	4	[9, 5, 7]	21	FR1	1	R1147P
674.344	3.217	679990	PROB	3.217	n/a	n/a	-999	4	[6, 9, 6]	21	FR1	1	R1147P
677.561	3.067	683207	PROB	3.067	n/a	n/a	-999	4	[8, 8, 5]	21	FR1	1	R1147P
680.628	5.662	686274	PROB	5.662	n/a	n/a	-999	4	[8, 1, 6]	15	FR1	1	R1147P
686.29	0.006	691935	STOP	n/a	n/a	n/a	-999	4	[-999, -999, -999]	n/a	FR1	1	R1147P
686.296	0.55	691941	DISTRACT_END	n/a	n/a	n/a	-999	4	[0, 0, 0]	n/a	FR1	1	R1147P
686.846	0.518	692491	RETRIEVAL_ORIENT	n/a	n/a	n/a	-999	4	[0, 0, 0]	n/a	FR1	1	R1147P
687.364	6.266	693009	REC_START	n/a	n/a	n/a	-999	4	[0, 0, 0]	n/a	FR1	1	R1147P
693.63	23.006	699275	REC_WORD_VV	23.006	n/a	<>	-999	4	[0, 0, 0]	n/a	FR1	1	R1147P
716.636	0.74	722280	REC_WORD_VV	0.74	n/a	<>	-999	4	[0, 0, 0]	n/a	FR1	1	R1147P
717.376	122.649	723020	REC_END	n/a	n/a	n/a	-999	4	[0, 0, 0]	n/a	FR1	1	R1147P
840.025	0.5	845662	TRIAL	n/a	n/a	n/a	-999	5	[0, 0, 0]	n/a	FR1	1	R1147P
840.525	10.428	846162	COUNTDOWN_START	n/a	n/a	n/a	-999	5	[0, 0, 0]	n/a	FR1	1	R1147P
850.953	0.007	856590	COUNTDOWN_END	n/a	n/a	n/a	-999	5	[0, 0, 0]	n/a	FR1	1	R1147P
850.96	1.617	856597	ORIENT	n/a	n/a	n/a	-999	5	[0, 0, 0]	n/a	FR1	1	R1147P
852.577	2.267	858214	ORIENT_OFF	n/a	n/a	n/a	-999	5	[0, 0, 0]	n/a	FR1	1	R1147P
854.844	1.617	860481	WORD	n/a	wordpools/wordpool_EN.txt	YARD	1	5	[0, 0, 0]	n/a	FR1	1	R1147P
856.461	0.851	862098	WORD_OFF	n/a	n/a	YARD	1	5	[0, 0, 0]	n/a	FR1	1	R1147P
857.312	1.617	862949	WORD	n/a	wordpools/wordpool_EN.txt	NAIL	2	5	[0, 0, 0]	n/a	FR1	1	R1147P
858.929	0.983	864565	WORD_OFF	n/a	n/a	NAIL	2	5	[0, 0, 0]	n/a	FR1	1	R1147P
859.912	1.617	865548	WORD	n/a	wordpools/wordpool_EN.txt	POOL	3	5	[0, 0, 0]	n/a	FR1	1	R1147P
861.529	0.834	867165	WORD_OFF	n/a	n/a	POOL	3	5	[0, 0, 0]	n/a	FR1	1	R1147P
862.363	1.616	867999	WORD	n/a	wordpools/wordpool_EN.txt	CLOTH	4	5	[0, 0, 0]	n/a	FR1	1	R1147P
863.979	0.934	869615	WORD_OFF	n/a	n/a	CLOTH	4	5	[0, 0, 0]	n/a	FR1	1	R1147P
864.913	1.617	870549	WORD	n/a	wordpools/wordpool_EN.txt	FAN	5	5	[0, 0, 0]	n/a	FR1	1	R1147P
866.53	0.833	872166	WORD_OFF	n/a	n/a	FAN	5	5	[0, 0, 0]	n/a	FR1	1	R1147P
867.363	1.617	872999	WORD	n/a	wordpools/wordpool_EN.txt	THREAD	6	5	[0, 0, 0]	n/a	FR1	1	R1147P
868.98	0.817	874616	WORD_OFF	n/a	n/a	THREAD	6	5	[0, 0, 0]	n/a	FR1	1	R1147P
869.797	1.617	875433	WORD	n/a	wordpools/wordpool_EN.txt	BENCH	7	5	[0, 0, 0]	n/a	FR1	1	R1147P
871.414	0.767	877050	WORD_OFF	n/a	n/a	BENCH	7	5	[0, 0, 0]	n/a	FR1	1	R1147P
872.181	1.617	877817	WORD	n/a	wordpools/wordpool_EN.txt	FLUTE	8	5	[0, 0, 0]	n/a	FR1	1	R1147P
873.798	0.883	879434	WORD_OFF	n/a	n/a	FLUTE	8	5	[0, 0, 0]	n/a	FR1	1	R1147P
874.681	1.618	880317	WORD	n/a	wordpools/wordpool_EN.txt	SHIELD	9	5	[0, 0, 0]	n/a	FR1	1	R1147P
876.299	0.85	881935	WORD_OFF	n/a	n/a	SHIELD	9	5	[0, 0, 0]	n/a	FR1	1	R1147P
877.149	1.617	882785	WORD	n/a	wordpools/wordpool_EN.txt	GATE	10	5	[0, 0, 0]	n/a	FR1	1	R1147P
878.766	0.833	884401	WORD_OFF	n/a	n/a	GATE	10	5	[0, 0, 0]	n/a	FR1	1	R1147P
879.599	1.617	885234	WORD	n/a	wordpools/wordpool_EN.txt	VASE	11	5	[0, 0, 0]	n/a	FR1	1	R1147P
881.216	1.0	886851	WORD_OFF	n/a	n/a	VASE	11	5	[0, 0, 0]	n/a	FR1	1	R1147P
882.216	1.617	887851	WORD	n/a	wordpools/wordpool_EN.txt	DRESS	12	5	[0, 0, 0]	n/a	FR1	1	R1147P
883.833	0.0	889468	WORD_OFF	n/a	n/a	DRESS	12	5	[0, 0, 0]	n/a	FR1	1	R1147P
883.833	0.001	889468	DISTRACT_START	n/a	n/a	n/a	-999	5	[0, 0, 0]	n/a	FR1	1	R1147P
883.834	0.016	889469	START	n/a	n/a	n/a	-999	5	[-999, -999, -999]	n/a	FR1	1	R1147P
883.85	5.784	889485	PROB	5.784	n/a	n/a	-999	5	[5, 8, 4]	17	FR1	1	R1147P
889.634	3.584	895269	PROB	3.584	n/a	n/a	-999	5	[1, 9, 4]	14	FR1	1	R1147P
893.218	3.934	898853	PROB	3.934	n/a	n/a	-999	5	[8, 9, 3]	20	FR1	1	R1147P
897.152	4.451	902786	PROB	4.451	n/a	n/a	-999	5	[8, 2, 4]	14	FR1	1	R1147P
901.603	5.231	907237	PROB	5.231	n/a	n/a	-999	5	[6, 9, 2]	17	FR1	1	R1147P
906.834	0.02	912468	STOP	n/a	n/a	n/a	-999	5	[-999, -999, -999]	n/a	FR1	1	R1147P
906.854	0.517	912488	DISTRACT_END	n/a	n/a	n/a	-999	5	[0, 0, 0]	n/a	FR1	1	R1147P
907.371	0.518	913005	RETRIEVAL_ORIENT	n/a	n/a	n/a	-999	5	[0, 0, 0]	n/a	FR1	1	R1147P
907.889	3.156	913523	REC_START	n/a	n/a	n/a	-999	5	[0, 0, 0]	n/a	FR1	1	R1147P
911.045	0.604	916679	REC_WORD	0.604	n/a	YARD	1	5	[0, 0, 0]	n/a	FR1	1	R1147P
911.649	1.651	917283	REC_WORD	1.651	n/a	NAIL	2	5	[0, 0, 0]	n/a	FR1	1	R1147P
913.3	24.6	918934	REC_WORD	24.6	n/a	POOL	3	5	[0, 0, 0]	n/a	FR1	1	R1147P
937.9	5.611	943532	REC_END	n/a	n/a	n/a	-999	5	[0, 0, 0]	n/a	FR1	1	R1147P
943.511	0.5	949143	TRIAL	n/a	n/a	n/a	-999	6	[0, 0, 0]	n/a	FR1	1	R1147P
944.011	10.428	949643	COUNTDOWN_START	n/a	n/a	n/a	-999	6	[0, 0, 0]	n/a	FR1	1	R1147P
954.439	0.008	960071	COUNTDOWN_END	n/a	n/a	n/a	-999	6	[0, 0, 0]	n/a	FR1	1	R1147P
954.447	1.616	960079	ORIENT	n/a	n/a	n/a	-999	6	[0, 0, 0]	n/a	FR1	1	R1147P
956.063	2.301	961694	ORIENT_OFF	n/a	n/a	n/a	-999	6	[0, 0, 0]	n/a	FR1	1	R1147P
958.364	1.617	963995	WORD	n/a	wordpools/wordpool_EN.txt	WORLD	1	6	[0, 0, 0]	n/a	FR1	1	R1147P
959.981	0.883	965612	WORD_OFF	n/a	n/a	WORLD	1	6	[0, 0, 0]	n/a	FR1	1	R1147P
960.864	1.617	966495	WORD	n/a	wordpools/wordpool_EN.txt	CLOUD	2	6	[0, 0, 0]	n/a	FR1	1	R1147P
962.481	0.884	968112	WORD_OFF	n/a	n/a	CLOUD	2	6	[0, 0, 0]	n/a	FR1	1	R1147P
963.365	1.617	968996	WORD	n/a	wordpools/wordpool_EN.txt	ICE	3	6	[0, 0, 0]	n/a	FR1	1	R1147P
964.982	0.883	970613	WORD_OFF	n/a	n/a	ICE	3	6	[0, 0, 0]	n/a	FR1	1	R1147P
965.865	1.617	971496	WORD	n/a	wordpools/wordpool_EN.txt	CONE	4	6	[0, 0, 0]	n/a	FR1	1	R1147P
967.482	0.801	973113	WORD_OFF	n/a	n/a	CONE	4	6	[0, 0, 0]	n/a	FR1	1	R1147P
968.283	1.616	973914	WORD	n/a	wordpools/wordpool_EN.txt	BRIDGE	5	6	[0, 0, 0]	n/a	FR1	1	R1147P
969.899	0.884	975530	WORD_OFF	n/a	n/a	BRIDGE	5	6	[0, 0, 0]	n/a	FR1	1	R1147P
970.783	1.617	976414	WORD	n/a	wordpools/wordpool_EN.txt	STEAM	6	6	[0, 0, 0]	n/a	FR1	1	R1147P
972.4	0.85	978031	WORD_OFF	n/a	n/a	STEAM	6	6	[0, 0, 0]	n/a	FR1	1	R1147P
973.25	1.617	978881	WORD	n/a	wordpools/wordpool_EN.txt	WHEEL	7	6	[0, 0, 0]	n/a	FR1	1	R1147P
974.867	0.833	980497	WORD_OFF	n/a	n/a	WHEEL	7	6	[0, 0, 0]	n/a	FR1	1	R1147P
975.7	1.618	981330	WORD	n/a	wordpools/wordpool_EN.txt	SMOKE	8	6	[0, 0, 0]	n/a	FR1	1	R1147P
977.318	0.883	982948	WORD_OFF	n/a	n/a	SMOKE	8	6	[0, 0, 0]	n/a	FR1	1	R1147P
978.201	1.617	983831	WORD	n/a	wordpools/wordpool_EN.txt	SPARK	9	6	[0, 0, 0]	n/a	FR1	1	R1147P
979.818	0.983	985448	WORD_OFF	n/a	n/a	SPARK	9	6	[0, 0, 0]	n/a	FR1	1	R1147P
980.801	1.618	986431	WORD	n/a	wordpools/wordpool_EN.txt	CAR	10	6	[0, 0, 0]	n/a	FR1	1	R1147P
982.419	0.933	988049	WORD_OFF	n/a	n/a	CAR	10	6	[0, 0, 0]	n/a	FR1	1	R1147P
983.352	1.617	988982	WORD	n/a	wordpools/wordpool_EN.txt	RAIN	11	6	[0, 0, 0]	n/a	FR1	1	R1147P
984.969	0.884	990599	WORD_OFF	n/a	n/a	RAIN	11	6	[0, 0, 0]	n/a	FR1	1	R1147P
985.853	1.616	991483	WORD	n/a	wordpools/wordpool_EN.txt	BOMB	12	6	[0, 0, 0]	n/a	FR1	1	R1147P
987.469	0.0	993099	WORD_OFF	n/a	n/a	BOMB	12	6	[0, 0, 0]	n/a	FR1	1	R1147P
987.469	0.001	993099	DISTRACT_START	n/a	n/a	n/a	-999	6	[0, 0, 0]	n/a	FR1	1	R1147P
987.47	0.016	993100	START	n/a	n/a	n/a	-999	6	[-999, -999, -999]	n/a	FR1	1	R1147P
987.486	5.968	993116	PROB	5.968	n/a	n/a	-999	6	[8, 5, 6]	19	FR1	1	R1147P
993.454	3.567	999083	PROB	3.567	n/a	n/a	-999	6	[2, 7, 4]	13	FR1	1	R1147P
997.021	4.434	1002650	PROB	4.434	n/a	n/a	-999	6	[5, 7, 2]	14	FR1	1	R1147P
1001.455	4.018	1007084	PROB	4.018	n/a	n/a	-999	6	[3, 9, 9]	21	FR1	1	R1147P
1005.473	6.041	1011102	PROB	6.041	n/a	n/a	-999	6	[8, 4, 5]	17	FR1	1	R1147P
1011.514	0.01	1017143	STOP	n/a	n/a	n/a	-999	6	[-999, -999, -999]	n/a	FR1	1	R1147P
1011.524	0.667	1017153	DISTRACT_END	n/a	n/a	n/a	-999	6	[0, 0, 0]	n/a	FR1	1	R1147P
1012.191	0.517	1017820	RETRIEVAL_ORIENT	n/a	n/a	n/a	-999	6	[0, 0, 0]	n/a	FR1	1	R1147P
1012.708	3.39	1018337	REC_START	n/a	n/a	n/a	-999	6	[0, 0, 0]	n/a	FR1	1	R1147P
1016.098	0.467	1021726	REC_WORD_VV	0.467	n/a	<>	-999	6	[0, 0, 0]	n/a	FR1	1	R1147P
1016.565	0.49	1022193	REC_WORD	0.49	n/a	BOMB	12	6	[0, 0, 0]	n/a	FR1	1	R1147P
1017.055	1.16	1022683	REC_WORD	1.16	n/a	SPARK	9	6	[0, 0, 0]	n/a	FR1	1	R1147P
1018.215	6.503	1023843	REC_WORD	6.503	n/a	CAR	10	6	[0, 0, 0]	n/a	FR1	1	R1147P
1024.718	18.003	1030346	REC_WORD	18.003	n/a	FUSE	-999	6	[0, 0, 0]	n/a	FR1	1	R1147P
1042.721	7.444	1048348	REC_END	n/a	n/a	n/a	-999	6	[0, 0, 0]	n/a	FR1	1	R1147P
1050.165	0.5	1055792	TRIAL	n/a	n/a	n/a	-999	7	[0, 0, 0]	n/a	FR1	1	R1147P
1050.665	10.428	1056292	COUNTDOWN_START	n/a	n/a	n/a	-999	7	[0, 0, 0]	n/a	FR1	1	R1147P
1061.093	0.007	1066719	COUNTDOWN_END	n/a	n/a	n/a	-999	7	[0, 0, 0]	n/a	FR1	1	R1147P
1061.1	1.617	1066726	ORIENT	n/a	n/a	n/a	-999	7	[0, 0, 0]	n/a	FR1	1	R1147P
1062.717	2.317	1068343	ORIENT_OFF	n/a	n/a	n/a	-999	7	[0, 0, 0]	n/a	FR1	1	R1147P
1065.034	1.617	1070660	WORD	n/a	wordpools/wordpool_EN.txt	THUMB	1	7	[0, 0, 0]	n/a	FR1	1	R1147P
1066.651	1.017	1072277	WORD_OFF	n/a	n/a	THUMB	1	7	[0, 0, 0]	n/a	FR1	1	R1147P
1067.668	1.617	1073294	WORD	n/a	wordpools/wordpool_EN.txt	PURSE	2	7	[0, 0, 0]	n/a	FR1	1	R1147P
1069.285	0.867	1074911	WORD_OFF	n/a	n/a	PURSE	2	7	[0, 0, 0]	n/a	FR1	1	R1147P
1070.152	1.617	1075778	WORD	n/a	wordpools/wordpool_EN.txt	STEM	3	7	[0, 0, 0]	n/a	FR1	1	R1147P
1071.769	0.966	1077394	WORD_OFF	n/a	n/a	STEM	3	7	[0, 0, 0]	n/a	FR1	1	R1147P
1072.735	1.618	1078360	WORD	n/a	wordpools/wordpool_EN.txt	JAR	4	7	[0, 0, 0]	n/a	FR1	1	R1147P
1074.353	0.833	1079978	WORD_OFF	n/a	n/a	JAR	4	7	[0, 0, 0]	n/a	FR1	1	R1147P
1075.186	1.617	1080811	WORD	n/a	wordpools/wordpool_EN.txt	FLEA	5	7	[0, 0, 0]	n/a	FR1	1	R1147P
1076.803	1.0	1082428	WORD_OFF	n/a	n/a	FLEA	5	7	[0, 0, 0]	n/a	FR1	1	R1147P
1077.803	1.617	1083428	WORD	n/a	wordpools/wordpool_EN.txt	STORE	6	7	[0, 0, 0]	n/a	FR1	1	R1147P
1079.42	0.867	1085045	WORD_OFF	n/a	n/a	STORE	6	7	[0, 0, 0]	n/a	FR1	1	R1147P
1080.287	1.617	1085912	WORD	n/a	wordpools/wordpool_EN.txt	SHIRT	7	7	[0, 0, 0]	n/a	FR1	1	R1147P
1081.904	1.0	1087529	WORD_OFF	n/a	n/a	SHIRT	7	7	[0, 0, 0]	n/a	FR1	1	R1147P
1082.904	1.617	1088529	WORD	n/a	wordpools/wordpool_EN.txt	SEED	8	7	[0, 0, 0]	n/a	FR1	1	R1147P
1084.521	0.767	1090146	WORD_OFF	n/a	n/a	SEED	8	7	[0, 0, 0]	n/a	FR1	1	R1147P
1085.288	1.617	1090913	WORD	n/a	wordpools/wordpool_EN.txt	STREET	9	7	[0, 0, 0]	n/a	FR1	1	R1147P
1086.905	0.967	1092530	WORD_OFF	n/a	n/a	STREET	9	7	[0, 0, 0]	n/a	FR1	1	R1147P
1087.872	1.617	1093497	WORD	n/a	wordpools/wordpool_EN.txt	BEAK	10	7	[0, 0, 0]	n/a	FR1	1	R1147P
1089.489	0.783	1095114	WORD_OFF	n/a	n/a	BEAK	10	7	[0, 0, 0]	n/a	FR1	1	R1147P
1090.272	1.617	1095896	WORD	n/a	wordpools/wordpool_EN.txt	GLASS	11	7	[0, 0, 0]	n/a	FR1	1	R1147P
1091.889	1.0	1097513	WORD_OFF	n/a	n/a	GLASS	11	7	[0, 0, 0]	n/a	FR1	1	R1147P
1092.889	1.617	1098513	WORD	n/a	wordpools/wordpool_EN.txt	COIN	12	7	[0, 0, 0]	n/a	FR1	1	R1147P
1094.506	0.0	1100130	WORD_OFF	n/a	n/a	COIN	12	7	[0, 0, 0]	n/a	FR1	1	R1147P
1094.506	0.001	1100130	DISTRACT_START	n/a	n/a	n/a	-999	7	[0, 0, 0]	n/a	FR1	1	R1147P
1094.507	0.016	1100131	START	n/a	n/a	n/a	-999	7	[-999, -999, -999]	n/a	FR1	1	R1147P
1094.523	5.051	1100147	PROB	5.051	n/a	n/a	-999	7	[1, 6, 6]	13	FR1	1	R1147P
1099.574	4.651	1105198	PROB	4.651	n/a	n/a	-999	7	[6, 4, 9]	19	FR1	1	R1147P
1104.225	3.35	1109849	PROB	3.35	n/a	n/a	-999	7	[1, 6, 2]	9	FR1	1	R1147P
1107.575	3.985	1113199	PROB	3.985	n/a	n/a	-999	7	[2, 8, 2]	12	FR1	1	R1147P
1111.56	3.81	1117183	PROB	3.81	n/a	n/a	-999	7	[7, 7, 1]	15	FR1	1	R1147P
1115.37	0.007	1120993	STOP	n/a	n/a	n/a	-999	7	[-999, -999, -999]	n/a	FR1	1	R1147P
1115.377	0.517	1121000	DISTRACT_END	n/a	n/a	n/a	-999	7	[0, 0, 0]	n/a	FR1	1	R1147P
1115.894	0.517	1121517	RETRIEVAL_ORIENT	n/a	n/a	n/a	-999	7	[0, 0, 0]	n/a	FR1	1	R1147P
1116.411	0.314	1122034	REC_START	n/a	n/a	n/a	-999	7	[0, 0, 0]	n/a	FR1	1	R1147P
1116.725	2.347	1122348	REC_WORD_VV	2.347	n/a	<>	-999	7	[0, 0, 0]	n/a	FR1	1	R1147P
1119.072	2.21	1124695	REC_WORD_VV	2.21	n/a	<>	-999	7	[0, 0, 0]	n/a	FR1	1	R1147P
1121.282	1.662	1126905	REC_WORD_VV	1.662	n/a	<>	-999	7	[0, 0, 0]	n/a	FR1	1	R1147P
1122.944	3.307	1128567	REC_WORD	3.307	n/a	COIN	12	7	[0, 0, 0]	n/a	FR1	1	R1147P
1126.251	0.529	1131874	REC_WORD	0.529	n/a	BIRD	-999	7	[0, 0, 0]	n/a	FR1	1	R1147P
1126.78	4.416	1132403	REC_WORD	4.416	n/a	CLAW	-999	7	[0, 0, 0]	n/a	FR1	1	R1147P
1131.196	6.483	1136818	REC_WORD	6.483	n/a	ARROW	-999	7	[0, 0, 0]	n/a	FR1	1	R1147P
1137.679	8.744	1143301	REC_WORD_VV	8.744	n/a	<>	-999	7	[0, 0, 0]	n/a	FR1	1	R1147P
1146.423	14.096	1152045	REC_END	n/a	n/a	n/a	-999	7	[0, 0, 0]	n/a	FR1	1	R1147P
1160.519	0.5	1166140	TRIAL	n/a	n/a	n/a	-999	8	[0, 0, 0]	n/a	FR1	1	R1147P
1161.019	10.428	1166640	COUNTDOWN_START	n/a	n/a	n/a	-999	8	[0, 0, 0]	n/a	FR1	1	R1147P
1171.447	0.007	1177067	COUNTDOWN_END	n/a	n/a	n/a	-999	8	[0, 0, 0]	n/a	FR1	1	R1147P
1171.454	1.617	1177074	ORIENT	n/a	n/a	n/a	-999	8	[0, 0, 0]	n/a	FR1	1	R1147P
1173.071	2.05	1178691	ORIENT_OFF	n/a	n/a	n/a	-999	8	[0, 0, 0]	n/a	FR1	1	R1147P
1175.121	1.617	1180741	WORD	n/a	wordpools/wordpool_EN.txt	PIG	1	8	[0, 0, 0]	n/a	FR1	1	R1147P
1176.738	0.851	1182358	WORD_OFF	n/a	n/a	PIG	1	8	[0, 0, 0]	n/a	FR1	1	R1147P
1177.589	1.617	1183209	WORD	n/a	wordpools/wordpool_EN.txt	EEL	2	8	[0, 0, 0]	n/a	FR1	1	R1147P
1179.206	0.933	1184826	WORD_OFF	n/a	n/a	EEL	2	8	[0, 0, 0]	n/a	FR1	1	R1147P
1180.139	1.617	1185759	WORD	n/a	wordpools/wordpool_EN.txt	PRINCE	3	8	[0, 0, 0]	n/a	FR1	1	R1147P
1181.756	0.983	1187376	WORD_OFF	n/a	n/a	PRINCE	3	8	[0, 0, 0]	n/a	FR1	1	R1147P
1182.739	1.618	1188359	WORD	n/a	wordpools/wordpool_EN.txt	GOLD	4	8	[0, 0, 0]	n/a	FR1	1	R1147P
1184.357	0.916	1189977	WORD_OFF	n/a	n/a	GOLD	4	8	[0, 0, 0]	n/a	FR1	1	R1147P
1185.273	1.617	1190893	WORD	n/a	wordpools/wordpool_EN.txt	STEAK	5	8	[0, 0, 0]	n/a	FR1	1	R1147P
1186.89	0.934	1192510	WORD_OFF	n/a	n/a	STEAK	5	8	[0, 0, 0]	n/a	FR1	1	R1147P
1187.824	1.617	1193443	WORD	n/a	wordpools/wordpool_EN.txt	LAKE	6	8	[0, 0, 0]	n/a	FR1	1	R1147P
1189.441	0.95	1195060	WORD_OFF	n/a	n/a	LAKE	6	8	[0, 0, 0]	n/a	FR1	1	R1147P
1190.391	1.617	1196010	WORD	n/a	wordpools/wordpool_EN.txt	SEA	7	8	[0, 0, 0]	n/a	FR1	1	R1147P
1192.008	0.833	1197627	WORD_OFF	n/a	n/a	SEA	7	8	[0, 0, 0]	n/a	FR1	1	R1147P
1192.841	1.617	1198460	WORD	n/a	wordpools/wordpool_EN.txt	GEESE	8	8	[0, 0, 0]	n/a	FR1	1	R1147P
1194.458	0.867	1200077	WORD_OFF	n/a	n/a	GEESE	8	8	[0, 0, 0]	n/a	FR1	1	R1147P
1195.325	1.617	1200944	WORD	n/a	wordpools/wordpool_EN.txt	CALF	9	8	[0, 0, 0]	n/a	FR1	1	R1147P
1196.942	0.917	1202561	WORD_OFF	n/a	n/a	CALF	9	8	[0, 0, 0]	n/a	FR1	1	R1147P
1197.859	1.617	1203478	WORD	n/a	wordpools/wordpool_EN.txt	PARK	10	8	[0, 0, 0]	n/a	FR1	1	R1147P
1199.476	0.833	1205095	WORD_OFF	n/a	n/a	PARK	10	8	[0, 0, 0]	n/a	FR1	1	R1147P
1200.309	1.618	1205928	WORD	n/a	wordpools/wordpool_EN.txt	ROCK	11	8	[0, 0, 0]	n/a	FR1	1	R1147P
1201.927	0.799	1207546	WORD_OFF	n/a	n/a	ROCK	11	8	[0, 0, 0]	n/a	FR1	1	R1147P
1202.726	1.618	1208345	WORD	n/a	wordpools/wordpool_EN.txt	HORSE	12	8	[0, 0, 0]	n/a	FR1	1	R1147P
1204.344	0.0	1209963	WORD_OFF	n/a	n/a	HORSE	12	8	[0, 0, 0]	n/a	FR1	1	R1147P
1204.344	0.0	1209963	DISTRACT_START	n/a	n/a	n/a	-999	8	[0, 0, 0]	n/a	FR1	1	R1147P
1204.344	0.016	1209963	START	n/a	n/a	n/a	-999	8	[-999, -999, -999]	n/a	FR1	1	R1147P
1204.36	6.468	1209979	PROB	6.468	n/a	n/a	-999	8	[3, 2, 2]	7	FR1	1	R1147P
1210.828	4.001	1216446	PROB	4.001	n/a	n/a	-999	8	[9, 9, 6]	24	FR1	1	R1147P
1214.829	3.501	1220447	PROB	3.501	n/a	n/a	-999	8	[1, 1, 3]	5	FR1	1	R1147P
1218.33	7.103	1223948	PROB	7.103	n/a	n/a	-999	8	[6, 2, 5]	13	FR1	1	R1147P
1225.433	0.015	1231051	STOP	n/a	n/a	n/a	-999	8	[-999, -999, -999]	n/a	FR1	1	R1147P
1225.448	0.65	1231066	DISTRACT_END	n/a	n/a	n/a	-999	8	[0, 0, 0]	n/a	FR1	1	R1147P
1226.098	0.517	1231715	RETRIEVAL_ORIENT	n/a	n/a	n/a	-999	8	[0, 0, 0]	n/a	FR1	1	R1147P
1226.615	0.959	1232232	REC_START	n/a	n/a	n/a	-999	8	[0, 0, 0]	n/a	FR1	1	R1147P
1227.574	28.391	1233191	REC_WORD_VV	28.391	n/a	<>	-999	8	[0, 0, 0]	n/a	FR1	1	R1147P
1255.965	0.662	1261581	REC_WORD_VV	0.662	n/a	<>	-999	8	[0, 0, 0]	n/a	FR1	1	R1147P
1256.627	0.0	1262243	REC_END	n/a	n/a	n/a	-999	8	[0, 0, 0]	n/a	FR1	1	R1147P
