onset	duration	sample	trial_type	response_time	stim_file	item_name	serialpos	list	test	answer	experiment	session	subject
0.0	0.0	19169	INSTRUCT_START	n/a	n/a	n/a	-999	-999	[0, 0, 0]	n/a	FR1	2	R1195E
0.0	10.885	19169	INSTRUCT_END	n/a	n/a	n/a	-999	-999	[0, 0, 0]	n/a	FR1	2	R1195E
10.885	0.0	30053	SESS_START	n/a	n/a	n/a	-999	-999	[0, 0, 0]	n/a	FR1	2	R1195E
10.885	13.5	30053	MIC_TEST	n/a	n/a	n/a	-999	-999	[0, 0, 0]	n/a	FR1	2	R1195E
24.385	6.087	43553	PRACTICE_TRIAL	n/a	n/a	n/a	-999	-1	[0, 0, 0]	n/a	FR1	2	R1195E
30.472	10.428	49640	COUNTDOWN_START	n/a	n/a	n/a	-999	-1	[0, 0, 0]	n/a	FR1	2	R1195E
40.9	0.006	60067	COUNTDOWN_END	n/a	n/a	n/a	-999	-1	[0, 0, 0]	n/a	FR1	2	R1195E
40.906	1.617	60073	PRACTICE_ORIENT	n/a	n/a	n/a	-999	-1	[0, 0, 0]	n/a	FR1	2	R1195E
42.523	2.067	61690	PRACTICE_ORIENT_OFF	n/a	n/a	n/a	-999	-1	[0, 0, 0]	n/a	FR1	2	R1195E
44.59	1.618	63757	PRACTICE_WORD	n/a	n/a	WAGON	1	-1	[0, 0, 0]	n/a	FR1	2	R1195E
46.208	0.783	65375	PRACTICE_WORD_OFF	n/a	n/a	WAGON	-999	-1	[0, 0, 0]	n/a	FR1	2	R1195E
46.991	1.616	66158	PRACTICE_WORD	n/a	n/a	IRON	2	-1	[0, 0, 0]	n/a	FR1	2	R1195E
48.607	0.884	67774	PRACTICE_WORD_OFF	n/a	n/a	IRON	-999	-1	[0, 0, 0]	n/a	FR1	2	R1195E
49.491	1.618	68658	PRACTICE_WORD	n/a	n/a	RHINO	3	-1	[0, 0, 0]	n/a	FR1	2	R1195E
51.109	0.799	70276	PRACTICE_WORD_OFF	n/a	n/a	RHINO	-999	-1	[0, 0, 0]	n/a	FR1	2	R1195E
51.908	1.617	71075	PRACTICE_WORD	n/a	n/a	WATCH	4	-1	[0, 0, 0]	n/a	FR1	2	R1195E
53.525	0.933	72692	PRACTICE_WORD_OFF	n/a	n/a	WATCH	-999	-1	[0, 0, 0]	n/a	FR1	2	R1195E
54.458	1.601	73625	PRACTICE_WORD	n/a	n/a	ATTIC	5	-1	[0, 0, 0]	n/a	FR1	2	R1195E
56.059	0.8	75226	PRACTICE_WORD_OFF	n/a	n/a	ATTIC	-999	-1	[0, 0, 0]	n/a	FR1	2	R1195E
56.859	1.617	76026	PRACTICE_WORD	n/a	n/a	FLOOD	6	-1	[0, 0, 0]	n/a	FR1	2	R1195E
58.476	0.851	77643	PRACTICE_WORD_OFF	n/a	n/a	FLOOD	-999	-1	[0, 0, 0]	n/a	FR1	2	R1195E
59.327	1.617	78494	PRACTICE_WORD	n/a	n/a	CAMEL	7	-1	[0, 0, 0]	n/a	FR1	2	R1195E
60.944	0.983	80110	PRACTICE_WORD_OFF	n/a	n/a	CAMEL	-999	-1	[0, 0, 0]	n/a	FR1	2	R1195E
61.927	1.616	81093	PRACTICE_WORD	n/a	n/a	CHEST	8	-1	[0, 0, 0]	n/a	FR1	2	R1195E
63.543	1.001	82709	PRACTICE_WORD_OFF	n/a	n/a	CHEST	-999	-1	[0, 0, 0]	n/a	FR1	2	R1195E
64.544	1.617	83710	PRACTICE_WORD	n/a	n/a	RING	9	-1	[0, 0, 0]	n/a	FR1	2	R1195E
66.161	0.967	85327	PRACTICE_WORD_OFF	n/a	n/a	RING	-999	-1	[0, 0, 0]	n/a	FR1	2	R1195E
67.128	1.616	86294	PRACTICE_WORD	n/a	n/a	COTTON	10	-1	[0, 0, 0]	n/a	FR1	2	R1195E
68.744	0.984	87910	PRACTICE_WORD_OFF	n/a	n/a	COTTON	-999	-1	[0, 0, 0]	n/a	FR1	2	R1195E
69.728	1.617	88894	PRACTICE_WORD	n/a	n/a	TONGUE	11	-1	[0, 0, 0]	n/a	FR1	2	R1195E
71.345	0.851	90511	PRACTICE_WORD_OFF	n/a	n/a	TONGUE	-999	-1	[0, 0, 0]	n/a	FR1	2	R1195E
72.196	1.616	91362	PRACTICE_WORD	n/a	n/a	BEAM	12	-1	[0, 0, 0]	n/a	FR1	2	R1195E
73.812	0.0	92978	PRACTICE_WORD_OFF	n/a	n/a	BEAM	-999	-1	[0, 0, 0]	n/a	FR1	2	R1195E
73.812	0.0	92978	DISTRACT_START	n/a	n/a	n/a	-999	-1	[0, 0, 0]	n/a	FR1	2	R1195E
73.812	0.016	92978	START	n/a	n/a	n/a	-999	-1	[-999, -999, -999]	n/a	FR1	2	R1195E
73.828	6.702	92994	PROB	6.702	n/a	n/a	-999	-1	[7, 2, 8]	17	FR1	2	R1195E
80.53	6.968	99696	PROB	6.968	n/a	n/a	-999	-1	[6, 7, 5]	18	FR1	2	R1195E
87.498	6.384	106663	PROB	6.384	n/a	n/a	-999	-1	[5, 7, 3]	15	FR1	2	R1195E
93.882	0.017	113047	STOP	n/a	n/a	n/a	-999	-1	[-999, -999, -999]	n/a	FR1	2	R1195E
93.899	0.65	113064	DISTRACT_END	n/a	n/a	n/a	-999	-1	[0, 0, 0]	n/a	FR1	2	R1195E
94.549	0.518	113714	RETRIEVAL_ORIENT	n/a	n/a	n/a	-999	-1	[0, 0, 0]	n/a	FR1	2	R1195E
95.067	30.009	114232	PRACTICE_REC_START	n/a	n/a	n/a	-999	-1	[0, 0, 0]	n/a	FR1	2	R1195E
125.076	9.83	144240	PRACTICE_REC_END	n/a	n/a	n/a	-999	-1	[0, 0, 0]	n/a	FR1	2	R1195E
134.906	0.5	154070	TRIAL	n/a	n/a	n/a	-999	1	[0, 0, 0]	n/a	FR1	2	R1195E
135.406	10.428	154570	COUNTDOWN_START	n/a	n/a	n/a	-999	1	[0, 0, 0]	n/a	FR1	2	R1195E
145.834	0.007	164997	COUNTDOWN_END	n/a	n/a	n/a	-999	1	[0, 0, 0]	n/a	FR1	2	R1195E
145.841	1.617	165004	ORIENT	n/a	n/a	n/a	-999	1	[0, 0, 0]	n/a	FR1	2	R1195E
147.458	2.15	166621	ORIENT_OFF	n/a	n/a	n/a	-999	1	[0, 0, 0]	n/a	FR1	2	R1195E
149.608	1.602	168771	WORD	n/a	wordpools/wordpool_EN.txt	CUP	1	1	[0, 0, 0]	n/a	FR1	2	R1195E
151.21	0.933	170373	WORD_OFF	n/a	n/a	CUP	1	1	[0, 0, 0]	n/a	FR1	2	R1195E
152.143	1.616	171306	WORD	n/a	wordpools/wordpool_EN.txt	PET	2	1	[0, 0, 0]	n/a	FR1	2	R1195E
153.759	0.767	172922	WORD_OFF	n/a	n/a	PET	2	1	[0, 0, 0]	n/a	FR1	2	R1195E
154.526	1.601	173689	WORD	n/a	wordpools/wordpool_EN.txt	ZOO	3	1	[0, 0, 0]	n/a	FR1	2	R1195E
156.127	0.784	175290	WORD_OFF	n/a	n/a	ZOO	3	1	[0, 0, 0]	n/a	FR1	2	R1195E
156.911	1.616	176074	WORD	n/a	wordpools/wordpool_EN.txt	KITE	4	1	[0, 0, 0]	n/a	FR1	2	R1195E
158.527	0.883	177690	WORD_OFF	n/a	n/a	KITE	4	1	[0, 0, 0]	n/a	FR1	2	R1195E
159.41	1.618	178573	WORD	n/a	wordpools/wordpool_EN.txt	HORSE	5	1	[0, 0, 0]	n/a	FR1	2	R1195E
161.028	0.816	180191	WORD_OFF	n/a	n/a	HORSE	5	1	[0, 0, 0]	n/a	FR1	2	R1195E
161.844	1.617	181007	WORD	n/a	wordpools/wordpool_EN.txt	CAT	6	1	[0, 0, 0]	n/a	FR1	2	R1195E
163.461	0.834	182624	WORD_OFF	n/a	n/a	CAT	6	1	[0, 0, 0]	n/a	FR1	2	R1195E
164.295	1.617	183458	WORD	n/a	wordpools/wordpool_EN.txt	FARM	7	1	[0, 0, 0]	n/a	FR1	2	R1195E
165.912	0.783	185074	WORD_OFF	n/a	n/a	FARM	7	1	[0, 0, 0]	n/a	FR1	2	R1195E
166.695	1.618	185857	WORD	n/a	wordpools/wordpool_EN.txt	BIRD	8	1	[0, 0, 0]	n/a	FR1	2	R1195E
168.313	0.867	187475	WORD_OFF	n/a	n/a	BIRD	8	1	[0, 0, 0]	n/a	FR1	2	R1195E
169.18	1.616	188342	WORD	n/a	wordpools/wordpool_EN.txt	DOG	9	1	[0, 0, 0]	n/a	FR1	2	R1195E
170.796	0.766	189958	WORD_OFF	n/a	n/a	DOG	9	1	[0, 0, 0]	n/a	FR1	2	R1195E
171.562	1.601	190724	WORD	n/a	wordpools/wordpool_EN.txt	FOX	10	1	[0, 0, 0]	n/a	FR1	2	R1195E
173.163	0.918	192325	WORD_OFF	n/a	n/a	FOX	10	1	[0, 0, 0]	n/a	FR1	2	R1195E
174.081	1.615	193243	WORD	n/a	wordpools/wordpool_EN.txt	CORN	11	1	[0, 0, 0]	n/a	FR1	2	R1195E
175.696	0.834	194858	WORD_OFF	n/a	n/a	CORN	11	1	[0, 0, 0]	n/a	FR1	2	R1195E
176.53	1.601	195692	WORD	n/a	wordpools/wordpool_EN.txt	ANT	12	1	[0, 0, 0]	n/a	FR1	2	R1195E
178.131	0.0	197293	WORD_OFF	n/a	n/a	ANT	12	1	[0, 0, 0]	n/a	FR1	2	R1195E
178.131	0.0	197293	DISTRACT_START	n/a	n/a	n/a	-999	1	[0, 0, 0]	n/a	FR1	2	R1195E
178.131	0.017	197293	START	n/a	n/a	n/a	-999	1	[-999, -999, -999]	n/a	FR1	2	R1195E
178.148	5.667	197310	PROB	5.667	n/a	n/a	-999	1	[4, 2, 4]	10	FR1	2	R1195E
183.815	4.368	202977	PROB	4.368	n/a	n/a	-999	1	[9, 8, 2]	19	FR1	2	R1195E
188.183	6.3	207345	PROB	6.3	n/a	n/a	-999	1	[2, 6, 3]	11	FR1	2	R1195E
194.483	9.097	213644	PROB	9.097	n/a	n/a	-999	1	[8, 8, 9]	25	FR1	2	R1195E
203.58	0.021	222741	STOP	n/a	n/a	n/a	-999	1	[-999, -999, -999]	n/a	FR1	2	R1195E
203.601	0.652	222762	DISTRACT_END	n/a	n/a	n/a	-999	1	[0, 0, 0]	n/a	FR1	2	R1195E
204.253	0.516	223414	RETRIEVAL_ORIENT	n/a	n/a	n/a	-999	1	[0, 0, 0]	n/a	FR1	2	R1195E
204.769	4.145	223930	REC_START	n/a	n/a	n/a	-999	1	[0, 0, 0]	n/a	FR1	2	R1195E
208.914	1.125	228075	REC_WORD_VV	1.125	n/a	<>	-999	1	[0, 0, 0]	n/a	FR1	2	R1195E
210.039	2.018	229200	REC_WORD	2.018	n/a	CUP	1	1	[0, 0, 0]	n/a	FR1	2	R1195E
212.057	3.077	231218	REC_WORD	3.077	n/a	ANT	12	1	[0, 0, 0]	n/a	FR1	2	R1195E
215.134	2.576	234295	REC_WORD	2.576	n/a	ZOO	3	1	[0, 0, 0]	n/a	FR1	2	R1195E
217.71	2.95	236870	REC_WORD	2.95	n/a	FARM	7	1	[0, 0, 0]	n/a	FR1	2	R1195E
220.66	4.219	239820	REC_WORD	4.219	n/a	HORSE	5	1	[0, 0, 0]	n/a	FR1	2	R1195E
224.879	9.901	244039	REC_WORD_VV	9.901	n/a	<>	-999	1	[0, 0, 0]	n/a	FR1	2	R1195E
234.78	5.861	253940	REC_END	n/a	n/a	n/a	-999	1	[0, 0, 0]	n/a	FR1	2	R1195E
240.641	0.5	259801	TRIAL	n/a	n/a	n/a	-999	2	[0, 0, 0]	n/a	FR1	2	R1195E
241.141	10.428	260301	COUNTDOWN_START	n/a	n/a	n/a	-999	2	[0, 0, 0]	n/a	FR1	2	R1195E
251.569	0.008	270728	COUNTDOWN_END	n/a	n/a	n/a	-999	2	[0, 0, 0]	n/a	FR1	2	R1195E
251.577	1.618	270736	ORIENT	n/a	n/a	n/a	-999	2	[0, 0, 0]	n/a	FR1	2	R1195E
253.195	2.083	272354	ORIENT_OFF	n/a	n/a	n/a	-999	2	[0, 0, 0]	n/a	FR1	2	R1195E
255.278	1.616	274437	WORD	n/a	wordpools/wordpool_EN.txt	GOAT	1	2	[0, 0, 0]	n/a	FR1	2	R1195E
256.894	0.767	276053	WORD_OFF	n/a	n/a	GOAT	1	2	[0, 0, 0]	n/a	FR1	2	R1195E
257.661	1.618	276820	WORD	n/a	wordpools/wordpool_EN.txt	BAG	2	2	[0, 0, 0]	n/a	FR1	2	R1195E
259.279	0.833	278438	WORD_OFF	n/a	n/a	BAG	2	2	[0, 0, 0]	n/a	FR1	2	R1195E
260.112	1.616	279271	WORD	n/a	wordpools/wordpool_EN.txt	GATE	3	2	[0, 0, 0]	n/a	FR1	2	R1195E
261.728	0.817	280887	WORD_OFF	n/a	n/a	GATE	3	2	[0, 0, 0]	n/a	FR1	2	R1195E
262.545	1.618	281704	WORD	n/a	wordpools/wordpool_EN.txt	COW	4	2	[0, 0, 0]	n/a	FR1	2	R1195E
264.163	0.967	283322	WORD_OFF	n/a	n/a	COW	4	2	[0, 0, 0]	n/a	FR1	2	R1195E
265.13	1.616	284289	WORD	n/a	wordpools/wordpool_EN.txt	STEAK	5	2	[0, 0, 0]	n/a	FR1	2	R1195E
266.746	0.95	285905	WORD_OFF	n/a	n/a	STEAK	5	2	[0, 0, 0]	n/a	FR1	2	R1195E
267.696	1.618	286855	WORD	n/a	wordpools/wordpool_EN.txt	GUARD	6	2	[0, 0, 0]	n/a	FR1	2	R1195E
269.314	0.984	288472	WORD_OFF	n/a	n/a	GUARD	6	2	[0, 0, 0]	n/a	FR1	2	R1195E
270.298	1.616	289456	WORD	n/a	wordpools/wordpool_EN.txt	CALF	7	2	[0, 0, 0]	n/a	FR1	2	R1195E
271.914	1.017	291072	WORD_OFF	n/a	n/a	CALF	7	2	[0, 0, 0]	n/a	FR1	2	R1195E
272.931	1.616	292089	WORD	n/a	wordpools/wordpool_EN.txt	BEAK	8	2	[0, 0, 0]	n/a	FR1	2	R1195E
274.547	0.9	293705	WORD_OFF	n/a	n/a	BEAK	8	2	[0, 0, 0]	n/a	FR1	2	R1195E
275.447	1.618	294605	WORD	n/a	wordpools/wordpool_EN.txt	WOLF	9	2	[0, 0, 0]	n/a	FR1	2	R1195E
277.065	0.867	296223	WORD_OFF	n/a	n/a	WOLF	9	2	[0, 0, 0]	n/a	FR1	2	R1195E
277.932	1.616	297090	WORD	n/a	wordpools/wordpool_EN.txt	PRINCE	10	2	[0, 0, 0]	n/a	FR1	2	R1195E
279.548	0.784	298706	WORD_OFF	n/a	n/a	PRINCE	10	2	[0, 0, 0]	n/a	FR1	2	R1195E
280.332	1.618	299490	WORD	n/a	wordpools/wordpool_EN.txt	BARN	11	2	[0, 0, 0]	n/a	FR1	2	R1195E
281.95	0.932	301108	WORD_OFF	n/a	n/a	BARN	11	2	[0, 0, 0]	n/a	FR1	2	R1195E
282.882	1.617	302040	WORD	n/a	wordpools/wordpool_EN.txt	MOUTH	12	2	[0, 0, 0]	n/a	FR1	2	R1195E
284.499	0.0	303657	WORD_OFF	n/a	n/a	MOUTH	12	2	[0, 0, 0]	n/a	FR1	2	R1195E
284.499	0.001	303657	DISTRACT_START	n/a	n/a	n/a	-999	2	[0, 0, 0]	n/a	FR1	2	R1195E
284.5	0.016	303658	START	n/a	n/a	n/a	-999	2	[-999, -999, -999]	n/a	FR1	2	R1195E
284.516	6.151	303674	PROB	6.151	n/a	n/a	-999	2	[6, 5, 6]	17	FR1	2	R1195E
290.667	3.951	309825	PROB	3.951	n/a	n/a	-999	2	[1, 4, 5]	10	FR1	2	R1195E
294.618	3.401	313776	PROB	3.401	n/a	n/a	-999	2	[5, 5, 9]	19	FR1	2	R1195E
298.019	5.35	317176	PROB	5.35	n/a	n/a	-999	2	[7, 2, 4]	13	FR1	2	R1195E
303.369	5.073	322526	PROB	5.073	n/a	n/a	-999	2	[8, 4, 8]	20	FR1	2	R1195E
308.442	0.011	327599	STOP	n/a	n/a	n/a	-999	2	[-999, -999, -999]	n/a	FR1	2	R1195E
308.453	0.685	327610	DISTRACT_END	n/a	n/a	n/a	-999	2	[0, 0, 0]	n/a	FR1	2	R1195E
309.138	0.516	328295	RETRIEVAL_ORIENT	n/a	n/a	n/a	-999	2	[0, 0, 0]	n/a	FR1	2	R1195E
309.654	3.862	328811	REC_START	n/a	n/a	n/a	-999	2	[0, 0, 0]	n/a	FR1	2	R1195E
313.516	1.253	332673	REC_WORD_VV	1.253	n/a	<>	-999	2	[0, 0, 0]	n/a	FR1	2	R1195E
314.769	3.321	333926	REC_WORD	3.321	n/a	PRINCE	10	2	[0, 0, 0]	n/a	FR1	2	R1195E
318.09	7.271	337247	REC_WORD	7.271	n/a	BEAM	-999	2	[0, 0, 0]	n/a	FR1	2	R1195E
325.361	4.037	344517	REC_WORD_VV	4.037	n/a	<>	-999	2	[0, 0, 0]	n/a	FR1	2	R1195E
329.398	6.928	348554	REC_WORD	6.928	n/a	GOAT	1	2	[0, 0, 0]	n/a	FR1	2	R1195E
336.326	3.341	355482	REC_WORD_VV	3.341	n/a	<>	-999	2	[0, 0, 0]	n/a	FR1	2	R1195E
339.667	5.193	358823	REC_END	n/a	n/a	n/a	-999	2	[0, 0, 0]	n/a	FR1	2	R1195E
344.86	0.5	364016	TRIAL	n/a	n/a	n/a	-999	3	[0, 0, 0]	n/a	FR1	2	R1195E
345.36	10.428	364516	COUNTDOWN_START	n/a	n/a	n/a	-999	3	[0, 0, 0]	n/a	FR1	2	R1195E
355.788	0.007	374943	COUNTDOWN_END	n/a	n/a	n/a	-999	3	[0, 0, 0]	n/a	FR1	2	R1195E
355.795	1.617	374950	ORIENT	n/a	n/a	n/a	-999	3	[0, 0, 0]	n/a	FR1	2	R1195E
357.412	2.284	376567	ORIENT_OFF	n/a	n/a	n/a	-999	3	[0, 0, 0]	n/a	FR1	2	R1195E
359.696	1.618	378851	WORD	n/a	wordpools/wordpool_EN.txt	DEER	1	3	[0, 0, 0]	n/a	FR1	2	R1195E
361.314	0.816	380469	WORD_OFF	n/a	n/a	DEER	1	3	[0, 0, 0]	n/a	FR1	2	R1195E
362.13	1.616	381285	WORD	n/a	wordpools/wordpool_EN.txt	TRASH	2	3	[0, 0, 0]	n/a	FR1	2	R1195E
363.746	0.9	382901	WORD_OFF	n/a	n/a	TRASH	2	3	[0, 0, 0]	n/a	FR1	2	R1195E
364.646	1.602	383801	WORD	n/a	wordpools/wordpool_EN.txt	DART	3	3	[0, 0, 0]	n/a	FR1	2	R1195E
366.248	0.85	385403	WORD_OFF	n/a	n/a	DART	3	3	[0, 0, 0]	n/a	FR1	2	R1195E
367.098	1.616	386253	WORD	n/a	wordpools/wordpool_EN.txt	GRAPE	4	3	[0, 0, 0]	n/a	FR1	2	R1195E
368.714	1.0	387869	WORD_OFF	n/a	n/a	GRAPE	4	3	[0, 0, 0]	n/a	FR1	2	R1195E
369.714	1.617	388869	WORD	n/a	wordpools/wordpool_EN.txt	GOLD	5	3	[0, 0, 0]	n/a	FR1	2	R1195E
371.331	0.835	390486	WORD_OFF	n/a	n/a	GOLD	5	3	[0, 0, 0]	n/a	FR1	2	R1195E
372.166	1.615	391321	WORD	n/a	wordpools/wordpool_EN.txt	TOOTH	6	3	[0, 0, 0]	n/a	FR1	2	R1195E
373.781	0.767	392935	WORD_OFF	n/a	n/a	TOOTH	6	3	[0, 0, 0]	n/a	FR1	2	R1195E
374.548	1.601	393702	WORD	n/a	wordpools/wordpool_EN.txt	MOON	7	3	[0, 0, 0]	n/a	FR1	2	R1195E
376.149	0.784	395303	WORD_OFF	n/a	n/a	MOON	7	3	[0, 0, 0]	n/a	FR1	2	R1195E
376.933	1.616	396087	WORD	n/a	wordpools/wordpool_EN.txt	BEAR	8	3	[0, 0, 0]	n/a	FR1	2	R1195E
378.549	0.85	397703	WORD_OFF	n/a	n/a	BEAR	8	3	[0, 0, 0]	n/a	FR1	2	R1195E
379.399	1.601	398553	WORD	n/a	wordpools/wordpool_EN.txt	MAP	9	3	[0, 0, 0]	n/a	FR1	2	R1195E
381.0	0.799	400154	WORD_OFF	n/a	n/a	MAP	9	3	[0, 0, 0]	n/a	FR1	2	R1195E
381.799	1.617	400953	WORD	n/a	wordpools/wordpool_EN.txt	EGG	10	3	[0, 0, 0]	n/a	FR1	2	R1195E
383.416	0.967	402570	WORD_OFF	n/a	n/a	EGG	10	3	[0, 0, 0]	n/a	FR1	2	R1195E
384.383	1.601	403537	WORD	n/a	wordpools/wordpool_EN.txt	FILM	11	3	[0, 0, 0]	n/a	FR1	2	R1195E
385.984	0.9	405138	WORD_OFF	n/a	n/a	FILM	11	3	[0, 0, 0]	n/a	FR1	2	R1195E
386.884	1.617	406038	WORD	n/a	wordpools/wordpool_EN.txt	WAVE	12	3	[0, 0, 0]	n/a	FR1	2	R1195E
388.501	0.0	407655	WORD_OFF	n/a	n/a	WAVE	12	3	[0, 0, 0]	n/a	FR1	2	R1195E
388.501	0.0	407655	DISTRACT_START	n/a	n/a	n/a	-999	3	[0, 0, 0]	n/a	FR1	2	R1195E
388.501	0.016	407655	START	n/a	n/a	n/a	-999	3	[-999, -999, -999]	n/a	FR1	2	R1195E
388.517	5.502	407671	PROB	5.502	n/a	n/a	-999	3	[2, 3, 3]	8	FR1	2	R1195E
394.019	3.984	413173	PROB	3.984	n/a	n/a	-999	3	[5, 7, 5]	17	FR1	2	R1195E
398.003	3.65	417157	PROB	3.65	n/a	n/a	-999	3	[6, 9, 4]	19	FR1	2	R1195E
401.653	6.701	420806	PROB	6.701	n/a	n/a	-999	3	[7, 2, 6]	15	FR1	2	R1195E
408.354	4.211	427507	PROB	4.211	n/a	n/a	-999	3	[9, 3, 9]	21	FR1	2	R1195E
412.565	0.006	431718	STOP	n/a	n/a	n/a	-999	3	[-999, -999, -999]	n/a	FR1	2	R1195E
412.571	0.618	431724	DISTRACT_END	n/a	n/a	n/a	-999	3	[0, 0, 0]	n/a	FR1	2	R1195E
413.189	0.517	432342	RETRIEVAL_ORIENT	n/a	n/a	n/a	-999	3	[0, 0, 0]	n/a	FR1	2	R1195E
413.706	0.811	432859	REC_START	n/a	n/a	n/a	-999	3	[0, 0, 0]	n/a	FR1	2	R1195E
414.517	2.569	433670	REC_WORD_VV	2.569	n/a	<>	-999	3	[0, 0, 0]	n/a	FR1	2	R1195E
417.086	0.419	436239	REC_WORD_VV	0.419	n/a	<>	-999	3	[0, 0, 0]	n/a	FR1	2	R1195E
417.505	2.154	436658	REC_WORD	2.154	n/a	GOLD	5	3	[0, 0, 0]	n/a	FR1	2	R1195E
419.659	4.243	438812	REC_WORD	4.243	n/a	TOOTH	6	3	[0, 0, 0]	n/a	FR1	2	R1195E
423.902	3.78	443055	REC_WORD	3.78	n/a	WAVE	12	3	[0, 0, 0]	n/a	FR1	2	R1195E
427.682	3.744	446834	REC_WORD	3.744	n/a	DEER	1	3	[0, 0, 0]	n/a	FR1	2	R1195E
431.426	12.291	450578	REC_WORD	12.291	n/a	DART	3	3	[0, 0, 0]	n/a	FR1	2	R1195E
443.717	6.028	462869	REC_END	n/a	n/a	n/a	-999	3	[0, 0, 0]	n/a	FR1	2	R1195E
449.745	0.5	468897	TRIAL	n/a	n/a	n/a	-999	4	[0, 0, 0]	n/a	FR1	2	R1195E
450.245	10.428	469397	COUNTDOWN_START	n/a	n/a	n/a	-999	4	[0, 0, 0]	n/a	FR1	2	R1195E
460.673	0.007	479824	COUNTDOWN_END	n/a	n/a	n/a	-999	4	[0, 0, 0]	n/a	FR1	2	R1195E
460.68	1.618	479831	ORIENT	n/a	n/a	n/a	-999	4	[0, 0, 0]	n/a	FR1	2	R1195E
462.298	2.199	481449	ORIENT_OFF	n/a	n/a	n/a	-999	4	[0, 0, 0]	n/a	FR1	2	R1195E
464.497	1.618	483648	WORD	n/a	wordpools/wordpool_EN.txt	BOY	1	4	[0, 0, 0]	n/a	FR1	2	R1195E
466.115	0.834	485266	WORD_OFF	n/a	n/a	BOY	1	4	[0, 0, 0]	n/a	FR1	2	R1195E
466.949	1.616	486100	WORD	n/a	wordpools/wordpool_EN.txt	BAT	2	4	[0, 0, 0]	n/a	FR1	2	R1195E
468.565	0.85	487716	WORD_OFF	n/a	n/a	BAT	2	4	[0, 0, 0]	n/a	FR1	2	R1195E
469.415	1.618	488566	WORD	n/a	wordpools/wordpool_EN.txt	PIE	3	4	[0, 0, 0]	n/a	FR1	2	R1195E
471.033	0.967	490184	WORD_OFF	n/a	n/a	PIE	3	4	[0, 0, 0]	n/a	FR1	2	R1195E
472.0	1.616	491151	WORD	n/a	wordpools/wordpool_EN.txt	ELF	4	4	[0, 0, 0]	n/a	FR1	2	R1195E
473.616	0.883	492767	WORD_OFF	n/a	n/a	ELF	4	4	[0, 0, 0]	n/a	FR1	2	R1195E
474.499	1.601	493650	WORD	n/a	wordpools/wordpool_EN.txt	BREAD	5	4	[0, 0, 0]	n/a	FR1	2	R1195E
476.1	0.817	495251	WORD_OFF	n/a	n/a	BREAD	5	4	[0, 0, 0]	n/a	FR1	2	R1195E
476.917	1.616	496068	WORD	n/a	wordpools/wordpool_EN.txt	HAND	6	4	[0, 0, 0]	n/a	FR1	2	R1195E
478.533	0.85	497683	WORD_OFF	n/a	n/a	HAND	6	4	[0, 0, 0]	n/a	FR1	2	R1195E
479.383	1.618	498533	WORD	n/a	wordpools/wordpool_EN.txt	HOOK	7	4	[0, 0, 0]	n/a	FR1	2	R1195E
481.001	0.799	500151	WORD_OFF	n/a	n/a	HOOK	7	4	[0, 0, 0]	n/a	FR1	2	R1195E
481.8	1.617	500950	WORD	n/a	wordpools/wordpool_EN.txt	NAIL	8	4	[0, 0, 0]	n/a	FR1	2	R1195E
483.417	0.852	502567	WORD_OFF	n/a	n/a	NAIL	8	4	[0, 0, 0]	n/a	FR1	2	R1195E
484.269	1.615	503419	WORD	n/a	wordpools/wordpool_EN.txt	GLOVE	9	4	[0, 0, 0]	n/a	FR1	2	R1195E
485.884	0.801	505034	WORD_OFF	n/a	n/a	GLOVE	9	4	[0, 0, 0]	n/a	FR1	2	R1195E
486.685	1.618	505835	WORD	n/a	wordpools/wordpool_EN.txt	STOOL	10	4	[0, 0, 0]	n/a	FR1	2	R1195E
488.303	1.016	507453	WORD_OFF	n/a	n/a	STOOL	10	4	[0, 0, 0]	n/a	FR1	2	R1195E
489.319	1.617	508469	WORD	n/a	wordpools/wordpool_EN.txt	PEN	11	4	[0, 0, 0]	n/a	FR1	2	R1195E
490.936	0.799	510086	WORD_OFF	n/a	n/a	PEN	11	4	[0, 0, 0]	n/a	FR1	2	R1195E
491.735	1.617	510885	WORD	n/a	wordpools/wordpool_EN.txt	PURSE	12	4	[0, 0, 0]	n/a	FR1	2	R1195E
493.352	0.0	512502	WORD_OFF	n/a	n/a	PURSE	12	4	[0, 0, 0]	n/a	FR1	2	R1195E
493.352	0.001	512502	DISTRACT_START	n/a	n/a	n/a	-999	4	[0, 0, 0]	n/a	FR1	2	R1195E
493.353	0.016	512503	START	n/a	n/a	n/a	-999	4	[-999, -999, -999]	n/a	FR1	2	R1195E
493.369	3.652	512519	PROB	3.652	n/a	n/a	-999	4	[2, 1, 9]	12	FR1	2	R1195E
497.021	4.616	516171	PROB	4.616	n/a	n/a	-999	4	[7, 6, 5]	18	FR1	2	R1195E
501.637	4.168	520787	PROB	4.168	n/a	n/a	-999	4	[2, 6, 8]	16	FR1	2	R1195E
505.805	6.051	524954	PROB	6.051	n/a	n/a	-999	4	[9, 7, 1]	17	FR1	2	R1195E
511.856	3.172	531005	PROB	3.172	n/a	n/a	-999	4	[2, 4, 6]	12	FR1	2	R1195E
515.028	0.013	534177	STOP	n/a	n/a	n/a	-999	4	[-999, -999, -999]	n/a	FR1	2	R1195E
515.041	0.615	534190	DISTRACT_END	n/a	n/a	n/a	-999	4	[0, 0, 0]	n/a	FR1	2	R1195E
515.656	0.519	534805	RETRIEVAL_ORIENT	n/a	n/a	n/a	-999	4	[0, 0, 0]	n/a	FR1	2	R1195E
516.175	1.931	535324	REC_START	n/a	n/a	n/a	-999	4	[0, 0, 0]	n/a	FR1	2	R1195E
518.106	3.227	537255	REC_WORD_VV	3.227	n/a	<>	-999	4	[0, 0, 0]	n/a	FR1	2	R1195E
521.333	2.936	540482	REC_WORD	2.936	n/a	BOY	1	4	[0, 0, 0]	n/a	FR1	2	R1195E
524.269	3.629	543418	REC_WORD	3.629	n/a	BAT	2	4	[0, 0, 0]	n/a	FR1	2	R1195E
527.898	4.354	547047	REC_WORD	4.354	n/a	PIE	3	4	[0, 0, 0]	n/a	FR1	2	R1195E
532.252	8.54	551400	REC_WORD_VV	8.54	n/a	<>	-999	4	[0, 0, 0]	n/a	FR1	2	R1195E
540.792	5.395	559940	REC_WORD	5.395	n/a	PURSE	12	4	[0, 0, 0]	n/a	FR1	2	R1195E
546.187	6.192	565335	REC_END	n/a	n/a	n/a	-999	4	[0, 0, 0]	n/a	FR1	2	R1195E
552.379	0.5	571527	TRIAL	n/a	n/a	n/a	-999	5	[0, 0, 0]	n/a	FR1	2	R1195E
552.879	10.428	572027	COUNTDOWN_START	n/a	n/a	n/a	-999	5	[0, 0, 0]	n/a	FR1	2	R1195E
563.307	0.009	582454	COUNTDOWN_END	n/a	n/a	n/a	-999	5	[0, 0, 0]	n/a	FR1	2	R1195E
563.316	1.617	582463	ORIENT	n/a	n/a	n/a	-999	5	[0, 0, 0]	n/a	FR1	2	R1195E
564.933	2.133	584080	ORIENT_OFF	n/a	n/a	n/a	-999	5	[0, 0, 0]	n/a	FR1	2	R1195E
567.066	1.616	586213	WORD	n/a	wordpools/wordpool_EN.txt	CAPE	1	5	[0, 0, 0]	n/a	FR1	2	R1195E
568.682	0.767	587829	WORD_OFF	n/a	n/a	CAPE	1	5	[0, 0, 0]	n/a	FR1	2	R1195E
569.449	1.601	588596	WORD	n/a	wordpools/wordpool_EN.txt	PLANE	2	5	[0, 0, 0]	n/a	FR1	2	R1195E
571.05	0.934	590197	WORD_OFF	n/a	n/a	PLANE	2	5	[0, 0, 0]	n/a	FR1	2	R1195E
571.984	1.616	591131	WORD	n/a	wordpools/wordpool_EN.txt	BOMB	3	5	[0, 0, 0]	n/a	FR1	2	R1195E
573.6	0.917	592747	WORD_OFF	n/a	n/a	BOMB	3	5	[0, 0, 0]	n/a	FR1	2	R1195E
574.517	1.618	593664	WORD	n/a	wordpools/wordpool_EN.txt	PHONE	4	5	[0, 0, 0]	n/a	FR1	2	R1195E
576.135	0.833	595282	WORD_OFF	n/a	n/a	PHONE	4	5	[0, 0, 0]	n/a	FR1	2	R1195E
576.968	1.616	596115	WORD	n/a	wordpools/wordpool_EN.txt	WORLD	5	5	[0, 0, 0]	n/a	FR1	2	R1195E
578.584	0.85	597731	WORD_OFF	n/a	n/a	WORLD	5	5	[0, 0, 0]	n/a	FR1	2	R1195E
579.434	1.601	598581	WORD	n/a	wordpools/wordpool_EN.txt	CORD	6	5	[0, 0, 0]	n/a	FR1	2	R1195E
581.035	0.934	600182	WORD_OFF	n/a	n/a	CORD	6	5	[0, 0, 0]	n/a	FR1	2	R1195E
581.969	1.616	601116	WORD	n/a	wordpools/wordpool_EN.txt	TOOL	7	5	[0, 0, 0]	n/a	FR1	2	R1195E
583.585	0.984	602731	WORD_OFF	n/a	n/a	TOOL	7	5	[0, 0, 0]	n/a	FR1	2	R1195E
584.569	1.618	603715	WORD	n/a	wordpools/wordpool_EN.txt	BOARD	8	5	[0, 0, 0]	n/a	FR1	2	R1195E
586.187	0.9	605333	WORD_OFF	n/a	n/a	BOARD	8	5	[0, 0, 0]	n/a	FR1	2	R1195E
587.087	1.616	606233	WORD	n/a	wordpools/wordpool_EN.txt	SHEET	9	5	[0, 0, 0]	n/a	FR1	2	R1195E
588.703	0.966	607849	WORD_OFF	n/a	n/a	SHEET	9	5	[0, 0, 0]	n/a	FR1	2	R1195E
589.669	1.618	608815	WORD	n/a	wordpools/wordpool_EN.txt	WHEEL	10	5	[0, 0, 0]	n/a	FR1	2	R1195E
591.287	0.801	610433	WORD_OFF	n/a	n/a	WHEEL	10	5	[0, 0, 0]	n/a	FR1	2	R1195E
592.088	1.615	611234	WORD	n/a	wordpools/wordpool_EN.txt	CASH	11	5	[0, 0, 0]	n/a	FR1	2	R1195E
593.703	0.8	612849	WORD_OFF	n/a	n/a	CASH	11	5	[0, 0, 0]	n/a	FR1	2	R1195E
594.503	1.602	613649	WORD	n/a	wordpools/wordpool_EN.txt	TEETH	12	5	[0, 0, 0]	n/a	FR1	2	R1195E
596.105	0.0	615251	WORD_OFF	n/a	n/a	TEETH	12	5	[0, 0, 0]	n/a	FR1	2	R1195E
596.105	0.0	615251	DISTRACT_START	n/a	n/a	n/a	-999	5	[0, 0, 0]	n/a	FR1	2	R1195E
596.105	0.017	615251	START	n/a	n/a	n/a	-999	5	[-999, -999, -999]	n/a	FR1	2	R1195E
596.122	6.45	615268	PROB	6.45	n/a	n/a	-999	5	[9, 1, 2]	12	FR1	2	R1195E
602.572	9.901	621718	PROB	9.901	n/a	n/a	-999	5	[9, 8, 7]	24	FR1	2	R1195E
612.473	8.088	631618	PROB	8.088	n/a	n/a	-999	5	[7, 9, 4]	20	FR1	2	R1195E
620.561	0.014	639706	STOP	n/a	n/a	n/a	-999	5	[-999, -999, -999]	n/a	FR1	2	R1195E
620.575	0.551	639720	DISTRACT_END	n/a	n/a	n/a	-999	5	[0, 0, 0]	n/a	FR1	2	R1195E
621.126	0.516	640271	RETRIEVAL_ORIENT	n/a	n/a	n/a	-999	5	[0, 0, 0]	n/a	FR1	2	R1195E
621.642	1.804	640787	REC_START	n/a	n/a	n/a	-999	5	[0, 0, 0]	n/a	FR1	2	R1195E
623.446	1.745	642591	REC_WORD_VV	1.745	n/a	<>	-999	5	[0, 0, 0]	n/a	FR1	2	R1195E
625.191	2.619	644336	REC_WORD	2.619	n/a	BOMB	3	5	[0, 0, 0]	n/a	FR1	2	R1195E
627.81	2.715	646955	REC_WORD	2.715	n/a	PLANE	2	5	[0, 0, 0]	n/a	FR1	2	R1195E
630.525	3.943	649670	REC_WORD	3.943	n/a	CASH	11	5	[0, 0, 0]	n/a	FR1	2	R1195E
634.468	13.593	653613	REC_WORD	13.593	n/a	TEETH	12	5	[0, 0, 0]	n/a	FR1	2	R1195E
648.061	2.749	667205	REC_WORD	2.749	n/a	PHONE	4	5	[0, 0, 0]	n/a	FR1	2	R1195E
650.81	0.844	669954	REC_WORD	0.844	n/a	SHEET	9	5	[0, 0, 0]	n/a	FR1	2	R1195E
651.654	5.944	670798	REC_END	n/a	n/a	n/a	-999	5	[0, 0, 0]	n/a	FR1	2	R1195E
657.598	0.5	676742	TRIAL	n/a	n/a	n/a	-999	6	[0, 0, 0]	n/a	FR1	2	R1195E
658.098	10.428	677242	COUNTDOWN_START	n/a	n/a	n/a	-999	6	[0, 0, 0]	n/a	FR1	2	R1195E
668.526	0.007	687669	COUNTDOWN_END	n/a	n/a	n/a	-999	6	[0, 0, 0]	n/a	FR1	2	R1195E
668.533	1.618	687676	ORIENT	n/a	n/a	n/a	-999	6	[0, 0, 0]	n/a	FR1	2	R1195E
670.151	2.101	689294	ORIENT_OFF	n/a	n/a	n/a	-999	6	[0, 0, 0]	n/a	FR1	2	R1195E
672.252	1.616	691395	WORD	n/a	wordpools/wordpool_EN.txt	PIPE	1	6	[0, 0, 0]	n/a	FR1	2	R1195E
673.868	0.883	693011	WORD_OFF	n/a	n/a	PIPE	1	6	[0, 0, 0]	n/a	FR1	2	R1195E
674.751	1.617	693894	WORD	n/a	wordpools/wordpool_EN.txt	STORM	2	6	[0, 0, 0]	n/a	FR1	2	R1195E
676.368	0.885	695511	WORD_OFF	n/a	n/a	STORM	2	6	[0, 0, 0]	n/a	FR1	2	R1195E
677.253	1.615	696396	WORD	n/a	wordpools/wordpool_EN.txt	PEACH	3	6	[0, 0, 0]	n/a	FR1	2	R1195E
678.868	0.801	698011	WORD_OFF	n/a	n/a	PEACH	3	6	[0, 0, 0]	n/a	FR1	2	R1195E
679.669	1.618	698812	WORD	n/a	wordpools/wordpool_EN.txt	JAR	4	6	[0, 0, 0]	n/a	FR1	2	R1195E
681.287	0.983	700430	WORD_OFF	n/a	n/a	JAR	4	6	[0, 0, 0]	n/a	FR1	2	R1195E
682.27	1.616	701413	WORD	n/a	wordpools/wordpool_EN.txt	ROOF	5	6	[0, 0, 0]	n/a	FR1	2	R1195E
683.886	0.984	703029	WORD_OFF	n/a	n/a	ROOF	5	6	[0, 0, 0]	n/a	FR1	2	R1195E
684.87	1.616	704013	WORD	n/a	wordpools/wordpool_EN.txt	BOWL	6	6	[0, 0, 0]	n/a	FR1	2	R1195E
686.486	0.917	705629	WORD_OFF	n/a	n/a	BOWL	6	6	[0, 0, 0]	n/a	FR1	2	R1195E
687.403	1.618	706546	WORD	n/a	wordpools/wordpool_EN.txt	TIE	7	6	[0, 0, 0]	n/a	FR1	2	R1195E
689.021	0.917	708163	WORD_OFF	n/a	n/a	TIE	7	6	[0, 0, 0]	n/a	FR1	2	R1195E
689.938	1.616	709080	WORD	n/a	wordpools/wordpool_EN.txt	WHALE	8	6	[0, 0, 0]	n/a	FR1	2	R1195E
691.554	0.934	710696	WORD_OFF	n/a	n/a	WHALE	8	6	[0, 0, 0]	n/a	FR1	2	R1195E
692.488	1.617	711630	WORD	n/a	wordpools/wordpool_EN.txt	AXE	9	6	[0, 0, 0]	n/a	FR1	2	R1195E
694.105	0.851	713247	WORD_OFF	n/a	n/a	AXE	9	6	[0, 0, 0]	n/a	FR1	2	R1195E
694.956	1.616	714098	WORD	n/a	wordpools/wordpool_EN.txt	DITCH	10	6	[0, 0, 0]	n/a	FR1	2	R1195E
696.572	0.866	715714	WORD_OFF	n/a	n/a	DITCH	10	6	[0, 0, 0]	n/a	FR1	2	R1195E
697.438	1.618	716580	WORD	n/a	wordpools/wordpool_EN.txt	STAIR	11	6	[0, 0, 0]	n/a	FR1	2	R1195E
699.056	0.984	718198	WORD_OFF	n/a	n/a	STAIR	11	6	[0, 0, 0]	n/a	FR1	2	R1195E
700.04	1.616	719182	WORD	n/a	wordpools/wordpool_EN.txt	HOLE	12	6	[0, 0, 0]	n/a	FR1	2	R1195E
701.656	0.0	720798	WORD_OFF	n/a	n/a	HOLE	12	6	[0, 0, 0]	n/a	FR1	2	R1195E
701.656	0.0	720798	DISTRACT_START	n/a	n/a	n/a	-999	6	[0, 0, 0]	n/a	FR1	2	R1195E
701.656	0.016	720798	START	n/a	n/a	n/a	-999	6	[-999, -999, -999]	n/a	FR1	2	R1195E
701.672	4.536	720814	PROB	4.536	n/a	n/a	-999	6	[3, 7, 5]	15	FR1	2	R1195E
706.208	7.683	725350	PROB	7.683	n/a	n/a	-999	6	[9, 4, 1]	14	FR1	2	R1195E
713.891	5.269	733032	PROB	5.269	n/a	n/a	-999	6	[3, 5, 4]	12	FR1	2	R1195E
719.16	6.891	738301	PROB	6.891	n/a	n/a	-999	6	[6, 6, 8]	20	FR1	2	R1195E
726.051	0.01	745192	STOP	n/a	n/a	n/a	-999	6	[-999, -999, -999]	n/a	FR1	2	R1195E
726.061	0.649	745202	DISTRACT_END	n/a	n/a	n/a	-999	6	[0, 0, 0]	n/a	FR1	2	R1195E
726.71	0.502	745851	RETRIEVAL_ORIENT	n/a	n/a	n/a	-999	6	[0, 0, 0]	n/a	FR1	2	R1195E
727.212	2.653	746353	REC_START	n/a	n/a	n/a	-999	6	[0, 0, 0]	n/a	FR1	2	R1195E
729.865	1.711	749006	REC_WORD	1.711	n/a	AXE	9	6	[0, 0, 0]	n/a	FR1	2	R1195E
731.576	4.12	750717	REC_WORD	4.12	n/a	BOWL	6	6	[0, 0, 0]	n/a	FR1	2	R1195E
735.696	6.499	754837	REC_WORD	6.499	n/a	DITCH	10	6	[0, 0, 0]	n/a	FR1	2	R1195E
742.195	4.075	761335	REC_WORD	4.075	n/a	PIPE	1	6	[0, 0, 0]	n/a	FR1	2	R1195E
746.27	10.953	765410	REC_WORD	10.953	n/a	STORM	2	6	[0, 0, 0]	n/a	FR1	2	R1195E
757.223	5.995	776363	REC_END	n/a	n/a	n/a	-999	6	[0, 0, 0]	n/a	FR1	2	R1195E
763.218	0.5	782358	TRIAL	n/a	n/a	n/a	-999	7	[0, 0, 0]	n/a	FR1	2	R1195E
763.718	10.428	782858	COUNTDOWN_START	n/a	n/a	n/a	-999	7	[0, 0, 0]	n/a	FR1	2	R1195E
774.146	0.007	793285	COUNTDOWN_END	n/a	n/a	n/a	-999	7	[0, 0, 0]	n/a	FR1	2	R1195E
774.153	1.616	793292	ORIENT	n/a	n/a	n/a	-999	7	[0, 0, 0]	n/a	FR1	2	R1195E
775.769	1.867	794908	ORIENT_OFF	n/a	n/a	n/a	-999	7	[0, 0, 0]	n/a	FR1	2	R1195E
777.636	1.618	796775	WORD	n/a	wordpools/wordpool_EN.txt	SEAL	1	7	[0, 0, 0]	n/a	FR1	2	R1195E
779.254	0.917	798393	WORD_OFF	n/a	n/a	SEAL	1	7	[0, 0, 0]	n/a	FR1	2	R1195E
780.171	1.615	799310	WORD	n/a	wordpools/wordpool_EN.txt	NET	2	7	[0, 0, 0]	n/a	FR1	2	R1195E
781.786	0.851	800925	WORD_OFF	n/a	n/a	NET	2	7	[0, 0, 0]	n/a	FR1	2	R1195E
782.637	1.618	801776	WORD	n/a	wordpools/wordpool_EN.txt	EEL	3	7	[0, 0, 0]	n/a	FR1	2	R1195E
784.255	1.016	803394	WORD_OFF	n/a	n/a	EEL	3	7	[0, 0, 0]	n/a	FR1	2	R1195E
785.271	1.616	804410	WORD	n/a	wordpools/wordpool_EN.txt	VASE	4	7	[0, 0, 0]	n/a	FR1	2	R1195E
786.887	0.851	806026	WORD_OFF	n/a	n/a	VASE	4	7	[0, 0, 0]	n/a	FR1	2	R1195E
787.738	1.616	806877	WORD	n/a	wordpools/wordpool_EN.txt	CLAY	5	7	[0, 0, 0]	n/a	FR1	2	R1195E
789.354	0.802	808493	WORD_OFF	n/a	n/a	CLAY	5	7	[0, 0, 0]	n/a	FR1	2	R1195E
790.156	1.616	809295	WORD	n/a	wordpools/wordpool_EN.txt	CHAIR	6	7	[0, 0, 0]	n/a	FR1	2	R1195E
791.772	0.933	810911	WORD_OFF	n/a	n/a	CHAIR	6	7	[0, 0, 0]	n/a	FR1	2	R1195E
792.705	1.618	811843	WORD	n/a	wordpools/wordpool_EN.txt	CLOWN	7	7	[0, 0, 0]	n/a	FR1	2	R1195E
794.323	0.967	813461	WORD_OFF	n/a	n/a	CLOWN	7	7	[0, 0, 0]	n/a	FR1	2	R1195E
795.29	1.616	814428	WORD	n/a	wordpools/wordpool_EN.txt	DUCK	8	7	[0, 0, 0]	n/a	FR1	2	R1195E
796.906	0.917	816044	WORD_OFF	n/a	n/a	DUCK	8	7	[0, 0, 0]	n/a	FR1	2	R1195E
797.823	1.617	816961	WORD	n/a	wordpools/wordpool_EN.txt	SPRING	9	7	[0, 0, 0]	n/a	FR1	2	R1195E
799.44	1.0	818578	WORD_OFF	n/a	n/a	SPRING	9	7	[0, 0, 0]	n/a	FR1	2	R1195E
800.44	1.618	819578	WORD	n/a	wordpools/wordpool_EN.txt	POOL	10	7	[0, 0, 0]	n/a	FR1	2	R1195E
802.058	0.917	821196	WORD_OFF	n/a	n/a	POOL	10	7	[0, 0, 0]	n/a	FR1	2	R1195E
802.975	1.616	822113	WORD	n/a	wordpools/wordpool_EN.txt	TEA	11	7	[0, 0, 0]	n/a	FR1	2	R1195E
804.591	0.816	823729	WORD_OFF	n/a	n/a	TEA	11	7	[0, 0, 0]	n/a	FR1	2	R1195E
805.407	1.618	824545	WORD	n/a	wordpools/wordpool_EN.txt	BOAT	12	7	[0, 0, 0]	n/a	FR1	2	R1195E
807.025	0.0	826163	WORD_OFF	n/a	n/a	BOAT	12	7	[0, 0, 0]	n/a	FR1	2	R1195E
807.025	0.001	826163	DISTRACT_START	n/a	n/a	n/a	-999	7	[0, 0, 0]	n/a	FR1	2	R1195E
807.026	0.016	826164	START	n/a	n/a	n/a	-999	7	[-999, -999, -999]	n/a	FR1	2	R1195E
807.042	5.85	826180	PROB	5.85	n/a	n/a	-999	7	[6, 1, 9]	16	FR1	2	R1195E
812.892	4.551	832030	PROB	4.551	n/a	n/a	-999	7	[1, 4, 2]	7	FR1	2	R1195E
817.443	7.234	836581	PROB	7.234	n/a	n/a	-999	7	[6, 7, 4]	15	FR1	2	R1195E
824.677	5.753	843814	PROB	5.753	n/a	n/a	-999	7	[2, 2, 9]	13	FR1	2	R1195E
830.43	0.015	849567	STOP	n/a	n/a	n/a	-999	7	[-999, -999, -999]	n/a	FR1	2	R1195E
830.445	0.551	849582	DISTRACT_END	n/a	n/a	n/a	-999	7	[0, 0, 0]	n/a	FR1	2	R1195E
830.996	0.517	850133	RETRIEVAL_ORIENT	n/a	n/a	n/a	-999	7	[0, 0, 0]	n/a	FR1	2	R1195E
831.513	3.342	850650	REC_START	n/a	n/a	n/a	-999	7	[0, 0, 0]	n/a	FR1	2	R1195E
834.855	2.789	853992	REC_WORD	2.789	n/a	SEAL	1	7	[0, 0, 0]	n/a	FR1	2	R1195E
837.644	1.78	856781	REC_WORD	1.78	n/a	EEL	3	7	[0, 0, 0]	n/a	FR1	2	R1195E
839.424	3.83	858561	REC_WORD	3.83	n/a	CLOWN	7	7	[0, 0, 0]	n/a	FR1	2	R1195E
843.254	6.076	862391	REC_WORD	6.076	n/a	BOAT	12	7	[0, 0, 0]	n/a	FR1	2	R1195E
849.33	12.195	868466	REC_WORD	12.195	n/a	TIE	-999	7	[0, 0, 0]	n/a	FR1	2	R1195E
861.525	10.461	880661	REC_END	n/a	n/a	n/a	-999	7	[0, 0, 0]	n/a	FR1	2	R1195E
871.986	0.5	891121	TRIAL	n/a	n/a	n/a	-999	8	[0, 0, 0]	n/a	FR1	2	R1195E
872.486	10.428	891621	COUNTDOWN_START	n/a	n/a	n/a	-999	8	[0, 0, 0]	n/a	FR1	2	R1195E
882.914	0.008	902049	COUNTDOWN_END	n/a	n/a	n/a	-999	8	[0, 0, 0]	n/a	FR1	2	R1195E
882.922	1.616	902057	ORIENT	n/a	n/a	n/a	-999	8	[0, 0, 0]	n/a	FR1	2	R1195E
884.538	2.05	903673	ORIENT_OFF	n/a	n/a	n/a	-999	8	[0, 0, 0]	n/a	FR1	2	R1195E
886.588	1.602	905723	WORD	n/a	wordpools/wordpool_EN.txt	CRANE	1	8	[0, 0, 0]	n/a	FR1	2	R1195E
888.19	0.866	907325	WORD_OFF	n/a	n/a	CRANE	1	8	[0, 0, 0]	n/a	FR1	2	R1195E
889.056	1.616	908191	WORD	n/a	wordpools/wordpool_EN.txt	EAR	2	8	[0, 0, 0]	n/a	FR1	2	R1195E
890.672	0.85	909807	WORD_OFF	n/a	n/a	EAR	2	8	[0, 0, 0]	n/a	FR1	2	R1195E
891.522	1.618	910657	WORD	n/a	wordpools/wordpool_EN.txt	MOTH	3	8	[0, 0, 0]	n/a	FR1	2	R1195E
893.14	0.951	912275	WORD_OFF	n/a	n/a	MOTH	3	8	[0, 0, 0]	n/a	FR1	2	R1195E
894.091	1.616	913226	WORD	n/a	wordpools/wordpool_EN.txt	HEN	4	8	[0, 0, 0]	n/a	FR1	2	R1195E
895.707	0.85	914842	WORD_OFF	n/a	n/a	HEN	4	8	[0, 0, 0]	n/a	FR1	2	R1195E
896.557	1.618	915692	WORD	n/a	wordpools/wordpool_EN.txt	CAKE	5	8	[0, 0, 0]	n/a	FR1	2	R1195E
898.175	0.9	917309	WORD_OFF	n/a	n/a	CAKE	5	8	[0, 0, 0]	n/a	FR1	2	R1195E
899.075	1.616	918209	WORD	n/a	wordpools/wordpool_EN.txt	SLIME	6	8	[0, 0, 0]	n/a	FR1	2	R1195E
900.691	0.85	919825	WORD_OFF	n/a	n/a	SLIME	6	8	[0, 0, 0]	n/a	FR1	2	R1195E
901.541	1.618	920675	WORD	n/a	wordpools/wordpool_EN.txt	SNAIL	7	8	[0, 0, 0]	n/a	FR1	2	R1195E
903.159	1.0	922293	WORD_OFF	n/a	n/a	SNAIL	7	8	[0, 0, 0]	n/a	FR1	2	R1195E
904.159	1.616	923293	WORD	n/a	wordpools/wordpool_EN.txt	PEAR	8	8	[0, 0, 0]	n/a	FR1	2	R1195E
905.775	0.784	924909	WORD_OFF	n/a	n/a	PEAR	8	8	[0, 0, 0]	n/a	FR1	2	R1195E
906.559	1.617	925693	WORD	n/a	wordpools/wordpool_EN.txt	SHELL	9	8	[0, 0, 0]	n/a	FR1	2	R1195E
908.176	0.984	927310	WORD_OFF	n/a	n/a	SHELL	9	8	[0, 0, 0]	n/a	FR1	2	R1195E
909.16	1.616	928294	WORD	n/a	wordpools/wordpool_EN.txt	MOLE	10	8	[0, 0, 0]	n/a	FR1	2	R1195E
910.776	0.783	929910	WORD_OFF	n/a	n/a	MOLE	10	8	[0, 0, 0]	n/a	FR1	2	R1195E
911.559	1.618	930693	WORD	n/a	wordpools/wordpool_EN.txt	FLAME	11	8	[0, 0, 0]	n/a	FR1	2	R1195E
913.177	0.784	932311	WORD_OFF	n/a	n/a	FLAME	11	8	[0, 0, 0]	n/a	FR1	2	R1195E
913.961	1.616	933095	WORD	n/a	wordpools/wordpool_EN.txt	OWL	12	8	[0, 0, 0]	n/a	FR1	2	R1195E
915.577	0.0	934711	WORD_OFF	n/a	n/a	OWL	12	8	[0, 0, 0]	n/a	FR1	2	R1195E
915.577	0.0	934711	DISTRACT_START	n/a	n/a	n/a	-999	8	[0, 0, 0]	n/a	FR1	2	R1195E
915.577	0.016	934711	START	n/a	n/a	n/a	-999	8	[-999, -999, -999]	n/a	FR1	2	R1195E
915.593	3.851	934727	PROB	3.851	n/a	n/a	-999	8	[8, 8, 8]	24	FR1	2	R1195E
919.444	3.802	938578	PROB	3.802	n/a	n/a	-999	8	[6, 4, 2]	12	FR1	2	R1195E
923.246	5.233	942379	PROB	5.233	n/a	n/a	-999	8	[7, 7, 3]	17	FR1	2	R1195E
928.479	5.619	947612	PROB	5.619	n/a	n/a	-999	8	[4, 7, 3]	14	FR1	2	R1195E
934.098	4.614	953231	PROB	4.614	n/a	n/a	-999	8	[9, 2, 8]	19	FR1	2	R1195E
938.712	0.019	957845	STOP	n/a	n/a	n/a	-999	8	[-999, -999, -999]	n/a	FR1	2	R1195E
938.731	0.518	957864	DISTRACT_END	n/a	n/a	n/a	-999	8	[0, 0, 0]	n/a	FR1	2	R1195E
939.249	0.516	958382	RETRIEVAL_ORIENT	n/a	n/a	n/a	-999	8	[0, 0, 0]	n/a	FR1	2	R1195E
939.765	2.08	958898	REC_START	n/a	n/a	n/a	-999	8	[0, 0, 0]	n/a	FR1	2	R1195E
941.845	2.46	960978	REC_WORD	2.46	n/a	OWL	12	8	[0, 0, 0]	n/a	FR1	2	R1195E
944.305	2.892	963438	REC_WORD	2.892	n/a	SLIME	6	8	[0, 0, 0]	n/a	FR1	2	R1195E
947.197	3.267	966330	REC_WORD	3.267	n/a	HEN	4	8	[0, 0, 0]	n/a	FR1	2	R1195E
950.464	13.117	969596	REC_WORD_VV	13.117	n/a	<>	-999	8	[0, 0, 0]	n/a	FR1	2	R1195E
963.581	6.196	982713	REC_WORD_VV	6.196	n/a	<>	-999	8	[0, 0, 0]	n/a	FR1	2	R1195E
969.777	5.81	988909	REC_END	n/a	n/a	n/a	-999	8	[0, 0, 0]	n/a	FR1	2	R1195E
975.587	0.5	994718	TRIAL	n/a	n/a	n/a	-999	9	[0, 0, 0]	n/a	FR1	2	R1195E
976.087	10.428	995218	COUNTDOWN_START	n/a	n/a	n/a	-999	9	[0, 0, 0]	n/a	FR1	2	R1195E
986.515	0.007	1005646	COUNTDOWN_END	n/a	n/a	n/a	-999	9	[0, 0, 0]	n/a	FR1	2	R1195E
986.522	1.618	1005653	ORIENT	n/a	n/a	n/a	-999	9	[0, 0, 0]	n/a	FR1	2	R1195E
988.14	2.134	1007271	ORIENT_OFF	n/a	n/a	n/a	-999	9	[0, 0, 0]	n/a	FR1	2	R1195E
990.274	1.616	1009405	WORD	n/a	wordpools/wordpool_EN.txt	STICK	1	9	[0, 0, 0]	n/a	FR1	2	R1195E
991.89	0.867	1011021	WORD_OFF	n/a	n/a	STICK	1	9	[0, 0, 0]	n/a	FR1	2	R1195E
992.757	1.617	1011888	WORD	n/a	wordpools/wordpool_EN.txt	PALM	2	9	[0, 0, 0]	n/a	FR1	2	R1195E
994.374	0.983	1013505	WORD_OFF	n/a	n/a	PALM	2	9	[0, 0, 0]	n/a	FR1	2	R1195E
995.357	1.618	1014488	WORD	n/a	wordpools/wordpool_EN.txt	TOY	3	9	[0, 0, 0]	n/a	FR1	2	R1195E
996.975	0.899	1016106	WORD_OFF	n/a	n/a	TOY	3	9	[0, 0, 0]	n/a	FR1	2	R1195E
997.874	1.618	1017005	WORD	n/a	wordpools/wordpool_EN.txt	LEG	4	9	[0, 0, 0]	n/a	FR1	2	R1195E
999.492	0.784	1018623	WORD_OFF	n/a	n/a	LEG	4	9	[0, 0, 0]	n/a	FR1	2	R1195E
1000.276	1.616	1019407	WORD	n/a	wordpools/wordpool_EN.txt	GRASS	5	9	[0, 0, 0]	n/a	FR1	2	R1195E
1001.892	1.0	1021022	WORD_OFF	n/a	n/a	GRASS	5	9	[0, 0, 0]	n/a	FR1	2	R1195E
1002.892	1.617	1022022	WORD	n/a	wordpools/wordpool_EN.txt	DIME	6	9	[0, 0, 0]	n/a	FR1	2	R1195E
1004.509	1.0	1023639	WORD_OFF	n/a	n/a	DIME	6	9	[0, 0, 0]	n/a	FR1	2	R1195E
1005.509	1.618	1024639	WORD	n/a	wordpools/wordpool_EN.txt	BENCH	7	9	[0, 0, 0]	n/a	FR1	2	R1195E
1007.127	0.8	1026257	WORD_OFF	n/a	n/a	BENCH	7	9	[0, 0, 0]	n/a	FR1	2	R1195E
1007.927	1.616	1027057	WORD	n/a	wordpools/wordpool_EN.txt	LIP	8	9	[0, 0, 0]	n/a	FR1	2	R1195E
1009.543	0.785	1028673	WORD_OFF	n/a	n/a	LIP	8	9	[0, 0, 0]	n/a	FR1	2	R1195E
1010.328	1.617	1029458	WORD	n/a	wordpools/wordpool_EN.txt	SUN	9	9	[0, 0, 0]	n/a	FR1	2	R1195E
1011.945	0.882	1031075	WORD_OFF	n/a	n/a	SUN	9	9	[0, 0, 0]	n/a	FR1	2	R1195E
1012.827	1.617	1031957	WORD	n/a	wordpools/wordpool_EN.txt	FACE	10	9	[0, 0, 0]	n/a	FR1	2	R1195E
1014.444	0.984	1033574	WORD_OFF	n/a	n/a	FACE	10	9	[0, 0, 0]	n/a	FR1	2	R1195E
1015.428	1.618	1034558	WORD	n/a	wordpools/wordpool_EN.txt	BALL	11	9	[0, 0, 0]	n/a	FR1	2	R1195E
1017.046	0.799	1036176	WORD_OFF	n/a	n/a	BALL	11	9	[0, 0, 0]	n/a	FR1	2	R1195E
1017.845	1.617	1036975	WORD	n/a	wordpools/wordpool_EN.txt	SHOE	12	9	[0, 0, 0]	n/a	FR1	2	R1195E
1019.462	0.0	1038592	WORD_OFF	n/a	n/a	SHOE	12	9	[0, 0, 0]	n/a	FR1	2	R1195E
1019.462	0.0	1038592	DISTRACT_START	n/a	n/a	n/a	-999	9	[0, 0, 0]	n/a	FR1	2	R1195E
1019.462	0.016	1038592	START	n/a	n/a	n/a	-999	9	[-999, -999, -999]	n/a	FR1	2	R1195E
1019.478	6.201	1038608	PROB	6.201	n/a	n/a	-999	9	[9, 5, 6]	20	FR1	2	R1195E
1025.679	4.302	1044809	PROB	4.302	n/a	n/a	-999	9	[8, 1, 8]	17	FR1	2	R1195E
1029.981	5.151	1049110	PROB	5.151	n/a	n/a	-999	9	[3, 4, 1]	8	FR1	2	R1195E
1035.132	6.173	1054261	PROB	6.173	n/a	n/a	-999	9	[8, 1, 5]	14	FR1	2	R1195E
1041.305	0.012	1060434	STOP	n/a	n/a	n/a	-999	9	[-999, -999, -999]	n/a	FR1	2	R1195E
1041.317	0.532	1060446	DISTRACT_END	n/a	n/a	n/a	-999	9	[0, 0, 0]	n/a	FR1	2	R1195E
1041.849	0.517	1060978	RETRIEVAL_ORIENT	n/a	n/a	n/a	-999	9	[0, 0, 0]	n/a	FR1	2	R1195E
1042.366	2.228	1061495	REC_START	n/a	n/a	n/a	-999	9	[0, 0, 0]	n/a	FR1	2	R1195E
1044.594	1.506	1063723	REC_WORD_VV	1.506	n/a	<>	-999	9	[0, 0, 0]	n/a	FR1	2	R1195E
1046.1	1.975	1065229	REC_WORD	1.975	n/a	BENCH	7	9	[0, 0, 0]	n/a	FR1	2	R1195E
1048.075	3.031	1067204	REC_WORD	3.031	n/a	TOY	3	9	[0, 0, 0]	n/a	FR1	2	R1195E
1051.106	2.243	1070235	REC_WORD	2.243	n/a	STICK	1	9	[0, 0, 0]	n/a	FR1	2	R1195E
1053.349	10.25	1072478	REC_WORD	10.25	n/a	PALM	2	9	[0, 0, 0]	n/a	FR1	2	R1195E
1063.599	8.779	1082727	REC_WORD	8.779	n/a	BALL	11	9	[0, 0, 0]	n/a	FR1	2	R1195E
1072.378	5.845	1091506	REC_END	n/a	n/a	n/a	-999	9	[0, 0, 0]	n/a	FR1	2	R1195E
1078.223	0.5	1097351	TRIAL	n/a	n/a	n/a	-999	10	[0, 0, 0]	n/a	FR1	2	R1195E
1078.723	10.428	1097851	COUNTDOWN_START	n/a	n/a	n/a	-999	10	[0, 0, 0]	n/a	FR1	2	R1195E
1089.151	0.007	1108278	COUNTDOWN_END	n/a	n/a	n/a	-999	10	[0, 0, 0]	n/a	FR1	2	R1195E
1089.158	1.616	1108285	ORIENT	n/a	n/a	n/a	-999	10	[0, 0, 0]	n/a	FR1	2	R1195E
1090.774	1.967	1109901	ORIENT_OFF	n/a	n/a	n/a	-999	10	[0, 0, 0]	n/a	FR1	2	R1195E
1092.741	1.617	1111868	WORD	n/a	wordpools/wordpool_EN.txt	SKY	1	10	[0, 0, 0]	n/a	FR1	2	R1195E
1094.358	0.918	1113485	WORD_OFF	n/a	n/a	SKY	1	10	[0, 0, 0]	n/a	FR1	2	R1195E
1095.276	1.616	1114403	WORD	n/a	wordpools/wordpool_EN.txt	WAND	2	10	[0, 0, 0]	n/a	FR1	2	R1195E
1096.892	0.883	1116019	WORD_OFF	n/a	n/a	WAND	2	10	[0, 0, 0]	n/a	FR1	2	R1195E
1097.775	1.617	1116902	WORD	n/a	wordpools/wordpool_EN.txt	ROPE	3	10	[0, 0, 0]	n/a	FR1	2	R1195E
1099.392	0.818	1118519	WORD_OFF	n/a	n/a	ROPE	3	10	[0, 0, 0]	n/a	FR1	2	R1195E
1100.21	1.616	1119337	WORD	n/a	wordpools/wordpool_EN.txt	SNOW	4	10	[0, 0, 0]	n/a	FR1	2	R1195E
1101.826	0.884	1120953	WORD_OFF	n/a	n/a	SNOW	4	10	[0, 0, 0]	n/a	FR1	2	R1195E
1102.71	1.618	1121837	WORD	n/a	wordpools/wordpool_EN.txt	OAK	5	10	[0, 0, 0]	n/a	FR1	2	R1195E
1104.328	0.966	1123455	WORD_OFF	n/a	n/a	OAK	5	10	[0, 0, 0]	n/a	FR1	2	R1195E
1105.294	1.617	1124421	WORD	n/a	wordpools/wordpool_EN.txt	FOOT	6	10	[0, 0, 0]	n/a	FR1	2	R1195E
1106.911	0.866	1126037	WORD_OFF	n/a	n/a	FOOT	6	10	[0, 0, 0]	n/a	FR1	2	R1195E
1107.777	1.617	1126903	WORD	n/a	wordpools/wordpool_EN.txt	HEART	7	10	[0, 0, 0]	n/a	FR1	2	R1195E
1109.394	0.818	1128520	WORD_OFF	n/a	n/a	HEART	7	10	[0, 0, 0]	n/a	FR1	2	R1195E
1110.212	1.616	1129338	WORD	n/a	wordpools/wordpool_EN.txt	DOCK	8	10	[0, 0, 0]	n/a	FR1	2	R1195E
1111.828	0.833	1130954	WORD_OFF	n/a	n/a	DOCK	8	10	[0, 0, 0]	n/a	FR1	2	R1195E
1112.661	1.618	1131787	WORD	n/a	wordpools/wordpool_EN.txt	YARD	9	10	[0, 0, 0]	n/a	FR1	2	R1195E
1114.279	0.784	1133405	WORD_OFF	n/a	n/a	YARD	9	10	[0, 0, 0]	n/a	FR1	2	R1195E
1115.063	1.616	1134189	WORD	n/a	wordpools/wordpool_EN.txt	FLAG	10	10	[0, 0, 0]	n/a	FR1	2	R1195E
1116.679	0.8	1135805	WORD_OFF	n/a	n/a	FLAG	10	10	[0, 0, 0]	n/a	FR1	2	R1195E
1117.479	1.618	1136605	WORD	n/a	wordpools/wordpool_EN.txt	SIGN	11	10	[0, 0, 0]	n/a	FR1	2	R1195E
1119.097	0.967	1138223	WORD_OFF	n/a	n/a	SIGN	11	10	[0, 0, 0]	n/a	FR1	2	R1195E
1120.064	1.616	1139190	WORD	n/a	wordpools/wordpool_EN.txt	SUIT	12	10	[0, 0, 0]	n/a	FR1	2	R1195E
1121.68	0.0	1140806	WORD_OFF	n/a	n/a	SUIT	12	10	[0, 0, 0]	n/a	FR1	2	R1195E
1121.68	0.0	1140806	DISTRACT_START	n/a	n/a	n/a	-999	10	[0, 0, 0]	n/a	FR1	2	R1195E
1121.68	0.016	1140806	START	n/a	n/a	n/a	-999	10	[-999, -999, -999]	n/a	FR1	2	R1195E
1121.696	4.435	1140822	PROB	4.435	n/a	n/a	-999	10	[8, 2, 6]	16	FR1	2	R1195E
1126.131	6.584	1145257	PROB	6.584	n/a	n/a	-999	10	[7, 2, 8]	17	FR1	2	R1195E
1132.715	3.901	1151840	PROB	3.901	n/a	n/a	-999	10	[9, 4, 4]	17	FR1	2	R1195E
1136.616	5.318	1155741	PROB	5.318	n/a	n/a	-999	10	[6, 1, 9]	16	FR1	2	R1195E
1141.934	0.017	1161059	STOP	n/a	n/a	n/a	-999	10	[-999, -999, -999]	n/a	FR1	2	R1195E
1141.951	0.632	1161076	DISTRACT_END	n/a	n/a	n/a	-999	10	[0, 0, 0]	n/a	FR1	2	R1195E
1142.583	0.519	1161708	RETRIEVAL_ORIENT	n/a	n/a	n/a	-999	10	[0, 0, 0]	n/a	FR1	2	R1195E
1143.102	2.784	1162227	REC_START	n/a	n/a	n/a	-999	10	[0, 0, 0]	n/a	FR1	2	R1195E
1145.886	1.561	1165011	REC_WORD	1.561	n/a	FLAG	10	10	[0, 0, 0]	n/a	FR1	2	R1195E
1147.447	5.364	1166572	REC_WORD	5.364	n/a	OAK	5	10	[0, 0, 0]	n/a	FR1	2	R1195E
1152.811	2.273	1171936	REC_WORD	2.273	n/a	SIGN	11	10	[0, 0, 0]	n/a	FR1	2	R1195E
1155.084	6.531	1174209	REC_WORD	6.531	n/a	YARD	9	10	[0, 0, 0]	n/a	FR1	2	R1195E
1161.615	3.341	1180739	REC_WORD	3.341	n/a	DOCK	8	10	[0, 0, 0]	n/a	FR1	2	R1195E
1164.956	8.157	1184080	REC_WORD	8.157	n/a	SUIT	12	10	[0, 0, 0]	n/a	FR1	2	R1195E
1173.113	5.894	1192237	REC_END	n/a	n/a	n/a	-999	10	[0, 0, 0]	n/a	FR1	2	R1195E
1179.007	0.5	1198131	TRIAL	n/a	n/a	n/a	-999	11	[0, 0, 0]	n/a	FR1	2	R1195E
1179.507	10.428	1198631	COUNTDOWN_START	n/a	n/a	n/a	-999	11	[0, 0, 0]	n/a	FR1	2	R1195E
1189.935	0.008	1209058	COUNTDOWN_END	n/a	n/a	n/a	-999	11	[0, 0, 0]	n/a	FR1	2	R1195E
1189.943	1.616	1209066	ORIENT	n/a	n/a	n/a	-999	11	[0, 0, 0]	n/a	FR1	2	R1195E
1191.559	2.067	1210682	ORIENT_OFF	n/a	n/a	n/a	-999	11	[0, 0, 0]	n/a	FR1	2	R1195E
1193.626	1.618	1212749	WORD	n/a	wordpools/wordpool_EN.txt	HAT	1	11	[0, 0, 0]	n/a	FR1	2	R1195E
1195.244	0.983	1214367	WORD_OFF	n/a	n/a	HAT	1	11	[0, 0, 0]	n/a	FR1	2	R1195E
1196.227	1.616	1215350	WORD	n/a	wordpools/wordpool_EN.txt	STOVE	2	11	[0, 0, 0]	n/a	FR1	2	R1195E
1197.843	0.767	1216966	WORD_OFF	n/a	n/a	STOVE	2	11	[0, 0, 0]	n/a	FR1	2	R1195E
1198.61	1.618	1217733	WORD	n/a	wordpools/wordpool_EN.txt	ROSE	3	11	[0, 0, 0]	n/a	FR1	2	R1195E
1200.228	0.967	1219351	WORD_OFF	n/a	n/a	ROSE	3	11	[0, 0, 0]	n/a	FR1	2	R1195E
1201.195	1.616	1220318	WORD	n/a	wordpools/wordpool_EN.txt	SOUP	4	11	[0, 0, 0]	n/a	FR1	2	R1195E
1202.811	1.0	1221934	WORD_OFF	n/a	n/a	SOUP	4	11	[0, 0, 0]	n/a	FR1	2	R1195E
1203.811	1.617	1222934	WORD	n/a	wordpools/wordpool_EN.txt	DESK	5	11	[0, 0, 0]	n/a	FR1	2	R1195E
1205.428	0.784	1224551	WORD_OFF	n/a	n/a	DESK	5	11	[0, 0, 0]	n/a	FR1	2	R1195E
1206.212	1.616	1225335	WORD	n/a	wordpools/wordpool_EN.txt	BOOT	6	11	[0, 0, 0]	n/a	FR1	2	R1195E
1207.828	0.95	1226951	WORD_OFF	n/a	n/a	BOOT	6	11	[0, 0, 0]	n/a	FR1	2	R1195E
1208.778	1.617	1227901	WORD	n/a	wordpools/wordpool_EN.txt	LAMP	7	11	[0, 0, 0]	n/a	FR1	2	R1195E
1210.395	0.818	1229518	WORD_OFF	n/a	n/a	LAMP	7	11	[0, 0, 0]	n/a	FR1	2	R1195E
1211.213	1.616	1230335	WORD	n/a	wordpools/wordpool_EN.txt	DOLL	8	11	[0, 0, 0]	n/a	FR1	2	R1195E
1212.829	1.0	1231951	WORD_OFF	n/a	n/a	DOLL	8	11	[0, 0, 0]	n/a	FR1	2	R1195E
1213.829	1.617	1232951	WORD	n/a	wordpools/wordpool_EN.txt	CLOTH	9	11	[0, 0, 0]	n/a	FR1	2	R1195E
1215.446	0.785	1234568	WORD_OFF	n/a	n/a	CLOTH	9	11	[0, 0, 0]	n/a	FR1	2	R1195E
1216.231	1.616	1235353	WORD	n/a	wordpools/wordpool_EN.txt	PIN	10	11	[0, 0, 0]	n/a	FR1	2	R1195E
1217.847	0.916	1236969	WORD_OFF	n/a	n/a	PIN	10	11	[0, 0, 0]	n/a	FR1	2	R1195E
1218.763	1.617	1237885	WORD	n/a	wordpools/wordpool_EN.txt	APE	11	11	[0, 0, 0]	n/a	FR1	2	R1195E
1220.38	0.851	1239502	WORD_OFF	n/a	n/a	APE	11	11	[0, 0, 0]	n/a	FR1	2	R1195E
1221.231	1.616	1240353	WORD	n/a	wordpools/wordpool_EN.txt	GLASS	12	11	[0, 0, 0]	n/a	FR1	2	R1195E
1222.847	0.0	1241969	WORD_OFF	n/a	n/a	GLASS	12	11	[0, 0, 0]	n/a	FR1	2	R1195E
1222.847	0.001	1241969	DISTRACT_START	n/a	n/a	n/a	-999	11	[0, 0, 0]	n/a	FR1	2	R1195E
1222.848	0.016	1241970	START	n/a	n/a	n/a	-999	11	[-999, -999, -999]	n/a	FR1	2	R1195E
1222.864	4.352	1241986	PROB	4.352	n/a	n/a	-999	11	[5, 8, 2]	15	FR1	2	R1195E
1227.216	4.433	1246338	PROB	4.433	n/a	n/a	-999	11	[2, 6, 3]	11	FR1	2	R1195E
1231.649	6.184	1250771	PROB	6.184	n/a	n/a	-999	11	[5, 4, 9]	18	FR1	2	R1195E
1237.833	4.269	1256954	PROB	4.269	n/a	n/a	-999	11	[3, 8, 3]	14	FR1	2	R1195E
1242.102	5.125	1261223	PROB	5.125	n/a	n/a	-999	11	[2, 9, 6]	17	FR1	2	R1195E
1247.227	0.009	1266348	STOP	n/a	n/a	n/a	-999	11	[-999, -999, -999]	n/a	FR1	2	R1195E
1247.236	0.7	1266357	DISTRACT_END	n/a	n/a	n/a	-999	11	[0, 0, 0]	n/a	FR1	2	R1195E
1247.936	0.517	1267057	RETRIEVAL_ORIENT	n/a	n/a	n/a	-999	11	[0, 0, 0]	n/a	FR1	2	R1195E
1248.453	2.13	1267574	REC_START	n/a	n/a	n/a	-999	11	[0, 0, 0]	n/a	FR1	2	R1195E
1250.583	0.49	1269704	REC_WORD_VV	0.49	n/a	<>	-999	11	[0, 0, 0]	n/a	FR1	2	R1195E
1251.073	5.887	1270194	REC_WORD	5.887	n/a	STOVE	2	11	[0, 0, 0]	n/a	FR1	2	R1195E
1256.96	3.199	1276081	REC_WORD	3.199	n/a	APE	11	11	[0, 0, 0]	n/a	FR1	2	R1195E
1260.159	5.506	1279280	REC_WORD	5.506	n/a	LAMP	7	11	[0, 0, 0]	n/a	FR1	2	R1195E
1265.665	12.799	1284785	REC_WORD	12.799	n/a	OAK	-999	11	[0, 0, 0]	n/a	FR1	2	R1195E
1278.464	4.478	1297584	REC_END	n/a	n/a	n/a	-999	11	[0, 0, 0]	n/a	FR1	2	R1195E
1282.942	0.5	1302062	TRIAL	n/a	n/a	n/a	-999	12	[0, 0, 0]	n/a	FR1	2	R1195E
1283.442	10.428	1302562	COUNTDOWN_START	n/a	n/a	n/a	-999	12	[0, 0, 0]	n/a	FR1	2	R1195E
1293.87	0.007	1312989	COUNTDOWN_END	n/a	n/a	n/a	-999	12	[0, 0, 0]	n/a	FR1	2	R1195E
1293.877	1.616	1312996	ORIENT	n/a	n/a	n/a	-999	12	[0, 0, 0]	n/a	FR1	2	R1195E
1295.493	2.184	1314612	ORIENT_OFF	n/a	n/a	n/a	-999	12	[0, 0, 0]	n/a	FR1	2	R1195E
1297.677	1.618	1316796	WORD	n/a	wordpools/wordpool_EN.txt	DOOR	1	12	[0, 0, 0]	n/a	FR1	2	R1195E
1299.295	0.984	1318414	WORD_OFF	n/a	n/a	DOOR	1	12	[0, 0, 0]	n/a	FR1	2	R1195E
1300.279	1.616	1319398	WORD	n/a	wordpools/wordpool_EN.txt	SWAMP	2	12	[0, 0, 0]	n/a	FR1	2	R1195E
1301.895	0.9	1321014	WORD_OFF	n/a	n/a	SWAMP	2	12	[0, 0, 0]	n/a	FR1	2	R1195E
1302.795	1.617	1321914	WORD	n/a	wordpools/wordpool_EN.txt	MAT	3	12	[0, 0, 0]	n/a	FR1	2	R1195E
1304.412	0.784	1323531	WORD_OFF	n/a	n/a	MAT	3	12	[0, 0, 0]	n/a	FR1	2	R1195E
1305.196	1.616	1324315	WORD	n/a	wordpools/wordpool_EN.txt	SINK	4	12	[0, 0, 0]	n/a	FR1	2	R1195E
1306.812	0.95	1325931	WORD_OFF	n/a	n/a	SINK	4	12	[0, 0, 0]	n/a	FR1	2	R1195E
1307.762	1.617	1326881	WORD	n/a	wordpools/wordpool_EN.txt	FLUTE	5	12	[0, 0, 0]	n/a	FR1	2	R1195E
1309.379	0.768	1328498	WORD_OFF	n/a	n/a	FLUTE	5	12	[0, 0, 0]	n/a	FR1	2	R1195E
1310.147	1.616	1329266	WORD	n/a	wordpools/wordpool_EN.txt	SPOON	6	12	[0, 0, 0]	n/a	FR1	2	R1195E
1311.763	0.783	1330882	WORD_OFF	n/a	n/a	SPOON	6	12	[0, 0, 0]	n/a	FR1	2	R1195E
1312.546	1.602	1331665	WORD	n/a	wordpools/wordpool_EN.txt	BED	7	12	[0, 0, 0]	n/a	FR1	2	R1195E
1314.148	0.933	1333267	WORD_OFF	n/a	n/a	BED	7	12	[0, 0, 0]	n/a	FR1	2	R1195E
1315.081	1.616	1334200	WORD	n/a	wordpools/wordpool_EN.txt	BATH	8	12	[0, 0, 0]	n/a	FR1	2	R1195E
1316.697	0.984	1335815	WORD_OFF	n/a	n/a	BATH	8	12	[0, 0, 0]	n/a	FR1	2	R1195E
1317.681	1.618	1336799	WORD	n/a	wordpools/wordpool_EN.txt	TENT	9	12	[0, 0, 0]	n/a	FR1	2	R1195E
1319.299	0.9	1338417	WORD_OFF	n/a	n/a	TENT	9	12	[0, 0, 0]	n/a	FR1	2	R1195E
1320.199	1.616	1339317	WORD	n/a	wordpools/wordpool_EN.txt	FORK	10	12	[0, 0, 0]	n/a	FR1	2	R1195E
1321.815	0.883	1340933	WORD_OFF	n/a	n/a	FORK	10	12	[0, 0, 0]	n/a	FR1	2	R1195E
1322.698	1.618	1341816	WORD	n/a	wordpools/wordpool_EN.txt	MUD	11	12	[0, 0, 0]	n/a	FR1	2	R1195E
1324.316	0.784	1343434	WORD_OFF	n/a	n/a	MUD	11	12	[0, 0, 0]	n/a	FR1	2	R1195E
1325.1	1.616	1344218	WORD	n/a	wordpools/wordpool_EN.txt	TOAST	12	12	[0, 0, 0]	n/a	FR1	2	R1195E
1326.716	0.0	1345834	WORD_OFF	n/a	n/a	TOAST	12	12	[0, 0, 0]	n/a	FR1	2	R1195E
1326.716	0.0	1345834	DISTRACT_START	n/a	n/a	n/a	-999	12	[0, 0, 0]	n/a	FR1	2	R1195E
1326.716	0.016	1345834	START	n/a	n/a	n/a	-999	12	[-999, -999, -999]	n/a	FR1	2	R1195E
1326.732	6.085	1345850	PROB	6.085	n/a	n/a	-999	12	[5, 6, 8]	19	FR1	2	R1195E
1332.817	4.617	1351935	PROB	4.617	n/a	n/a	-999	12	[2, 7, 6]	15	FR1	2	R1195E
1337.434	7.285	1356552	PROB	7.285	n/a	n/a	-999	12	[5, 8, 1]	14	FR1	2	R1195E
1344.719	5.013	1363836	PROB	5.013	n/a	n/a	-999	12	[4, 3, 9]	16	FR1	2	R1195E
1349.732	0.021	1368849	STOP	n/a	n/a	n/a	-999	12	[-999, -999, -999]	n/a	FR1	2	R1195E
1349.753	0.633	1368870	DISTRACT_END	n/a	n/a	n/a	-999	12	[0, 0, 0]	n/a	FR1	2	R1195E
1350.386	0.518	1369503	RETRIEVAL_ORIENT	n/a	n/a	n/a	-999	12	[0, 0, 0]	n/a	FR1	2	R1195E
1350.904	2.297	1370021	REC_START	n/a	n/a	n/a	-999	12	[0, 0, 0]	n/a	FR1	2	R1195E
1353.201	1.054	1372318	REC_WORD_VV	1.054	n/a	<>	-999	12	[0, 0, 0]	n/a	FR1	2	R1195E
1354.255	2.022	1373372	REC_WORD	2.022	n/a	MAT	3	12	[0, 0, 0]	n/a	FR1	2	R1195E
1356.277	1.843	1375394	REC_WORD	1.843	n/a	SINK	4	12	[0, 0, 0]	n/a	FR1	2	R1195E
1358.12	2.01	1377237	REC_WORD	2.01	n/a	MUD	11	12	[0, 0, 0]	n/a	FR1	2	R1195E
1360.13	12.42	1379247	REC_WORD	12.42	n/a	TOAST	12	12	[0, 0, 0]	n/a	FR1	2	R1195E
1372.55	7.064	1391666	REC_WORD_VV	7.064	n/a	<>	-999	12	[0, 0, 0]	n/a	FR1	2	R1195E
1379.614	1.302	1398730	REC_WORD	1.302	n/a	FLOOR	-999	12	[0, 0, 0]	n/a	FR1	2	R1195E
1380.916	5.86	1400032	REC_END	n/a	n/a	n/a	-999	12	[0, 0, 0]	n/a	FR1	2	R1195E
1386.776	0.5	1405892	TRIAL	n/a	n/a	n/a	-999	13	[0, 0, 0]	n/a	FR1	2	R1195E
1387.276	10.428	1406392	COUNTDOWN_START	n/a	n/a	n/a	-999	13	[0, 0, 0]	n/a	FR1	2	R1195E
1397.704	0.008	1416819	COUNTDOWN_END	n/a	n/a	n/a	-999	13	[0, 0, 0]	n/a	FR1	2	R1195E
1397.712	1.617	1416827	ORIENT	n/a	n/a	n/a	-999	13	[0, 0, 0]	n/a	FR1	2	R1195E
1399.329	2.233	1418444	ORIENT_OFF	n/a	n/a	n/a	-999	13	[0, 0, 0]	n/a	FR1	2	R1195E
1401.562	1.618	1420677	WORD	n/a	wordpools/wordpool_EN.txt	MAZE	1	13	[0, 0, 0]	n/a	FR1	2	R1195E
1403.18	0.85	1422295	WORD_OFF	n/a	n/a	MAZE	1	13	[0, 0, 0]	n/a	FR1	2	R1195E
1404.03	1.616	1423145	WORD	n/a	wordpools/wordpool_EN.txt	BRICK	2	13	[0, 0, 0]	n/a	FR1	2	R1195E
1405.646	0.984	1424761	WORD_OFF	n/a	n/a	BRICK	2	13	[0, 0, 0]	n/a	FR1	2	R1195E
1406.63	1.618	1425745	WORD	n/a	wordpools/wordpool_EN.txt	JAIL	3	13	[0, 0, 0]	n/a	FR1	2	R1195E
1408.248	0.883	1427363	WORD_OFF	n/a	n/a	JAIL	3	13	[0, 0, 0]	n/a	FR1	2	R1195E
1409.131	1.616	1428246	WORD	n/a	wordpools/wordpool_EN.txt	ICE	4	13	[0, 0, 0]	n/a	FR1	2	R1195E
1410.747	0.983	1429862	WORD_OFF	n/a	n/a	ICE	4	13	[0, 0, 0]	n/a	FR1	2	R1195E
1411.73	1.618	1430845	WORD	n/a	wordpools/wordpool_EN.txt	BRIDGE	5	13	[0, 0, 0]	n/a	FR1	2	R1195E
1413.348	0.834	1432463	WORD_OFF	n/a	n/a	BRIDGE	5	13	[0, 0, 0]	n/a	FR1	2	R1195E
1414.182	1.616	1433297	WORD	n/a	wordpools/wordpool_EN.txt	POLE	6	13	[0, 0, 0]	n/a	FR1	2	R1195E
1415.798	0.917	1434913	WORD_OFF	n/a	n/a	POLE	6	13	[0, 0, 0]	n/a	FR1	2	R1195E
1416.715	1.617	1435830	WORD	n/a	wordpools/wordpool_EN.txt	BLUSH	7	13	[0, 0, 0]	n/a	FR1	2	R1195E
1418.332	0.868	1437447	WORD_OFF	n/a	n/a	BLUSH	7	13	[0, 0, 0]	n/a	FR1	2	R1195E
1419.2	1.616	1438315	WORD	n/a	wordpools/wordpool_EN.txt	HILL	8	13	[0, 0, 0]	n/a	FR1	2	R1195E
1420.816	0.883	1439930	WORD_OFF	n/a	n/a	HILL	8	13	[0, 0, 0]	n/a	FR1	2	R1195E
1421.699	1.601	1440813	WORD	n/a	wordpools/wordpool_EN.txt	BANK	9	13	[0, 0, 0]	n/a	FR1	2	R1195E
1423.3	0.8	1442414	WORD_OFF	n/a	n/a	BANK	9	13	[0, 0, 0]	n/a	FR1	2	R1195E
1424.1	1.616	1443214	WORD	n/a	wordpools/wordpool_EN.txt	LAKE	10	13	[0, 0, 0]	n/a	FR1	2	R1195E
1425.716	0.934	1444830	WORD_OFF	n/a	n/a	LAKE	10	13	[0, 0, 0]	n/a	FR1	2	R1195E
1426.65	1.618	1445764	WORD	n/a	wordpools/wordpool_EN.txt	CROWN	11	13	[0, 0, 0]	n/a	FR1	2	R1195E
1428.268	0.767	1447382	WORD_OFF	n/a	n/a	CROWN	11	13	[0, 0, 0]	n/a	FR1	2	R1195E
1429.035	1.616	1448149	WORD	n/a	wordpools/wordpool_EN.txt	LOCK	12	13	[0, 0, 0]	n/a	FR1	2	R1195E
1430.651	0.0	1449765	WORD_OFF	n/a	n/a	LOCK	12	13	[0, 0, 0]	n/a	FR1	2	R1195E
1430.651	0.0	1449765	DISTRACT_START	n/a	n/a	n/a	-999	13	[0, 0, 0]	n/a	FR1	2	R1195E
1430.651	0.016	1449765	START	n/a	n/a	n/a	-999	13	[-999, -999, -999]	n/a	FR1	2	R1195E
1430.667	5.602	1449781	PROB	5.602	n/a	n/a	-999	13	[3, 8, 9]	20	FR1	2	R1195E
1436.269	5.701	1455383	PROB	5.701	n/a	n/a	-999	13	[4, 3, 6]	13	FR1	2	R1195E
1441.97	4.65	1461084	PROB	4.65	n/a	n/a	-999	13	[2, 7, 1]	10	FR1	2	R1195E
1446.62	6.634	1465733	PROB	6.634	n/a	n/a	-999	13	[3, 7, 5]	15	FR1	2	R1195E
1453.254	0.018	1472367	STOP	n/a	n/a	n/a	-999	13	[-999, -999, -999]	n/a	FR1	2	R1195E
1453.272	0.583	1472385	DISTRACT_END	n/a	n/a	n/a	-999	13	[0, 0, 0]	n/a	FR1	2	R1195E
1453.855	0.517	1472968	RETRIEVAL_ORIENT	n/a	n/a	n/a	-999	13	[0, 0, 0]	n/a	FR1	2	R1195E
1454.372	1.331	1473485	REC_START	n/a	n/a	n/a	-999	13	[0, 0, 0]	n/a	FR1	2	R1195E
1455.703	1.251	1474816	REC_WORD_VV	1.251	n/a	<>	-999	13	[0, 0, 0]	n/a	FR1	2	R1195E
1456.954	3.271	1476067	REC_WORD	3.271	n/a	LAKE	10	13	[0, 0, 0]	n/a	FR1	2	R1195E
1460.225	2.772	1479338	REC_WORD	2.772	n/a	BANK	9	13	[0, 0, 0]	n/a	FR1	2	R1195E
1462.997	2.651	1482110	REC_WORD	2.651	n/a	GATE	-999	13	[0, 0, 0]	n/a	FR1	2	R1195E
1465.648	3.14	1484761	REC_WORD	3.14	n/a	JAIL	3	13	[0, 0, 0]	n/a	FR1	2	R1195E
1468.788	15.595	1487901	REC_WORD	15.595	n/a	MAZE	1	13	[0, 0, 0]	n/a	FR1	2	R1195E
1484.383	6.763	1503495	REC_END	n/a	n/a	n/a	-999	13	[0, 0, 0]	n/a	FR1	2	R1195E
1491.146	0.5	1510258	TRIAL	n/a	n/a	n/a	-999	14	[0, 0, 0]	n/a	FR1	2	R1195E
1491.646	10.428	1510758	COUNTDOWN_START	n/a	n/a	n/a	-999	14	[0, 0, 0]	n/a	FR1	2	R1195E
1502.074	0.007	1521185	COUNTDOWN_END	n/a	n/a	n/a	-999	14	[0, 0, 0]	n/a	FR1	2	R1195E
1502.081	1.616	1521192	ORIENT	n/a	n/a	n/a	-999	14	[0, 0, 0]	n/a	FR1	2	R1195E
1503.697	2.084	1522808	ORIENT_OFF	n/a	n/a	n/a	-999	14	[0, 0, 0]	n/a	FR1	2	R1195E
1505.781	1.616	1524892	WORD	n/a	wordpools/wordpool_EN.txt	BRUSH	1	14	[0, 0, 0]	n/a	FR1	2	R1195E
1507.397	0.818	1526508	WORD_OFF	n/a	n/a	BRUSH	1	14	[0, 0, 0]	n/a	FR1	2	R1195E
1508.215	1.616	1527326	WORD	n/a	wordpools/wordpool_EN.txt	COUCH	2	14	[0, 0, 0]	n/a	FR1	2	R1195E
1509.831	0.85	1528942	WORD_OFF	n/a	n/a	COUCH	2	14	[0, 0, 0]	n/a	FR1	2	R1195E
1510.681	1.602	1529792	WORD	n/a	wordpools/wordpool_EN.txt	PIT	3	14	[0, 0, 0]	n/a	FR1	2	R1195E
1512.283	0.983	1531394	WORD_OFF	n/a	n/a	PIT	3	14	[0, 0, 0]	n/a	FR1	2	R1195E
1513.266	1.616	1532377	WORD	n/a	wordpools/wordpool_EN.txt	BROOM	4	14	[0, 0, 0]	n/a	FR1	2	R1195E
1514.882	0.967	1533993	WORD_OFF	n/a	n/a	BROOM	4	14	[0, 0, 0]	n/a	FR1	2	R1195E
1515.849	1.617	1534960	WORD	n/a	wordpools/wordpool_EN.txt	SLEEVE	5	14	[0, 0, 0]	n/a	FR1	2	R1195E
1517.466	1.0	1536577	WORD_OFF	n/a	n/a	SLEEVE	5	14	[0, 0, 0]	n/a	FR1	2	R1195E
1518.466	1.618	1537577	WORD	n/a	wordpools/wordpool_EN.txt	HOSE	6	14	[0, 0, 0]	n/a	FR1	2	R1195E
1520.084	1.017	1539195	WORD_OFF	n/a	n/a	HOSE	6	14	[0, 0, 0]	n/a	FR1	2	R1195E
1521.101	1.616	1540212	WORD	n/a	wordpools/wordpool_EN.txt	FAN	7	14	[0, 0, 0]	n/a	FR1	2	R1195E
1522.717	0.783	1541828	WORD_OFF	n/a	n/a	FAN	7	14	[0, 0, 0]	n/a	FR1	2	R1195E
1523.5	1.601	1542611	WORD	n/a	wordpools/wordpool_EN.txt	PIG	8	14	[0, 0, 0]	n/a	FR1	2	R1195E
1525.101	0.867	1544211	WORD_OFF	n/a	n/a	PIG	8	14	[0, 0, 0]	n/a	FR1	2	R1195E
1525.968	1.616	1545078	WORD	n/a	wordpools/wordpool_EN.txt	BOX	9	14	[0, 0, 0]	n/a	FR1	2	R1195E
1527.584	0.817	1546694	WORD_OFF	n/a	n/a	BOX	9	14	[0, 0, 0]	n/a	FR1	2	R1195E
1528.401	1.618	1547511	WORD	n/a	wordpools/wordpool_EN.txt	MUG	10	14	[0, 0, 0]	n/a	FR1	2	R1195E
1530.019	0.934	1549129	WORD_OFF	n/a	n/a	MUG	10	14	[0, 0, 0]	n/a	FR1	2	R1195E
1530.953	1.616	1550063	WORD	n/a	wordpools/wordpool_EN.txt	FUDGE	11	14	[0, 0, 0]	n/a	FR1	2	R1195E
1532.569	0.816	1551679	WORD_OFF	n/a	n/a	FUDGE	11	14	[0, 0, 0]	n/a	FR1	2	R1195E
1533.385	1.618	1552495	WORD	n/a	wordpools/wordpool_EN.txt	RAT	12	14	[0, 0, 0]	n/a	FR1	2	R1195E
1535.003	0.0	1554113	WORD_OFF	n/a	n/a	RAT	12	14	[0, 0, 0]	n/a	FR1	2	R1195E
1535.003	0.001	1554113	DISTRACT_START	n/a	n/a	n/a	-999	14	[0, 0, 0]	n/a	FR1	2	R1195E
1535.004	0.016	1554114	START	n/a	n/a	n/a	-999	14	[-999, -999, -999]	n/a	FR1	2	R1195E
1535.02	10.018	1554130	PROB	10.018	n/a	n/a	-999	14	[7, 7, 9]	23	FR1	2	R1195E
1545.038	6.301	1564148	PROB	6.301	n/a	n/a	-999	14	[3, 3, 8]	14	FR1	2	R1195E
1551.339	3.133	1570448	PROB	3.133	n/a	n/a	-999	14	[6, 3, 7]	16	FR1	2	R1195E
1554.472	5.269	1573581	PROB	5.269	n/a	n/a	-999	14	[7, 8, 1]	16	FR1	2	R1195E
1559.741	0.016	1578850	STOP	n/a	n/a	n/a	-999	14	[-999, -999, -999]	n/a	FR1	2	R1195E
1559.757	0.534	1578866	DISTRACT_END	n/a	n/a	n/a	-999	14	[0, 0, 0]	n/a	FR1	2	R1195E
1560.291	0.517	1579400	RETRIEVAL_ORIENT	n/a	n/a	n/a	-999	14	[0, 0, 0]	n/a	FR1	2	R1195E
1560.808	2.417	1579917	REC_START	n/a	n/a	n/a	-999	14	[0, 0, 0]	n/a	FR1	2	R1195E
1563.225	2.618	1582334	REC_WORD	2.618	n/a	MUD	-999	14	[0, 0, 0]	n/a	FR1	2	R1195E
1565.843	0.847	1584952	REC_WORD	0.847	n/a	FUDGE	11	14	[0, 0, 0]	n/a	FR1	2	R1195E
1566.69	6.807	1585799	REC_WORD	6.807	n/a	SLEEVE	5	14	[0, 0, 0]	n/a	FR1	2	R1195E
1573.497	7.885	1592606	REC_WORD	7.885	n/a	COUCH	2	14	[0, 0, 0]	n/a	FR1	2	R1195E
1581.382	4.395	1600490	REC_WORD	4.395	n/a	BROOM	4	14	[0, 0, 0]	n/a	FR1	2	R1195E
1585.777	5.042	1604885	REC_WORD	5.042	n/a	PIG	8	14	[0, 0, 0]	n/a	FR1	2	R1195E
1590.819	5.66	1609927	REC_END	n/a	n/a	n/a	-999	14	[0, 0, 0]	n/a	FR1	2	R1195E
1596.479	0.5	1615587	TRIAL	n/a	n/a	n/a	-999	15	[0, 0, 0]	n/a	FR1	2	R1195E
1596.979	10.428	1616087	COUNTDOWN_START	n/a	n/a	n/a	-999	15	[0, 0, 0]	n/a	FR1	2	R1195E
1607.407	0.008	1626514	COUNTDOWN_END	n/a	n/a	n/a	-999	15	[0, 0, 0]	n/a	FR1	2	R1195E
1607.415	1.618	1626522	ORIENT	n/a	n/a	n/a	-999	15	[0, 0, 0]	n/a	FR1	2	R1195E
1609.033	1.983	1628140	ORIENT_OFF	n/a	n/a	n/a	-999	15	[0, 0, 0]	n/a	FR1	2	R1195E
1611.016	1.617	1630123	WORD	n/a	wordpools/wordpool_EN.txt	WEED	1	15	[0, 0, 0]	n/a	FR1	2	R1195E
1612.633	0.866	1631740	WORD_OFF	n/a	n/a	WEED	1	15	[0, 0, 0]	n/a	FR1	2	R1195E
1613.499	1.618	1632606	WORD	n/a	wordpools/wordpool_EN.txt	FOG	2	15	[0, 0, 0]	n/a	FR1	2	R1195E
1615.117	1.017	1634224	WORD_OFF	n/a	n/a	FOG	2	15	[0, 0, 0]	n/a	FR1	2	R1195E
1616.134	1.616	1635241	WORD	n/a	wordpools/wordpool_EN.txt	SHIELD	3	15	[0, 0, 0]	n/a	FR1	2	R1195E
1617.75	0.9	1636857	WORD_OFF	n/a	n/a	SHIELD	3	15	[0, 0, 0]	n/a	FR1	2	R1195E
1618.65	1.601	1637757	WORD	n/a	wordpools/wordpool_EN.txt	TRAIN	4	15	[0, 0, 0]	n/a	FR1	2	R1195E
1620.251	0.817	1639358	WORD_OFF	n/a	n/a	TRAIN	4	15	[0, 0, 0]	n/a	FR1	2	R1195E
1621.068	1.616	1640175	WORD	n/a	wordpools/wordpool_EN.txt	FORT	5	15	[0, 0, 0]	n/a	FR1	2	R1195E
1622.684	0.851	1641791	WORD_OFF	n/a	n/a	FORT	5	15	[0, 0, 0]	n/a	FR1	2	R1195E
1623.535	1.617	1642642	WORD	n/a	wordpools/wordpool_EN.txt	SWORD	6	15	[0, 0, 0]	n/a	FR1	2	R1195E
1625.152	0.951	1644259	WORD_OFF	n/a	n/a	SWORD	6	15	[0, 0, 0]	n/a	FR1	2	R1195E
1626.103	1.616	1645210	WORD	n/a	wordpools/wordpool_EN.txt	STAR	7	15	[0, 0, 0]	n/a	FR1	2	R1195E
1627.719	0.966	1646826	WORD_OFF	n/a	n/a	STAR	7	15	[0, 0, 0]	n/a	FR1	2	R1195E
1628.685	1.601	1647792	WORD	n/a	wordpools/wordpool_EN.txt	STEAM	8	15	[0, 0, 0]	n/a	FR1	2	R1195E
1630.286	0.984	1649392	WORD_OFF	n/a	n/a	STEAM	8	15	[0, 0, 0]	n/a	FR1	2	R1195E
1631.27	1.616	1650376	WORD	n/a	wordpools/wordpool_EN.txt	SMOKE	9	15	[0, 0, 0]	n/a	FR1	2	R1195E
1632.886	0.833	1651992	WORD_OFF	n/a	n/a	SMOKE	9	15	[0, 0, 0]	n/a	FR1	2	R1195E
1633.719	1.602	1652825	WORD	n/a	wordpools/wordpool_EN.txt	SAIL	10	15	[0, 0, 0]	n/a	FR1	2	R1195E
1635.321	0.933	1654427	WORD_OFF	n/a	n/a	SAIL	10	15	[0, 0, 0]	n/a	FR1	2	R1195E
1636.254	1.616	1655360	WORD	n/a	wordpools/wordpool_EN.txt	CHIEF	11	15	[0, 0, 0]	n/a	FR1	2	R1195E
1637.87	0.967	1656976	WORD_OFF	n/a	n/a	CHIEF	11	15	[0, 0, 0]	n/a	FR1	2	R1195E
1638.837	1.617	1657943	WORD	n/a	wordpools/wordpool_EN.txt	SHIP	12	15	[0, 0, 0]	n/a	FR1	2	R1195E
1640.454	0.0	1659560	WORD_OFF	n/a	n/a	SHIP	12	15	[0, 0, 0]	n/a	FR1	2	R1195E
1640.454	0.001	1659560	DISTRACT_START	n/a	n/a	n/a	-999	15	[0, 0, 0]	n/a	FR1	2	R1195E
1640.455	0.016	1659561	START	n/a	n/a	n/a	-999	15	[-999, -999, -999]	n/a	FR1	2	R1195E
1640.471	3.735	1659577	PROB	3.735	n/a	n/a	-999	15	[2, 4, 6]	12	FR1	2	R1195E
1644.206	5.483	1663312	PROB	5.483	n/a	n/a	-999	15	[6, 9, 3]	18	FR1	2	R1195E
1649.689	7.885	1668795	PROB	7.885	n/a	n/a	-999	15	[9, 5, 9]	23	FR1	2	R1195E
1657.574	3.508	1676679	PROB	3.508	n/a	n/a	-999	15	[7, 3, 3]	13	FR1	2	R1195E
1661.082	0.01	1680187	STOP	n/a	n/a	n/a	-999	15	[-999, -999, -999]	n/a	FR1	2	R1195E
1661.092	0.583	1680197	DISTRACT_END	n/a	n/a	n/a	-999	15	[0, 0, 0]	n/a	FR1	2	R1195E
1661.675	0.518	1680780	RETRIEVAL_ORIENT	n/a	n/a	n/a	-999	15	[0, 0, 0]	n/a	FR1	2	R1195E
1662.193	1.582	1681298	REC_START	n/a	n/a	n/a	-999	15	[0, 0, 0]	n/a	FR1	2	R1195E
1663.775	0.568	1682880	REC_WORD_VV	0.568	n/a	<>	-999	15	[0, 0, 0]	n/a	FR1	2	R1195E
1664.343	3.575	1683448	REC_WORD	3.575	n/a	CHIEF	11	15	[0, 0, 0]	n/a	FR1	2	R1195E
1667.918	2.772	1687023	REC_WORD	2.772	n/a	SAIL	10	15	[0, 0, 0]	n/a	FR1	2	R1195E
1670.69	3.047	1689795	REC_WORD	3.047	n/a	SMOKE	9	15	[0, 0, 0]	n/a	FR1	2	R1195E
1673.737	8.089	1692842	REC_WORD	8.089	n/a	STEAM	8	15	[0, 0, 0]	n/a	FR1	2	R1195E
1681.826	7.105	1700930	REC_WORD_VV	7.105	n/a	<>	-999	15	[0, 0, 0]	n/a	FR1	2	R1195E
1688.931	3.274	1708035	REC_WORD	3.274	n/a	WEED	1	15	[0, 0, 0]	n/a	FR1	2	R1195E
1692.205	5.609	1711309	REC_END	n/a	n/a	n/a	-999	15	[0, 0, 0]	n/a	FR1	2	R1195E
1697.814	0.5	1716918	TRIAL	n/a	n/a	n/a	-999	16	[0, 0, 0]	n/a	FR1	2	R1195E
1698.314	10.428	1717418	COUNTDOWN_START	n/a	n/a	n/a	-999	16	[0, 0, 0]	n/a	FR1	2	R1195E
1708.742	0.008	1727845	COUNTDOWN_END	n/a	n/a	n/a	-999	16	[0, 0, 0]	n/a	FR1	2	R1195E
1708.75	1.616	1727853	ORIENT	n/a	n/a	n/a	-999	16	[0, 0, 0]	n/a	FR1	2	R1195E
1710.366	2.301	1729469	ORIENT_OFF	n/a	n/a	n/a	-999	16	[0, 0, 0]	n/a	FR1	2	R1195E
1712.667	1.618	1731770	WORD	n/a	wordpools/wordpool_EN.txt	GEESE	1	16	[0, 0, 0]	n/a	FR1	2	R1195E
1714.285	0.833	1733388	WORD_OFF	n/a	n/a	GEESE	1	16	[0, 0, 0]	n/a	FR1	2	R1195E
1715.118	1.616	1734221	WORD	n/a	wordpools/wordpool_EN.txt	POND	2	16	[0, 0, 0]	n/a	FR1	2	R1195E
1716.734	0.967	1735837	WORD_OFF	n/a	n/a	POND	2	16	[0, 0, 0]	n/a	FR1	2	R1195E
1717.701	1.618	1736804	WORD	n/a	wordpools/wordpool_EN.txt	CAGE	3	16	[0, 0, 0]	n/a	FR1	2	R1195E
1719.319	1.0	1738422	WORD_OFF	n/a	n/a	CAGE	3	16	[0, 0, 0]	n/a	FR1	2	R1195E
1720.319	1.617	1739422	WORD	n/a	wordpools/wordpool_EN.txt	NEST	4	16	[0, 0, 0]	n/a	FR1	2	R1195E
1721.936	0.899	1741039	WORD_OFF	n/a	n/a	NEST	4	16	[0, 0, 0]	n/a	FR1	2	R1195E
1722.835	1.617	1741938	WORD	n/a	wordpools/wordpool_EN.txt	HAWK	5	16	[0, 0, 0]	n/a	FR1	2	R1195E
1724.452	0.917	1743555	WORD_OFF	n/a	n/a	HAWK	5	16	[0, 0, 0]	n/a	FR1	2	R1195E
1725.369	1.618	1744472	WORD	n/a	wordpools/wordpool_EN.txt	BUSH	6	16	[0, 0, 0]	n/a	FR1	2	R1195E
1726.987	0.95	1746090	WORD_OFF	n/a	n/a	BUSH	6	16	[0, 0, 0]	n/a	FR1	2	R1195E
1727.937	1.616	1747040	WORD	n/a	wordpools/wordpool_EN.txt	WING	7	16	[0, 0, 0]	n/a	FR1	2	R1195E
1729.553	0.768	1748656	WORD_OFF	n/a	n/a	WING	7	16	[0, 0, 0]	n/a	FR1	2	R1195E
1730.321	1.617	1749424	WORD	n/a	wordpools/wordpool_EN.txt	TAIL	8	16	[0, 0, 0]	n/a	FR1	2	R1195E
1731.938	0.766	1751041	WORD_OFF	n/a	n/a	TAIL	8	16	[0, 0, 0]	n/a	FR1	2	R1195E
1732.704	1.618	1751807	WORD	n/a	wordpools/wordpool_EN.txt	TOE	9	16	[0, 0, 0]	n/a	FR1	2	R1195E
1734.322	0.95	1753424	WORD_OFF	n/a	n/a	TOE	9	16	[0, 0, 0]	n/a	FR1	2	R1195E
1735.272	1.616	1754374	WORD	n/a	wordpools/wordpool_EN.txt	SLUSH	10	16	[0, 0, 0]	n/a	FR1	2	R1195E
1736.888	0.833	1755990	WORD_OFF	n/a	n/a	SLUSH	10	16	[0, 0, 0]	n/a	FR1	2	R1195E
1737.721	1.601	1756823	WORD	n/a	wordpools/wordpool_EN.txt	TREE	11	16	[0, 0, 0]	n/a	FR1	2	R1195E
1739.322	0.801	1758424	WORD_OFF	n/a	n/a	TREE	11	16	[0, 0, 0]	n/a	FR1	2	R1195E
1740.123	1.616	1759225	WORD	n/a	wordpools/wordpool_EN.txt	STRAW	12	16	[0, 0, 0]	n/a	FR1	2	R1195E
1741.739	0.0	1760841	WORD_OFF	n/a	n/a	STRAW	12	16	[0, 0, 0]	n/a	FR1	2	R1195E
1741.739	0.0	1760841	DISTRACT_START	n/a	n/a	n/a	-999	16	[0, 0, 0]	n/a	FR1	2	R1195E
1741.739	0.016	1760841	START	n/a	n/a	n/a	-999	16	[-999, -999, -999]	n/a	FR1	2	R1195E
1741.755	6.269	1760857	PROB	6.269	n/a	n/a	-999	16	[4, 5, 5]	14	FR1	2	R1195E
1748.024	6.417	1767126	PROB	6.417	n/a	n/a	-999	16	[8, 4, 7]	19	FR1	2	R1195E
1754.441	3.017	1773543	PROB	3.017	n/a	n/a	-999	16	[1, 4, 6]	11	FR1	2	R1195E
1757.458	4.541	1776560	PROB	4.541	n/a	n/a	-999	16	[5, 6, 8]	19	FR1	2	R1195E
1761.999	0.011	1781100	STOP	n/a	n/a	n/a	-999	16	[-999, -999, -999]	n/a	FR1	2	R1195E
1762.01	0.682	1781111	DISTRACT_END	n/a	n/a	n/a	-999	16	[0, 0, 0]	n/a	FR1	2	R1195E
1762.692	0.519	1781793	RETRIEVAL_ORIENT	n/a	n/a	n/a	-999	16	[0, 0, 0]	n/a	FR1	2	R1195E
1763.211	2.062	1782312	REC_START	n/a	n/a	n/a	-999	16	[0, 0, 0]	n/a	FR1	2	R1195E
1765.273	1.79	1784374	REC_WORD	1.79	n/a	GEESE	1	16	[0, 0, 0]	n/a	FR1	2	R1195E
1767.063	2.403	1786164	REC_WORD	2.403	n/a	HAWK	5	16	[0, 0, 0]	n/a	FR1	2	R1195E
1769.466	2.837	1788567	REC_WORD	2.837	n/a	NEST	4	16	[0, 0, 0]	n/a	FR1	2	R1195E
1772.303	2.448	1791404	REC_WORD	2.448	n/a	STRAW	12	16	[0, 0, 0]	n/a	FR1	2	R1195E
1774.751	10.342	1793852	REC_WORD	10.342	n/a	TREE	11	16	[0, 0, 0]	n/a	FR1	2	R1195E
1785.093	8.128	1804194	REC_WORD_VV	8.128	n/a	<>	-999	16	[0, 0, 0]	n/a	FR1	2	R1195E
1793.221	5.378	1812321	REC_END	n/a	n/a	n/a	-999	16	[0, 0, 0]	n/a	FR1	2	R1195E
1798.599	0.5	1817699	TRIAL	n/a	n/a	n/a	-999	17	[0, 0, 0]	n/a	FR1	2	R1195E
1799.099	10.428	1818199	COUNTDOWN_START	n/a	n/a	n/a	-999	17	[0, 0, 0]	n/a	FR1	2	R1195E
1809.527	0.007	1828627	COUNTDOWN_END	n/a	n/a	n/a	-999	17	[0, 0, 0]	n/a	FR1	2	R1195E
1809.534	1.601	1828634	ORIENT	n/a	n/a	n/a	-999	17	[0, 0, 0]	n/a	FR1	2	R1195E
1811.135	2.167	1830235	ORIENT_OFF	n/a	n/a	n/a	-999	17	[0, 0, 0]	n/a	FR1	2	R1195E
1813.302	1.617	1832401	WORD	n/a	wordpools/wordpool_EN.txt	SMILE	1	17	[0, 0, 0]	n/a	FR1	2	R1195E
1814.919	0.783	1834018	WORD_OFF	n/a	n/a	SMILE	1	17	[0, 0, 0]	n/a	FR1	2	R1195E
1815.702	1.618	1834801	WORD	n/a	wordpools/wordpool_EN.txt	PARK	2	17	[0, 0, 0]	n/a	FR1	2	R1195E
1817.32	0.933	1836419	WORD_OFF	n/a	n/a	PARK	2	17	[0, 0, 0]	n/a	FR1	2	R1195E
1818.253	1.616	1837352	WORD	n/a	wordpools/wordpool_EN.txt	HOUSE	3	17	[0, 0, 0]	n/a	FR1	2	R1195E
1819.869	0.833	1838968	WORD_OFF	n/a	n/a	HOUSE	3	17	[0, 0, 0]	n/a	FR1	2	R1195E
1820.702	1.602	1839801	WORD	n/a	wordpools/wordpool_EN.txt	OAR	4	17	[0, 0, 0]	n/a	FR1	2	R1195E
1822.304	0.8	1841403	WORD_OFF	n/a	n/a	OAR	4	17	[0, 0, 0]	n/a	FR1	2	R1195E
1823.104	1.616	1842203	WORD	n/a	wordpools/wordpool_EN.txt	DRESS	5	17	[0, 0, 0]	n/a	FR1	2	R1195E
1824.72	0.867	1843819	WORD_OFF	n/a	n/a	DRESS	5	17	[0, 0, 0]	n/a	FR1	2	R1195E
1825.587	1.618	1844686	WORD	n/a	wordpools/wordpool_EN.txt	SHIRT	6	17	[0, 0, 0]	n/a	FR1	2	R1195E
1827.205	0.833	1846304	WORD_OFF	n/a	n/a	SHIRT	6	17	[0, 0, 0]	n/a	FR1	2	R1195E
1828.038	1.616	1847137	WORD	n/a	wordpools/wordpool_EN.txt	TRUCK	7	17	[0, 0, 0]	n/a	FR1	2	R1195E
1829.654	0.867	1848753	WORD_OFF	n/a	n/a	TRUCK	7	17	[0, 0, 0]	n/a	FR1	2	R1195E
1830.521	1.601	1849620	WORD	n/a	wordpools/wordpool_EN.txt	ROOM	8	17	[0, 0, 0]	n/a	FR1	2	R1195E
1832.122	0.783	1851221	WORD_OFF	n/a	n/a	ROOM	8	17	[0, 0, 0]	n/a	FR1	2	R1195E
1832.905	1.617	1852004	WORD	n/a	wordpools/wordpool_EN.txt	MULE	9	17	[0, 0, 0]	n/a	FR1	2	R1195E
1834.522	0.784	1853621	WORD_OFF	n/a	n/a	MULE	9	17	[0, 0, 0]	n/a	FR1	2	R1195E
1835.306	1.617	1854405	WORD	n/a	wordpools/wordpool_EN.txt	SEAT	10	17	[0, 0, 0]	n/a	FR1	2	R1195E
1836.923	0.849	1856022	WORD_OFF	n/a	n/a	SEAT	10	17	[0, 0, 0]	n/a	FR1	2	R1195E
1837.772	1.617	1856871	WORD	n/a	wordpools/wordpool_EN.txt	LAWN	11	17	[0, 0, 0]	n/a	FR1	2	R1195E
1839.389	0.868	1858487	WORD_OFF	n/a	n/a	LAWN	11	17	[0, 0, 0]	n/a	FR1	2	R1195E
1840.257	1.616	1859355	WORD	n/a	wordpools/wordpool_EN.txt	JEEP	12	17	[0, 0, 0]	n/a	FR1	2	R1195E
1841.873	0.0	1860971	WORD_OFF	n/a	n/a	JEEP	12	17	[0, 0, 0]	n/a	FR1	2	R1195E
1841.873	0.001	1860971	DISTRACT_START	n/a	n/a	n/a	-999	17	[0, 0, 0]	n/a	FR1	2	R1195E
1841.874	0.016	1860972	START	n/a	n/a	n/a	-999	17	[-999, -999, -999]	n/a	FR1	2	R1195E
1841.89	3.9	1860988	PROB	3.9	n/a	n/a	-999	17	[2, 8, 2]	12	FR1	2	R1195E
1845.79	7.702	1864888	PROB	7.702	n/a	n/a	-999	17	[9, 9, 6]	24	FR1	2	R1195E
1853.492	9.283	1872590	PROB	9.283	n/a	n/a	-999	17	[8, 9, 4]	21	FR1	2	R1195E
1862.775	0.018	1881873	STOP	n/a	n/a	n/a	-999	17	[-999, -999, -999]	n/a	FR1	2	R1195E
1862.793	0.518	1881891	DISTRACT_END	n/a	n/a	n/a	-999	17	[0, 0, 0]	n/a	FR1	2	R1195E
1863.311	0.517	1882409	RETRIEVAL_ORIENT	n/a	n/a	n/a	-999	17	[0, 0, 0]	n/a	FR1	2	R1195E
1863.828	2.017	1882926	REC_START	n/a	n/a	n/a	-999	17	[0, 0, 0]	n/a	FR1	2	R1195E
1865.845	2.47	1884942	REC_WORD	2.47	n/a	LAWN	11	17	[0, 0, 0]	n/a	FR1	2	R1195E
1868.315	2.688	1887412	REC_WORD	2.688	n/a	SMILE	1	17	[0, 0, 0]	n/a	FR1	2	R1195E
1871.003	1.814	1890100	REC_WORD	1.814	n/a	JEEP	12	17	[0, 0, 0]	n/a	FR1	2	R1195E
1872.817	1.476	1891914	REC_WORD	1.476	n/a	TRUCK	7	17	[0, 0, 0]	n/a	FR1	2	R1195E
1874.293	12.161	1893390	REC_WORD	12.161	n/a	SEAT	10	17	[0, 0, 0]	n/a	FR1	2	R1195E
1886.454	2.609	1905551	REC_WORD	2.609	n/a	OAR	4	17	[0, 0, 0]	n/a	FR1	2	R1195E
1889.063	2.422	1908160	REC_WORD	2.422	n/a	HOUSE	3	17	[0, 0, 0]	n/a	FR1	2	R1195E
1891.485	2.354	1910581	REC_WORD	2.354	n/a	BROOM	-999	17	[0, 0, 0]	n/a	FR1	2	R1195E
1893.839	9.061	1912935	REC_END	n/a	n/a	n/a	-999	17	[0, 0, 0]	n/a	FR1	2	R1195E
1902.9	0.5	1921996	TRIAL	n/a	n/a	n/a	-999	18	[0, 0, 0]	n/a	FR1	2	R1195E
1903.4	10.428	1922496	COUNTDOWN_START	n/a	n/a	n/a	-999	18	[0, 0, 0]	n/a	FR1	2	R1195E
1913.828	0.008	1932924	COUNTDOWN_END	n/a	n/a	n/a	-999	18	[0, 0, 0]	n/a	FR1	2	R1195E
1913.836	1.616	1932932	ORIENT	n/a	n/a	n/a	-999	18	[0, 0, 0]	n/a	FR1	2	R1195E
1915.452	1.951	1934548	ORIENT_OFF	n/a	n/a	n/a	-999	18	[0, 0, 0]	n/a	FR1	2	R1195E
1917.403	1.618	1936498	WORD	n/a	wordpools/wordpool_EN.txt	CUBE	1	18	[0, 0, 0]	n/a	FR1	2	R1195E
1919.021	0.849	1938116	WORD_OFF	n/a	n/a	CUBE	1	18	[0, 0, 0]	n/a	FR1	2	R1195E
1919.87	1.617	1938965	WORD	n/a	wordpools/wordpool_EN.txt	SHEEP	2	18	[0, 0, 0]	n/a	FR1	2	R1195E
1921.487	0.95	1940582	WORD_OFF	n/a	n/a	SHEEP	2	18	[0, 0, 0]	n/a	FR1	2	R1195E
1922.437	1.618	1941532	WORD	n/a	wordpools/wordpool_EN.txt	NOSE	3	18	[0, 0, 0]	n/a	FR1	2	R1195E
1924.055	0.967	1943150	WORD_OFF	n/a	n/a	NOSE	3	18	[0, 0, 0]	n/a	FR1	2	R1195E
1925.022	1.616	1944117	WORD	n/a	wordpools/wordpool_EN.txt	JUICE	4	18	[0, 0, 0]	n/a	FR1	2	R1195E
1926.638	0.917	1945733	WORD_OFF	n/a	n/a	JUICE	4	18	[0, 0, 0]	n/a	FR1	2	R1195E
1927.555	1.618	1946650	WORD	n/a	wordpools/wordpool_EN.txt	ROOT	5	18	[0, 0, 0]	n/a	FR1	2	R1195E
1929.173	0.899	1948268	WORD_OFF	n/a	n/a	ROOT	5	18	[0, 0, 0]	n/a	FR1	2	R1195E
1930.072	1.617	1949167	WORD	n/a	wordpools/wordpool_EN.txt	CAVE	6	18	[0, 0, 0]	n/a	FR1	2	R1195E
1931.689	0.833	1950784	WORD_OFF	n/a	n/a	CAVE	6	18	[0, 0, 0]	n/a	FR1	2	R1195E
1932.522	1.618	1951617	WORD	n/a	wordpools/wordpool_EN.txt	MILK	7	18	[0, 0, 0]	n/a	FR1	2	R1195E
1934.14	0.95	1953235	WORD_OFF	n/a	n/a	MILK	7	18	[0, 0, 0]	n/a	FR1	2	R1195E
1935.09	1.616	1954185	WORD	n/a	wordpools/wordpool_EN.txt	WORM	8	18	[0, 0, 0]	n/a	FR1	2	R1195E
1936.706	0.917	1955801	WORD_OFF	n/a	n/a	WORM	8	18	[0, 0, 0]	n/a	FR1	2	R1195E
1937.623	1.601	1956718	WORD	n/a	wordpools/wordpool_EN.txt	MOUSE	9	18	[0, 0, 0]	n/a	FR1	2	R1195E
1939.224	0.967	1958319	WORD_OFF	n/a	n/a	MOUSE	9	18	[0, 0, 0]	n/a	FR1	2	R1195E
1940.191	1.616	1959286	WORD	n/a	wordpools/wordpool_EN.txt	ROCK	10	18	[0, 0, 0]	n/a	FR1	2	R1195E
1941.807	0.9	1960902	WORD_OFF	n/a	n/a	ROCK	10	18	[0, 0, 0]	n/a	FR1	2	R1195E
1942.707	1.618	1961802	WORD	n/a	wordpools/wordpool_EN.txt	LEAF	11	18	[0, 0, 0]	n/a	FR1	2	R1195E
1944.325	1.0	1963419	WORD_OFF	n/a	n/a	LEAF	11	18	[0, 0, 0]	n/a	FR1	2	R1195E
1945.325	1.617	1964419	WORD	n/a	wordpools/wordpool_EN.txt	BRANCH	12	18	[0, 0, 0]	n/a	FR1	2	R1195E
1946.942	0.0	1966036	WORD_OFF	n/a	n/a	BRANCH	12	18	[0, 0, 0]	n/a	FR1	2	R1195E
1946.942	0.001	1966036	DISTRACT_START	n/a	n/a	n/a	-999	18	[0, 0, 0]	n/a	FR1	2	R1195E
1946.943	0.016	1966037	START	n/a	n/a	n/a	-999	18	[-999, -999, -999]	n/a	FR1	2	R1195E
1946.959	5.8	1966053	PROB	5.8	n/a	n/a	-999	18	[7, 5, 8]	20	FR1	2	R1195E
1952.759	6.118	1971853	PROB	6.118	n/a	n/a	-999	18	[6, 7, 9]	22	FR1	2	R1195E
1958.877	6.901	1977971	PROB	6.901	n/a	n/a	-999	18	[7, 2, 6]	15	FR1	2	R1195E
1965.778	5.007	1984872	PROB	5.007	n/a	n/a	-999	18	[7, 3, 2]	12	FR1	2	R1195E
1970.785	0.011	1989878	STOP	n/a	n/a	n/a	-999	18	[-999, -999, -999]	n/a	FR1	2	R1195E
1970.796	0.533	1989889	DISTRACT_END	n/a	n/a	n/a	-999	18	[0, 0, 0]	n/a	FR1	2	R1195E
1971.329	0.518	1990422	RETRIEVAL_ORIENT	n/a	n/a	n/a	-999	18	[0, 0, 0]	n/a	FR1	2	R1195E
1971.847	2.404	1990940	REC_START	n/a	n/a	n/a	-999	18	[0, 0, 0]	n/a	FR1	2	R1195E
1974.251	1.994	1993344	REC_WORD	1.994	n/a	BRANCH	12	18	[0, 0, 0]	n/a	FR1	2	R1195E
1976.245	2.434	1995338	REC_WORD	2.434	n/a	MILK	7	18	[0, 0, 0]	n/a	FR1	2	R1195E
1978.679	1.864	1997772	REC_WORD	1.864	n/a	ROOT	5	18	[0, 0, 0]	n/a	FR1	2	R1195E
1980.543	2.218	1999636	REC_WORD	2.218	n/a	CAVE	6	18	[0, 0, 0]	n/a	FR1	2	R1195E
1982.761	3.578	2001854	REC_WORD	3.578	n/a	LEAF	11	18	[0, 0, 0]	n/a	FR1	2	R1195E
1986.339	12.127	2005432	REC_WORD_VV	12.127	n/a	<>	-999	18	[0, 0, 0]	n/a	FR1	2	R1195E
1998.466	3.392	2017558	REC_WORD_VV	3.392	n/a	<>	-999	18	[0, 0, 0]	n/a	FR1	2	R1195E
2001.858	5.494	2020950	REC_END	n/a	n/a	n/a	-999	18	[0, 0, 0]	n/a	FR1	2	R1195E
2007.352	0.5	2026444	TRIAL	n/a	n/a	n/a	-999	19	[0, 0, 0]	n/a	FR1	2	R1195E
2007.852	10.428	2026944	COUNTDOWN_START	n/a	n/a	n/a	-999	19	[0, 0, 0]	n/a	FR1	2	R1195E
2018.28	0.008	2037372	COUNTDOWN_END	n/a	n/a	n/a	-999	19	[0, 0, 0]	n/a	FR1	2	R1195E
2018.288	1.616	2037380	ORIENT	n/a	n/a	n/a	-999	19	[0, 0, 0]	n/a	FR1	2	R1195E
2019.904	1.884	2038996	ORIENT_OFF	n/a	n/a	n/a	-999	19	[0, 0, 0]	n/a	FR1	2	R1195E
2021.788	1.617	2040880	WORD	n/a	wordpools/wordpool_EN.txt	ARM	1	19	[0, 0, 0]	n/a	FR1	2	R1195E
2023.405	0.983	2042496	WORD_OFF	n/a	n/a	ARM	1	19	[0, 0, 0]	n/a	FR1	2	R1195E
2024.388	1.618	2043479	WORD	n/a	wordpools/wordpool_EN.txt	DRUM	2	19	[0, 0, 0]	n/a	FR1	2	R1195E
2026.006	0.984	2045097	WORD_OFF	n/a	n/a	DRUM	2	19	[0, 0, 0]	n/a	FR1	2	R1195E
2026.99	1.616	2046081	WORD	n/a	wordpools/wordpool_EN.txt	SQUARE	3	19	[0, 0, 0]	n/a	FR1	2	R1195E
2028.606	0.883	2047697	WORD_OFF	n/a	n/a	SQUARE	3	19	[0, 0, 0]	n/a	FR1	2	R1195E
2029.489	1.618	2048580	WORD	n/a	wordpools/wordpool_EN.txt	BAND	4	19	[0, 0, 0]	n/a	FR1	2	R1195E
2031.107	0.85	2050198	WORD_OFF	n/a	n/a	BAND	4	19	[0, 0, 0]	n/a	FR1	2	R1195E
2031.957	1.616	2051048	WORD	n/a	wordpools/wordpool_EN.txt	HORN	5	19	[0, 0, 0]	n/a	FR1	2	R1195E
2033.573	0.884	2052664	WORD_OFF	n/a	n/a	HORN	5	19	[0, 0, 0]	n/a	FR1	2	R1195E
2034.457	1.618	2053548	WORD	n/a	wordpools/wordpool_EN.txt	CHEEK	6	19	[0, 0, 0]	n/a	FR1	2	R1195E
2036.075	0.85	2055166	WORD_OFF	n/a	n/a	CHEEK	6	19	[0, 0, 0]	n/a	FR1	2	R1195E
2036.925	1.616	2056016	WORD	n/a	wordpools/wordpool_EN.txt	ARK	7	19	[0, 0, 0]	n/a	FR1	2	R1195E
2038.541	0.867	2057632	WORD_OFF	n/a	n/a	ARK	7	19	[0, 0, 0]	n/a	FR1	2	R1195E
2039.408	1.618	2058499	WORD	n/a	wordpools/wordpool_EN.txt	SKI	8	19	[0, 0, 0]	n/a	FR1	2	R1195E
2041.026	0.882	2060117	WORD_OFF	n/a	n/a	SKI	8	19	[0, 0, 0]	n/a	FR1	2	R1195E
2041.908	1.617	2060999	WORD	n/a	wordpools/wordpool_EN.txt	ROAD	9	19	[0, 0, 0]	n/a	FR1	2	R1195E
2043.525	0.967	2062616	WORD_OFF	n/a	n/a	ROAD	9	19	[0, 0, 0]	n/a	FR1	2	R1195E
2044.492	1.618	2063583	WORD	n/a	wordpools/wordpool_EN.txt	VAN	10	19	[0, 0, 0]	n/a	FR1	2	R1195E
2046.11	0.983	2065201	WORD_OFF	n/a	n/a	VAN	10	19	[0, 0, 0]	n/a	FR1	2	R1195E
2047.093	1.616	2066184	WORD	n/a	wordpools/wordpool_EN.txt	CANE	11	19	[0, 0, 0]	n/a	FR1	2	R1195E
2048.709	0.901	2067799	WORD_OFF	n/a	n/a	CANE	11	19	[0, 0, 0]	n/a	FR1	2	R1195E
2049.61	1.617	2068700	WORD	n/a	wordpools/wordpool_EN.txt	THUMB	12	19	[0, 0, 0]	n/a	FR1	2	R1195E
2051.227	0.0	2070317	WORD_OFF	n/a	n/a	THUMB	12	19	[0, 0, 0]	n/a	FR1	2	R1195E
2051.227	0.001	2070317	DISTRACT_START	n/a	n/a	n/a	-999	19	[0, 0, 0]	n/a	FR1	2	R1195E
2051.228	0.016	2070318	START	n/a	n/a	n/a	-999	19	[-999, -999, -999]	n/a	FR1	2	R1195E
2051.244	4.267	2070334	PROB	4.267	n/a	n/a	-999	19	[2, 7, 2]	11	FR1	2	R1195E
2055.511	4.217	2074601	PROB	4.217	n/a	n/a	-999	19	[2, 2, 7]	11	FR1	2	R1195E
2059.728	6.185	2078818	PROB	6.185	n/a	n/a	-999	19	[6, 9, 3]	18	FR1	2	R1195E
2065.913	6.58	2085003	PROB	6.58	n/a	n/a	-999	19	[6, 3, 5]	14	FR1	2	R1195E
2072.493	0.02	2091583	STOP	n/a	n/a	n/a	-999	19	[-999, -999, -999]	n/a	FR1	2	R1195E
2072.513	0.518	2091603	DISTRACT_END	n/a	n/a	n/a	-999	19	[0, 0, 0]	n/a	FR1	2	R1195E
2073.031	0.517	2092121	RETRIEVAL_ORIENT	n/a	n/a	n/a	-999	19	[0, 0, 0]	n/a	FR1	2	R1195E
2073.548	1.88	2092638	REC_START	n/a	n/a	n/a	-999	19	[0, 0, 0]	n/a	FR1	2	R1195E
2075.428	1.405	2094517	REC_WORD	1.405	n/a	SKI	8	19	[0, 0, 0]	n/a	FR1	2	R1195E
2076.833	4.717	2095922	REC_WORD	4.717	n/a	VAN	10	19	[0, 0, 0]	n/a	FR1	2	R1195E
2081.55	3.815	2100639	REC_WORD_VV	3.815	n/a	<>	-999	19	[0, 0, 0]	n/a	FR1	2	R1195E
2085.365	6.409	2104454	REC_WORD	6.409	n/a	CHEEK	6	19	[0, 0, 0]	n/a	FR1	2	R1195E
2091.774	1.003	2110863	REC_WORD_VV	1.003	n/a	<>	-999	19	[0, 0, 0]	n/a	FR1	2	R1195E
2092.777	10.783	2111866	REC_WORD_VV	10.783	n/a	<>	-999	19	[0, 0, 0]	n/a	FR1	2	R1195E
2103.56	5.628	2122648	REC_END	n/a	n/a	n/a	-999	19	[0, 0, 0]	n/a	FR1	2	R1195E
2109.188	0.5	2128276	TRIAL	n/a	n/a	n/a	-999	20	[0, 0, 0]	n/a	FR1	2	R1195E
2109.688	10.428	2128776	COUNTDOWN_START	n/a	n/a	n/a	-999	20	[0, 0, 0]	n/a	FR1	2	R1195E
2120.116	0.007	2139204	COUNTDOWN_END	n/a	n/a	n/a	-999	20	[0, 0, 0]	n/a	FR1	2	R1195E
2120.123	1.616	2139211	ORIENT	n/a	n/a	n/a	-999	20	[0, 0, 0]	n/a	FR1	2	R1195E
2121.739	2.0	2140827	ORIENT_OFF	n/a	n/a	n/a	-999	20	[0, 0, 0]	n/a	FR1	2	R1195E
2123.739	1.617	2142827	WORD	n/a	wordpools/wordpool_EN.txt	KEY	1	20	[0, 0, 0]	n/a	FR1	2	R1195E
2125.356	0.785	2144444	WORD_OFF	n/a	n/a	KEY	1	20	[0, 0, 0]	n/a	FR1	2	R1195E
2126.141	1.616	2145229	WORD	n/a	wordpools/wordpool_EN.txt	STREET	2	20	[0, 0, 0]	n/a	FR1	2	R1195E
2127.757	0.933	2146844	WORD_OFF	n/a	n/a	STREET	2	20	[0, 0, 0]	n/a	FR1	2	R1195E
2128.69	1.618	2147777	WORD	n/a	wordpools/wordpool_EN.txt	CLOCK	3	20	[0, 0, 0]	n/a	FR1	2	R1195E
2130.308	0.95	2149395	WORD_OFF	n/a	n/a	CLOCK	3	20	[0, 0, 0]	n/a	FR1	2	R1195E
2131.258	1.616	2150345	WORD	n/a	wordpools/wordpool_EN.txt	JUDGE	4	20	[0, 0, 0]	n/a	FR1	2	R1195E
2132.874	0.8	2151961	WORD_OFF	n/a	n/a	JUDGE	4	20	[0, 0, 0]	n/a	FR1	2	R1195E
2133.674	1.618	2152761	WORD	n/a	wordpools/wordpool_EN.txt	MAIL	5	20	[0, 0, 0]	n/a	FR1	2	R1195E
2135.292	0.767	2154379	WORD_OFF	n/a	n/a	MAIL	5	20	[0, 0, 0]	n/a	FR1	2	R1195E
2136.059	1.616	2155146	WORD	n/a	wordpools/wordpool_EN.txt	FROG	6	20	[0, 0, 0]	n/a	FR1	2	R1195E
2137.675	0.767	2156762	WORD_OFF	n/a	n/a	FROG	6	20	[0, 0, 0]	n/a	FR1	2	R1195E
2138.442	1.618	2157529	WORD	n/a	wordpools/wordpool_EN.txt	STORE	7	20	[0, 0, 0]	n/a	FR1	2	R1195E
2140.06	0.832	2159147	WORD_OFF	n/a	n/a	STORE	7	20	[0, 0, 0]	n/a	FR1	2	R1195E
2140.892	1.617	2159979	WORD	n/a	wordpools/wordpool_EN.txt	CAR	8	20	[0, 0, 0]	n/a	FR1	2	R1195E
2142.509	0.867	2161596	WORD_OFF	n/a	n/a	CAR	8	20	[0, 0, 0]	n/a	FR1	2	R1195E
2143.376	1.618	2162463	WORD	n/a	wordpools/wordpool_EN.txt	COIN	9	20	[0, 0, 0]	n/a	FR1	2	R1195E
2144.994	0.983	2164081	WORD_OFF	n/a	n/a	COIN	9	20	[0, 0, 0]	n/a	FR1	2	R1195E
2145.977	1.616	2165064	WORD	n/a	wordpools/wordpool_EN.txt	BADGE	10	20	[0, 0, 0]	n/a	FR1	2	R1195E
2147.593	0.834	2166680	WORD_OFF	n/a	n/a	BADGE	10	20	[0, 0, 0]	n/a	FR1	2	R1195E
2148.427	1.618	2167514	WORD	n/a	wordpools/wordpool_EN.txt	TANK	11	20	[0, 0, 0]	n/a	FR1	2	R1195E
2150.045	0.9	2169132	WORD_OFF	n/a	n/a	TANK	11	20	[0, 0, 0]	n/a	FR1	2	R1195E
2150.945	1.616	2170032	WORD	n/a	wordpools/wordpool_EN.txt	BOOK	12	20	[0, 0, 0]	n/a	FR1	2	R1195E
2152.561	0.0	2171648	WORD_OFF	n/a	n/a	BOOK	12	20	[0, 0, 0]	n/a	FR1	2	R1195E
2152.561	0.001	2171648	DISTRACT_START	n/a	n/a	n/a	-999	20	[0, 0, 0]	n/a	FR1	2	R1195E
2152.562	0.016	2171649	START	n/a	n/a	n/a	-999	20	[-999, -999, -999]	n/a	FR1	2	R1195E
2152.578	5.518	2171665	PROB	5.518	n/a	n/a	-999	20	[4, 2, 8]	14	FR1	2	R1195E
2158.096	5.151	2177182	PROB	5.151	n/a	n/a	-999	20	[6, 3, 6]	15	FR1	2	R1195E
2163.247	4.467	2182333	PROB	4.467	n/a	n/a	-999	20	[9, 9, 2]	20	FR1	2	R1195E
2167.714	4.301	2186800	PROB	4.301	n/a	n/a	-999	20	[4, 9, 1]	14	FR1	2	R1195E
2172.015	5.408	2191101	PROB	5.408	n/a	n/a	-999	20	[1, 3, 4]	8	FR1	2	R1195E
2177.423	0.009	2196509	STOP	n/a	n/a	n/a	-999	20	[-999, -999, -999]	n/a	FR1	2	R1195E
2177.432	0.684	2196518	DISTRACT_END	n/a	n/a	n/a	-999	20	[0, 0, 0]	n/a	FR1	2	R1195E
2178.116	0.517	2197202	RETRIEVAL_ORIENT	n/a	n/a	n/a	-999	20	[0, 0, 0]	n/a	FR1	2	R1195E
2178.633	1.873	2197719	REC_START	n/a	n/a	n/a	-999	20	[0, 0, 0]	n/a	FR1	2	R1195E
2180.506	2.245	2199591	REC_WORD	2.245	n/a	COIN	9	20	[0, 0, 0]	n/a	FR1	2	R1195E
2182.751	4.138	2201836	REC_WORD	4.138	n/a	KEY	1	20	[0, 0, 0]	n/a	FR1	2	R1195E
2186.889	3.469	2205974	REC_WORD	3.469	n/a	STREET	2	20	[0, 0, 0]	n/a	FR1	2	R1195E
2190.358	3.182	2209443	REC_WORD	3.182	n/a	STORE	7	20	[0, 0, 0]	n/a	FR1	2	R1195E
2193.54	6.339	2212625	REC_WORD	6.339	n/a	BADGE	10	20	[0, 0, 0]	n/a	FR1	2	R1195E
2199.879	8.765	2218964	REC_WORD	8.765	n/a	MILK	-999	20	[0, 0, 0]	n/a	FR1	2	R1195E
2208.644	5.529	2227728	REC_END	n/a	n/a	n/a	-999	20	[0, 0, 0]	n/a	FR1	2	R1195E
2214.173	0.5	2233257	TRIAL	n/a	n/a	n/a	-999	21	[0, 0, 0]	n/a	FR1	2	R1195E
2214.673	10.428	2233757	COUNTDOWN_START	n/a	n/a	n/a	-999	21	[0, 0, 0]	n/a	FR1	2	R1195E
2225.101	0.007	2244185	COUNTDOWN_END	n/a	n/a	n/a	-999	21	[0, 0, 0]	n/a	FR1	2	R1195E
2225.108	1.616	2244192	ORIENT	n/a	n/a	n/a	-999	21	[0, 0, 0]	n/a	FR1	2	R1195E
2226.724	1.867	2245808	ORIENT_OFF	n/a	n/a	n/a	-999	21	[0, 0, 0]	n/a	FR1	2	R1195E
2228.591	1.601	2247675	WORD	n/a	wordpools/wordpool_EN.txt	WEB	1	21	[0, 0, 0]	n/a	FR1	2	R1195E
2230.192	0.934	2249276	WORD_OFF	n/a	n/a	WEB	1	21	[0, 0, 0]	n/a	FR1	2	R1195E
2231.126	1.616	2250210	WORD	n/a	wordpools/wordpool_EN.txt	SPARK	2	21	[0, 0, 0]	n/a	FR1	2	R1195E
2232.742	0.966	2251825	WORD_OFF	n/a	n/a	SPARK	2	21	[0, 0, 0]	n/a	FR1	2	R1195E
2233.708	1.618	2252791	WORD	n/a	wordpools/wordpool_EN.txt	BLOOM	3	21	[0, 0, 0]	n/a	FR1	2	R1195E
2235.326	0.817	2254409	WORD_OFF	n/a	n/a	BLOOM	3	21	[0, 0, 0]	n/a	FR1	2	R1195E
2236.143	1.616	2255226	WORD	n/a	wordpools/wordpool_EN.txt	RAIN	4	21	[0, 0, 0]	n/a	FR1	2	R1195E
2237.759	0.917	2256842	WORD_OFF	n/a	n/a	RAIN	4	21	[0, 0, 0]	n/a	FR1	2	R1195E
2238.676	1.601	2257759	WORD	n/a	wordpools/wordpool_EN.txt	CLOUD	5	21	[0, 0, 0]	n/a	FR1	2	R1195E
2240.277	0.984	2259360	WORD_OFF	n/a	n/a	CLOUD	5	21	[0, 0, 0]	n/a	FR1	2	R1195E
2241.261	1.616	2260344	WORD	n/a	wordpools/wordpool_EN.txt	FISH	6	21	[0, 0, 0]	n/a	FR1	2	R1195E
2242.877	0.833	2261960	WORD_OFF	n/a	n/a	FISH	6	21	[0, 0, 0]	n/a	FR1	2	R1195E
2243.71	1.601	2262793	WORD	n/a	wordpools/wordpool_EN.txt	SCHOOL	7	21	[0, 0, 0]	n/a	FR1	2	R1195E
2245.311	0.834	2264394	WORD_OFF	n/a	n/a	SCHOOL	7	21	[0, 0, 0]	n/a	FR1	2	R1195E
2246.145	1.616	2265228	WORD	n/a	wordpools/wordpool_EN.txt	BEE	8	21	[0, 0, 0]	n/a	FR1	2	R1195E
2247.761	0.933	2266844	WORD_OFF	n/a	n/a	BEE	8	21	[0, 0, 0]	n/a	FR1	2	R1195E
2248.694	1.602	2267777	WORD	n/a	wordpools/wordpool_EN.txt	JET	9	21	[0, 0, 0]	n/a	FR1	2	R1195E
2250.296	0.783	2269379	WORD_OFF	n/a	n/a	JET	9	21	[0, 0, 0]	n/a	FR1	2	R1195E
2251.079	1.616	2270162	WORD	n/a	wordpools/wordpool_EN.txt	TOAD	10	21	[0, 0, 0]	n/a	FR1	2	R1195E
2252.695	0.867	2271778	WORD_OFF	n/a	n/a	TOAD	10	21	[0, 0, 0]	n/a	FR1	2	R1195E
2253.562	1.618	2272645	WORD	n/a	wordpools/wordpool_EN.txt	PEA	11	21	[0, 0, 0]	n/a	FR1	2	R1195E
2255.18	0.783	2274263	WORD_OFF	n/a	n/a	PEA	11	21	[0, 0, 0]	n/a	FR1	2	R1195E
2255.963	1.616	2275046	WORD	n/a	wordpools/wordpool_EN.txt	CROW	12	21	[0, 0, 0]	n/a	FR1	2	R1195E
2257.579	0.0	2276661	WORD_OFF	n/a	n/a	CROW	12	21	[0, 0, 0]	n/a	FR1	2	R1195E
2257.579	0.001	2276661	DISTRACT_START	n/a	n/a	n/a	-999	21	[0, 0, 0]	n/a	FR1	2	R1195E
2257.58	0.016	2276662	START	n/a	n/a	n/a	-999	21	[-999, -999, -999]	n/a	FR1	2	R1195E
2257.596	6.636	2276678	PROB	6.636	n/a	n/a	-999	21	[8, 1, 3]	12	FR1	2	R1195E
2264.232	4.466	2283314	PROB	4.466	n/a	n/a	-999	21	[2, 5, 8]	15	FR1	2	R1195E
2268.698	4.184	2287780	PROB	4.184	n/a	n/a	-999	21	[6, 2, 8]	16	FR1	2	R1195E
2272.882	6.717	2291964	PROB	6.717	n/a	n/a	-999	21	[5, 9, 9]	23	FR1	2	R1195E
2279.599	0.018	2298681	STOP	n/a	n/a	n/a	-999	21	[-999, -999, -999]	n/a	FR1	2	R1195E
2279.617	0.601	2298699	DISTRACT_END	n/a	n/a	n/a	-999	21	[0, 0, 0]	n/a	FR1	2	R1195E
2280.218	0.516	2299300	RETRIEVAL_ORIENT	n/a	n/a	n/a	-999	21	[0, 0, 0]	n/a	FR1	2	R1195E
2280.734	1.846	2299816	REC_START	n/a	n/a	n/a	-999	21	[0, 0, 0]	n/a	FR1	2	R1195E
2282.58	2.729	2301662	REC_WORD	2.729	n/a	PEA	11	21	[0, 0, 0]	n/a	FR1	2	R1195E
2285.309	8.474	2304390	REC_WORD	8.474	n/a	COW	-999	21	[0, 0, 0]	n/a	FR1	2	R1195E
2293.783	10.491	2312864	REC_WORD	10.491	n/a	TOAD	10	21	[0, 0, 0]	n/a	FR1	2	R1195E
2304.274	6.472	2323355	REC_WORD	6.472	n/a	BEE	8	21	[0, 0, 0]	n/a	FR1	2	R1195E
2310.746	5.461	2329826	REC_END	n/a	n/a	n/a	-999	21	[0, 0, 0]	n/a	FR1	2	R1195E
2316.207	0.5	2335287	TRIAL	n/a	n/a	n/a	-999	22	[0, 0, 0]	n/a	FR1	2	R1195E
2316.707	10.428	2335787	COUNTDOWN_START	n/a	n/a	n/a	-999	22	[0, 0, 0]	n/a	FR1	2	R1195E
2327.135	0.008	2346215	COUNTDOWN_END	n/a	n/a	n/a	-999	22	[0, 0, 0]	n/a	FR1	2	R1195E
2327.143	1.615	2346223	ORIENT	n/a	n/a	n/a	-999	22	[0, 0, 0]	n/a	FR1	2	R1195E
2328.758	2.018	2347838	ORIENT_OFF	n/a	n/a	n/a	-999	22	[0, 0, 0]	n/a	FR1	2	R1195E
2330.776	1.617	2349856	WORD	n/a	wordpools/wordpool_EN.txt	SPEAR	1	22	[0, 0, 0]	n/a	FR1	2	R1195E
2332.393	0.801	2351473	WORD_OFF	n/a	n/a	SPEAR	1	22	[0, 0, 0]	n/a	FR1	2	R1195E
2333.194	1.616	2352274	WORD	n/a	wordpools/wordpool_EN.txt	SNAKE	2	22	[0, 0, 0]	n/a	FR1	2	R1195E
2334.81	0.933	2353890	WORD_OFF	n/a	n/a	SNAKE	2	22	[0, 0, 0]	n/a	FR1	2	R1195E
2335.743	1.617	2354823	WORD	n/a	wordpools/wordpool_EN.txt	HOOF	3	22	[0, 0, 0]	n/a	FR1	2	R1195E
2337.36	0.984	2356439	WORD_OFF	n/a	n/a	HOOF	3	22	[0, 0, 0]	n/a	FR1	2	R1195E
2338.344	1.618	2357423	WORD	n/a	wordpools/wordpool_EN.txt	SKUNK	4	22	[0, 0, 0]	n/a	FR1	2	R1195E
2339.962	0.815	2359041	WORD_OFF	n/a	n/a	SKUNK	4	22	[0, 0, 0]	n/a	FR1	2	R1195E
2340.777	1.617	2359856	WORD	n/a	wordpools/wordpool_EN.txt	FLEA	5	22	[0, 0, 0]	n/a	FR1	2	R1195E
2342.394	0.868	2361473	WORD_OFF	n/a	n/a	FLEA	5	22	[0, 0, 0]	n/a	FR1	2	R1195E
2343.262	1.616	2362341	WORD	n/a	wordpools/wordpool_EN.txt	SOAP	6	22	[0, 0, 0]	n/a	FR1	2	R1195E
2344.878	0.8	2363957	WORD_OFF	n/a	n/a	SOAP	6	22	[0, 0, 0]	n/a	FR1	2	R1195E
2345.678	1.601	2364757	WORD	n/a	wordpools/wordpool_EN.txt	FOAM	7	22	[0, 0, 0]	n/a	FR1	2	R1195E
2347.279	1.001	2366358	WORD_OFF	n/a	n/a	FOAM	7	22	[0, 0, 0]	n/a	FR1	2	R1195E
2348.28	1.616	2367359	WORD	n/a	wordpools/wordpool_EN.txt	PANTS	8	22	[0, 0, 0]	n/a	FR1	2	R1195E
2349.896	0.783	2368975	WORD_OFF	n/a	n/a	PANTS	8	22	[0, 0, 0]	n/a	FR1	2	R1195E
2350.679	1.601	2369758	WORD	n/a	wordpools/wordpool_EN.txt	STRING	9	22	[0, 0, 0]	n/a	FR1	2	R1195E
2352.28	0.884	2371359	WORD_OFF	n/a	n/a	STRING	9	22	[0, 0, 0]	n/a	FR1	2	R1195E
2353.164	1.616	2372243	WORD	n/a	wordpools/wordpool_EN.txt	WOOD	10	22	[0, 0, 0]	n/a	FR1	2	R1195E
2354.78	0.817	2373859	WORD_OFF	n/a	n/a	WOOD	10	22	[0, 0, 0]	n/a	FR1	2	R1195E
2355.597	1.618	2374676	WORD	n/a	wordpools/wordpool_EN.txt	BEACH	11	22	[0, 0, 0]	n/a	FR1	2	R1195E
2357.215	0.983	2376294	WORD_OFF	n/a	n/a	BEACH	11	22	[0, 0, 0]	n/a	FR1	2	R1195E
2358.198	1.616	2377277	WORD	n/a	wordpools/wordpool_EN.txt	RAKE	12	22	[0, 0, 0]	n/a	FR1	2	R1195E
2359.814	0.0	2378893	DISTRACT_START	n/a	n/a	n/a	-999	22	[0, 0, 0]	n/a	FR1	2	R1195E
2359.814	0.001	2378893	WORD_OFF	n/a	n/a	RAKE	12	22	[0, 0, 0]	n/a	FR1	2	R1195E
2359.815	0.016	2378894	START	n/a	n/a	n/a	-999	22	[-999, -999, -999]	n/a	FR1	2	R1195E
2359.831	5.302	2378910	PROB	5.302	n/a	n/a	-999	22	[3, 9, 2]	14	FR1	2	R1195E
2365.133	3.433	2384211	PROB	3.433	n/a	n/a	-999	22	[7, 3, 6]	16	FR1	2	R1195E
2368.566	9.201	2387644	PROB	9.201	n/a	n/a	-999	22	[6, 3, 8]	17	FR1	2	R1195E
2377.767	5.609	2396845	PROB	5.609	n/a	n/a	-999	22	[2, 3, 5]	10	FR1	2	R1195E
2383.376	0.009	2402454	STOP	n/a	n/a	n/a	-999	22	[-999, -999, -999]	n/a	FR1	2	R1195E
2383.385	0.584	2402463	DISTRACT_END	n/a	n/a	n/a	-999	22	[0, 0, 0]	n/a	FR1	2	R1195E
2383.969	0.517	2403047	RETRIEVAL_ORIENT	n/a	n/a	n/a	-999	22	[0, 0, 0]	n/a	FR1	2	R1195E
2384.486	1.799	2403564	REC_START	n/a	n/a	n/a	-999	22	[0, 0, 0]	n/a	FR1	2	R1195E
2386.285	5.4	2405363	REC_WORD	5.4	n/a	RAKE	12	22	[0, 0, 0]	n/a	FR1	2	R1195E
2391.685	17.633	2410762	REC_WORD	17.633	n/a	SPRING	-999	22	[0, 0, 0]	n/a	FR1	2	R1195E
2409.318	5.179	2428395	REC_WORD_VV	5.179	n/a	<>	-999	22	[0, 0, 0]	n/a	FR1	2	R1195E
2414.497	5.911	2433573	REC_END	n/a	n/a	n/a	-999	22	[0, 0, 0]	n/a	FR1	2	R1195E
2420.408	0.5	2439484	TRIAL	n/a	n/a	n/a	-999	23	[0, 0, 0]	n/a	FR1	2	R1195E
2420.908	10.428	2439984	COUNTDOWN_START	n/a	n/a	n/a	-999	23	[0, 0, 0]	n/a	FR1	2	R1195E
2431.336	0.007	2450412	COUNTDOWN_END	n/a	n/a	n/a	-999	23	[0, 0, 0]	n/a	FR1	2	R1195E
2431.343	1.618	2450419	ORIENT	n/a	n/a	n/a	-999	23	[0, 0, 0]	n/a	FR1	2	R1195E
2432.961	2.051	2452037	ORIENT_OFF	n/a	n/a	n/a	-999	23	[0, 0, 0]	n/a	FR1	2	R1195E
2435.012	1.616	2454088	WORD	n/a	wordpools/wordpool_EN.txt	STONE	1	23	[0, 0, 0]	n/a	FR1	2	R1195E
2436.628	0.983	2455704	WORD_OFF	n/a	n/a	STONE	1	23	[0, 0, 0]	n/a	FR1	2	R1195E
2437.611	1.618	2456687	WORD	n/a	wordpools/wordpool_EN.txt	BEAN	2	23	[0, 0, 0]	n/a	FR1	2	R1195E
2439.229	0.967	2458305	WORD_OFF	n/a	n/a	BEAN	2	23	[0, 0, 0]	n/a	FR1	2	R1195E
2440.196	1.616	2459272	WORD	n/a	wordpools/wordpool_EN.txt	FRUIT	3	23	[0, 0, 0]	n/a	FR1	2	R1195E
2441.812	0.8	2460887	WORD_OFF	n/a	n/a	FRUIT	3	23	[0, 0, 0]	n/a	FR1	2	R1195E
2442.612	1.618	2461687	WORD	n/a	wordpools/wordpool_EN.txt	INK	4	23	[0, 0, 0]	n/a	FR1	2	R1195E
2444.23	0.983	2463305	WORD_OFF	n/a	n/a	INK	4	23	[0, 0, 0]	n/a	FR1	2	R1195E
2445.213	1.616	2464288	WORD	n/a	wordpools/wordpool_EN.txt	CHALK	5	23	[0, 0, 0]	n/a	FR1	2	R1195E
2446.829	0.767	2465904	WORD_OFF	n/a	n/a	CHALK	5	23	[0, 0, 0]	n/a	FR1	2	R1195E
2447.596	1.618	2466671	WORD	n/a	wordpools/wordpool_EN.txt	FENCE	6	23	[0, 0, 0]	n/a	FR1	2	R1195E
2449.214	0.8	2468289	WORD_OFF	n/a	n/a	FENCE	6	23	[0, 0, 0]	n/a	FR1	2	R1195E
2450.014	1.616	2469089	WORD	n/a	wordpools/wordpool_EN.txt	TRAY	7	23	[0, 0, 0]	n/a	FR1	2	R1195E
2451.63	0.9	2470705	WORD_OFF	n/a	n/a	TRAY	7	23	[0, 0, 0]	n/a	FR1	2	R1195E
2452.53	1.618	2471605	WORD	n/a	wordpools/wordpool_EN.txt	PASTE	8	23	[0, 0, 0]	n/a	FR1	2	R1195E
2454.148	0.834	2473223	WORD_OFF	n/a	n/a	PASTE	8	23	[0, 0, 0]	n/a	FR1	2	R1195E
2454.982	1.616	2474057	WORD	n/a	wordpools/wordpool_EN.txt	PLATE	9	23	[0, 0, 0]	n/a	FR1	2	R1195E
2456.598	0.783	2475673	WORD_OFF	n/a	n/a	PLATE	9	23	[0, 0, 0]	n/a	FR1	2	R1195E
2457.381	1.618	2476456	WORD	n/a	wordpools/wordpool_EN.txt	SALT	10	23	[0, 0, 0]	n/a	FR1	2	R1195E
2458.999	0.766	2478074	WORD_OFF	n/a	n/a	SALT	10	23	[0, 0, 0]	n/a	FR1	2	R1195E
2459.765	1.617	2478840	WORD	n/a	wordpools/wordpool_EN.txt	SHARK	11	23	[0, 0, 0]	n/a	FR1	2	R1195E
2461.382	0.934	2480457	WORD_OFF	n/a	n/a	SHARK	11	23	[0, 0, 0]	n/a	FR1	2	R1195E
2462.316	1.617	2481391	WORD	n/a	wordpools/wordpool_EN.txt	CART	12	23	[0, 0, 0]	n/a	FR1	2	R1195E
2463.933	0.0	2483008	WORD_OFF	n/a	n/a	CART	12	23	[0, 0, 0]	n/a	FR1	2	R1195E
2463.933	0.001	2483008	DISTRACT_START	n/a	n/a	n/a	-999	23	[0, 0, 0]	n/a	FR1	2	R1195E
2463.934	0.016	2483009	START	n/a	n/a	n/a	-999	23	[-999, -999, -999]	n/a	FR1	2	R1195E
2463.95	4.284	2483025	PROB	4.284	n/a	n/a	-999	23	[1, 4, 5]	10	FR1	2	R1195E
2468.234	5.868	2487308	PROB	5.868	n/a	n/a	-999	23	[9, 5, 4]	18	FR1	2	R1195E
2474.102	2.783	2493176	PROB	2.783	n/a	n/a	-999	23	[5, 5, 1]	11	FR1	2	R1195E
2476.885	7.053	2495959	PROB	7.053	n/a	n/a	-999	23	[6, 9, 2]	17	FR1	2	R1195E
2483.938	0.016	2503012	STOP	n/a	n/a	n/a	-999	23	[-999, -999, -999]	n/a	FR1	2	R1195E
2483.954	0.599	2503028	DISTRACT_END	n/a	n/a	n/a	-999	23	[0, 0, 0]	n/a	FR1	2	R1195E
2484.553	0.518	2503627	RETRIEVAL_ORIENT	n/a	n/a	n/a	-999	23	[0, 0, 0]	n/a	FR1	2	R1195E
2485.071	2.343	2504145	REC_START	n/a	n/a	n/a	-999	23	[0, 0, 0]	n/a	FR1	2	R1195E
2487.414	0.886	2506488	REC_WORD_VV	0.886	n/a	<>	-999	23	[0, 0, 0]	n/a	FR1	2	R1195E
2488.3	2.355	2507374	REC_WORD	2.355	n/a	BEAN	2	23	[0, 0, 0]	n/a	FR1	2	R1195E
2490.655	1.708	2509729	REC_WORD	1.708	n/a	FRUIT	3	23	[0, 0, 0]	n/a	FR1	2	R1195E
2492.363	2.176	2511437	REC_WORD	2.176	n/a	SALT	10	23	[0, 0, 0]	n/a	FR1	2	R1195E
2494.539	2.379	2513612	REC_WORD	2.379	n/a	SHARK	11	23	[0, 0, 0]	n/a	FR1	2	R1195E
2496.918	4.525	2515991	REC_WORD	4.525	n/a	PLATE	9	23	[0, 0, 0]	n/a	FR1	2	R1195E
2501.443	2.741	2520516	REC_WORD	2.741	n/a	TRAY	7	23	[0, 0, 0]	n/a	FR1	2	R1195E
2504.184	10.897	2523257	REC_WORD	10.897	n/a	PASTE	8	23	[0, 0, 0]	n/a	FR1	2	R1195E
2515.081	6.246	2534154	REC_END	n/a	n/a	n/a	-999	23	[0, 0, 0]	n/a	FR1	2	R1195E
2521.327	0.5	2540399	TRIAL	n/a	n/a	n/a	-999	24	[0, 0, 0]	n/a	FR1	2	R1195E
2521.827	10.428	2540899	COUNTDOWN_START	n/a	n/a	n/a	-999	24	[0, 0, 0]	n/a	FR1	2	R1195E
2532.255	0.007	2551327	COUNTDOWN_END	n/a	n/a	n/a	-999	24	[0, 0, 0]	n/a	FR1	2	R1195E
2532.262	1.616	2551334	ORIENT	n/a	n/a	n/a	-999	24	[0, 0, 0]	n/a	FR1	2	R1195E
2533.878	2.118	2552950	ORIENT_OFF	n/a	n/a	n/a	-999	24	[0, 0, 0]	n/a	FR1	2	R1195E
2535.996	1.616	2555068	WORD	n/a	wordpools/wordpool_EN.txt	CLIFF	1	24	[0, 0, 0]	n/a	FR1	2	R1195E
2537.612	1.0	2556684	WORD_OFF	n/a	n/a	CLIFF	1	24	[0, 0, 0]	n/a	FR1	2	R1195E
2538.612	1.601	2557684	WORD	n/a	wordpools/wordpool_EN.txt	FLOOR	2	24	[0, 0, 0]	n/a	FR1	2	R1195E
2540.213	0.851	2559285	WORD_OFF	n/a	n/a	FLOOR	2	24	[0, 0, 0]	n/a	FR1	2	R1195E
2541.064	1.616	2560136	WORD	n/a	wordpools/wordpool_EN.txt	RIB	3	24	[0, 0, 0]	n/a	FR1	2	R1195E
2542.68	0.816	2561752	WORD_OFF	n/a	n/a	RIB	3	24	[0, 0, 0]	n/a	FR1	2	R1195E
2543.496	1.618	2562568	WORD	n/a	wordpools/wordpool_EN.txt	CHIN	4	24	[0, 0, 0]	n/a	FR1	2	R1195E
2545.114	1.0	2564186	WORD_OFF	n/a	n/a	CHIN	4	24	[0, 0, 0]	n/a	FR1	2	R1195E
2546.114	1.617	2565185	WORD	n/a	wordpools/wordpool_EN.txt	FUR	5	24	[0, 0, 0]	n/a	FR1	2	R1195E
2547.731	0.85	2566802	WORD_OFF	n/a	n/a	FUR	5	24	[0, 0, 0]	n/a	FR1	2	R1195E
2548.581	1.618	2567652	WORD	n/a	wordpools/wordpool_EN.txt	SOCK	6	24	[0, 0, 0]	n/a	FR1	2	R1195E
2550.199	0.783	2569270	WORD_OFF	n/a	n/a	SOCK	6	24	[0, 0, 0]	n/a	FR1	2	R1195E
2550.982	1.616	2570053	WORD	n/a	wordpools/wordpool_EN.txt	VEST	7	24	[0, 0, 0]	n/a	FR1	2	R1195E
2552.598	0.983	2571669	WORD_OFF	n/a	n/a	VEST	7	24	[0, 0, 0]	n/a	FR1	2	R1195E
2553.581	1.618	2572652	WORD	n/a	wordpools/wordpool_EN.txt	CONE	8	24	[0, 0, 0]	n/a	FR1	2	R1195E
2555.199	0.95	2574270	WORD_OFF	n/a	n/a	CONE	8	24	[0, 0, 0]	n/a	FR1	2	R1195E
2556.149	1.617	2575220	WORD	n/a	wordpools/wordpool_EN.txt	RUG	9	24	[0, 0, 0]	n/a	FR1	2	R1195E
2557.766	0.85	2576837	WORD_OFF	n/a	n/a	RUG	9	24	[0, 0, 0]	n/a	FR1	2	R1195E
2558.616	1.618	2577687	WORD	n/a	wordpools/wordpool_EN.txt	LAND	10	24	[0, 0, 0]	n/a	FR1	2	R1195E
2560.234	0.766	2579305	WORD_OFF	n/a	n/a	LAND	10	24	[0, 0, 0]	n/a	FR1	2	R1195E
2561.0	1.616	2580071	WORD	n/a	wordpools/wordpool_EN.txt	VINE	11	24	[0, 0, 0]	n/a	FR1	2	R1195E
2562.616	0.867	2581687	WORD_OFF	n/a	n/a	VINE	11	24	[0, 0, 0]	n/a	FR1	2	R1195E
2563.483	1.618	2582554	WORD	n/a	wordpools/wordpool_EN.txt	WALL	12	24	[0, 0, 0]	n/a	FR1	2	R1195E
2565.101	0.0	2584172	WORD_OFF	n/a	n/a	WALL	12	24	[0, 0, 0]	n/a	FR1	2	R1195E
2565.101	0.001	2584172	DISTRACT_START	n/a	n/a	n/a	-999	24	[0, 0, 0]	n/a	FR1	2	R1195E
2565.102	0.016	2584173	START	n/a	n/a	n/a	-999	24	[-999, -999, -999]	n/a	FR1	2	R1195E
2565.118	4.433	2584189	PROB	4.433	n/a	n/a	-999	24	[9, 1, 3]	13	FR1	2	R1195E
2569.551	8.753	2588622	PROB	8.753	n/a	n/a	-999	24	[8, 5, 6]	19	FR1	2	R1195E
2578.304	3.667	2597374	PROB	3.667	n/a	n/a	-999	24	[5, 4, 3]	12	FR1	2	R1195E
2581.971	4.732	2601041	PROB	4.732	n/a	n/a	-999	24	[4, 8, 2]	14	FR1	2	R1195E
2586.703	0.018	2605773	STOP	n/a	n/a	n/a	-999	24	[-999, -999, -999]	n/a	FR1	2	R1195E
2586.721	0.616	2605791	DISTRACT_END	n/a	n/a	n/a	-999	24	[0, 0, 0]	n/a	FR1	2	R1195E
2587.337	0.518	2606407	RETRIEVAL_ORIENT	n/a	n/a	n/a	-999	24	[0, 0, 0]	n/a	FR1	2	R1195E
2587.855	2.657	2606925	REC_START	n/a	n/a	n/a	-999	24	[0, 0, 0]	n/a	FR1	2	R1195E
2590.512	0.569	2609582	REC_WORD_VV	0.569	n/a	<>	-999	24	[0, 0, 0]	n/a	FR1	2	R1195E
2591.081	2.135	2610151	REC_WORD	2.135	n/a	FUR	5	24	[0, 0, 0]	n/a	FR1	2	R1195E
2593.216	2.213	2612286	REC_WORD	2.213	n/a	SOCK	6	24	[0, 0, 0]	n/a	FR1	2	R1195E
2595.429	7.375	2614499	REC_WORD	7.375	n/a	VEST	7	24	[0, 0, 0]	n/a	FR1	2	R1195E
2602.804	8.759	2621873	REC_WORD_VV	8.759	n/a	<>	-999	24	[0, 0, 0]	n/a	FR1	2	R1195E
2611.563	6.304	2630632	REC_WORD	6.304	n/a	RUG	9	24	[0, 0, 0]	n/a	FR1	2	R1195E
2617.867	6.01	2636936	REC_END	n/a	n/a	n/a	-999	24	[0, 0, 0]	n/a	FR1	2	R1195E
2623.877	0.5	2642945	TRIAL	n/a	n/a	n/a	-999	25	[0, 0, 0]	n/a	FR1	2	R1195E
2624.377	10.428	2643445	COUNTDOWN_START	n/a	n/a	n/a	-999	25	[0, 0, 0]	n/a	FR1	2	R1195E
2634.805	0.007	2653873	COUNTDOWN_END	n/a	n/a	n/a	-999	25	[0, 0, 0]	n/a	FR1	2	R1195E
2634.812	1.617	2653880	ORIENT	n/a	n/a	n/a	-999	25	[0, 0, 0]	n/a	FR1	2	R1195E
2636.429	2.151	2655497	ORIENT_OFF	n/a	n/a	n/a	-999	25	[0, 0, 0]	n/a	FR1	2	R1195E
2638.58	1.618	2657648	WORD	n/a	wordpools/wordpool_EN.txt	LAMB	1	25	[0, 0, 0]	n/a	FR1	2	R1195E
2640.198	0.8	2659266	WORD_OFF	n/a	n/a	LAMB	1	25	[0, 0, 0]	n/a	FR1	2	R1195E
2640.998	1.616	2660066	WORD	n/a	wordpools/wordpool_EN.txt	SEED	2	25	[0, 0, 0]	n/a	FR1	2	R1195E
2642.614	0.933	2661682	WORD_OFF	n/a	n/a	SEED	2	25	[0, 0, 0]	n/a	FR1	2	R1195E
2643.547	1.618	2662615	WORD	n/a	wordpools/wordpool_EN.txt	PLANT	3	25	[0, 0, 0]	n/a	FR1	2	R1195E
2645.165	0.884	2664233	WORD_OFF	n/a	n/a	PLANT	3	25	[0, 0, 0]	n/a	FR1	2	R1195E
2646.049	1.616	2665117	WORD	n/a	wordpools/wordpool_EN.txt	SHRIMP	4	25	[0, 0, 0]	n/a	FR1	2	R1195E
2647.665	0.767	2666733	WORD_OFF	n/a	n/a	SHRIMP	4	25	[0, 0, 0]	n/a	FR1	2	R1195E
2648.432	1.617	2667500	WORD	n/a	wordpools/wordpool_EN.txt	PEARL	5	25	[0, 0, 0]	n/a	FR1	2	R1195E
2650.049	0.884	2669116	WORD_OFF	n/a	n/a	PEARL	5	25	[0, 0, 0]	n/a	FR1	2	R1195E
2650.933	1.616	2670000	WORD	n/a	wordpools/wordpool_EN.txt	RICE	6	25	[0, 0, 0]	n/a	FR1	2	R1195E
2652.549	0.933	2671616	WORD_OFF	n/a	n/a	RICE	6	25	[0, 0, 0]	n/a	FR1	2	R1195E
2653.482	1.602	2672549	WORD	n/a	wordpools/wordpool_EN.txt	SPONGE	7	25	[0, 0, 0]	n/a	FR1	2	R1195E
2655.084	0.883	2674151	WORD_OFF	n/a	n/a	SPONGE	7	25	[0, 0, 0]	n/a	FR1	2	R1195E
2655.967	1.616	2675034	WORD	n/a	wordpools/wordpool_EN.txt	FOOD	8	25	[0, 0, 0]	n/a	FR1	2	R1195E
2657.583	0.884	2676650	WORD_OFF	n/a	n/a	FOOD	8	25	[0, 0, 0]	n/a	FR1	2	R1195E
2658.467	1.618	2677534	WORD	n/a	wordpools/wordpool_EN.txt	MOOSE	9	25	[0, 0, 0]	n/a	FR1	2	R1195E
2660.085	0.916	2679152	WORD_OFF	n/a	n/a	MOOSE	9	25	[0, 0, 0]	n/a	FR1	2	R1195E
2661.001	1.616	2680068	WORD	n/a	wordpools/wordpool_EN.txt	SEA	10	25	[0, 0, 0]	n/a	FR1	2	R1195E
2662.617	0.884	2681684	WORD_OFF	n/a	n/a	SEA	10	25	[0, 0, 0]	n/a	FR1	2	R1195E
2663.501	1.618	2682568	WORD	n/a	wordpools/wordpool_EN.txt	STEM	11	25	[0, 0, 0]	n/a	FR1	2	R1195E
2665.119	0.883	2684186	WORD_OFF	n/a	n/a	STEM	11	25	[0, 0, 0]	n/a	FR1	2	R1195E
2666.002	1.616	2685069	WORD	n/a	wordpools/wordpool_EN.txt	THREAD	12	25	[0, 0, 0]	n/a	FR1	2	R1195E
2667.618	0.0	2686685	WORD_OFF	n/a	n/a	THREAD	12	25	[0, 0, 0]	n/a	FR1	2	R1195E
2667.618	0.001	2686685	DISTRACT_START	n/a	n/a	n/a	-999	25	[0, 0, 0]	n/a	FR1	2	R1195E
2667.619	0.016	2686686	START	n/a	n/a	n/a	-999	25	[-999, -999, -999]	n/a	FR1	2	R1195E
2667.635	3.401	2686702	PROB	3.401	n/a	n/a	-999	25	[5, 5, 2]	12	FR1	2	R1195E
2671.036	4.767	2690103	PROB	4.767	n/a	n/a	-999	25	[9, 3, 2]	14	FR1	2	R1195E
2675.803	3.584	2694870	PROB	3.584	n/a	n/a	-999	25	[6, 6, 1]	13	FR1	2	R1195E
2679.387	4.918	2698453	PROB	4.918	n/a	n/a	-999	25	[9, 9, 4]	22	FR1	2	R1195E
2684.305	4.746	2703371	PROB	4.746	n/a	n/a	-999	25	[1, 8, 6]	15	FR1	2	R1195E
2689.051	0.022	2708117	STOP	n/a	n/a	n/a	-999	25	[-999, -999, -999]	n/a	FR1	2	R1195E
2689.073	0.616	2708139	DISTRACT_END	n/a	n/a	n/a	-999	25	[0, 0, 0]	n/a	FR1	2	R1195E
2689.689	0.518	2708755	RETRIEVAL_ORIENT	n/a	n/a	n/a	-999	25	[0, 0, 0]	n/a	FR1	2	R1195E
2690.207	2.311	2709273	REC_START	n/a	n/a	n/a	-999	25	[0, 0, 0]	n/a	FR1	2	R1195E
2692.518	2.261	2711584	REC_WORD	2.261	n/a	SEED	2	25	[0, 0, 0]	n/a	FR1	2	R1195E
2694.779	3.832	2713845	REC_WORD	3.832	n/a	SHRIMP	4	25	[0, 0, 0]	n/a	FR1	2	R1195E
2698.611	4.795	2717677	REC_WORD	4.795	n/a	MOOSE	9	25	[0, 0, 0]	n/a	FR1	2	R1195E
2703.406	9.669	2722471	REC_WORD	9.669	n/a	FOOD	8	25	[0, 0, 0]	n/a	FR1	2	R1195E
2713.075	7.143	2732140	REC_WORD_VV	7.143	n/a	<>	-999	25	[0, 0, 0]	n/a	FR1	2	R1195E
2720.218	9.012	2739283	REC_END	n/a	n/a	n/a	-999	25	[0, 0, 0]	n/a	FR1	2	R1195E
2729.23	0.0	2748294	SESS_END	n/a	n/a	n/a	-999	25	[0, 0, 0]	n/a	FR1	2	R1195E
