onset	duration	sample	trial_type	response_time	stim_file	item_name	serialpos	list	test	answer	experiment	session	subject
0.0	201.375	164163	SESS_START	n/a	n/a	n/a	-999	-999	[0, 0, 0]	n/a	FR1	1	R1077T
201.375	10.428	365528	COUNTDOWN_START	n/a	n/a	n/a	-999	-999	[0, 0, 0]	n/a	FR1	1	R1077T
211.803	3.857	375955	COUNTDOWN_END	n/a	n/a	n/a	-999	-999	[0, 0, 0]	n/a	FR1	1	R1077T
215.66	2.585	379812	PRACTICE_WORD	n/a	n/a	RING	1	-1	[0, 0, 0]	n/a	FR1	1	R1077T
218.245	2.549	382397	PRACTICE_WORD	n/a	n/a	WAGON	2	-1	[0, 0, 0]	n/a	FR1	1	R1077T
220.794	2.417	384946	PRACTICE_WORD	n/a	n/a	FLOOD	3	-1	[0, 0, 0]	n/a	FR1	1	R1077T
223.211	2.601	387363	PRACTICE_WORD	n/a	n/a	IRON	4	-1	[0, 0, 0]	n/a	FR1	1	R1077T
225.812	2.601	389963	PRACTICE_WORD	n/a	n/a	CAMEL	5	-1	[0, 0, 0]	n/a	FR1	1	R1077T
228.413	2.533	392564	PRACTICE_WORD	n/a	n/a	RHINO	6	-1	[0, 0, 0]	n/a	FR1	1	R1077T
230.946	2.468	395097	PRACTICE_WORD	n/a	n/a	ATTIC	7	-1	[0, 0, 0]	n/a	FR1	1	R1077T
233.414	2.399	397565	PRACTICE_WORD	n/a	n/a	COTTON	8	-1	[0, 0, 0]	n/a	FR1	1	R1077T
235.813	2.502	399964	PRACTICE_WORD	n/a	n/a	BEAM	9	-1	[0, 0, 0]	n/a	FR1	1	R1077T
238.315	2.516	402466	PRACTICE_WORD	n/a	n/a	WATCH	10	-1	[0, 0, 0]	n/a	FR1	1	R1077T
240.831	2.568	404982	PRACTICE_WORD	n/a	n/a	TONGUE	11	-1	[0, 0, 0]	n/a	FR1	1	R1077T
243.399	1.616	407550	PRACTICE_WORD	n/a	n/a	CHEST	12	-1	[0, 0, 0]	n/a	FR1	1	R1077T
245.015	0.0	409165	PRACTICE_DISTRACT_START	n/a	n/a	n/a	-999	-1	[0, 0, 0]	n/a	FR1	1	R1077T
245.015	0.017	409165	START	n/a	n/a	n/a	-999	-1	[-999, -999, -999]	n/a	FR1	1	R1077T
245.032	4.717	409182	PROB	4.717	n/a	n/a	-999	-1	[2, 8, 6]	16	FR1	1	R1077T
249.749	2.467	413899	PROB	2.467	n/a	n/a	-999	-1	[3, 5, 5]	13	FR1	1	R1077T
252.216	2.484	416366	PROB	2.484	n/a	n/a	-999	-1	[1, 7, 7]	15	FR1	1	R1077T
254.7	2.467	418850	PROB	2.467	n/a	n/a	-999	-1	[8, 1, 5]	14	FR1	1	R1077T
257.167	3.252	421317	PROB	3.252	n/a	n/a	-999	-1	[5, 6, 6]	18	FR1	1	R1077T
260.419	4.001	424569	PROB	4.001	n/a	n/a	-999	-1	[3, 4, 7]	14	FR1	1	R1077T
264.42	2.436	428569	PROB	2.436	n/a	n/a	-999	-1	[9, 2, 1]	12	FR1	1	R1077T
266.856	0.013	431005	STOP	n/a	n/a	n/a	-999	-1	[-999, -999, -999]	n/a	FR1	1	R1077T
266.869	0.62	431018	PRACTICE_DISTRACT_END	n/a	n/a	n/a	-999	-1	[0, 0, 0]	n/a	FR1	1	R1077T
267.489	30.514	431638	PRACTICE_REC_START	n/a	n/a	n/a	-999	-1	[0, 0, 0]	n/a	FR1	1	R1077T
298.003	90.088	462151	PRACTICE_REC_END	n/a	n/a	n/a	-999	-1	[0, 0, 0]	n/a	FR1	1	R1077T
388.091	0.0	552234	TRIAL	n/a	n/a	n/a	-999	1	[0, 0, 0]	n/a	FR1	1	R1077T
388.091	10.428	552234	COUNTDOWN_START	n/a	n/a	n/a	-999	1	[0, 0, 0]	n/a	FR1	1	R1077T
398.519	0.008	562662	COUNTDOWN_END	n/a	n/a	n/a	-999	1	[0, 0, 0]	n/a	FR1	1	R1077T
398.527	2.6	562670	ORIENT	n/a	n/a	n/a	-999	1	[0, 0, 0]	n/a	FR1	1	R1077T
401.127	2.451	565270	WORD	n/a	wordpools/wordpool_EN.txt	SWAMP	1	1	[0, 0, 0]	n/a	FR1	1	R1077T
403.578	2.533	567721	WORD	n/a	wordpools/wordpool_EN.txt	TRASH	2	1	[0, 0, 0]	n/a	FR1	1	R1077T
406.111	2.517	570253	WORD	n/a	wordpools/wordpool_EN.txt	JAR	3	1	[0, 0, 0]	n/a	FR1	1	R1077T
408.628	2.434	572770	WORD	n/a	wordpools/wordpool_EN.txt	DITCH	4	1	[0, 0, 0]	n/a	FR1	1	R1077T
411.062	2.617	575204	WORD	n/a	wordpools/wordpool_EN.txt	ROSE	5	1	[0, 0, 0]	n/a	FR1	1	R1077T
413.679	2.534	577821	WORD	n/a	wordpools/wordpool_EN.txt	PIT	6	1	[0, 0, 0]	n/a	FR1	1	R1077T
416.213	2.533	580355	WORD	n/a	wordpools/wordpool_EN.txt	PARK	7	1	[0, 0, 0]	n/a	FR1	1	R1077T
418.746	2.368	582888	WORD	n/a	wordpools/wordpool_EN.txt	FLUTE	8	1	[0, 0, 0]	n/a	FR1	1	R1077T
421.114	2.6	585256	WORD	n/a	wordpools/wordpool_EN.txt	BREAD	9	1	[0, 0, 0]	n/a	FR1	1	R1077T
423.714	2.568	587856	WORD	n/a	wordpools/wordpool_EN.txt	PIE	10	1	[0, 0, 0]	n/a	FR1	1	R1077T
426.282	2.416	590423	WORD	n/a	wordpools/wordpool_EN.txt	CAKE	11	1	[0, 0, 0]	n/a	FR1	1	R1077T
428.698	1.601	592839	WORD	n/a	wordpools/wordpool_EN.txt	FENCE	12	1	[0, 0, 0]	n/a	FR1	1	R1077T
430.299	0.001	594440	DISTRACT_START	n/a	n/a	n/a	-999	1	[0, 0, 0]	n/a	FR1	1	R1077T
430.3	0.016	594441	START	n/a	n/a	n/a	-999	1	[-999, -999, -999]	n/a	FR1	1	R1077T
430.316	4.168	594457	PROB	4.168	n/a	n/a	-999	1	[5, 6, 8]	19	FR1	1	R1077T
434.484	2.182	598625	PROB	2.182	n/a	n/a	-999	1	[9, 2, 1]	12	FR1	1	R1077T
436.666	1.935	600807	PROB	1.935	n/a	n/a	-999	1	[1, 3, 3]	7	FR1	1	R1077T
438.601	2.416	602742	PROB	2.416	n/a	n/a	-999	1	[7, 7, 4]	18	FR1	1	R1077T
441.017	2.218	605158	PROB	2.218	n/a	n/a	-999	1	[1, 3, 2]	6	FR1	1	R1077T
443.235	2.267	607376	PROB	2.267	n/a	n/a	-999	1	[8, 7, 8]	22	FR1	1	R1077T
445.502	2.984	609642	PROB	2.984	n/a	n/a	-999	1	[1, 7, 5]	13	FR1	1	R1077T
448.486	2.988	612626	PROB	2.988	n/a	n/a	-999	1	[2, 6, 3]	9	FR1	1	R1077T
451.474	0.013	615614	STOP	n/a	n/a	n/a	-999	1	[-999, -999, -999]	n/a	FR1	1	R1077T
451.487	1.171	615627	DISTRACT_END	n/a	n/a	n/a	-999	1	[0, 0, 0]	n/a	FR1	1	R1077T
452.658	2.171	616798	REC_START	n/a	n/a	n/a	-999	1	[0, 0, 0]	n/a	FR1	1	R1077T
454.829	0.617	618969	REC_WORD	0.617	n/a	SWAMP	-999	1	[0, 0, 0]	n/a	FR1	1	R1077T
455.446	0.969	619586	REC_WORD	0.969	n/a	PARK	-999	1	[0, 0, 0]	n/a	FR1	1	R1077T
456.415	1.557	620555	REC_WORD	1.557	n/a	ROSE	-999	1	[0, 0, 0]	n/a	FR1	1	R1077T
457.972	0.988	622112	REC_WORD	0.988	n/a	DITCH	-999	1	[0, 0, 0]	n/a	FR1	1	R1077T
458.96	1.356	623100	REC_WORD	1.356	n/a	SHOVEL	-999	1	[0, 0, 0]	n/a	FR1	1	R1077T
460.316	0.28	624456	REC_WORD_VV	0.28	n/a	<>	-999	1	[0, 0, 0]	n/a	FR1	1	R1077T
460.596	1.17	624736	REC_WORD	1.17	n/a	DITCH	-999	1	[0, 0, 0]	n/a	FR1	1	R1077T
461.766	0.713	625906	REC_WORD_VV	0.713	n/a	<>	-999	1	[0, 0, 0]	n/a	FR1	1	R1077T
462.479	1.677	626619	REC_WORD	1.677	n/a	SHOVEL	-999	1	[0, 0, 0]	n/a	FR1	1	R1077T
464.156	1.818	628296	REC_WORD_VV	1.818	n/a	<>	-999	1	[0, 0, 0]	n/a	FR1	1	R1077T
465.974	0.968	630113	REC_WORD	0.968	n/a	PIE	-999	1	[0, 0, 0]	n/a	FR1	1	R1077T
466.942	0.634	631081	REC_WORD	0.634	n/a	BREAD	-999	1	[0, 0, 0]	n/a	FR1	1	R1077T
467.576	2.757	631715	REC_WORD	2.757	n/a	CAKE	-999	1	[0, 0, 0]	n/a	FR1	1	R1077T
470.333	1.37	634472	REC_WORD	1.37	n/a	RING	-999	1	[0, 0, 0]	n/a	FR1	1	R1077T
471.703	3.034	635842	REC_WORD_VV	3.034	n/a	<>	-999	1	[0, 0, 0]	n/a	FR1	1	R1077T
474.737	1.0	638876	REC_WORD_VV	1.0	n/a	<>	-999	1	[0, 0, 0]	n/a	FR1	1	R1077T
475.737	6.927	639876	REC_WORD_VV	6.927	n/a	<>	-999	1	[0, 0, 0]	n/a	FR1	1	R1077T
482.664	2.495	646803	REC_END	n/a	n/a	n/a	-999	1	[0, 0, 0]	n/a	FR1	1	R1077T
485.159	0.0	649297	TRIAL	n/a	n/a	n/a	-999	2	[0, 0, 0]	n/a	FR1	1	R1077T
485.159	10.428	649297	COUNTDOWN_START	n/a	n/a	n/a	-999	2	[0, 0, 0]	n/a	FR1	1	R1077T
495.587	0.008	659725	COUNTDOWN_END	n/a	n/a	n/a	-999	2	[0, 0, 0]	n/a	FR1	1	R1077T
495.595	2.549	659733	ORIENT	n/a	n/a	n/a	-999	2	[0, 0, 0]	n/a	FR1	1	R1077T
498.144	2.551	662282	WORD	n/a	wordpools/wordpool_EN.txt	NOSE	1	2	[0, 0, 0]	n/a	FR1	1	R1077T
500.695	2.618	664833	WORD	n/a	wordpools/wordpool_EN.txt	MAZE	2	2	[0, 0, 0]	n/a	FR1	1	R1077T
503.313	2.516	667451	WORD	n/a	wordpools/wordpool_EN.txt	BUSH	3	2	[0, 0, 0]	n/a	FR1	1	R1077T
505.829	2.585	669966	WORD	n/a	wordpools/wordpool_EN.txt	WEED	4	2	[0, 0, 0]	n/a	FR1	1	R1077T
508.414	2.533	672551	WORD	n/a	wordpools/wordpool_EN.txt	SWORD	5	2	[0, 0, 0]	n/a	FR1	1	R1077T
510.947	2.384	675084	WORD	n/a	wordpools/wordpool_EN.txt	SQUARE	6	2	[0, 0, 0]	n/a	FR1	1	R1077T
513.331	2.617	677468	WORD	n/a	wordpools/wordpool_EN.txt	LAND	7	2	[0, 0, 0]	n/a	FR1	1	R1077T
515.948	2.401	680085	WORD	n/a	wordpools/wordpool_EN.txt	HILL	8	2	[0, 0, 0]	n/a	FR1	1	R1077T
518.349	2.449	682486	WORD	n/a	wordpools/wordpool_EN.txt	CLIFF	9	2	[0, 0, 0]	n/a	FR1	1	R1077T
520.798	2.435	684935	WORD	n/a	wordpools/wordpool_EN.txt	BOY	10	2	[0, 0, 0]	n/a	FR1	1	R1077T
523.233	2.45	687370	WORD	n/a	wordpools/wordpool_EN.txt	LAKE	11	2	[0, 0, 0]	n/a	FR1	1	R1077T
525.683	1.617	689819	WORD	n/a	wordpools/wordpool_EN.txt	ROCK	12	2	[0, 0, 0]	n/a	FR1	1	R1077T
527.3	0.001	691436	DISTRACT_START	n/a	n/a	n/a	-999	2	[0, 0, 0]	n/a	FR1	1	R1077T
527.301	0.016	691437	START	n/a	n/a	n/a	-999	2	[-999, -999, -999]	n/a	FR1	1	R1077T
527.317	4.218	691453	PROB	4.218	n/a	n/a	-999	2	[6, 3, 5]	14	FR1	1	R1077T
531.535	4.934	695671	PROB	4.934	n/a	n/a	-999	2	[2, 6, 7]	16	FR1	1	R1077T
536.469	10.135	700605	PROB	10.135	n/a	n/a	-999	2	[7, 9, 6]	28	FR1	1	R1077T
546.604	1.854	710739	PROB	1.854	n/a	n/a	-999	2	[6, 4, 3]	13	FR1	1	R1077T
548.458	0.013	712593	STOP	n/a	n/a	n/a	-999	2	[-999, -999, -999]	n/a	FR1	1	R1077T
548.471	1.084	712606	DISTRACT_END	n/a	n/a	n/a	-999	2	[0, 0, 0]	n/a	FR1	1	R1077T
549.555	2.953	713690	REC_START	n/a	n/a	n/a	-999	2	[0, 0, 0]	n/a	FR1	1	R1077T
552.508	0.938	716643	REC_WORD_VV	0.938	n/a	<>	-999	2	[0, 0, 0]	n/a	FR1	1	R1077T
553.446	1.006	717581	REC_WORD	1.006	n/a	SQUARE	-999	2	[0, 0, 0]	n/a	FR1	1	R1077T
554.452	0.533	718587	REC_WORD	0.533	n/a	CLIFF	-999	2	[0, 0, 0]	n/a	FR1	1	R1077T
554.985	0.993	719120	REC_WORD	0.993	n/a	ROCK	-999	2	[0, 0, 0]	n/a	FR1	1	R1077T
555.978	1.145	720113	REC_WORD	1.145	n/a	LAKE	-999	2	[0, 0, 0]	n/a	FR1	1	R1077T
557.123	0.862	721258	REC_WORD	0.862	n/a	MAZE	-999	2	[0, 0, 0]	n/a	FR1	1	R1077T
557.985	0.946	722120	REC_WORD	0.946	n/a	WEED	-999	2	[0, 0, 0]	n/a	FR1	1	R1077T
558.931	3.85	723066	REC_WORD	3.85	n/a	BUSH	-999	2	[0, 0, 0]	n/a	FR1	1	R1077T
562.781	1.01	726916	REC_WORD	1.01	n/a	BOY	-999	2	[0, 0, 0]	n/a	FR1	1	R1077T
563.791	11.846	727926	REC_WORD	11.846	n/a	SWORD	-999	2	[0, 0, 0]	n/a	FR1	1	R1077T
575.637	2.394	739771	REC_WORD_VV	2.394	n/a	<>	-999	2	[0, 0, 0]	n/a	FR1	1	R1077T
578.031	0.378	742165	REC_WORD	0.378	n/a	CLIFF	-999	2	[0, 0, 0]	n/a	FR1	1	R1077T
578.409	0.381	742543	REC_WORD	0.381	n/a	MAZE	-999	2	[0, 0, 0]	n/a	FR1	1	R1077T
578.79	0.779	742924	REC_WORD	0.779	n/a	ROCK	-999	2	[0, 0, 0]	n/a	FR1	1	R1077T
579.569	2.641	743703	REC_END	n/a	n/a	n/a	-999	2	[0, 0, 0]	n/a	FR1	1	R1077T
582.21	0.0	746344	TRIAL	n/a	n/a	n/a	-999	3	[0, 0, 0]	n/a	FR1	1	R1077T
582.21	10.428	746344	COUNTDOWN_START	n/a	n/a	n/a	-999	3	[0, 0, 0]	n/a	FR1	1	R1077T
592.638	0.007	756771	COUNTDOWN_END	n/a	n/a	n/a	-999	3	[0, 0, 0]	n/a	FR1	1	R1077T
592.645	2.585	756778	ORIENT	n/a	n/a	n/a	-999	3	[0, 0, 0]	n/a	FR1	1	R1077T
595.23	2.482	759363	WORD	n/a	wordpools/wordpool_EN.txt	FLEA	1	3	[0, 0, 0]	n/a	FR1	1	R1077T
597.712	2.535	761845	WORD	n/a	wordpools/wordpool_EN.txt	SNAKE	2	3	[0, 0, 0]	n/a	FR1	1	R1077T
600.247	2.45	764380	WORD	n/a	wordpools/wordpool_EN.txt	HAWK	3	3	[0, 0, 0]	n/a	FR1	1	R1077T
602.697	2.433	766830	WORD	n/a	wordpools/wordpool_EN.txt	BEE	4	3	[0, 0, 0]	n/a	FR1	1	R1077T
605.13	2.618	769263	WORD	n/a	wordpools/wordpool_EN.txt	FORK	5	3	[0, 0, 0]	n/a	FR1	1	R1077T
607.748	2.618	771880	WORD	n/a	wordpools/wordpool_EN.txt	BRICK	6	3	[0, 0, 0]	n/a	FR1	1	R1077T
610.366	2.566	774498	WORD	n/a	wordpools/wordpool_EN.txt	SHELL	7	3	[0, 0, 0]	n/a	FR1	1	R1077T
612.932	2.535	777064	WORD	n/a	wordpools/wordpool_EN.txt	SPONGE	8	3	[0, 0, 0]	n/a	FR1	1	R1077T
615.467	2.449	779599	WORD	n/a	wordpools/wordpool_EN.txt	CLAY	9	3	[0, 0, 0]	n/a	FR1	1	R1077T
617.916	2.618	782048	WORD	n/a	wordpools/wordpool_EN.txt	STONE	10	3	[0, 0, 0]	n/a	FR1	1	R1077T
620.534	2.5	784666	WORD	n/a	wordpools/wordpool_EN.txt	CUBE	11	3	[0, 0, 0]	n/a	FR1	1	R1077T
623.034	1.617	787166	WORD	n/a	wordpools/wordpool_EN.txt	PEACH	12	3	[0, 0, 0]	n/a	FR1	1	R1077T
624.651	0.001	788783	DISTRACT_START	n/a	n/a	n/a	-999	3	[0, 0, 0]	n/a	FR1	1	R1077T
624.652	0.015	788784	START	n/a	n/a	n/a	-999	3	[-999, -999, -999]	n/a	FR1	1	R1077T
624.667	2.935	788799	PROB	2.935	n/a	n/a	-999	3	[3, 1, 8]	12	FR1	1	R1077T
627.602	5.383	791733	PROB	5.383	n/a	n/a	-999	3	[2, 4, 4]	10	FR1	1	R1077T
632.985	2.118	797116	PROB	2.118	n/a	n/a	-999	3	[8, 5, 5]	18	FR1	1	R1077T
635.103	2.268	799234	PROB	2.268	n/a	n/a	-999	3	[4, 1, 5]	10	FR1	1	R1077T
637.371	2.117	801502	PROB	2.117	n/a	n/a	-999	3	[5, 9, 5]	19	FR1	1	R1077T
639.488	3.166	803619	PROB	3.166	n/a	n/a	-999	3	[6, 6, 1]	13	FR1	1	R1077T
642.654	3.331	806785	PROB	3.331	n/a	n/a	-999	3	[7, 4, 6]	17	FR1	1	R1077T
645.985	0.019	810115	STOP	n/a	n/a	n/a	-999	3	[-999, -999, -999]	n/a	FR1	1	R1077T
646.004	1.035	810134	DISTRACT_END	n/a	n/a	n/a	-999	3	[0, 0, 0]	n/a	FR1	1	R1077T
647.039	0.61	811169	REC_START	n/a	n/a	n/a	-999	3	[0, 0, 0]	n/a	FR1	1	R1077T
647.649	2.324	811779	REC_WORD_VV	2.324	n/a	<>	-999	3	[0, 0, 0]	n/a	FR1	1	R1077T
649.973	1.785	814103	REC_WORD	1.785	n/a	PEACH	-999	3	[0, 0, 0]	n/a	FR1	1	R1077T
651.758	0.909	815888	REC_WORD	0.909	n/a	STONE	-999	3	[0, 0, 0]	n/a	FR1	1	R1077T
652.667	2.827	816797	REC_WORD_VV	2.827	n/a	<>	-999	3	[0, 0, 0]	n/a	FR1	1	R1077T
655.494	0.35	819624	REC_WORD_VV	0.35	n/a	<>	-999	3	[0, 0, 0]	n/a	FR1	1	R1077T
655.844	1.008	819974	REC_WORD	1.008	n/a	SHELL	-999	3	[0, 0, 0]	n/a	FR1	1	R1077T
656.852	0.579	820982	REC_WORD	0.579	n/a	BEE	-999	3	[0, 0, 0]	n/a	FR1	1	R1077T
657.431	0.091	821561	REC_WORD_VV	0.091	n/a	<>	-999	3	[0, 0, 0]	n/a	FR1	1	R1077T
657.522	0.989	821652	REC_WORD	0.989	n/a	SNAKE	-999	3	[0, 0, 0]	n/a	FR1	1	R1077T
658.511	1.529	822641	REC_WORD	1.529	n/a	FORK	-999	3	[0, 0, 0]	n/a	FR1	1	R1077T
660.04	0.083	824170	REC_WORD_VV	0.083	n/a	<>	-999	3	[0, 0, 0]	n/a	FR1	1	R1077T
660.123	3.195	824253	REC_WORD	3.195	n/a	FLEA	-999	3	[0, 0, 0]	n/a	FR1	1	R1077T
663.318	1.326	827448	REC_WORD_VV	1.326	n/a	<>	-999	3	[0, 0, 0]	n/a	FR1	1	R1077T
664.644	0.976	828774	REC_WORD	0.976	n/a	CLAY	-999	3	[0, 0, 0]	n/a	FR1	1	R1077T
665.62	3.088	829749	REC_WORD	3.088	n/a	BRICK	-999	3	[0, 0, 0]	n/a	FR1	1	R1077T
668.708	1.445	832837	REC_WORD	1.445	n/a	CUBE	-999	3	[0, 0, 0]	n/a	FR1	1	R1077T
670.153	1.934	834282	REC_WORD_VV	1.934	n/a	<>	-999	3	[0, 0, 0]	n/a	FR1	1	R1077T
672.087	4.962	836216	REC_WORD_VV	4.962	n/a	<>	-999	3	[0, 0, 0]	n/a	FR1	1	R1077T
677.049	3.429	841178	REC_END	n/a	n/a	n/a	-999	3	[0, 0, 0]	n/a	FR1	1	R1077T
680.478	0.001	844607	COUNTDOWN_START	n/a	n/a	n/a	-999	4	[0, 0, 0]	n/a	FR1	1	R1077T
680.479	10.427	844608	TRIAL	n/a	n/a	n/a	-999	4	[0, 0, 0]	n/a	FR1	1	R1077T
690.906	0.007	855034	COUNTDOWN_END	n/a	n/a	n/a	-999	4	[0, 0, 0]	n/a	FR1	1	R1077T
690.913	2.401	855041	ORIENT	n/a	n/a	n/a	-999	4	[0, 0, 0]	n/a	FR1	1	R1077T
693.314	2.399	857442	WORD	n/a	wordpools/wordpool_EN.txt	JET	1	4	[0, 0, 0]	n/a	FR1	1	R1077T
695.713	2.535	859841	WORD	n/a	wordpools/wordpool_EN.txt	PLANE	2	4	[0, 0, 0]	n/a	FR1	1	R1077T
698.248	2.6	862376	WORD	n/a	wordpools/wordpool_EN.txt	OAR	3	4	[0, 0, 0]	n/a	FR1	1	R1077T
700.848	2.401	864976	WORD	n/a	wordpools/wordpool_EN.txt	SHEET	4	4	[0, 0, 0]	n/a	FR1	1	R1077T
703.249	2.5	867377	WORD	n/a	wordpools/wordpool_EN.txt	TRAIN	5	4	[0, 0, 0]	n/a	FR1	1	R1077T
705.749	2.584	869877	WORD	n/a	wordpools/wordpool_EN.txt	PEARL	6	4	[0, 0, 0]	n/a	FR1	1	R1077T
708.333	2.583	872460	WORD	n/a	wordpools/wordpool_EN.txt	BANK	7	4	[0, 0, 0]	n/a	FR1	1	R1077T
710.916	2.552	875043	WORD	n/a	wordpools/wordpool_EN.txt	STEAM	8	4	[0, 0, 0]	n/a	FR1	1	R1077T
713.468	2.549	877595	WORD	n/a	wordpools/wordpool_EN.txt	STORE	9	4	[0, 0, 0]	n/a	FR1	1	R1077T
716.017	2.385	880144	WORD	n/a	wordpools/wordpool_EN.txt	MAIL	10	4	[0, 0, 0]	n/a	FR1	1	R1077T
718.402	2.549	882529	WORD	n/a	wordpools/wordpool_EN.txt	CASH	11	4	[0, 0, 0]	n/a	FR1	1	R1077T
720.951	1.601	885078	WORD	n/a	wordpools/wordpool_EN.txt	SCHOOL	12	4	[0, 0, 0]	n/a	FR1	1	R1077T
722.552	0.001	886679	DISTRACT_START	n/a	n/a	n/a	-999	4	[0, 0, 0]	n/a	FR1	1	R1077T
722.553	0.016	886680	START	n/a	n/a	n/a	-999	4	[-999, -999, -999]	n/a	FR1	1	R1077T
722.569	3.818	886696	PROB	3.818	n/a	n/a	-999	4	[4, 3, 8]	13	FR1	1	R1077T
726.387	4.45	890513	PROB	4.45	n/a	n/a	-999	4	[7, 1, 2]	9	FR1	1	R1077T
730.837	4.501	894963	PROB	4.501	n/a	n/a	-999	4	[8, 5, 6]	19	FR1	1	R1077T
735.338	2.466	899464	PROB	2.466	n/a	n/a	-999	4	[1, 6, 9]	16	FR1	1	R1077T
737.804	2.818	901930	PROB	2.818	n/a	n/a	-999	4	[6, 6, 6]	18	FR1	1	R1077T
740.622	3.051	904748	PROB	3.051	n/a	n/a	-999	4	[3, 7, 6]	16	FR1	1	R1077T
743.673	0.016	907799	STOP	n/a	n/a	n/a	-999	4	[-999, -999, -999]	n/a	FR1	1	R1077T
743.689	1.101	907815	DISTRACT_END	n/a	n/a	n/a	-999	4	[0, 0, 0]	n/a	FR1	1	R1077T
744.79	1.95	908916	REC_START	n/a	n/a	n/a	-999	4	[0, 0, 0]	n/a	FR1	1	R1077T
746.74	0.803	910865	REC_WORD	0.803	n/a	OAR	-999	4	[0, 0, 0]	n/a	FR1	1	R1077T
747.543	1.312	911668	REC_WORD	1.312	n/a	STEAM	-999	4	[0, 0, 0]	n/a	FR1	1	R1077T
748.855	1.358	912980	REC_WORD	1.358	n/a	TRAIN	-999	4	[0, 0, 0]	n/a	FR1	1	R1077T
750.213	2.562	914338	REC_WORD	2.562	n/a	SHEET	-999	4	[0, 0, 0]	n/a	FR1	1	R1077T
752.775	3.109	916900	REC_WORD_VV	3.109	n/a	<>	-999	4	[0, 0, 0]	n/a	FR1	1	R1077T
755.884	0.439	920009	REC_WORD	0.439	n/a	STEAM	-999	4	[0, 0, 0]	n/a	FR1	1	R1077T
756.323	0.631	920448	REC_WORD	0.631	n/a	TRAIN	-999	4	[0, 0, 0]	n/a	FR1	1	R1077T
756.954	0.929	921079	REC_WORD_VV	0.929	n/a	<>	-999	4	[0, 0, 0]	n/a	FR1	1	R1077T
757.883	0.673	922008	REC_WORD	0.673	n/a	SHEET	-999	4	[0, 0, 0]	n/a	FR1	1	R1077T
758.556	0.739	922681	REC_WORD_VV	0.739	n/a	<>	-999	4	[0, 0, 0]	n/a	FR1	1	R1077T
759.295	2.047	923420	REC_WORD	2.047	n/a	PEARL	-999	4	[0, 0, 0]	n/a	FR1	1	R1077T
761.342	3.918	925467	REC_WORD_VV	3.918	n/a	<>	-999	4	[0, 0, 0]	n/a	FR1	1	R1077T
765.26	1.631	929385	REC_WORD_VV	1.631	n/a	<>	-999	4	[0, 0, 0]	n/a	FR1	1	R1077T
766.891	4.476	931015	REC_WORD_VV	4.476	n/a	<>	-999	4	[0, 0, 0]	n/a	FR1	1	R1077T
771.367	3.433	935491	REC_WORD_VV	3.433	n/a	<>	-999	4	[0, 0, 0]	n/a	FR1	1	R1077T
774.8	5.53	938924	REC_END	n/a	n/a	n/a	-999	4	[0, 0, 0]	n/a	FR1	1	R1077T
780.33	0.0	944454	COUNTDOWN_START	n/a	n/a	n/a	-999	5	[0, 0, 0]	n/a	FR1	1	R1077T
780.33	10.428	944454	TRIAL	n/a	n/a	n/a	-999	5	[0, 0, 0]	n/a	FR1	1	R1077T
790.758	0.006	954881	COUNTDOWN_END	n/a	n/a	n/a	-999	5	[0, 0, 0]	n/a	FR1	1	R1077T
790.764	2.384	954887	ORIENT	n/a	n/a	n/a	-999	5	[0, 0, 0]	n/a	FR1	1	R1077T
793.148	2.451	957271	WORD	n/a	wordpools/wordpool_EN.txt	VEST	1	5	[0, 0, 0]	n/a	FR1	1	R1077T
795.599	2.45	959722	WORD	n/a	wordpools/wordpool_EN.txt	CANE	2	5	[0, 0, 0]	n/a	FR1	1	R1077T
798.049	2.468	962172	WORD	n/a	wordpools/wordpool_EN.txt	DRESS	3	5	[0, 0, 0]	n/a	FR1	1	R1077T
800.517	2.499	964640	WORD	n/a	wordpools/wordpool_EN.txt	BLUSH	4	5	[0, 0, 0]	n/a	FR1	1	R1077T
803.016	2.435	967139	WORD	n/a	wordpools/wordpool_EN.txt	BLOOM	5	5	[0, 0, 0]	n/a	FR1	1	R1077T
805.451	2.549	969574	WORD	n/a	wordpools/wordpool_EN.txt	LIP	6	5	[0, 0, 0]	n/a	FR1	1	R1077T
808.0	2.469	972122	WORD	n/a	wordpools/wordpool_EN.txt	AXE	7	5	[0, 0, 0]	n/a	FR1	1	R1077T
810.469	2.599	974591	WORD	n/a	wordpools/wordpool_EN.txt	TIE	8	5	[0, 0, 0]	n/a	FR1	1	R1077T
813.068	2.584	977190	WORD	n/a	wordpools/wordpool_EN.txt	SOCK	9	5	[0, 0, 0]	n/a	FR1	1	R1077T
815.652	2.5	979774	WORD	n/a	wordpools/wordpool_EN.txt	POND	10	5	[0, 0, 0]	n/a	FR1	1	R1077T
818.152	2.517	982274	WORD	n/a	wordpools/wordpool_EN.txt	HAND	11	5	[0, 0, 0]	n/a	FR1	1	R1077T
820.669	1.602	984791	WORD	n/a	wordpools/wordpool_EN.txt	VASE	12	5	[0, 0, 0]	n/a	FR1	1	R1077T
822.271	0.0	986393	DISTRACT_START	n/a	n/a	n/a	-999	5	[0, 0, 0]	n/a	FR1	1	R1077T
822.271	0.016	986393	START	n/a	n/a	n/a	-999	5	[-999, -999, -999]	n/a	FR1	1	R1077T
822.287	4.135	986409	PROB	4.135	n/a	n/a	-999	5	[5, 1, 6]	11	FR1	1	R1077T
826.422	19.156	990543	PROB	19.156	n/a	n/a	-999	5	[7, 8, 5]	19	FR1	1	R1077T
845.578	0.014	1009699	STOP	n/a	n/a	n/a	-999	5	[-999, -999, -999]	n/a	FR1	1	R1077T
845.592	1.099	1009713	DISTRACT_END	n/a	n/a	n/a	-999	5	[0, 0, 0]	n/a	FR1	1	R1077T
846.691	2.284	1010811	REC_START	n/a	n/a	n/a	-999	5	[0, 0, 0]	n/a	FR1	1	R1077T
848.975	0.608	1013095	REC_WORD_VV	0.608	n/a	<>	-999	5	[0, 0, 0]	n/a	FR1	1	R1077T
849.583	0.893	1013703	REC_WORD	0.893	n/a	VEST	-999	5	[0, 0, 0]	n/a	FR1	1	R1077T
850.476	1.917	1014596	REC_WORD	1.917	n/a	TIE	-999	5	[0, 0, 0]	n/a	FR1	1	R1077T
852.393	0.698	1016513	REC_WORD	0.698	n/a	DRESS	-999	5	[0, 0, 0]	n/a	FR1	1	R1077T
853.091	0.915	1017211	REC_WORD	0.915	n/a	BLOOM	-999	5	[0, 0, 0]	n/a	FR1	1	R1077T
854.006	0.526	1018126	REC_WORD	0.526	n/a	LIP	-999	5	[0, 0, 0]	n/a	FR1	1	R1077T
854.532	5.0	1018652	REC_WORD	5.0	n/a	BLUSH	-999	5	[0, 0, 0]	n/a	FR1	1	R1077T
859.532	5.304	1023652	REC_WORD_VV	5.304	n/a	<>	-999	5	[0, 0, 0]	n/a	FR1	1	R1077T
864.836	3.695	1028956	REC_WORD_VV	3.695	n/a	<>	-999	5	[0, 0, 0]	n/a	FR1	1	R1077T
868.531	0.44	1032650	REC_WORD_VV	0.44	n/a	<>	-999	5	[0, 0, 0]	n/a	FR1	1	R1077T
868.971	1.258	1033090	REC_WORD	1.258	n/a	VEST	-999	5	[0, 0, 0]	n/a	FR1	1	R1077T
870.229	1.639	1034348	REC_WORD	1.639	n/a	TIE	-999	5	[0, 0, 0]	n/a	FR1	1	R1077T
871.868	3.866	1035987	REC_WORD	3.866	n/a	DRESS	-999	5	[0, 0, 0]	n/a	FR1	1	R1077T
875.734	0.971	1039853	REC_WORD	0.971	n/a	BLUSH	-999	5	[0, 0, 0]	n/a	FR1	1	R1077T
876.705	2.125	1040824	REC_END	n/a	n/a	n/a	-999	5	[0, 0, 0]	n/a	FR1	1	R1077T
878.83	0.0	1042949	TRIAL	n/a	n/a	n/a	-999	6	[0, 0, 0]	n/a	FR1	1	R1077T
878.83	10.428	1042949	COUNTDOWN_START	n/a	n/a	n/a	-999	6	[0, 0, 0]	n/a	FR1	1	R1077T
889.258	0.008	1053376	COUNTDOWN_END	n/a	n/a	n/a	-999	6	[0, 0, 0]	n/a	FR1	1	R1077T
889.266	2.533	1053384	ORIENT	n/a	n/a	n/a	-999	6	[0, 0, 0]	n/a	FR1	1	R1077T
891.799	2.468	1055917	WORD	n/a	wordpools/wordpool_EN.txt	RAKE	1	6	[0, 0, 0]	n/a	FR1	1	R1077T
894.267	2.516	1058385	WORD	n/a	wordpools/wordpool_EN.txt	EAR	2	6	[0, 0, 0]	n/a	FR1	1	R1077T
896.783	2.401	1060901	WORD	n/a	wordpools/wordpool_EN.txt	HOLE	3	6	[0, 0, 0]	n/a	FR1	1	R1077T
899.184	2.534	1063302	WORD	n/a	wordpools/wordpool_EN.txt	LEG	4	6	[0, 0, 0]	n/a	FR1	1	R1077T
901.718	2.467	1065836	WORD	n/a	wordpools/wordpool_EN.txt	CORD	5	6	[0, 0, 0]	n/a	FR1	1	R1077T
904.185	2.45	1068303	WORD	n/a	wordpools/wordpool_EN.txt	YARD	6	6	[0, 0, 0]	n/a	FR1	1	R1077T
906.635	2.534	1070752	WORD	n/a	wordpools/wordpool_EN.txt	COUCH	7	6	[0, 0, 0]	n/a	FR1	1	R1077T
909.169	2.617	1073286	WORD	n/a	wordpools/wordpool_EN.txt	ROPE	8	6	[0, 0, 0]	n/a	FR1	1	R1077T
911.786	2.502	1075903	WORD	n/a	wordpools/wordpool_EN.txt	TAIL	9	6	[0, 0, 0]	n/a	FR1	1	R1077T
914.288	2.449	1078405	WORD	n/a	wordpools/wordpool_EN.txt	LAWN	10	6	[0, 0, 0]	n/a	FR1	1	R1077T
916.737	2.501	1080854	WORD	n/a	wordpools/wordpool_EN.txt	BAND	11	6	[0, 0, 0]	n/a	FR1	1	R1077T
919.238	1.616	1083355	WORD	n/a	wordpools/wordpool_EN.txt	DART	12	6	[0, 0, 0]	n/a	FR1	1	R1077T
920.854	0.001	1084971	DISTRACT_START	n/a	n/a	n/a	-999	6	[0, 0, 0]	n/a	FR1	1	R1077T
920.855	0.016	1084972	START	n/a	n/a	n/a	-999	6	[-999, -999, -999]	n/a	FR1	1	R1077T
920.871	4.051	1084988	PROB	4.051	n/a	n/a	-999	6	[5, 8, 5]	18	FR1	1	R1077T
924.922	5.917	1089039	PROB	5.917	n/a	n/a	-999	6	[7, 5, 9]	23	FR1	1	R1077T
930.839	3.452	1094955	PROB	3.452	n/a	n/a	-999	6	[3, 1, 2]	6	FR1	1	R1077T
934.291	2.916	1098407	PROB	2.916	n/a	n/a	-999	6	[3, 3, 2]	8	FR1	1	R1077T
937.207	3.713	1101323	PROB	3.713	n/a	n/a	-999	6	[8, 1, 9]	18	FR1	1	R1077T
940.92	0.004	1105036	STOP	n/a	n/a	n/a	-999	6	[-999, -999, -999]	n/a	FR1	1	R1077T
940.924	1.152	1105040	DISTRACT_END	n/a	n/a	n/a	-999	6	[0, 0, 0]	n/a	FR1	1	R1077T
942.076	2.833	1106192	REC_START	n/a	n/a	n/a	-999	6	[0, 0, 0]	n/a	FR1	1	R1077T
944.909	2.08	1109025	REC_WORD	2.08	n/a	RAKE	-999	6	[0, 0, 0]	n/a	FR1	1	R1077T
946.989	5.224	1111104	REC_WORD	5.224	n/a	DART	-999	6	[0, 0, 0]	n/a	FR1	1	R1077T
952.213	4.75	1116328	REC_WORD_VV	4.75	n/a	<>	-999	6	[0, 0, 0]	n/a	FR1	1	R1077T
956.963	4.041	1121078	REC_WORD_VV	4.041	n/a	<>	-999	6	[0, 0, 0]	n/a	FR1	1	R1077T
961.004	1.834	1125119	REC_WORD_VV	1.834	n/a	<>	-999	6	[0, 0, 0]	n/a	FR1	1	R1077T
962.838	9.249	1126953	REC_WORD_VV	9.249	n/a	<>	-999	6	[0, 0, 0]	n/a	FR1	1	R1077T
972.087	5.078	1136201	REC_END	n/a	n/a	n/a	-999	6	[0, 0, 0]	n/a	FR1	1	R1077T
977.165	0.0	1141279	COUNTDOWN_START	n/a	n/a	n/a	-999	7	[0, 0, 0]	n/a	FR1	1	R1077T
977.165	10.428	1141279	TRIAL	n/a	n/a	n/a	-999	7	[0, 0, 0]	n/a	FR1	1	R1077T
987.593	0.008	1151706	COUNTDOWN_END	n/a	n/a	n/a	-999	7	[0, 0, 0]	n/a	FR1	1	R1077T
987.601	2.416	1151714	ORIENT	n/a	n/a	n/a	-999	7	[0, 0, 0]	n/a	FR1	1	R1077T
990.017	2.485	1154130	WORD	n/a	wordpools/wordpool_EN.txt	TENT	1	7	[0, 0, 0]	n/a	FR1	1	R1077T
992.502	2.516	1156615	WORD	n/a	wordpools/wordpool_EN.txt	SEA	2	7	[0, 0, 0]	n/a	FR1	1	R1077T
995.018	2.485	1159131	WORD	n/a	wordpools/wordpool_EN.txt	TOY	3	7	[0, 0, 0]	n/a	FR1	1	R1077T
997.503	2.549	1161616	WORD	n/a	wordpools/wordpool_EN.txt	HORN	4	7	[0, 0, 0]	n/a	FR1	1	R1077T
1000.052	2.402	1164165	WORD	n/a	wordpools/wordpool_EN.txt	OAK	5	7	[0, 0, 0]	n/a	FR1	1	R1077T
1002.454	2.432	1166567	WORD	n/a	wordpools/wordpool_EN.txt	BEACH	6	7	[0, 0, 0]	n/a	FR1	1	R1077T
1004.886	2.368	1168999	WORD	n/a	wordpools/wordpool_EN.txt	ROOF	7	7	[0, 0, 0]	n/a	FR1	1	R1077T
1007.254	2.45	1171366	WORD	n/a	wordpools/wordpool_EN.txt	WAVE	8	7	[0, 0, 0]	n/a	FR1	1	R1077T
1009.704	2.45	1173816	WORD	n/a	wordpools/wordpool_EN.txt	BOAT	9	7	[0, 0, 0]	n/a	FR1	1	R1077T
1012.154	2.601	1176266	WORD	n/a	wordpools/wordpool_EN.txt	CAVE	10	7	[0, 0, 0]	n/a	FR1	1	R1077T
1014.755	2.501	1178867	WORD	n/a	wordpools/wordpool_EN.txt	SKY	11	7	[0, 0, 0]	n/a	FR1	1	R1077T
1017.256	1.616	1181368	WORD	n/a	wordpools/wordpool_EN.txt	BRUSH	12	7	[0, 0, 0]	n/a	FR1	1	R1077T
1018.872	0.001	1182984	DISTRACT_START	n/a	n/a	n/a	-999	7	[0, 0, 0]	n/a	FR1	1	R1077T
1018.873	0.016	1182985	START	n/a	n/a	n/a	-999	7	[-999, -999, -999]	n/a	FR1	1	R1077T
1018.889	5.201	1183001	PROB	5.201	n/a	n/a	-999	7	[6, 4, 5]	15	FR1	1	R1077T
1024.09	3.285	1188202	PROB	3.285	n/a	n/a	-999	7	[4, 6, 7]	17	FR1	1	R1077T
1027.375	7.101	1191486	PROB	7.101	n/a	n/a	-999	7	[8, 7, 6]	22	FR1	1	R1077T
1034.476	3.034	1198587	PROB	3.034	n/a	n/a	-999	7	[2, 1, 5]	8	FR1	1	R1077T
1037.51	4.651	1201621	PROB	4.651	n/a	n/a	-999	7	[6, 3, 9]	18	FR1	1	R1077T
1042.161	0.015	1206272	STOP	n/a	n/a	n/a	-999	7	[-999, -999, -999]	n/a	FR1	1	R1077T
1042.176	1.035	1206287	DISTRACT_END	n/a	n/a	n/a	-999	7	[0, 0, 0]	n/a	FR1	1	R1077T
1043.211	3.57	1207322	REC_START	n/a	n/a	n/a	-999	7	[0, 0, 0]	n/a	FR1	1	R1077T
1046.781	3.743	1210892	REC_WORD	3.743	n/a	TENT	-999	7	[0, 0, 0]	n/a	FR1	1	R1077T
1050.524	3.949	1214634	REC_WORD	3.949	n/a	OAR	-999	7	[0, 0, 0]	n/a	FR1	1	R1077T
1054.473	0.51	1218583	REC_WORD_VV	0.51	n/a	<>	-999	7	[0, 0, 0]	n/a	FR1	1	R1077T
1054.983	2.345	1219093	REC_WORD	2.345	n/a	RAKE	-999	7	[0, 0, 0]	n/a	FR1	1	R1077T
1057.328	1.77	1221438	REC_WORD_VV	1.77	n/a	<>	-999	7	[0, 0, 0]	n/a	FR1	1	R1077T
1059.098	0.687	1223208	REC_WORD_VV	0.687	n/a	<>	-999	7	[0, 0, 0]	n/a	FR1	1	R1077T
1059.785	3.655	1223895	REC_WORD	3.655	n/a	TOY	-999	7	[0, 0, 0]	n/a	FR1	1	R1077T
1063.44	4.927	1227550	REC_WORD_VV	4.927	n/a	<>	-999	7	[0, 0, 0]	n/a	FR1	1	R1077T
1068.367	4.854	1232476	REC_WORD_VV	4.854	n/a	<>	-999	7	[0, 0, 0]	n/a	FR1	1	R1077T
1073.221	5.812	1237330	REC_END	n/a	n/a	n/a	-999	7	[0, 0, 0]	n/a	FR1	1	R1077T
1079.033	0.0	1243142	TRIAL	n/a	n/a	n/a	-999	8	[0, 0, 0]	n/a	FR1	1	R1077T
1079.033	10.428	1243142	COUNTDOWN_START	n/a	n/a	n/a	-999	8	[0, 0, 0]	n/a	FR1	1	R1077T
1089.461	0.008	1253569	COUNTDOWN_END	n/a	n/a	n/a	-999	8	[0, 0, 0]	n/a	FR1	1	R1077T
1089.469	2.45	1253577	ORIENT	n/a	n/a	n/a	-999	8	[0, 0, 0]	n/a	FR1	1	R1077T
1091.919	2.601	1256027	WORD	n/a	wordpools/wordpool_EN.txt	WOLF	1	8	[0, 0, 0]	n/a	FR1	1	R1077T
1094.52	2.5	1258628	WORD	n/a	wordpools/wordpool_EN.txt	SPOON	2	8	[0, 0, 0]	n/a	FR1	1	R1077T
1097.02	2.385	1261128	WORD	n/a	wordpools/wordpool_EN.txt	FOOD	3	8	[0, 0, 0]	n/a	FR1	1	R1077T
1099.405	2.416	1263513	WORD	n/a	wordpools/wordpool_EN.txt	KITE	4	8	[0, 0, 0]	n/a	FR1	1	R1077T
1101.821	2.484	1265929	WORD	n/a	wordpools/wordpool_EN.txt	PIG	5	8	[0, 0, 0]	n/a	FR1	1	R1077T
1104.305	2.483	1268413	WORD	n/a	wordpools/wordpool_EN.txt	WOOD	6	8	[0, 0, 0]	n/a	FR1	1	R1077T
1106.788	2.535	1270896	WORD	n/a	wordpools/wordpool_EN.txt	PET	7	8	[0, 0, 0]	n/a	FR1	1	R1077T
1109.323	2.416	1273430	WORD	n/a	wordpools/wordpool_EN.txt	BRANCH	8	8	[0, 0, 0]	n/a	FR1	1	R1077T
1111.739	2.518	1275846	WORD	n/a	wordpools/wordpool_EN.txt	BEAR	9	8	[0, 0, 0]	n/a	FR1	1	R1077T
1114.257	2.566	1278364	WORD	n/a	wordpools/wordpool_EN.txt	FRUIT	10	8	[0, 0, 0]	n/a	FR1	1	R1077T
1116.823	2.568	1280930	WORD	n/a	wordpools/wordpool_EN.txt	TREE	11	8	[0, 0, 0]	n/a	FR1	1	R1077T
1119.391	1.616	1283498	WORD	n/a	wordpools/wordpool_EN.txt	CHIEF	12	8	[0, 0, 0]	n/a	FR1	1	R1077T
1121.007	0.001	1285114	DISTRACT_START	n/a	n/a	n/a	-999	8	[0, 0, 0]	n/a	FR1	1	R1077T
1121.008	0.016	1285115	START	n/a	n/a	n/a	-999	8	[-999, -999, -999]	n/a	FR1	1	R1077T
1121.024	2.934	1285131	PROB	2.934	n/a	n/a	-999	8	[3, 8, 1]	11	FR1	1	R1077T
1123.958	5.718	1288065	PROB	5.718	n/a	n/a	-999	8	[6, 8, 6]	20	FR1	1	R1077T
1129.676	6.735	1293782	PROB	6.735	n/a	n/a	-999	8	[4, 1, 7]	12	FR1	1	R1077T
1136.411	3.333	1300517	PROB	3.333	n/a	n/a	-999	8	[2, 5, 7]	14	FR1	1	R1077T
1139.744	3.553	1303850	PROB	3.553	n/a	n/a	-999	8	[7, 5, 7]	19	FR1	1	R1077T
1143.297	0.015	1307403	STOP	n/a	n/a	n/a	-999	8	[-999, -999, -999]	n/a	FR1	1	R1077T
1143.312	1.202	1307418	DISTRACT_END	n/a	n/a	n/a	-999	8	[0, 0, 0]	n/a	FR1	1	R1077T
1144.514	1.792	1308620	REC_START	n/a	n/a	n/a	-999	8	[0, 0, 0]	n/a	FR1	1	R1077T
1146.306	0.963	1310412	REC_WORD	0.963	n/a	WOLF	-999	8	[0, 0, 0]	n/a	FR1	1	R1077T
1147.269	0.561	1311375	REC_WORD	0.561	n/a	BEAR	-999	8	[0, 0, 0]	n/a	FR1	1	R1077T
1147.83	0.771	1311935	REC_WORD	0.771	n/a	PIG	-999	8	[0, 0, 0]	n/a	FR1	1	R1077T
1148.601	2.668	1312706	REC_WORD	2.668	n/a	PET	-999	8	[0, 0, 0]	n/a	FR1	1	R1077T
1151.269	1.64	1315374	REC_WORD	1.64	n/a	TREE	-999	8	[0, 0, 0]	n/a	FR1	1	R1077T
1152.909	2.425	1317014	REC_WORD	2.425	n/a	CHIEF	-999	8	[0, 0, 0]	n/a	FR1	1	R1077T
1155.334	6.239	1319439	REC_WORD	6.239	n/a	WOOD	-999	8	[0, 0, 0]	n/a	FR1	1	R1077T
1161.573	6.527	1325678	REC_WORD_VV	6.527	n/a	<>	-999	8	[0, 0, 0]	n/a	FR1	1	R1077T
1168.1	2.647	1332204	REC_WORD	2.647	n/a	SPOON	-999	8	[0, 0, 0]	n/a	FR1	1	R1077T
1170.747	0.454	1334851	REC_WORD_VV	0.454	n/a	<>	-999	8	[0, 0, 0]	n/a	FR1	1	R1077T
1171.201	3.323	1335305	REC_WORD	3.323	n/a	SPOON	-999	8	[0, 0, 0]	n/a	FR1	1	R1077T
1174.524	10.212	1338628	REC_END	n/a	n/a	n/a	-999	8	[0, 0, 0]	n/a	FR1	1	R1077T
1184.736	0.0	1348840	COUNTDOWN_START	n/a	n/a	n/a	-999	9	[0, 0, 0]	n/a	FR1	1	R1077T
1184.736	10.428	1348840	TRIAL	n/a	n/a	n/a	-999	9	[0, 0, 0]	n/a	FR1	1	R1077T
1195.164	0.007	1359267	COUNTDOWN_END	n/a	n/a	n/a	-999	9	[0, 0, 0]	n/a	FR1	1	R1077T
1195.171	2.517	1359274	ORIENT	n/a	n/a	n/a	-999	9	[0, 0, 0]	n/a	FR1	1	R1077T
1197.688	2.384	1361791	WORD	n/a	wordpools/wordpool_EN.txt	GOLD	1	9	[0, 0, 0]	n/a	FR1	1	R1077T
1200.072	2.534	1364175	WORD	n/a	wordpools/wordpool_EN.txt	SHEEP	2	9	[0, 0, 0]	n/a	FR1	1	R1077T
1202.606	2.417	1366709	WORD	n/a	wordpools/wordpool_EN.txt	CAPE	3	9	[0, 0, 0]	n/a	FR1	1	R1077T
1205.023	2.435	1369126	WORD	n/a	wordpools/wordpool_EN.txt	MOOSE	4	9	[0, 0, 0]	n/a	FR1	1	R1077T
1207.458	2.449	1371561	WORD	n/a	wordpools/wordpool_EN.txt	TOOTH	5	9	[0, 0, 0]	n/a	FR1	1	R1077T
1209.907	2.368	1374009	WORD	n/a	wordpools/wordpool_EN.txt	TEETH	6	9	[0, 0, 0]	n/a	FR1	1	R1077T
1212.275	2.483	1376377	WORD	n/a	wordpools/wordpool_EN.txt	SAIL	7	9	[0, 0, 0]	n/a	FR1	1	R1077T
1214.758	2.45	1378860	WORD	n/a	wordpools/wordpool_EN.txt	FOX	8	9	[0, 0, 0]	n/a	FR1	1	R1077T
1217.208	2.534	1381310	WORD	n/a	wordpools/wordpool_EN.txt	LEAF	9	9	[0, 0, 0]	n/a	FR1	1	R1077T
1219.742	2.602	1383844	WORD	n/a	wordpools/wordpool_EN.txt	ANT	10	9	[0, 0, 0]	n/a	FR1	1	R1077T
1222.344	2.516	1386446	WORD	n/a	wordpools/wordpool_EN.txt	STEM	11	9	[0, 0, 0]	n/a	FR1	1	R1077T
1224.86	1.618	1388962	WORD	n/a	wordpools/wordpool_EN.txt	MOUSE	12	9	[0, 0, 0]	n/a	FR1	1	R1077T
1226.478	0.001	1390580	DISTRACT_START	n/a	n/a	n/a	-999	9	[0, 0, 0]	n/a	FR1	1	R1077T
1226.479	0.015	1390581	START	n/a	n/a	n/a	-999	9	[-999, -999, -999]	n/a	FR1	1	R1077T
1226.494	4.267	1390596	PROB	4.267	n/a	n/a	-999	9	[6, 9, 2]	17	FR1	1	R1077T
1230.761	3.3	1394862	PROB	3.3	n/a	n/a	-999	9	[8, 4, 4]	16	FR1	1	R1077T
1234.061	3.419	1398162	PROB	3.419	n/a	n/a	-999	9	[8, 7, 4]	19	FR1	1	R1077T
1237.48	3.149	1401581	PROB	3.149	n/a	n/a	-999	9	[5, 2, 6]	13	FR1	1	R1077T
1240.629	3.869	1404730	PROB	3.869	n/a	n/a	-999	9	[6, 6, 5]	18	FR1	1	R1077T
1244.498	2.167	1408599	PROB	2.167	n/a	n/a	-999	9	[3, 6, 4]	13	FR1	1	R1077T
1246.665	0.015	1410766	STOP	n/a	n/a	n/a	-999	9	[-999, -999, -999]	n/a	FR1	1	R1077T
1246.68	1.051	1410781	DISTRACT_END	n/a	n/a	n/a	-999	9	[0, 0, 0]	n/a	FR1	1	R1077T
1247.731	2.757	1411832	REC_START	n/a	n/a	n/a	-999	9	[0, 0, 0]	n/a	FR1	1	R1077T
1250.488	1.055	1414588	REC_WORD	1.055	n/a	MOOSE	-999	9	[0, 0, 0]	n/a	FR1	1	R1077T
1251.543	1.07	1415643	REC_WORD	1.07	n/a	MICE	-999	9	[0, 0, 0]	n/a	FR1	1	R1077T
1252.613	2.524	1416713	REC_WORD	2.524	n/a	ANT	-999	9	[0, 0, 0]	n/a	FR1	1	R1077T
1255.137	5.041	1419237	REC_WORD	5.041	n/a	LEAF	-999	9	[0, 0, 0]	n/a	FR1	1	R1077T
1260.178	1.455	1424278	REC_WORD_VV	1.455	n/a	<>	-999	9	[0, 0, 0]	n/a	FR1	1	R1077T
1261.633	0.754	1425733	REC_WORD	0.754	n/a	GOLD	-999	9	[0, 0, 0]	n/a	FR1	1	R1077T
1262.387	3.958	1426487	REC_WORD	3.958	n/a	SHEEP	-999	9	[0, 0, 0]	n/a	FR1	1	R1077T
1266.345	0.752	1430445	REC_WORD_VV	0.752	n/a	<>	-999	9	[0, 0, 0]	n/a	FR1	1	R1077T
1267.097	0.484	1431197	REC_WORD	0.484	n/a	TOOTH	-999	9	[0, 0, 0]	n/a	FR1	1	R1077T
1267.581	10.16	1431681	REC_WORD	10.16	n/a	TEETH	-999	9	[0, 0, 0]	n/a	FR1	1	R1077T
1277.741	2.479	1441840	REC_END	n/a	n/a	n/a	-999	9	[0, 0, 0]	n/a	FR1	1	R1077T
1280.22	0.0	1444319	COUNTDOWN_START	n/a	n/a	n/a	-999	10	[0, 0, 0]	n/a	FR1	1	R1077T
1280.22	10.428	1444319	TRIAL	n/a	n/a	n/a	-999	10	[0, 0, 0]	n/a	FR1	1	R1077T
1290.648	0.007	1454746	COUNTDOWN_END	n/a	n/a	n/a	-999	10	[0, 0, 0]	n/a	FR1	1	R1077T
1290.655	2.384	1454753	ORIENT	n/a	n/a	n/a	-999	10	[0, 0, 0]	n/a	FR1	1	R1077T
1293.039	2.485	1457137	WORD	n/a	wordpools/wordpool_EN.txt	BOOK	1	10	[0, 0, 0]	n/a	FR1	1	R1077T
1295.524	2.499	1459622	WORD	n/a	wordpools/wordpool_EN.txt	WHEEL	2	10	[0, 0, 0]	n/a	FR1	1	R1077T
1298.023	2.418	1462121	WORD	n/a	wordpools/wordpool_EN.txt	CLOCK	3	10	[0, 0, 0]	n/a	FR1	1	R1077T
1300.441	2.55	1464539	WORD	n/a	wordpools/wordpool_EN.txt	TOOL	4	10	[0, 0, 0]	n/a	FR1	1	R1077T
1302.991	2.584	1467089	WORD	n/a	wordpools/wordpool_EN.txt	MOLE	5	10	[0, 0, 0]	n/a	FR1	1	R1077T
1305.575	2.45	1469673	WORD	n/a	wordpools/wordpool_EN.txt	RAT	6	10	[0, 0, 0]	n/a	FR1	1	R1077T
1308.025	2.434	1472123	WORD	n/a	wordpools/wordpool_EN.txt	FUDGE	7	10	[0, 0, 0]	n/a	FR1	1	R1077T
1310.459	2.6	1474556	WORD	n/a	wordpools/wordpool_EN.txt	GLASS	8	10	[0, 0, 0]	n/a	FR1	1	R1077T
1313.059	2.435	1477156	WORD	n/a	wordpools/wordpool_EN.txt	CLOWN	9	10	[0, 0, 0]	n/a	FR1	1	R1077T
1315.494	2.383	1479591	WORD	n/a	wordpools/wordpool_EN.txt	LAMP	10	10	[0, 0, 0]	n/a	FR1	1	R1077T
1317.877	2.568	1481974	WORD	n/a	wordpools/wordpool_EN.txt	JEEP	11	10	[0, 0, 0]	n/a	FR1	1	R1077T
1320.445	1.616	1484542	WORD	n/a	wordpools/wordpool_EN.txt	TRAY	12	10	[0, 0, 0]	n/a	FR1	1	R1077T
1322.061	0.001	1486158	DISTRACT_START	n/a	n/a	n/a	-999	10	[0, 0, 0]	n/a	FR1	1	R1077T
1322.062	0.015	1486159	START	n/a	n/a	n/a	-999	10	[-999, -999, -999]	n/a	FR1	1	R1077T
1322.077	7.102	1486174	PROB	7.102	n/a	n/a	-999	10	[8, 7, 8]	25	FR1	1	R1077T
1329.179	3.118	1493275	PROB	3.118	n/a	n/a	-999	10	[2, 2, 8]	12	FR1	1	R1077T
1332.297	2.899	1496393	PROB	2.899	n/a	n/a	-999	10	[3, 1, 9]	13	FR1	1	R1077T
1335.196	3.851	1499292	PROB	3.851	n/a	n/a	-999	10	[1, 8, 5]	14	FR1	1	R1077T
1339.047	2.901	1503143	PROB	2.901	n/a	n/a	-999	10	[1, 2, 3]	6	FR1	1	R1077T
1341.948	3.661	1506044	PROB	3.661	n/a	n/a	-999	10	[3, 5, 7]	1	FR1	1	R1077T
1345.609	0.007	1509705	STOP	n/a	n/a	n/a	-999	10	[-999, -999, -999]	n/a	FR1	1	R1077T
1345.616	1.066	1509712	DISTRACT_END	n/a	n/a	n/a	-999	10	[0, 0, 0]	n/a	FR1	1	R1077T
1346.682	2.633	1510778	REC_START	n/a	n/a	n/a	-999	10	[0, 0, 0]	n/a	FR1	1	R1077T
1349.315	2.71	1513410	REC_WORD	2.71	n/a	CLOWN	-999	10	[0, 0, 0]	n/a	FR1	1	R1077T
1352.025	4.129	1516120	REC_WORD_VV	4.129	n/a	<>	-999	10	[0, 0, 0]	n/a	FR1	1	R1077T
1356.154	0.658	1520249	REC_WORD_VV	0.658	n/a	<>	-999	10	[0, 0, 0]	n/a	FR1	1	R1077T
1356.812	1.181	1520907	REC_WORD	1.181	n/a	JEEP	-999	10	[0, 0, 0]	n/a	FR1	1	R1077T
1357.993	3.888	1522088	REC_WORD	3.888	n/a	JEEP	-999	10	[0, 0, 0]	n/a	FR1	1	R1077T
1361.881	3.561	1525976	REC_WORD_VV	3.561	n/a	<>	-999	10	[0, 0, 0]	n/a	FR1	1	R1077T
1365.442	11.253	1529537	REC_WORD_VV	11.253	n/a	<>	-999	10	[0, 0, 0]	n/a	FR1	1	R1077T
1376.695	12.629	1540789	REC_END	n/a	n/a	n/a	-999	10	[0, 0, 0]	n/a	FR1	1	R1077T
1389.324	0.0	1553417	TRIAL	n/a	n/a	n/a	-999	11	[0, 0, 0]	n/a	FR1	1	R1077T
1389.324	10.428	1553417	COUNTDOWN_START	n/a	n/a	n/a	-999	11	[0, 0, 0]	n/a	FR1	1	R1077T
1399.752	0.006	1563845	COUNTDOWN_END	n/a	n/a	n/a	-999	11	[0, 0, 0]	n/a	FR1	1	R1077T
1399.758	2.485	1563851	ORIENT	n/a	n/a	n/a	-999	11	[0, 0, 0]	n/a	FR1	1	R1077T
1402.243	2.616	1566336	WORD	n/a	wordpools/wordpool_EN.txt	CORN	1	11	[0, 0, 0]	n/a	FR1	1	R1077T
1404.859	2.501	1568952	WORD	n/a	wordpools/wordpool_EN.txt	STRAW	2	11	[0, 0, 0]	n/a	FR1	1	R1077T
1407.36	2.55	1571453	WORD	n/a	wordpools/wordpool_EN.txt	STEAK	3	11	[0, 0, 0]	n/a	FR1	1	R1077T
1409.91	2.385	1574002	WORD	n/a	wordpools/wordpool_EN.txt	STOVE	4	11	[0, 0, 0]	n/a	FR1	1	R1077T
1412.295	2.566	1576387	WORD	n/a	wordpools/wordpool_EN.txt	COW	5	11	[0, 0, 0]	n/a	FR1	1	R1077T
1414.861	2.435	1578953	WORD	n/a	wordpools/wordpool_EN.txt	PANTS	6	11	[0, 0, 0]	n/a	FR1	1	R1077T
1417.296	2.566	1581388	WORD	n/a	wordpools/wordpool_EN.txt	BARN	7	11	[0, 0, 0]	n/a	FR1	1	R1077T
1419.862	2.568	1583954	WORD	n/a	wordpools/wordpool_EN.txt	PURSE	8	11	[0, 0, 0]	n/a	FR1	1	R1077T
1422.43	2.499	1586522	WORD	n/a	wordpools/wordpool_EN.txt	SEAT	9	11	[0, 0, 0]	n/a	FR1	1	R1077T
1424.929	2.568	1589021	WORD	n/a	wordpools/wordpool_EN.txt	GUARD	10	11	[0, 0, 0]	n/a	FR1	1	R1077T
1427.497	2.567	1591589	WORD	n/a	wordpools/wordpool_EN.txt	PEN	11	11	[0, 0, 0]	n/a	FR1	1	R1077T
1430.064	1.617	1594155	WORD	n/a	wordpools/wordpool_EN.txt	RIB	12	11	[0, 0, 0]	n/a	FR1	1	R1077T
1431.681	0.0	1595772	DISTRACT_START	n/a	n/a	n/a	-999	11	[0, 0, 0]	n/a	FR1	1	R1077T
1431.681	0.016	1595772	START	n/a	n/a	n/a	-999	11	[-999, -999, -999]	n/a	FR1	1	R1077T
1431.697	3.951	1595788	PROB	3.951	n/a	n/a	-999	11	[4, 4, 6]	14	FR1	1	R1077T
1435.648	4.001	1599739	PROB	4.001	n/a	n/a	-999	11	[5, 7, 5]	17	FR1	1	R1077T
1439.649	5.201	1603740	PROB	5.201	n/a	n/a	-999	11	[7, 9, 4]	17	FR1	1	R1077T
1444.85	2.684	1608941	PROB	2.684	n/a	n/a	-999	11	[6, 1, 5]	12	FR1	1	R1077T
1447.534	2.701	1611625	PROB	2.701	n/a	n/a	-999	11	[6, 6, 4]	16	FR1	1	R1077T
1450.235	2.462	1614325	PROB	2.462	n/a	n/a	-999	11	[8, 4, 6]	18	FR1	1	R1077T
1452.697	0.004	1616787	STOP	n/a	n/a	n/a	-999	11	[-999, -999, -999]	n/a	FR1	1	R1077T
1452.701	1.068	1616791	DISTRACT_END	n/a	n/a	n/a	-999	11	[0, 0, 0]	n/a	FR1	1	R1077T
1453.769	3.673	1617859	REC_START	n/a	n/a	n/a	-999	11	[0, 0, 0]	n/a	FR1	1	R1077T
1457.442	3.876	1621532	REC_WORD	3.876	n/a	COW	-999	11	[0, 0, 0]	n/a	FR1	1	R1077T
1461.318	0.791	1625408	REC_WORD_VV	0.791	n/a	<>	-999	11	[0, 0, 0]	n/a	FR1	1	R1077T
1462.109	0.391	1626199	REC_WORD	0.391	n/a	BARN	-999	11	[0, 0, 0]	n/a	FR1	1	R1077T
1462.5	4.162	1626590	REC_WORD_VV	4.162	n/a	<>	-999	11	[0, 0, 0]	n/a	FR1	1	R1077T
1466.662	3.901	1630752	REC_WORD_VV	3.901	n/a	<>	-999	11	[0, 0, 0]	n/a	FR1	1	R1077T
1470.563	3.808	1634652	REC_WORD_VV	3.808	n/a	<>	-999	11	[0, 0, 0]	n/a	FR1	1	R1077T
1474.371	9.409	1638460	REC_WORD_VV	9.409	n/a	<>	-999	11	[0, 0, 0]	n/a	FR1	1	R1077T
1483.78	98.579	1647869	REC_END	n/a	n/a	n/a	-999	11	[0, 0, 0]	n/a	FR1	1	R1077T
1582.359	0.0	1746443	TRIAL	n/a	n/a	n/a	-999	12	[0, 0, 0]	n/a	FR1	1	R1077T
1582.359	10.428	1746443	COUNTDOWN_START	n/a	n/a	n/a	-999	12	[0, 0, 0]	n/a	FR1	1	R1077T
1592.787	0.006	1756870	COUNTDOWN_END	n/a	n/a	n/a	-999	12	[0, 0, 0]	n/a	FR1	1	R1077T
1592.793	2.535	1756876	ORIENT	n/a	n/a	n/a	-999	12	[0, 0, 0]	n/a	FR1	1	R1077T
1595.328	2.616	1759411	WORD	n/a	wordpools/wordpool_EN.txt	HOOK	1	12	[0, 0, 0]	n/a	FR1	1	R1077T
1597.944	2.552	1762027	WORD	n/a	wordpools/wordpool_EN.txt	SEAL	2	12	[0, 0, 0]	n/a	FR1	1	R1077T
1600.496	2.532	1764579	WORD	n/a	wordpools/wordpool_EN.txt	SHRIMP	3	12	[0, 0, 0]	n/a	FR1	1	R1077T
1603.028	2.519	1767111	WORD	n/a	wordpools/wordpool_EN.txt	CHAIR	4	12	[0, 0, 0]	n/a	FR1	1	R1077T
1605.547	2.399	1769630	WORD	n/a	wordpools/wordpool_EN.txt	GLOVE	5	12	[0, 0, 0]	n/a	FR1	1	R1077T
1607.946	2.585	1772029	WORD	n/a	wordpools/wordpool_EN.txt	GATE	6	12	[0, 0, 0]	n/a	FR1	1	R1077T
1610.531	2.599	1774613	WORD	n/a	wordpools/wordpool_EN.txt	PALM	7	12	[0, 0, 0]	n/a	FR1	1	R1077T
1613.13	2.385	1777212	WORD	n/a	wordpools/wordpool_EN.txt	HAT	8	12	[0, 0, 0]	n/a	FR1	1	R1077T
1615.515	2.383	1779597	WORD	n/a	wordpools/wordpool_EN.txt	MOUTH	9	12	[0, 0, 0]	n/a	FR1	1	R1077T
1617.898	2.418	1781980	WORD	n/a	wordpools/wordpool_EN.txt	THUMB	10	12	[0, 0, 0]	n/a	FR1	1	R1077T
1620.316	2.416	1784398	WORD	n/a	wordpools/wordpool_EN.txt	BATH	11	12	[0, 0, 0]	n/a	FR1	1	R1077T
1622.732	1.601	1786814	WORD	n/a	wordpools/wordpool_EN.txt	WORLD	12	12	[0, 0, 0]	n/a	FR1	1	R1077T
1624.333	0.001	1788415	DISTRACT_START	n/a	n/a	n/a	-999	12	[0, 0, 0]	n/a	FR1	1	R1077T
1624.334	0.016	1788416	START	n/a	n/a	n/a	-999	12	[-999, -999, -999]	n/a	FR1	1	R1077T
1624.35	4.45	1788432	PROB	4.45	n/a	n/a	-999	12	[6, 8, 5]	19	FR1	1	R1077T
1628.8	5.917	1792882	PROB	5.917	n/a	n/a	-999	12	[9, 7, 6]	22	FR1	1	R1077T
1634.717	2.802	1798798	PROB	2.802	n/a	n/a	-999	12	[6, 4, 9]	19	FR1	1	R1077T
1637.519	2.784	1801600	PROB	2.784	n/a	n/a	-999	12	[3, 2, 1]	6	FR1	1	R1077T
1640.303	2.383	1804384	PROB	2.383	n/a	n/a	-999	12	[5, 1, 3]	9	FR1	1	R1077T
1642.686	3.179	1806767	PROB	3.179	n/a	n/a	-999	12	[6, 6, 8]	20	FR1	1	R1077T
1645.865	0.004	1809946	STOP	n/a	n/a	n/a	-999	12	[-999, -999, -999]	n/a	FR1	1	R1077T
1645.869	1.218	1809950	DISTRACT_END	n/a	n/a	n/a	-999	12	[0, 0, 0]	n/a	FR1	1	R1077T
1647.087	2.28	1811168	REC_START	n/a	n/a	n/a	-999	12	[0, 0, 0]	n/a	FR1	1	R1077T
1649.367	2.295	1813448	REC_WORD	2.295	n/a	GLOVE	-999	12	[0, 0, 0]	n/a	FR1	1	R1077T
1651.662	0.342	1815742	REC_WORD_VV	0.342	n/a	<>	-999	12	[0, 0, 0]	n/a	FR1	1	R1077T
1652.004	2.176	1816084	REC_WORD	2.176	n/a	HAND	-999	12	[0, 0, 0]	n/a	FR1	1	R1077T
1654.18	1.643	1818260	REC_WORD_VV	1.643	n/a	<>	-999	12	[0, 0, 0]	n/a	FR1	1	R1077T
1655.823	0.311	1819903	REC_WORD	0.311	n/a	GLOVE	-999	12	[0, 0, 0]	n/a	FR1	1	R1077T
1656.134	0.403	1820214	REC_WORD	0.403	n/a	PALM	-999	12	[0, 0, 0]	n/a	FR1	1	R1077T
1656.537	0.777	1820617	REC_WORD	0.777	n/a	THUMB	-999	12	[0, 0, 0]	n/a	FR1	1	R1077T
1657.314	1.731	1821394	REC_WORD_VV	1.731	n/a	<>	-999	12	[0, 0, 0]	n/a	FR1	1	R1077T
1659.045	12.697	1823125	REC_WORD_VV	12.697	n/a	<>	-999	12	[0, 0, 0]	n/a	FR1	1	R1077T
1671.742	3.916	1835821	REC_WORD_VV	3.916	n/a	<>	-999	12	[0, 0, 0]	n/a	FR1	1	R1077T
1675.658	1.441	1839737	REC_WORD_VV	1.441	n/a	<>	-999	12	[0, 0, 0]	n/a	FR1	1	R1077T
1677.099	4.777	1841178	REC_END	n/a	n/a	n/a	-999	12	[0, 0, 0]	n/a	FR1	1	R1077T
1681.876	0.0	1845955	TRIAL	n/a	n/a	n/a	-999	13	[0, 0, 0]	n/a	FR1	1	R1077T
1681.876	10.428	1845955	COUNTDOWN_START	n/a	n/a	n/a	-999	13	[0, 0, 0]	n/a	FR1	1	R1077T
1692.304	0.008	1856382	COUNTDOWN_END	n/a	n/a	n/a	-999	13	[0, 0, 0]	n/a	FR1	1	R1077T
1692.312	2.583	1856390	ORIENT	n/a	n/a	n/a	-999	13	[0, 0, 0]	n/a	FR1	1	R1077T
1694.895	2.485	1858973	WORD	n/a	wordpools/wordpool_EN.txt	BOWL	1	13	[0, 0, 0]	n/a	FR1	1	R1077T
1697.38	2.583	1861458	WORD	n/a	wordpools/wordpool_EN.txt	CART	2	13	[0, 0, 0]	n/a	FR1	1	R1077T
1699.963	2.535	1864041	WORD	n/a	wordpools/wordpool_EN.txt	LOCK	3	13	[0, 0, 0]	n/a	FR1	1	R1077T
1702.498	2.466	1866576	WORD	n/a	wordpools/wordpool_EN.txt	PEA	4	13	[0, 0, 0]	n/a	FR1	1	R1077T
1704.964	2.518	1869042	WORD	n/a	wordpools/wordpool_EN.txt	BROOM	5	13	[0, 0, 0]	n/a	FR1	1	R1077T
1707.482	2.416	1871560	WORD	n/a	wordpools/wordpool_EN.txt	FLOOR	6	13	[0, 0, 0]	n/a	FR1	1	R1077T
1709.898	2.368	1873976	WORD	n/a	wordpools/wordpool_EN.txt	BENCH	7	13	[0, 0, 0]	n/a	FR1	1	R1077T
1712.266	2.533	1876343	WORD	n/a	wordpools/wordpool_EN.txt	CHIN	8	13	[0, 0, 0]	n/a	FR1	1	R1077T
1714.799	2.568	1878876	WORD	n/a	wordpools/wordpool_EN.txt	TEA	9	13	[0, 0, 0]	n/a	FR1	1	R1077T
1717.367	2.516	1881444	WORD	n/a	wordpools/wordpool_EN.txt	SUIT	10	13	[0, 0, 0]	n/a	FR1	1	R1077T
1719.883	2.568	1883960	WORD	n/a	wordpools/wordpool_EN.txt	BED	11	13	[0, 0, 0]	n/a	FR1	1	R1077T
1722.451	1.616	1886528	WORD	n/a	wordpools/wordpool_EN.txt	POOL	12	13	[0, 0, 0]	n/a	FR1	1	R1077T
1724.067	0.001	1888144	DISTRACT_START	n/a	n/a	n/a	-999	13	[0, 0, 0]	n/a	FR1	1	R1077T
1724.068	0.016	1888145	START	n/a	n/a	n/a	-999	13	[-999, -999, -999]	n/a	FR1	1	R1077T
1724.084	3.567	1888161	PROB	3.567	n/a	n/a	-999	13	[9, 2, 1]	13	FR1	1	R1077T
1727.651	6.168	1891728	PROB	6.168	n/a	n/a	-999	13	[2, 1, 7]	10	FR1	1	R1077T
1733.819	3.435	1897895	PROB	3.435	n/a	n/a	-999	13	[9, 3, 9]	21	FR1	1	R1077T
1737.254	3.984	1901330	PROB	3.984	n/a	n/a	-999	13	[8, 1, 8]	17	FR1	1	R1077T
1741.238	2.317	1905314	PROB	2.317	n/a	n/a	-999	13	[1, 6, 5]	12	FR1	1	R1077T
1743.555	3.719	1907631	PROB	3.719	n/a	n/a	-999	13	[8, 5, 6]	12	FR1	1	R1077T
1747.274	0.015	1911350	STOP	n/a	n/a	n/a	-999	13	[-999, -999, -999]	n/a	FR1	1	R1077T
1747.289	1.201	1911365	DISTRACT_END	n/a	n/a	n/a	-999	13	[0, 0, 0]	n/a	FR1	1	R1077T
1748.49	5.153	1912566	REC_START	n/a	n/a	n/a	-999	13	[0, 0, 0]	n/a	FR1	1	R1077T
1753.643	1.408	1917718	REC_WORD	1.408	n/a	CHIN	-999	13	[0, 0, 0]	n/a	FR1	1	R1077T
1755.051	5.27	1919126	REC_WORD	5.27	n/a	BOWL	-999	13	[0, 0, 0]	n/a	FR1	1	R1077T
1760.321	0.45	1924396	REC_WORD_VV	0.45	n/a	<>	-999	13	[0, 0, 0]	n/a	FR1	1	R1077T
1760.771	3.31	1924846	REC_WORD	3.31	n/a	CART	-999	13	[0, 0, 0]	n/a	FR1	1	R1077T
1764.081	5.189	1928156	REC_WORD	5.189	n/a	BED	-999	13	[0, 0, 0]	n/a	FR1	1	R1077T
1769.27	1.7	1933345	REC_WORD	1.7	n/a	G	-999	13	[0, 0, 0]	n/a	FR1	1	R1077T
1770.97	3.393	1935044	REC_WORD_VV	3.393	n/a	<>	-999	13	[0, 0, 0]	n/a	FR1	1	R1077T
1774.363	4.139	1938437	REC_WORD	4.139	n/a	BOWL	-999	13	[0, 0, 0]	n/a	FR1	1	R1077T
1778.502	5.877	1942576	REC_END	n/a	n/a	n/a	-999	13	[0, 0, 0]	n/a	FR1	1	R1077T
1784.379	0.0	1948453	TRIAL	n/a	n/a	n/a	-999	14	[0, 0, 0]	n/a	FR1	1	R1077T
1784.379	10.428	1948453	COUNTDOWN_START	n/a	n/a	n/a	-999	14	[0, 0, 0]	n/a	FR1	1	R1077T
1794.807	0.006	1958880	COUNTDOWN_END	n/a	n/a	n/a	-999	14	[0, 0, 0]	n/a	FR1	1	R1077T
1794.813	2.485	1958886	ORIENT	n/a	n/a	n/a	-999	14	[0, 0, 0]	n/a	FR1	1	R1077T
1797.298	2.383	1961371	WORD	n/a	wordpools/wordpool_EN.txt	POLE	1	14	[0, 0, 0]	n/a	FR1	1	R1077T
1799.681	2.384	1963754	WORD	n/a	wordpools/wordpool_EN.txt	CHEEK	2	14	[0, 0, 0]	n/a	FR1	1	R1077T
1802.065	2.468	1966138	WORD	n/a	wordpools/wordpool_EN.txt	PHONE	3	14	[0, 0, 0]	n/a	FR1	1	R1077T
1804.533	2.449	1968606	WORD	n/a	wordpools/wordpool_EN.txt	DIME	4	14	[0, 0, 0]	n/a	FR1	1	R1077T
1806.982	2.518	1971055	WORD	n/a	wordpools/wordpool_EN.txt	COIN	5	14	[0, 0, 0]	n/a	FR1	1	R1077T
1809.5	2.616	1973573	WORD	n/a	wordpools/wordpool_EN.txt	SPEAR	6	14	[0, 0, 0]	n/a	FR1	1	R1077T
1812.116	2.601	1976188	WORD	n/a	wordpools/wordpool_EN.txt	CONE	7	14	[0, 0, 0]	n/a	FR1	1	R1077T
1814.717	2.551	1978789	WORD	n/a	wordpools/wordpool_EN.txt	ARM	8	14	[0, 0, 0]	n/a	FR1	1	R1077T
1817.268	2.45	1981340	WORD	n/a	wordpools/wordpool_EN.txt	DRUM	9	14	[0, 0, 0]	n/a	FR1	1	R1077T
1819.718	2.551	1983790	WORD	n/a	wordpools/wordpool_EN.txt	GRAPE	10	14	[0, 0, 0]	n/a	FR1	1	R1077T
1822.269	2.516	1986341	WORD	n/a	wordpools/wordpool_EN.txt	HOSE	11	14	[0, 0, 0]	n/a	FR1	1	R1077T
1824.785	1.601	1988857	WORD	n/a	wordpools/wordpool_EN.txt	FROG	12	14	[0, 0, 0]	n/a	FR1	1	R1077T
1826.386	0.001	1990458	DISTRACT_START	n/a	n/a	n/a	-999	14	[0, 0, 0]	n/a	FR1	1	R1077T
1826.387	0.016	1990459	START	n/a	n/a	n/a	-999	14	[-999, -999, -999]	n/a	FR1	1	R1077T
1826.403	3.367	1990475	PROB	3.367	n/a	n/a	-999	14	[9, 2, 1]	12	FR1	1	R1077T
1829.77	3.468	1993842	PROB	3.468	n/a	n/a	-999	14	[8, 9, 9]	32	FR1	1	R1077T
1833.238	2.134	1997309	PROB	2.134	n/a	n/a	-999	14	[1, 4, 2]	7	FR1	1	R1077T
1835.372	6.75	1999443	PROB	6.75	n/a	n/a	-999	14	[5, 8, 8]	25	FR1	1	R1077T
1842.122	1.85	2006193	PROB	1.85	n/a	n/a	-999	14	[6, 1, 1]	8	FR1	1	R1077T
1843.972	3.558	2008043	PROB	3.558	n/a	n/a	-999	14	[7, 8, 3]	18	FR1	1	R1077T
1847.53	0.011	2011601	STOP	n/a	n/a	n/a	-999	14	[-999, -999, -999]	n/a	FR1	1	R1077T
1847.541	1.067	2011612	DISTRACT_END	n/a	n/a	n/a	-999	14	[0, 0, 0]	n/a	FR1	1	R1077T
1848.608	2.751	2012679	REC_START	n/a	n/a	n/a	-999	14	[0, 0, 0]	n/a	FR1	1	R1077T
1851.359	0.301	2015429	REC_WORD_VV	0.301	n/a	<>	-999	14	[0, 0, 0]	n/a	FR1	1	R1077T
1851.66	1.112	2015730	REC_WORD	1.112	n/a	SPEAR	-999	14	[0, 0, 0]	n/a	FR1	1	R1077T
1852.772	0.863	2016842	REC_WORD	0.863	n/a	POLE	-999	14	[0, 0, 0]	n/a	FR1	1	R1077T
1853.635	1.571	2017705	REC_WORD	1.571	n/a	CONE	-999	14	[0, 0, 0]	n/a	FR1	1	R1077T
1855.206	8.417	2019276	REC_WORD	8.417	n/a	ARM	-999	14	[0, 0, 0]	n/a	FR1	1	R1077T
1863.623	7.327	2027693	REC_WORD_VV	7.327	n/a	<>	-999	14	[0, 0, 0]	n/a	FR1	1	R1077T
1870.95	1.547	2035019	REC_WORD_VV	1.547	n/a	<>	-999	14	[0, 0, 0]	n/a	FR1	1	R1077T
1872.497	3.865	2036566	REC_WORD_VV	3.865	n/a	<>	-999	14	[0, 0, 0]	n/a	FR1	1	R1077T
1876.362	0.42	2040431	REC_WORD	0.42	n/a	SPEAR	-999	14	[0, 0, 0]	n/a	FR1	1	R1077T
1876.782	1.837	2040851	REC_WORD	1.837	n/a	ARM	-999	14	[0, 0, 0]	n/a	FR1	1	R1077T
1878.619	2.51	2042688	REC_END	n/a	n/a	n/a	-999	14	[0, 0, 0]	n/a	FR1	1	R1077T
1881.129	0.0	2045198	TRIAL	n/a	n/a	n/a	-999	15	[0, 0, 0]	n/a	FR1	1	R1077T
1881.129	10.428	2045198	COUNTDOWN_START	n/a	n/a	n/a	-999	15	[0, 0, 0]	n/a	FR1	1	R1077T
1891.557	0.008	2055625	COUNTDOWN_END	n/a	n/a	n/a	-999	15	[0, 0, 0]	n/a	FR1	1	R1077T
1891.565	2.516	2055633	ORIENT	n/a	n/a	n/a	-999	15	[0, 0, 0]	n/a	FR1	1	R1077T
1894.081	2.435	2058149	WORD	n/a	wordpools/wordpool_EN.txt	GRASS	1	15	[0, 0, 0]	n/a	FR1	1	R1077T
1896.516	2.483	2060584	WORD	n/a	wordpools/wordpool_EN.txt	MOON	2	15	[0, 0, 0]	n/a	FR1	1	R1077T
1898.999	2.451	2063067	WORD	n/a	wordpools/wordpool_EN.txt	SLUSH	3	15	[0, 0, 0]	n/a	FR1	1	R1077T
1901.45	2.45	2065518	WORD	n/a	wordpools/wordpool_EN.txt	NEST	4	15	[0, 0, 0]	n/a	FR1	1	R1077T
1903.9	2.435	2067968	WORD	n/a	wordpools/wordpool_EN.txt	BALL	5	15	[0, 0, 0]	n/a	FR1	1	R1077T
1906.335	2.399	2070403	WORD	n/a	wordpools/wordpool_EN.txt	GOAT	6	15	[0, 0, 0]	n/a	FR1	1	R1077T
1908.734	2.501	2072802	WORD	n/a	wordpools/wordpool_EN.txt	BIRD	7	15	[0, 0, 0]	n/a	FR1	1	R1077T
1911.235	2.533	2075302	WORD	n/a	wordpools/wordpool_EN.txt	VINE	8	15	[0, 0, 0]	n/a	FR1	1	R1077T
1913.768	2.468	2077835	WORD	n/a	wordpools/wordpool_EN.txt	PRINCE	9	15	[0, 0, 0]	n/a	FR1	1	R1077T
1916.236	2.6	2080303	WORD	n/a	wordpools/wordpool_EN.txt	BAT	10	15	[0, 0, 0]	n/a	FR1	1	R1077T
1918.836	2.535	2082903	WORD	n/a	wordpools/wordpool_EN.txt	CAT	11	15	[0, 0, 0]	n/a	FR1	1	R1077T
1921.371	1.616	2085438	WORD	n/a	wordpools/wordpool_EN.txt	NET	12	15	[0, 0, 0]	n/a	FR1	1	R1077T
1922.987	0.0	2087054	DISTRACT_START	n/a	n/a	n/a	-999	15	[0, 0, 0]	n/a	FR1	1	R1077T
1922.987	0.016	2087054	START	n/a	n/a	n/a	-999	15	[-999, -999, -999]	n/a	FR1	1	R1077T
1923.003	6.935	2087070	PROB	6.935	n/a	n/a	-999	15	[7, 4, 9]	20	FR1	1	R1077T
1929.938	2.25	2094005	PROB	2.25	n/a	n/a	-999	15	[9, 3, 1]	13	FR1	1	R1077T
1932.188	4.319	2096254	PROB	4.319	n/a	n/a	-999	15	[8, 7, 4]	20	FR1	1	R1077T
1936.507	2.867	2100573	PROB	2.867	n/a	n/a	-999	15	[7, 3, 8]	18	FR1	1	R1077T
1939.374	2.399	2103440	PROB	2.399	n/a	n/a	-999	15	[1, 7, 1]	9	FR1	1	R1077T
1941.773	1.988	2105839	PROB	1.988	n/a	n/a	-999	15	[3, 5, 5]	13	FR1	1	R1077T
1943.761	0.013	2107827	STOP	n/a	n/a	n/a	-999	15	[-999, -999, -999]	n/a	FR1	1	R1077T
1943.774	1.101	2107840	DISTRACT_END	n/a	n/a	n/a	-999	15	[0, 0, 0]	n/a	FR1	1	R1077T
1944.875	8.652	2108941	REC_START	n/a	n/a	n/a	-999	15	[0, 0, 0]	n/a	FR1	1	R1077T
1953.527	21.36	2117592	REC_WORD_VV	21.36	n/a	<>	-999	15	[0, 0, 0]	n/a	FR1	1	R1077T
1974.887	295.697	2138951	REC_END	n/a	n/a	n/a	-999	15	[0, 0, 0]	n/a	FR1	1	R1077T
2270.584	0.0	2434634	TRIAL	n/a	n/a	n/a	-999	16	[0, 0, 0]	n/a	FR1	1	R1077T
2270.584	0.0	2434634	COUNTDOWN_START	n/a	n/a	n/a	-999	16	[0, 0, 0]	n/a	FR1	1	R1077T
