onset	duration	sample	trial_type	response_time	stim_file	item_name	serialpos	list	test	answer	experiment	session	subject
0.0	0.0	10728	INSTRUCT_START	n/a	n/a	n/a	-999	-999	[0, 0, 0]	n/a	FR1	1	R1207J
0.0	10.98	10728	INSTRUCT_END	n/a	n/a	n/a	-999	-999	[0, 0, 0]	n/a	FR1	1	R1207J
10.98	0.0	21708	SESS_START	n/a	n/a	n/a	-999	-999	[0, 0, 0]	n/a	FR1	1	R1207J
10.98	29.001	21708	MIC_TEST	n/a	n/a	n/a	-999	-999	[0, 0, 0]	n/a	FR1	1	R1207J
39.981	27.777	50708	PRACTICE_TRIAL	n/a	n/a	n/a	-999	-1	[0, 0, 0]	n/a	FR1	1	R1207J
67.758	10.428	78485	COUNTDOWN_START	n/a	n/a	n/a	-999	-1	[0, 0, 0]	n/a	FR1	1	R1207J
78.186	0.007	88913	COUNTDOWN_END	n/a	n/a	n/a	-999	-1	[0, 0, 0]	n/a	FR1	1	R1207J
78.193	1.616	88920	PRACTICE_ORIENT	n/a	n/a	n/a	-999	-1	[0, 0, 0]	n/a	FR1	1	R1207J
79.809	2.368	90536	PRACTICE_ORIENT_OFF	n/a	n/a	n/a	-999	-1	[0, 0, 0]	n/a	FR1	1	R1207J
82.177	1.616	92904	PRACTICE_WORD	n/a	n/a	RING	1	-1	[0, 0, 0]	n/a	FR1	1	R1207J
83.793	0.934	94520	PRACTICE_WORD_OFF	n/a	n/a	RING	-999	-1	[0, 0, 0]	n/a	FR1	1	R1207J
84.727	1.616	95454	PRACTICE_WORD	n/a	n/a	WAGON	2	-1	[0, 0, 0]	n/a	FR1	1	R1207J
86.343	0.852	97070	PRACTICE_WORD_OFF	n/a	n/a	WAGON	-999	-1	[0, 0, 0]	n/a	FR1	1	R1207J
87.195	1.616	97922	PRACTICE_WORD	n/a	n/a	CAMEL	3	-1	[0, 0, 0]	n/a	FR1	1	R1207J
88.811	1.016	99538	PRACTICE_WORD_OFF	n/a	n/a	CAMEL	-999	-1	[0, 0, 0]	n/a	FR1	1	R1207J
89.827	1.617	100554	PRACTICE_WORD	n/a	n/a	IRON	4	-1	[0, 0, 0]	n/a	FR1	1	R1207J
91.444	0.967	102171	PRACTICE_WORD_OFF	n/a	n/a	IRON	-999	-1	[0, 0, 0]	n/a	FR1	1	R1207J
92.411	1.618	103138	PRACTICE_WORD	n/a	n/a	FLOOD	5	-1	[0, 0, 0]	n/a	FR1	1	R1207J
94.029	0.9	104756	PRACTICE_WORD_OFF	n/a	n/a	FLOOD	-999	-1	[0, 0, 0]	n/a	FR1	1	R1207J
94.929	1.616	105656	PRACTICE_WORD	n/a	n/a	CHEST	6	-1	[0, 0, 0]	n/a	FR1	1	R1207J
96.545	0.967	107272	PRACTICE_WORD_OFF	n/a	n/a	CHEST	-999	-1	[0, 0, 0]	n/a	FR1	1	R1207J
97.512	1.618	108239	PRACTICE_WORD	n/a	n/a	BEAM	7	-1	[0, 0, 0]	n/a	FR1	1	R1207J
99.13	0.766	109857	PRACTICE_WORD_OFF	n/a	n/a	BEAM	-999	-1	[0, 0, 0]	n/a	FR1	1	R1207J
99.896	1.616	110623	PRACTICE_WORD	n/a	n/a	COTTON	8	-1	[0, 0, 0]	n/a	FR1	1	R1207J
101.512	0.833	112239	PRACTICE_WORD_OFF	n/a	n/a	COTTON	-999	-1	[0, 0, 0]	n/a	FR1	1	R1207J
102.345	1.602	113072	PRACTICE_WORD	n/a	n/a	WATCH	9	-1	[0, 0, 0]	n/a	FR1	1	R1207J
103.947	0.799	114674	PRACTICE_WORD_OFF	n/a	n/a	WATCH	-999	-1	[0, 0, 0]	n/a	FR1	1	R1207J
104.746	1.617	115473	PRACTICE_WORD	n/a	n/a	ATTIC	10	-1	[0, 0, 0]	n/a	FR1	1	R1207J
106.363	0.834	117090	PRACTICE_WORD_OFF	n/a	n/a	ATTIC	-999	-1	[0, 0, 0]	n/a	FR1	1	R1207J
107.197	1.616	117924	PRACTICE_WORD	n/a	n/a	TONGUE	11	-1	[0, 0, 0]	n/a	FR1	1	R1207J
108.813	0.884	119540	PRACTICE_WORD_OFF	n/a	n/a	TONGUE	-999	-1	[0, 0, 0]	n/a	FR1	1	R1207J
109.697	1.616	120424	PRACTICE_WORD	n/a	n/a	RHINO	12	-1	[0, 0, 0]	n/a	FR1	1	R1207J
111.313	0.0	122040	PRACTICE_WORD_OFF	n/a	n/a	RHINO	-999	-1	[0, 0, 0]	n/a	FR1	1	R1207J
111.313	0.001	122040	DISTRACT_START	n/a	n/a	n/a	-999	-1	[0, 0, 0]	n/a	FR1	1	R1207J
111.314	0.016	122041	START	n/a	n/a	n/a	-999	-1	[-999, -999, -999]	n/a	FR1	1	R1207J
111.33	4.802	122057	PROB	4.802	n/a	n/a	-999	-1	[8, 8, 5]	21	FR1	1	R1207J
116.132	2.984	126859	PROB	2.984	n/a	n/a	-999	-1	[1, 5, 5]	11	FR1	1	R1207J
119.116	3.883	129843	PROB	3.883	n/a	n/a	-999	-1	[8, 6, 1]	15	FR1	1	R1207J
122.999	4.7	133726	PROB	4.7	n/a	n/a	-999	-1	[2, 2, 4]	8	FR1	1	R1207J
127.699	2.967	138426	PROB	2.967	n/a	n/a	-999	-1	[7, 2, 3]	12	FR1	1	R1207J
130.666	2.823	141393	PROB	2.823	n/a	n/a	-999	-1	[3, 4, 7]	14	FR1	1	R1207J
133.489	0.011	144216	STOP	n/a	n/a	n/a	-999	-1	[-999, -999, -999]	n/a	FR1	1	R1207J
133.5	0.618	144227	DISTRACT_END	n/a	n/a	n/a	-999	-1	[0, 0, 0]	n/a	FR1	1	R1207J
134.118	0.517	144845	RETRIEVAL_ORIENT	n/a	n/a	n/a	-999	-1	[0, 0, 0]	n/a	FR1	1	R1207J
134.635	30.009	145362	PRACTICE_REC_START	n/a	n/a	n/a	-999	-1	[0, 0, 0]	n/a	FR1	1	R1207J
164.644	7.744	175371	PRACTICE_REC_END	n/a	n/a	n/a	-999	-1	[0, 0, 0]	n/a	FR1	1	R1207J
172.388	0.5	183115	TRIAL	n/a	n/a	n/a	-999	1	[0, 0, 0]	n/a	FR1	1	R1207J
172.888	10.428	183615	COUNTDOWN_START	n/a	n/a	n/a	-999	1	[0, 0, 0]	n/a	FR1	1	R1207J
183.316	0.007	194043	COUNTDOWN_END	n/a	n/a	n/a	-999	1	[0, 0, 0]	n/a	FR1	1	R1207J
183.323	1.618	194050	ORIENT	n/a	n/a	n/a	-999	1	[0, 0, 0]	n/a	FR1	1	R1207J
184.941	2.166	195668	ORIENT_OFF	n/a	n/a	n/a	-999	1	[0, 0, 0]	n/a	FR1	1	R1207J
187.107	1.616	197834	WORD	n/a	wordpools/wordpool_EN.txt	PLANE	1	1	[0, 0, 0]	n/a	FR1	1	R1207J
188.723	0.967	199450	WORD_OFF	n/a	n/a	PLANE	1	1	[0, 0, 0]	n/a	FR1	1	R1207J
189.69	1.617	200417	WORD	n/a	wordpools/wordpool_EN.txt	HORN	2	1	[0, 0, 0]	n/a	FR1	1	R1207J
191.307	0.935	202034	WORD_OFF	n/a	n/a	HORN	2	1	[0, 0, 0]	n/a	FR1	1	R1207J
192.242	1.616	202969	WORD	n/a	wordpools/wordpool_EN.txt	DRUM	3	1	[0, 0, 0]	n/a	FR1	1	R1207J
193.858	0.833	204585	WORD_OFF	n/a	n/a	DRUM	3	1	[0, 0, 0]	n/a	FR1	1	R1207J
194.691	1.617	205418	WORD	n/a	wordpools/wordpool_EN.txt	SHIP	4	1	[0, 0, 0]	n/a	FR1	1	R1207J
196.308	0.784	207035	WORD_OFF	n/a	n/a	SHIP	4	1	[0, 0, 0]	n/a	FR1	1	R1207J
197.092	1.616	207819	WORD	n/a	wordpools/wordpool_EN.txt	CORD	5	1	[0, 0, 0]	n/a	FR1	1	R1207J
198.708	0.85	209435	WORD_OFF	n/a	n/a	CORD	5	1	[0, 0, 0]	n/a	FR1	1	R1207J
199.558	1.618	210285	WORD	n/a	wordpools/wordpool_EN.txt	JUDGE	6	1	[0, 0, 0]	n/a	FR1	1	R1207J
201.176	0.984	211903	WORD_OFF	n/a	n/a	JUDGE	6	1	[0, 0, 0]	n/a	FR1	1	R1207J
202.16	1.615	212887	WORD	n/a	wordpools/wordpool_EN.txt	EEL	7	1	[0, 0, 0]	n/a	FR1	1	R1207J
203.775	0.967	214502	WORD_OFF	n/a	n/a	EEL	7	1	[0, 0, 0]	n/a	FR1	1	R1207J
204.742	1.617	215469	WORD	n/a	wordpools/wordpool_EN.txt	LEAF	8	1	[0, 0, 0]	n/a	FR1	1	R1207J
206.359	0.768	217086	WORD_OFF	n/a	n/a	LEAF	8	1	[0, 0, 0]	n/a	FR1	1	R1207J
207.127	1.616	217854	WORD	n/a	wordpools/wordpool_EN.txt	HORSE	9	1	[0, 0, 0]	n/a	FR1	1	R1207J
208.743	1.0	219470	WORD_OFF	n/a	n/a	HORSE	9	1	[0, 0, 0]	n/a	FR1	1	R1207J
209.743	1.617	220470	WORD	n/a	wordpools/wordpool_EN.txt	POND	10	1	[0, 0, 0]	n/a	FR1	1	R1207J
211.36	0.784	222087	WORD_OFF	n/a	n/a	POND	10	1	[0, 0, 0]	n/a	FR1	1	R1207J
212.144	1.616	222871	WORD	n/a	wordpools/wordpool_EN.txt	HOUSE	11	1	[0, 0, 0]	n/a	FR1	1	R1207J
213.76	0.984	224487	WORD_OFF	n/a	n/a	HOUSE	11	1	[0, 0, 0]	n/a	FR1	1	R1207J
214.744	1.616	225471	WORD	n/a	wordpools/wordpool_EN.txt	TOAD	12	1	[0, 0, 0]	n/a	FR1	1	R1207J
216.36	0.0	227087	WORD_OFF	n/a	n/a	TOAD	12	1	[0, 0, 0]	n/a	FR1	1	R1207J
216.36	0.001	227087	DISTRACT_START	n/a	n/a	n/a	-999	1	[0, 0, 0]	n/a	FR1	1	R1207J
216.361	0.016	227088	START	n/a	n/a	n/a	-999	1	[-999, -999, -999]	n/a	FR1	1	R1207J
216.377	4.652	227104	PROB	4.652	n/a	n/a	-999	1	[7, 8, 2]	17	FR1	1	R1207J
221.029	4.666	231756	PROB	4.666	n/a	n/a	-999	1	[4, 9, 9]	22	FR1	1	R1207J
225.695	4.451	236422	PROB	4.451	n/a	n/a	-999	1	[4, 3, 8]	15	FR1	1	R1207J
230.146	7.289	240873	PROB	7.289	n/a	n/a	-999	1	[7, 6, 9]	22	FR1	1	R1207J
237.435	0.011	248162	STOP	n/a	n/a	n/a	-999	1	[-999, -999, -999]	n/a	FR1	1	R1207J
237.446	0.618	248173	DISTRACT_END	n/a	n/a	n/a	-999	1	[0, 0, 0]	n/a	FR1	1	R1207J
238.064	0.517	248791	RETRIEVAL_ORIENT	n/a	n/a	n/a	-999	1	[0, 0, 0]	n/a	FR1	1	R1207J
238.581	1.322	249308	REC_START	n/a	n/a	n/a	-999	1	[0, 0, 0]	n/a	FR1	1	R1207J
239.903	2.433	250630	REC_WORD	2.433	n/a	EEL	-999	1	[0, 0, 0]	n/a	FR1	1	R1207J
242.336	10.067	253063	REC_WORD	10.067	n/a	PLANE	-999	1	[0, 0, 0]	n/a	FR1	1	R1207J
252.403	16.19	263130	REC_WORD	16.19	n/a	COTTON	-999	1	[0, 0, 0]	n/a	FR1	1	R1207J
268.593	4.509	279320	REC_END	n/a	n/a	n/a	-999	1	[0, 0, 0]	n/a	FR1	1	R1207J
273.102	0.5	283829	TRIAL	n/a	n/a	n/a	-999	2	[0, 0, 0]	n/a	FR1	1	R1207J
273.602	10.428	284329	COUNTDOWN_START	n/a	n/a	n/a	-999	2	[0, 0, 0]	n/a	FR1	1	R1207J
284.03	0.007	294757	COUNTDOWN_END	n/a	n/a	n/a	-999	2	[0, 0, 0]	n/a	FR1	1	R1207J
284.037	1.616	294764	ORIENT	n/a	n/a	n/a	-999	2	[0, 0, 0]	n/a	FR1	1	R1207J
285.653	2.251	296380	ORIENT_OFF	n/a	n/a	n/a	-999	2	[0, 0, 0]	n/a	FR1	1	R1207J
287.904	1.616	298631	WORD	n/a	wordpools/wordpool_EN.txt	BLUSH	1	2	[0, 0, 0]	n/a	FR1	1	R1207J
289.52	0.768	300247	WORD_OFF	n/a	n/a	BLUSH	1	2	[0, 0, 0]	n/a	FR1	1	R1207J
290.288	1.617	301015	WORD	n/a	wordpools/wordpool_EN.txt	FILM	2	2	[0, 0, 0]	n/a	FR1	1	R1207J
291.905	0.915	302631	WORD_OFF	n/a	n/a	FILM	2	2	[0, 0, 0]	n/a	FR1	1	R1207J
292.82	1.617	303546	WORD	n/a	wordpools/wordpool_EN.txt	LAND	3	2	[0, 0, 0]	n/a	FR1	1	R1207J
294.437	0.768	305163	WORD_OFF	n/a	n/a	LAND	3	2	[0, 0, 0]	n/a	FR1	1	R1207J
295.205	1.616	305931	WORD	n/a	wordpools/wordpool_EN.txt	JET	4	2	[0, 0, 0]	n/a	FR1	1	R1207J
296.821	0.917	307547	WORD_OFF	n/a	n/a	JET	4	2	[0, 0, 0]	n/a	FR1	1	R1207J
297.738	1.616	308464	WORD	n/a	wordpools/wordpool_EN.txt	WOLF	5	2	[0, 0, 0]	n/a	FR1	1	R1207J
299.354	0.984	310080	WORD_OFF	n/a	n/a	WOLF	5	2	[0, 0, 0]	n/a	FR1	1	R1207J
300.338	1.618	311064	WORD	n/a	wordpools/wordpool_EN.txt	MOTH	6	2	[0, 0, 0]	n/a	FR1	1	R1207J
301.956	0.766	312682	WORD_OFF	n/a	n/a	MOTH	6	2	[0, 0, 0]	n/a	FR1	1	R1207J
302.722	1.617	313448	WORD	n/a	wordpools/wordpool_EN.txt	WING	7	2	[0, 0, 0]	n/a	FR1	1	R1207J
304.339	0.901	315065	WORD_OFF	n/a	n/a	WING	7	2	[0, 0, 0]	n/a	FR1	1	R1207J
305.24	1.615	315966	WORD	n/a	wordpools/wordpool_EN.txt	PET	8	2	[0, 0, 0]	n/a	FR1	1	R1207J
306.855	0.917	317581	WORD_OFF	n/a	n/a	PET	8	2	[0, 0, 0]	n/a	FR1	1	R1207J
307.772	1.617	318498	WORD	n/a	wordpools/wordpool_EN.txt	FOOD	9	2	[0, 0, 0]	n/a	FR1	1	R1207J
309.389	0.95	320115	WORD_OFF	n/a	n/a	FOOD	9	2	[0, 0, 0]	n/a	FR1	1	R1207J
310.339	1.618	321065	WORD	n/a	wordpools/wordpool_EN.txt	BRIDGE	10	2	[0, 0, 0]	n/a	FR1	1	R1207J
311.957	0.833	322683	WORD_OFF	n/a	n/a	BRIDGE	10	2	[0, 0, 0]	n/a	FR1	1	R1207J
312.79	1.617	323516	WORD	n/a	wordpools/wordpool_EN.txt	SALT	11	2	[0, 0, 0]	n/a	FR1	1	R1207J
314.407	0.834	325133	WORD_OFF	n/a	n/a	SALT	11	2	[0, 0, 0]	n/a	FR1	1	R1207J
315.241	1.616	325967	WORD	n/a	wordpools/wordpool_EN.txt	SQUARE	12	2	[0, 0, 0]	n/a	FR1	1	R1207J
316.857	0.0	327583	WORD_OFF	n/a	n/a	SQUARE	12	2	[0, 0, 0]	n/a	FR1	1	R1207J
316.857	0.0	327583	DISTRACT_START	n/a	n/a	n/a	-999	2	[0, 0, 0]	n/a	FR1	1	R1207J
316.857	0.017	327583	START	n/a	n/a	n/a	-999	2	[-999, -999, -999]	n/a	FR1	1	R1207J
316.874	2.983	327600	PROB	2.983	n/a	n/a	-999	2	[8, 2, 6]	16	FR1	1	R1207J
319.857	3.784	330583	PROB	3.784	n/a	n/a	-999	2	[5, 8, 6]	19	FR1	1	R1207J
323.641	3.535	334367	PROB	3.535	n/a	n/a	-999	2	[2, 9, 9]	20	FR1	1	R1207J
327.176	3.001	337902	PROB	3.001	n/a	n/a	-999	2	[2, 8, 6]	16	FR1	1	R1207J
330.177	3.717	340903	PROB	3.717	n/a	n/a	-999	2	[9, 8, 4]	21	FR1	1	R1207J
333.894	3.562	344620	PROB	3.562	n/a	n/a	-999	2	[4, 7, 4]	16	FR1	1	R1207J
337.456	0.02	348182	STOP	n/a	n/a	n/a	-999	2	[-999, -999, -999]	n/a	FR1	1	R1207J
337.476	0.518	348202	DISTRACT_END	n/a	n/a	n/a	-999	2	[0, 0, 0]	n/a	FR1	1	R1207J
337.994	0.516	348720	RETRIEVAL_ORIENT	n/a	n/a	n/a	-999	2	[0, 0, 0]	n/a	FR1	1	R1207J
338.51	1.18	349236	REC_START	n/a	n/a	n/a	-999	2	[0, 0, 0]	n/a	FR1	1	R1207J
339.69	1.417	350416	REC_WORD	1.417	n/a	WOLF	-999	2	[0, 0, 0]	n/a	FR1	1	R1207J
341.107	1.365	351833	REC_WORD	1.365	n/a	SQUARE	-999	2	[0, 0, 0]	n/a	FR1	1	R1207J
342.472	1.474	353198	REC_WORD	1.474	n/a	SALT	-999	2	[0, 0, 0]	n/a	FR1	1	R1207J
343.946	1.576	354672	REC_WORD	1.576	n/a	FOOD	-999	2	[0, 0, 0]	n/a	FR1	1	R1207J
345.522	23.001	356248	REC_WORD	23.001	n/a	EEL	-999	2	[0, 0, 0]	n/a	FR1	1	R1207J
368.523	5.108	379249	REC_END	n/a	n/a	n/a	-999	2	[0, 0, 0]	n/a	FR1	1	R1207J
373.631	0.5	384357	TRIAL	n/a	n/a	n/a	-999	3	[0, 0, 0]	n/a	FR1	1	R1207J
374.131	10.428	384857	COUNTDOWN_START	n/a	n/a	n/a	-999	3	[0, 0, 0]	n/a	FR1	1	R1207J
384.559	0.007	395285	COUNTDOWN_END	n/a	n/a	n/a	-999	3	[0, 0, 0]	n/a	FR1	1	R1207J
384.566	1.618	395292	ORIENT	n/a	n/a	n/a	-999	3	[0, 0, 0]	n/a	FR1	1	R1207J
386.184	2.067	396910	ORIENT_OFF	n/a	n/a	n/a	-999	3	[0, 0, 0]	n/a	FR1	1	R1207J
388.251	1.616	398977	WORD	n/a	wordpools/wordpool_EN.txt	CAGE	1	3	[0, 0, 0]	n/a	FR1	1	R1207J
389.867	0.833	400593	WORD_OFF	n/a	n/a	CAGE	1	3	[0, 0, 0]	n/a	FR1	1	R1207J
390.7	1.617	401426	WORD	n/a	wordpools/wordpool_EN.txt	POOL	2	3	[0, 0, 0]	n/a	FR1	1	R1207J
392.317	0.935	403043	WORD_OFF	n/a	n/a	POOL	2	3	[0, 0, 0]	n/a	FR1	1	R1207J
393.252	1.616	403978	WORD	n/a	wordpools/wordpool_EN.txt	PASTE	3	3	[0, 0, 0]	n/a	FR1	1	R1207J
394.868	0.833	405594	WORD_OFF	n/a	n/a	PASTE	3	3	[0, 0, 0]	n/a	FR1	1	R1207J
395.701	1.617	406427	WORD	n/a	wordpools/wordpool_EN.txt	CAKE	4	3	[0, 0, 0]	n/a	FR1	1	R1207J
397.318	0.801	408044	WORD_OFF	n/a	n/a	CAKE	4	3	[0, 0, 0]	n/a	FR1	1	R1207J
398.119	1.616	408845	WORD	n/a	wordpools/wordpool_EN.txt	SOCK	5	3	[0, 0, 0]	n/a	FR1	1	R1207J
399.735	0.9	410461	WORD_OFF	n/a	n/a	SOCK	5	3	[0, 0, 0]	n/a	FR1	1	R1207J
400.635	1.618	411361	WORD	n/a	wordpools/wordpool_EN.txt	SKUNK	6	3	[0, 0, 0]	n/a	FR1	1	R1207J
402.253	0.816	412979	WORD_OFF	n/a	n/a	SKUNK	6	3	[0, 0, 0]	n/a	FR1	1	R1207J
403.069	1.617	413795	WORD	n/a	wordpools/wordpool_EN.txt	FLOOR	7	3	[0, 0, 0]	n/a	FR1	1	R1207J
404.686	0.916	415412	WORD_OFF	n/a	n/a	FLOOR	7	3	[0, 0, 0]	n/a	FR1	1	R1207J
405.602	1.618	416328	WORD	n/a	wordpools/wordpool_EN.txt	PEACH	8	3	[0, 0, 0]	n/a	FR1	1	R1207J
407.22	0.883	417946	WORD_OFF	n/a	n/a	PEACH	8	3	[0, 0, 0]	n/a	FR1	1	R1207J
408.103	1.616	418829	WORD	n/a	wordpools/wordpool_EN.txt	SNAKE	9	3	[0, 0, 0]	n/a	FR1	1	R1207J
409.719	0.784	420445	WORD_OFF	n/a	n/a	SNAKE	9	3	[0, 0, 0]	n/a	FR1	1	R1207J
410.503	1.601	421229	WORD	n/a	wordpools/wordpool_EN.txt	STICK	10	3	[0, 0, 0]	n/a	FR1	1	R1207J
412.104	0.784	422830	WORD_OFF	n/a	n/a	STICK	10	3	[0, 0, 0]	n/a	FR1	1	R1207J
412.888	1.616	423614	WORD	n/a	wordpools/wordpool_EN.txt	HOOF	11	3	[0, 0, 0]	n/a	FR1	1	R1207J
414.504	0.916	425230	WORD_OFF	n/a	n/a	HOOF	11	3	[0, 0, 0]	n/a	FR1	1	R1207J
415.42	1.618	426146	WORD	n/a	wordpools/wordpool_EN.txt	CHAIR	12	3	[0, 0, 0]	n/a	FR1	1	R1207J
417.038	0.0	427764	WORD_OFF	n/a	n/a	CHAIR	12	3	[0, 0, 0]	n/a	FR1	1	R1207J
417.038	0.001	427764	DISTRACT_START	n/a	n/a	n/a	-999	3	[0, 0, 0]	n/a	FR1	1	R1207J
417.039	0.016	427765	START	n/a	n/a	n/a	-999	3	[-999, -999, -999]	n/a	FR1	1	R1207J
417.055	2.933	427781	PROB	2.933	n/a	n/a	-999	3	[4, 4, 6]	14	FR1	1	R1207J
419.988	2.517	430714	PROB	2.517	n/a	n/a	-999	3	[1, 2, 6]	9	FR1	1	R1207J
422.505	3.816	433231	PROB	3.816	n/a	n/a	-999	3	[9, 3, 2]	14	FR1	1	R1207J
426.321	2.885	437047	PROB	2.885	n/a	n/a	-999	3	[6, 5, 3]	14	FR1	1	R1207J
429.206	3.516	439932	PROB	3.516	n/a	n/a	-999	3	[7, 6, 8]	21	FR1	1	R1207J
432.722	5.93	443448	PROB	5.93	n/a	n/a	-999	3	[9, 7, 7]	23	FR1	1	R1207J
438.652	0.021	449378	STOP	n/a	n/a	n/a	-999	3	[-999, -999, -999]	n/a	FR1	1	R1207J
438.673	0.684	449399	DISTRACT_END	n/a	n/a	n/a	-999	3	[0, 0, 0]	n/a	FR1	1	R1207J
439.357	0.518	450083	RETRIEVAL_ORIENT	n/a	n/a	n/a	-999	3	[0, 0, 0]	n/a	FR1	1	R1207J
439.875	1.103	450601	REC_START	n/a	n/a	n/a	-999	3	[0, 0, 0]	n/a	FR1	1	R1207J
440.978	1.888	451704	REC_WORD	1.888	n/a	SOCK	-999	3	[0, 0, 0]	n/a	FR1	1	R1207J
442.866	18.454	453592	REC_WORD	18.454	n/a	HOOF	-999	3	[0, 0, 0]	n/a	FR1	1	R1207J
461.32	3.504	472046	REC_WORD_VV	3.504	n/a	<>	-999	3	[0, 0, 0]	n/a	FR1	1	R1207J
464.824	5.061	475550	REC_WORD	5.061	n/a	WING	-999	3	[0, 0, 0]	n/a	FR1	1	R1207J
469.885	5.178	480611	REC_END	n/a	n/a	n/a	-999	3	[0, 0, 0]	n/a	FR1	1	R1207J
475.063	0.5	485789	TRIAL	n/a	n/a	n/a	-999	4	[0, 0, 0]	n/a	FR1	1	R1207J
475.563	10.428	486289	COUNTDOWN_START	n/a	n/a	n/a	-999	4	[0, 0, 0]	n/a	FR1	1	R1207J
485.991	0.006	496717	COUNTDOWN_END	n/a	n/a	n/a	-999	4	[0, 0, 0]	n/a	FR1	1	R1207J
485.997	1.616	496723	ORIENT	n/a	n/a	n/a	-999	4	[0, 0, 0]	n/a	FR1	1	R1207J
487.613	2.134	498339	ORIENT_OFF	n/a	n/a	n/a	-999	4	[0, 0, 0]	n/a	FR1	1	R1207J
489.747	1.617	500473	WORD	n/a	wordpools/wordpool_EN.txt	MAP	1	4	[0, 0, 0]	n/a	FR1	1	R1207J
491.364	0.884	502090	WORD_OFF	n/a	n/a	MAP	1	4	[0, 0, 0]	n/a	FR1	1	R1207J
492.248	1.616	502974	WORD	n/a	wordpools/wordpool_EN.txt	CAR	2	4	[0, 0, 0]	n/a	FR1	1	R1207J
493.864	0.784	504590	WORD_OFF	n/a	n/a	CAR	2	4	[0, 0, 0]	n/a	FR1	1	R1207J
494.648	1.617	505374	WORD	n/a	wordpools/wordpool_EN.txt	OWL	3	4	[0, 0, 0]	n/a	FR1	1	R1207J
496.265	1.0	506991	WORD_OFF	n/a	n/a	OWL	3	4	[0, 0, 0]	n/a	FR1	1	R1207J
497.265	1.617	507991	WORD	n/a	wordpools/wordpool_EN.txt	JAIL	4	4	[0, 0, 0]	n/a	FR1	1	R1207J
498.882	1.0	509608	WORD_OFF	n/a	n/a	JAIL	4	4	[0, 0, 0]	n/a	FR1	1	R1207J
499.882	1.616	510608	WORD	n/a	wordpools/wordpool_EN.txt	GLOVE	5	4	[0, 0, 0]	n/a	FR1	1	R1207J
501.498	0.917	512224	WORD_OFF	n/a	n/a	GLOVE	5	4	[0, 0, 0]	n/a	FR1	1	R1207J
502.415	1.618	513141	WORD	n/a	wordpools/wordpool_EN.txt	CHIEF	6	4	[0, 0, 0]	n/a	FR1	1	R1207J
504.033	0.833	514759	WORD_OFF	n/a	n/a	CHIEF	6	4	[0, 0, 0]	n/a	FR1	1	R1207J
504.866	1.617	515592	WORD	n/a	wordpools/wordpool_EN.txt	ZOO	7	4	[0, 0, 0]	n/a	FR1	1	R1207J
506.483	0.916	517209	WORD_OFF	n/a	n/a	ZOO	7	4	[0, 0, 0]	n/a	FR1	1	R1207J
507.399	1.601	518125	WORD	n/a	wordpools/wordpool_EN.txt	WALL	8	4	[0, 0, 0]	n/a	FR1	1	R1207J
509.0	1.017	519726	WORD_OFF	n/a	n/a	WALL	8	4	[0, 0, 0]	n/a	FR1	1	R1207J
510.017	1.616	520743	WORD	n/a	wordpools/wordpool_EN.txt	WHALE	9	4	[0, 0, 0]	n/a	FR1	1	R1207J
511.633	0.767	522359	WORD_OFF	n/a	n/a	WHALE	9	4	[0, 0, 0]	n/a	FR1	1	R1207J
512.4	1.601	523126	WORD	n/a	wordpools/wordpool_EN.txt	INK	10	4	[0, 0, 0]	n/a	FR1	1	R1207J
514.001	0.884	524727	WORD_OFF	n/a	n/a	INK	10	4	[0, 0, 0]	n/a	FR1	1	R1207J
514.885	1.615	525611	WORD	n/a	wordpools/wordpool_EN.txt	EAR	11	4	[0, 0, 0]	n/a	FR1	1	R1207J
516.5	0.817	527226	WORD_OFF	n/a	n/a	EAR	11	4	[0, 0, 0]	n/a	FR1	1	R1207J
517.317	1.602	528043	WORD	n/a	wordpools/wordpool_EN.txt	CAPE	12	4	[0, 0, 0]	n/a	FR1	1	R1207J
518.919	0.0	529645	WORD_OFF	n/a	n/a	CAPE	12	4	[0, 0, 0]	n/a	FR1	1	R1207J
518.919	0.0	529645	DISTRACT_START	n/a	n/a	n/a	-999	4	[0, 0, 0]	n/a	FR1	1	R1207J
518.919	0.016	529645	START	n/a	n/a	n/a	-999	4	[-999, -999, -999]	n/a	FR1	1	R1207J
518.935	4.867	529661	PROB	4.867	n/a	n/a	-999	4	[6, 6, 7]	20	FR1	1	R1207J
523.802	3.933	534528	PROB	3.933	n/a	n/a	-999	4	[3, 9, 2]	14	FR1	1	R1207J
527.735	3.352	538461	PROB	3.352	n/a	n/a	-999	4	[9, 4, 5]	18	FR1	1	R1207J
531.087	4.084	541813	PROB	4.084	n/a	n/a	-999	4	[8, 8, 7]	23	FR1	1	R1207J
535.171	5.999	545897	PROB	5.999	n/a	n/a	-999	4	[7, 5, 6]	18	FR1	1	R1207J
541.17	0.018	551896	STOP	n/a	n/a	n/a	-999	4	[-999, -999, -999]	n/a	FR1	1	R1207J
541.188	0.683	551914	DISTRACT_END	n/a	n/a	n/a	-999	4	[0, 0, 0]	n/a	FR1	1	R1207J
541.871	0.517	552597	RETRIEVAL_ORIENT	n/a	n/a	n/a	-999	4	[0, 0, 0]	n/a	FR1	1	R1207J
542.388	5.366	553114	REC_START	n/a	n/a	n/a	-999	4	[0, 0, 0]	n/a	FR1	1	R1207J
547.754	3.957	558480	REC_WORD_VV	3.957	n/a	<>	-999	4	[0, 0, 0]	n/a	FR1	1	R1207J
551.711	15.492	562436	REC_WORD_VV	15.492	n/a	<>	-999	4	[0, 0, 0]	n/a	FR1	1	R1207J
567.203	1.0	577928	REC_WORD_VV	1.0	n/a	<>	-999	4	[0, 0, 0]	n/a	FR1	1	R1207J
568.203	4.198	578928	REC_WORD_VV	4.198	n/a	<>	-999	4	[0, 0, 0]	n/a	FR1	1	R1207J
572.401	5.024	583126	REC_END	n/a	n/a	n/a	-999	4	[0, 0, 0]	n/a	FR1	1	R1207J
577.425	0.5	588150	TRIAL	n/a	n/a	n/a	-999	5	[0, 0, 0]	n/a	FR1	1	R1207J
577.925	10.428	588650	COUNTDOWN_START	n/a	n/a	n/a	-999	5	[0, 0, 0]	n/a	FR1	1	R1207J
588.353	0.007	599078	COUNTDOWN_END	n/a	n/a	n/a	-999	5	[0, 0, 0]	n/a	FR1	1	R1207J
588.36	1.618	599085	ORIENT	n/a	n/a	n/a	-999	5	[0, 0, 0]	n/a	FR1	1	R1207J
589.978	2.034	600703	ORIENT_OFF	n/a	n/a	n/a	-999	5	[0, 0, 0]	n/a	FR1	1	R1207J
592.012	1.616	602737	WORD	n/a	wordpools/wordpool_EN.txt	BEACH	1	5	[0, 0, 0]	n/a	FR1	1	R1207J
593.628	0.883	604353	WORD_OFF	n/a	n/a	BEACH	1	5	[0, 0, 0]	n/a	FR1	1	R1207J
594.511	1.618	605236	WORD	n/a	wordpools/wordpool_EN.txt	MAZE	2	5	[0, 0, 0]	n/a	FR1	1	R1207J
596.129	1.016	606854	WORD_OFF	n/a	n/a	MAZE	2	5	[0, 0, 0]	n/a	FR1	1	R1207J
597.145	1.616	607870	WORD	n/a	wordpools/wordpool_EN.txt	STAR	3	5	[0, 0, 0]	n/a	FR1	1	R1207J
598.761	0.784	609486	WORD_OFF	n/a	n/a	STAR	3	5	[0, 0, 0]	n/a	FR1	1	R1207J
599.545	1.618	610270	WORD	n/a	wordpools/wordpool_EN.txt	MOON	4	5	[0, 0, 0]	n/a	FR1	1	R1207J
601.163	0.95	611888	WORD_OFF	n/a	n/a	MOON	4	5	[0, 0, 0]	n/a	FR1	1	R1207J
602.113	1.616	612838	WORD	n/a	wordpools/wordpool_EN.txt	BALL	5	5	[0, 0, 0]	n/a	FR1	1	R1207J
603.729	0.9	614454	WORD_OFF	n/a	n/a	BALL	5	5	[0, 0, 0]	n/a	FR1	1	R1207J
604.629	1.618	615354	WORD	n/a	wordpools/wordpool_EN.txt	BOWL	6	5	[0, 0, 0]	n/a	FR1	1	R1207J
606.247	0.833	616972	WORD_OFF	n/a	n/a	BOWL	6	5	[0, 0, 0]	n/a	FR1	1	R1207J
607.08	1.616	617805	WORD	n/a	wordpools/wordpool_EN.txt	SCHOOL	7	5	[0, 0, 0]	n/a	FR1	1	R1207J
608.696	1.017	619421	WORD_OFF	n/a	n/a	SCHOOL	7	5	[0, 0, 0]	n/a	FR1	1	R1207J
609.713	1.617	620438	WORD	n/a	wordpools/wordpool_EN.txt	SIGN	8	5	[0, 0, 0]	n/a	FR1	1	R1207J
611.33	0.834	622055	WORD_OFF	n/a	n/a	SIGN	8	5	[0, 0, 0]	n/a	FR1	1	R1207J
612.164	1.616	622889	WORD	n/a	wordpools/wordpool_EN.txt	SPONGE	9	5	[0, 0, 0]	n/a	FR1	1	R1207J
613.78	0.8	624505	WORD_OFF	n/a	n/a	SPONGE	9	5	[0, 0, 0]	n/a	FR1	1	R1207J
614.58	1.618	625305	WORD	n/a	wordpools/wordpool_EN.txt	NET	10	5	[0, 0, 0]	n/a	FR1	1	R1207J
616.198	0.883	626923	WORD_OFF	n/a	n/a	NET	10	5	[0, 0, 0]	n/a	FR1	1	R1207J
617.081	1.616	627806	WORD	n/a	wordpools/wordpool_EN.txt	BLOOM	11	5	[0, 0, 0]	n/a	FR1	1	R1207J
618.697	0.95	629422	WORD_OFF	n/a	n/a	BLOOM	11	5	[0, 0, 0]	n/a	FR1	1	R1207J
619.647	1.602	630372	WORD	n/a	wordpools/wordpool_EN.txt	KITE	12	5	[0, 0, 0]	n/a	FR1	1	R1207J
621.249	0.0	631974	WORD_OFF	n/a	n/a	KITE	12	5	[0, 0, 0]	n/a	FR1	1	R1207J
621.249	0.0	631974	DISTRACT_START	n/a	n/a	n/a	-999	5	[0, 0, 0]	n/a	FR1	1	R1207J
621.249	0.016	631974	START	n/a	n/a	n/a	-999	5	[-999, -999, -999]	n/a	FR1	1	R1207J
621.265	3.45	631990	PROB	3.45	n/a	n/a	-999	5	[8, 9, 9]	26	FR1	1	R1207J
624.715	2.617	635440	PROB	2.617	n/a	n/a	-999	5	[3, 2, 2]	7	FR1	1	R1207J
627.332	3.568	638057	PROB	3.568	n/a	n/a	-999	5	[9, 5, 6]	20	FR1	1	R1207J
630.9	2.616	641625	PROB	2.616	n/a	n/a	-999	5	[7, 4, 6]	17	FR1	1	R1207J
633.516	5.034	644241	PROB	5.034	n/a	n/a	-999	5	[3, 7, 8]	18	FR1	1	R1207J
638.55	2.184	649275	PROB	2.184	n/a	n/a	-999	5	[5, 2, 1]	8	FR1	1	R1207J
640.734	2.561	651459	PROB	2.561	n/a	n/a	-999	5	[5, 9, 2]	17	FR1	1	R1207J
643.295	0.006	654020	STOP	n/a	n/a	n/a	-999	5	[-999, -999, -999]	n/a	FR1	1	R1207J
643.301	0.618	654026	DISTRACT_END	n/a	n/a	n/a	-999	5	[0, 0, 0]	n/a	FR1	1	R1207J
643.919	0.517	654644	RETRIEVAL_ORIENT	n/a	n/a	n/a	-999	5	[0, 0, 0]	n/a	FR1	1	R1207J
644.436	1.109	655161	REC_START	n/a	n/a	n/a	-999	5	[0, 0, 0]	n/a	FR1	1	R1207J
645.545	1.766	656270	REC_WORD	1.766	n/a	BEACH	-999	5	[0, 0, 0]	n/a	FR1	1	R1207J
647.311	1.313	658036	REC_WORD	1.313	n/a	MOON	-999	5	[0, 0, 0]	n/a	FR1	1	R1207J
648.624	5.571	659349	REC_WORD	5.571	n/a	STAR	-999	5	[0, 0, 0]	n/a	FR1	1	R1207J
654.195	11.751	664920	REC_WORD	11.751	n/a	SIGN	-999	5	[0, 0, 0]	n/a	FR1	1	R1207J
665.946	4.39	676671	REC_WORD	4.39	n/a	SCHOOL	-999	5	[0, 0, 0]	n/a	FR1	1	R1207J
670.336	4.112	681061	REC_WORD	4.112	n/a	SPONGE	-999	5	[0, 0, 0]	n/a	FR1	1	R1207J
674.448	4.207	685173	REC_END	n/a	n/a	n/a	-999	5	[0, 0, 0]	n/a	FR1	1	R1207J
678.655	0.5	689380	TRIAL	n/a	n/a	n/a	-999	6	[0, 0, 0]	n/a	FR1	1	R1207J
679.155	10.428	689880	COUNTDOWN_START	n/a	n/a	n/a	-999	6	[0, 0, 0]	n/a	FR1	1	R1207J
689.583	0.007	700308	COUNTDOWN_END	n/a	n/a	n/a	-999	6	[0, 0, 0]	n/a	FR1	1	R1207J
689.59	1.602	700315	ORIENT	n/a	n/a	n/a	-999	6	[0, 0, 0]	n/a	FR1	1	R1207J
691.192	1.883	701917	ORIENT_OFF	n/a	n/a	n/a	-999	6	[0, 0, 0]	n/a	FR1	1	R1207J
693.075	1.616	703800	WORD	n/a	wordpools/wordpool_EN.txt	VASE	1	6	[0, 0, 0]	n/a	FR1	1	R1207J
694.691	0.783	705416	WORD_OFF	n/a	n/a	VASE	1	6	[0, 0, 0]	n/a	FR1	1	R1207J
695.474	1.601	706199	WORD	n/a	wordpools/wordpool_EN.txt	BENCH	2	6	[0, 0, 0]	n/a	FR1	1	R1207J
697.075	0.984	707800	WORD_OFF	n/a	n/a	BENCH	2	6	[0, 0, 0]	n/a	FR1	1	R1207J
698.059	1.616	708784	WORD	n/a	wordpools/wordpool_EN.txt	OAR	3	6	[0, 0, 0]	n/a	FR1	1	R1207J
699.675	0.9	710400	WORD_OFF	n/a	n/a	OAR	3	6	[0, 0, 0]	n/a	FR1	1	R1207J
700.575	1.601	711300	WORD	n/a	wordpools/wordpool_EN.txt	SKY	4	6	[0, 0, 0]	n/a	FR1	1	R1207J
702.176	0.901	712901	WORD_OFF	n/a	n/a	SKY	4	6	[0, 0, 0]	n/a	FR1	1	R1207J
703.077	1.616	713802	WORD	n/a	wordpools/wordpool_EN.txt	MUD	5	6	[0, 0, 0]	n/a	FR1	1	R1207J
704.693	0.999	715418	WORD_OFF	n/a	n/a	MUD	5	6	[0, 0, 0]	n/a	FR1	1	R1207J
705.692	1.617	716417	WORD	n/a	wordpools/wordpool_EN.txt	STOOL	6	6	[0, 0, 0]	n/a	FR1	1	R1207J
707.309	0.868	718034	WORD_OFF	n/a	n/a	STOOL	6	6	[0, 0, 0]	n/a	FR1	1	R1207J
708.177	1.616	718902	WORD	n/a	wordpools/wordpool_EN.txt	SLEEVE	7	6	[0, 0, 0]	n/a	FR1	1	R1207J
709.793	1.0	720518	WORD_OFF	n/a	n/a	SLEEVE	7	6	[0, 0, 0]	n/a	FR1	1	R1207J
710.793	1.617	721518	WORD	n/a	wordpools/wordpool_EN.txt	PURSE	8	6	[0, 0, 0]	n/a	FR1	1	R1207J
712.41	1.0	723135	WORD_OFF	n/a	n/a	PURSE	8	6	[0, 0, 0]	n/a	FR1	1	R1207J
713.41	1.618	724135	WORD	n/a	wordpools/wordpool_EN.txt	STRAW	9	6	[0, 0, 0]	n/a	FR1	1	R1207J
715.028	0.832	725753	WORD_OFF	n/a	n/a	STRAW	9	6	[0, 0, 0]	n/a	FR1	1	R1207J
715.86	1.617	726585	WORD	n/a	wordpools/wordpool_EN.txt	TOE	10	6	[0, 0, 0]	n/a	FR1	1	R1207J
717.477	0.934	728202	WORD_OFF	n/a	n/a	TOE	10	6	[0, 0, 0]	n/a	FR1	1	R1207J
718.411	1.618	729136	WORD	n/a	wordpools/wordpool_EN.txt	DOOR	11	6	[0, 0, 0]	n/a	FR1	1	R1207J
720.029	0.85	730754	WORD_OFF	n/a	n/a	DOOR	11	6	[0, 0, 0]	n/a	FR1	1	R1207J
720.879	1.616	731604	WORD	n/a	wordpools/wordpool_EN.txt	GRAPE	12	6	[0, 0, 0]	n/a	FR1	1	R1207J
722.495	0.0	733220	WORD_OFF	n/a	n/a	GRAPE	12	6	[0, 0, 0]	n/a	FR1	1	R1207J
722.495	0.001	733220	DISTRACT_START	n/a	n/a	n/a	-999	6	[0, 0, 0]	n/a	FR1	1	R1207J
722.496	0.016	733221	START	n/a	n/a	n/a	-999	6	[-999, -999, -999]	n/a	FR1	1	R1207J
722.512	3.667	733237	PROB	3.667	n/a	n/a	-999	6	[3, 4, 9]	18	FR1	1	R1207J
726.179	8.201	736904	PROB	8.201	n/a	n/a	-999	6	[8, 7, 6]	21	FR1	1	R1207J
734.38	2.316	745105	PROB	2.316	n/a	n/a	-999	6	[6, 4, 3]	13	FR1	1	R1207J
736.696	2.402	747421	PROB	2.402	n/a	n/a	-999	6	[9, 1, 4]	14	FR1	1	R1207J
739.098	10.505	749823	PROB	10.505	n/a	n/a	-999	6	[9, 3, 1]	13	FR1	1	R1207J
749.603	0.012	760328	STOP	n/a	n/a	n/a	-999	6	[-999, -999, -999]	n/a	FR1	1	R1207J
749.615	0.568	760340	DISTRACT_END	n/a	n/a	n/a	-999	6	[0, 0, 0]	n/a	FR1	1	R1207J
750.183	0.517	760908	RETRIEVAL_ORIENT	n/a	n/a	n/a	-999	6	[0, 0, 0]	n/a	FR1	1	R1207J
750.7	4.969	761425	REC_START	n/a	n/a	n/a	-999	6	[0, 0, 0]	n/a	FR1	1	R1207J
755.669	1.937	766394	REC_WORD	1.937	n/a	FOOT	-999	6	[0, 0, 0]	n/a	FR1	1	R1207J
757.606	8.044	768331	REC_WORD	8.044	n/a	DOOR	-999	6	[0, 0, 0]	n/a	FR1	1	R1207J
765.65	15.061	776375	REC_WORD	15.061	n/a	TOE	-999	6	[0, 0, 0]	n/a	FR1	1	R1207J
780.711	5.109	791436	REC_END	n/a	n/a	n/a	-999	6	[0, 0, 0]	n/a	FR1	1	R1207J
785.82	0.5	796545	TRIAL	n/a	n/a	n/a	-999	7	[0, 0, 0]	n/a	FR1	1	R1207J
786.32	10.428	797045	COUNTDOWN_START	n/a	n/a	n/a	-999	7	[0, 0, 0]	n/a	FR1	1	R1207J
796.748	0.006	807473	COUNTDOWN_END	n/a	n/a	n/a	-999	7	[0, 0, 0]	n/a	FR1	1	R1207J
796.754	1.617	807479	ORIENT	n/a	n/a	n/a	-999	7	[0, 0, 0]	n/a	FR1	1	R1207J
798.371	2.151	809096	ORIENT_OFF	n/a	n/a	n/a	-999	7	[0, 0, 0]	n/a	FR1	1	R1207J
800.522	1.601	811247	WORD	n/a	wordpools/wordpool_EN.txt	GUARD	1	7	[0, 0, 0]	n/a	FR1	1	R1207J
802.123	0.8	812848	WORD_OFF	n/a	n/a	GUARD	1	7	[0, 0, 0]	n/a	FR1	1	R1207J
802.923	1.616	813648	WORD	n/a	wordpools/wordpool_EN.txt	ROOT	2	7	[0, 0, 0]	n/a	FR1	1	R1207J
804.539	0.834	815264	WORD_OFF	n/a	n/a	ROOT	2	7	[0, 0, 0]	n/a	FR1	1	R1207J
805.373	1.618	816098	WORD	n/a	wordpools/wordpool_EN.txt	MAIL	3	7	[0, 0, 0]	n/a	FR1	1	R1207J
806.991	0.933	817716	WORD_OFF	n/a	n/a	MAIL	3	7	[0, 0, 0]	n/a	FR1	1	R1207J
807.924	1.616	818648	WORD	n/a	wordpools/wordpool_EN.txt	STEM	4	7	[0, 0, 0]	n/a	FR1	1	R1207J
809.54	0.916	820264	WORD_OFF	n/a	n/a	STEM	4	7	[0, 0, 0]	n/a	FR1	1	R1207J
810.456	1.618	821180	WORD	n/a	wordpools/wordpool_EN.txt	SPRING	5	7	[0, 0, 0]	n/a	FR1	1	R1207J
812.074	0.9	822798	WORD_OFF	n/a	n/a	SPRING	5	7	[0, 0, 0]	n/a	FR1	1	R1207J
812.974	1.616	823698	WORD	n/a	wordpools/wordpool_EN.txt	MOUTH	6	7	[0, 0, 0]	n/a	FR1	1	R1207J
814.59	0.917	825314	WORD_OFF	n/a	n/a	MOUTH	6	7	[0, 0, 0]	n/a	FR1	1	R1207J
815.507	1.618	826231	WORD	n/a	wordpools/wordpool_EN.txt	SEA	7	7	[0, 0, 0]	n/a	FR1	1	R1207J
817.125	0.8	827849	WORD_OFF	n/a	n/a	SEA	7	7	[0, 0, 0]	n/a	FR1	1	R1207J
817.925	1.616	828649	WORD	n/a	wordpools/wordpool_EN.txt	MILK	8	7	[0, 0, 0]	n/a	FR1	1	R1207J
819.541	0.85	830265	WORD_OFF	n/a	n/a	MILK	8	7	[0, 0, 0]	n/a	FR1	1	R1207J
820.391	1.618	831115	WORD	n/a	wordpools/wordpool_EN.txt	ELF	9	7	[0, 0, 0]	n/a	FR1	1	R1207J
822.009	0.934	832733	WORD_OFF	n/a	n/a	ELF	9	7	[0, 0, 0]	n/a	FR1	1	R1207J
822.943	1.616	833667	WORD	n/a	wordpools/wordpool_EN.txt	COIN	10	7	[0, 0, 0]	n/a	FR1	1	R1207J
824.559	0.933	835283	WORD_OFF	n/a	n/a	COIN	10	7	[0, 0, 0]	n/a	FR1	1	R1207J
825.492	1.618	836216	WORD	n/a	wordpools/wordpool_EN.txt	CAT	11	7	[0, 0, 0]	n/a	FR1	1	R1207J
827.11	0.783	837834	WORD_OFF	n/a	n/a	CAT	11	7	[0, 0, 0]	n/a	FR1	1	R1207J
827.893	1.616	838617	WORD	n/a	wordpools/wordpool_EN.txt	FOOT	12	7	[0, 0, 0]	n/a	FR1	1	R1207J
829.509	0.0	840233	WORD_OFF	n/a	n/a	FOOT	12	7	[0, 0, 0]	n/a	FR1	1	R1207J
829.509	0.001	840233	DISTRACT_START	n/a	n/a	n/a	-999	7	[0, 0, 0]	n/a	FR1	1	R1207J
829.51	0.016	840234	START	n/a	n/a	n/a	-999	7	[-999, -999, -999]	n/a	FR1	1	R1207J
829.526	3.668	840250	PROB	3.668	n/a	n/a	-999	7	[9, 2, 7]	18	FR1	1	R1207J
833.194	2.9	843918	PROB	2.9	n/a	n/a	-999	7	[7, 4, 4]	16	FR1	1	R1207J
836.094	2.801	846818	PROB	2.801	n/a	n/a	-999	7	[9, 1, 6]	16	FR1	1	R1207J
838.895	4.284	849619	PROB	4.284	n/a	n/a	-999	7	[3, 8, 3]	15	FR1	1	R1207J
843.179	4.332	853903	PROB	4.332	n/a	n/a	-999	7	[3, 3, 9]	15	FR1	1	R1207J
847.511	3.079	858235	PROB	3.079	n/a	n/a	-999	7	[2, 3, 3]	8	FR1	1	R1207J
850.59	0.022	861314	STOP	n/a	n/a	n/a	-999	7	[-999, -999, -999]	n/a	FR1	1	R1207J
850.612	0.551	861336	DISTRACT_END	n/a	n/a	n/a	-999	7	[0, 0, 0]	n/a	FR1	1	R1207J
851.163	0.517	861887	RETRIEVAL_ORIENT	n/a	n/a	n/a	-999	7	[0, 0, 0]	n/a	FR1	1	R1207J
851.68	1.144	862404	REC_START	n/a	n/a	n/a	-999	7	[0, 0, 0]	n/a	FR1	1	R1207J
852.824	1.443	863548	REC_WORD	1.443	n/a	MILK	-999	7	[0, 0, 0]	n/a	FR1	1	R1207J
854.267	22.946	864991	REC_WORD	22.946	n/a	FOOT	-999	7	[0, 0, 0]	n/a	FR1	1	R1207J
877.213	1.0	887937	REC_WORD_VV	1.0	n/a	<>	-999	7	[0, 0, 0]	n/a	FR1	1	R1207J
878.213	3.479	888937	REC_WORD_VV	3.479	n/a	<>	-999	7	[0, 0, 0]	n/a	FR1	1	R1207J
881.692	4.675	892416	REC_END	n/a	n/a	n/a	-999	7	[0, 0, 0]	n/a	FR1	1	R1207J
886.367	0.5	897091	TRIAL	n/a	n/a	n/a	-999	8	[0, 0, 0]	n/a	FR1	1	R1207J
886.867	10.428	897591	COUNTDOWN_START	n/a	n/a	n/a	-999	8	[0, 0, 0]	n/a	FR1	1	R1207J
897.295	0.007	908019	COUNTDOWN_END	n/a	n/a	n/a	-999	8	[0, 0, 0]	n/a	FR1	1	R1207J
897.302	1.617	908026	ORIENT	n/a	n/a	n/a	-999	8	[0, 0, 0]	n/a	FR1	1	R1207J
898.919	1.967	909643	ORIENT_OFF	n/a	n/a	n/a	-999	8	[0, 0, 0]	n/a	FR1	1	R1207J
900.886	1.616	911610	WORD	n/a	wordpools/wordpool_EN.txt	BREAD	1	8	[0, 0, 0]	n/a	FR1	1	R1207J
902.502	0.834	913226	WORD_OFF	n/a	n/a	BREAD	1	8	[0, 0, 0]	n/a	FR1	1	R1207J
903.336	1.618	914060	WORD	n/a	wordpools/wordpool_EN.txt	CONE	2	8	[0, 0, 0]	n/a	FR1	1	R1207J
904.954	0.899	915678	WORD_OFF	n/a	n/a	CONE	2	8	[0, 0, 0]	n/a	FR1	1	R1207J
905.853	1.617	916577	WORD	n/a	wordpools/wordpool_EN.txt	TOOL	3	8	[0, 0, 0]	n/a	FR1	1	R1207J
907.47	0.817	918194	WORD_OFF	n/a	n/a	TOOL	3	8	[0, 0, 0]	n/a	FR1	1	R1207J
908.287	1.617	919011	WORD	n/a	wordpools/wordpool_EN.txt	YARD	4	8	[0, 0, 0]	n/a	FR1	1	R1207J
909.904	0.849	920628	WORD_OFF	n/a	n/a	YARD	4	8	[0, 0, 0]	n/a	FR1	1	R1207J
910.753	1.617	921477	WORD	n/a	wordpools/wordpool_EN.txt	CART	5	8	[0, 0, 0]	n/a	FR1	1	R1207J
912.37	0.801	923094	WORD_OFF	n/a	n/a	CART	5	8	[0, 0, 0]	n/a	FR1	1	R1207J
913.171	1.616	923895	WORD	n/a	wordpools/wordpool_EN.txt	DITCH	6	8	[0, 0, 0]	n/a	FR1	1	R1207J
914.787	0.983	925511	WORD_OFF	n/a	n/a	DITCH	6	8	[0, 0, 0]	n/a	FR1	1	R1207J
915.77	1.617	926494	WORD	n/a	wordpools/wordpool_EN.txt	HAT	7	8	[0, 0, 0]	n/a	FR1	1	R1207J
917.387	1.001	928111	WORD_OFF	n/a	n/a	HAT	7	8	[0, 0, 0]	n/a	FR1	1	R1207J
918.388	1.617	929112	WORD	n/a	wordpools/wordpool_EN.txt	WAND	8	8	[0, 0, 0]	n/a	FR1	1	R1207J
920.005	0.866	930729	WORD_OFF	n/a	n/a	WAND	8	8	[0, 0, 0]	n/a	FR1	1	R1207J
920.871	1.617	931595	WORD	n/a	wordpools/wordpool_EN.txt	POLE	9	8	[0, 0, 0]	n/a	FR1	1	R1207J
922.488	0.9	933212	WORD_OFF	n/a	n/a	POLE	9	8	[0, 0, 0]	n/a	FR1	1	R1207J
923.388	1.602	934112	WORD	n/a	wordpools/wordpool_EN.txt	THUMB	10	8	[0, 0, 0]	n/a	FR1	1	R1207J
924.99	0.933	935714	WORD_OFF	n/a	n/a	THUMB	10	8	[0, 0, 0]	n/a	FR1	1	R1207J
925.923	1.616	936647	WORD	n/a	wordpools/wordpool_EN.txt	RAKE	11	8	[0, 0, 0]	n/a	FR1	1	R1207J
927.539	0.867	938263	WORD_OFF	n/a	n/a	RAKE	11	8	[0, 0, 0]	n/a	FR1	1	R1207J
928.406	1.617	939130	WORD	n/a	wordpools/wordpool_EN.txt	HEN	12	8	[0, 0, 0]	n/a	FR1	1	R1207J
930.023	0.0	940747	WORD_OFF	n/a	n/a	HEN	12	8	[0, 0, 0]	n/a	FR1	1	R1207J
930.023	0.001	940747	DISTRACT_START	n/a	n/a	n/a	-999	8	[0, 0, 0]	n/a	FR1	1	R1207J
930.024	0.016	940748	START	n/a	n/a	n/a	-999	8	[-999, -999, -999]	n/a	FR1	1	R1207J
930.04	4.733	940764	PROB	4.733	n/a	n/a	-999	8	[8, 8, 9]	24	FR1	1	R1207J
934.773	2.717	945497	PROB	2.717	n/a	n/a	-999	8	[3, 2, 2]	7	FR1	1	R1207J
937.49	2.9	948214	PROB	2.9	n/a	n/a	-999	8	[4, 3, 7]	14	FR1	1	R1207J
940.39	3.084	951114	PROB	3.084	n/a	n/a	-999	8	[5, 3, 1]	9	FR1	1	R1207J
943.474	2.067	954198	PROB	2.067	n/a	n/a	-999	8	[2, 2, 8]	12	FR1	1	R1207J
945.541	3.335	956265	PROB	3.335	n/a	n/a	-999	8	[4, 2, 3]	9	FR1	1	R1207J
948.876	5.463	959600	PROB	5.463	n/a	n/a	-999	8	[7, 4, 4]	14	FR1	1	R1207J
954.339	0.02	965063	STOP	n/a	n/a	n/a	-999	8	[-999, -999, -999]	n/a	FR1	1	R1207J
954.359	0.668	965083	DISTRACT_END	n/a	n/a	n/a	-999	8	[0, 0, 0]	n/a	FR1	1	R1207J
955.027	0.516	965751	RETRIEVAL_ORIENT	n/a	n/a	n/a	-999	8	[0, 0, 0]	n/a	FR1	1	R1207J
955.543	1.228	966267	REC_START	n/a	n/a	n/a	-999	8	[0, 0, 0]	n/a	FR1	1	R1207J
956.771	1.321	967495	REC_WORD	1.321	n/a	RAKE	-999	8	[0, 0, 0]	n/a	FR1	1	R1207J
958.092	2.69	968816	REC_WORD	2.69	n/a	THUMB	-999	8	[0, 0, 0]	n/a	FR1	1	R1207J
960.782	24.773	971506	REC_WORD	24.773	n/a	FOOT	-999	8	[0, 0, 0]	n/a	FR1	1	R1207J
985.555	4.125	996279	REC_END	n/a	n/a	n/a	-999	8	[0, 0, 0]	n/a	FR1	1	R1207J
989.68	0.5	1000404	TRIAL	n/a	n/a	n/a	-999	9	[0, 0, 0]	n/a	FR1	1	R1207J
990.18	10.428	1000904	COUNTDOWN_START	n/a	n/a	n/a	-999	9	[0, 0, 0]	n/a	FR1	1	R1207J
1000.608	0.007	1011332	COUNTDOWN_END	n/a	n/a	n/a	-999	9	[0, 0, 0]	n/a	FR1	1	R1207J
1000.615	1.618	1011339	ORIENT	n/a	n/a	n/a	-999	9	[0, 0, 0]	n/a	FR1	1	R1207J
1002.233	2.216	1012957	ORIENT_OFF	n/a	n/a	n/a	-999	9	[0, 0, 0]	n/a	FR1	1	R1207J
1004.449	1.617	1015173	WORD	n/a	wordpools/wordpool_EN.txt	FAN	1	9	[0, 0, 0]	n/a	FR1	1	R1207J
1006.066	0.918	1016790	WORD_OFF	n/a	n/a	FAN	1	9	[0, 0, 0]	n/a	FR1	1	R1207J
1006.984	1.615	1017708	WORD	n/a	wordpools/wordpool_EN.txt	DART	2	9	[0, 0, 0]	n/a	FR1	1	R1207J
1008.599	0.884	1019323	WORD_OFF	n/a	n/a	DART	2	9	[0, 0, 0]	n/a	FR1	1	R1207J
1009.483	1.618	1020207	WORD	n/a	wordpools/wordpool_EN.txt	CROW	3	9	[0, 0, 0]	n/a	FR1	1	R1207J
1011.101	0.817	1021825	WORD_OFF	n/a	n/a	CROW	3	9	[0, 0, 0]	n/a	FR1	1	R1207J
1011.918	1.616	1022642	WORD	n/a	wordpools/wordpool_EN.txt	CLOTH	4	9	[0, 0, 0]	n/a	FR1	1	R1207J
1013.534	0.883	1024258	WORD_OFF	n/a	n/a	CLOTH	4	9	[0, 0, 0]	n/a	FR1	1	R1207J
1014.417	1.618	1025141	WORD	n/a	wordpools/wordpool_EN.txt	BOX	5	9	[0, 0, 0]	n/a	FR1	1	R1207J
1016.035	0.815	1026759	WORD_OFF	n/a	n/a	BOX	5	9	[0, 0, 0]	n/a	FR1	1	R1207J
1016.85	1.617	1027574	WORD	n/a	wordpools/wordpool_EN.txt	CLAY	6	9	[0, 0, 0]	n/a	FR1	1	R1207J
1018.467	0.917	1029191	WORD_OFF	n/a	n/a	CLAY	6	9	[0, 0, 0]	n/a	FR1	1	R1207J
1019.384	1.618	1030108	WORD	n/a	wordpools/wordpool_EN.txt	TIE	7	9	[0, 0, 0]	n/a	FR1	1	R1207J
1021.002	0.984	1031726	WORD_OFF	n/a	n/a	TIE	7	9	[0, 0, 0]	n/a	FR1	1	R1207J
1021.986	1.616	1032710	WORD	n/a	wordpools/wordpool_EN.txt	BEAN	8	9	[0, 0, 0]	n/a	FR1	1	R1207J
1023.602	0.766	1034326	WORD_OFF	n/a	n/a	BEAN	8	9	[0, 0, 0]	n/a	FR1	1	R1207J
1024.368	1.618	1035092	WORD	n/a	wordpools/wordpool_EN.txt	WAVE	9	9	[0, 0, 0]	n/a	FR1	1	R1207J
1025.986	0.917	1036710	WORD_OFF	n/a	n/a	WAVE	9	9	[0, 0, 0]	n/a	FR1	1	R1207J
1026.903	1.616	1037627	WORD	n/a	wordpools/wordpool_EN.txt	CLOWN	10	9	[0, 0, 0]	n/a	FR1	1	R1207J
1028.519	0.85	1039243	WORD_OFF	n/a	n/a	CLOWN	10	9	[0, 0, 0]	n/a	FR1	1	R1207J
1029.369	1.618	1040093	WORD	n/a	wordpools/wordpool_EN.txt	HAND	11	9	[0, 0, 0]	n/a	FR1	1	R1207J
1030.987	0.882	1041711	WORD_OFF	n/a	n/a	HAND	11	9	[0, 0, 0]	n/a	FR1	1	R1207J
1031.869	1.617	1042593	WORD	n/a	wordpools/wordpool_EN.txt	JAR	12	9	[0, 0, 0]	n/a	FR1	1	R1207J
1033.486	0.0	1044210	DISTRACT_START	n/a	n/a	n/a	-999	9	[0, 0, 0]	n/a	FR1	1	R1207J
1033.486	0.001	1044210	WORD_OFF	n/a	n/a	JAR	12	9	[0, 0, 0]	n/a	FR1	1	R1207J
1033.487	0.016	1044211	START	n/a	n/a	n/a	-999	9	[-999, -999, -999]	n/a	FR1	1	R1207J
1033.503	4.8	1044227	PROB	4.8	n/a	n/a	-999	9	[5, 6, 9]	21	FR1	1	R1207J
1038.303	6.786	1049027	PROB	6.786	n/a	n/a	-999	9	[9, 8, 4]	21	FR1	1	R1207J
1045.089	3.716	1055813	PROB	3.716	n/a	n/a	-999	9	[3, 3, 7]	13	FR1	1	R1207J
1048.805	4.219	1059529	PROB	4.219	n/a	n/a	-999	9	[8, 9, 4]	21	FR1	1	R1207J
1053.024	7.201	1063748	PROB	7.201	n/a	n/a	-999	9	[8, 7, 4]	19	FR1	1	R1207J
1060.225	0.016	1070949	STOP	n/a	n/a	n/a	-999	9	[-999, -999, -999]	n/a	FR1	1	R1207J
1060.241	0.633	1070965	DISTRACT_END	n/a	n/a	n/a	-999	9	[0, 0, 0]	n/a	FR1	1	R1207J
1060.874	0.517	1071598	RETRIEVAL_ORIENT	n/a	n/a	n/a	-999	9	[0, 0, 0]	n/a	FR1	1	R1207J
1061.391	1.551	1072115	REC_START	n/a	n/a	n/a	-999	9	[0, 0, 0]	n/a	FR1	1	R1207J
1062.942	23.091	1073666	REC_WORD	23.091	n/a	CROW	-999	9	[0, 0, 0]	n/a	FR1	1	R1207J
1086.033	3.974	1096756	REC_WORD	3.974	n/a	MILK	-999	9	[0, 0, 0]	n/a	FR1	1	R1207J
1090.007	1.396	1100730	REC_WORD	1.396	n/a	FOOT	-999	9	[0, 0, 0]	n/a	FR1	1	R1207J
1091.403	5.025	1102126	REC_END	n/a	n/a	n/a	-999	9	[0, 0, 0]	n/a	FR1	1	R1207J
1096.428	0.5	1107151	TRIAL	n/a	n/a	n/a	-999	10	[0, 0, 0]	n/a	FR1	1	R1207J
1096.928	10.428	1107651	COUNTDOWN_START	n/a	n/a	n/a	-999	10	[0, 0, 0]	n/a	FR1	1	R1207J
1107.356	0.007	1118079	COUNTDOWN_END	n/a	n/a	n/a	-999	10	[0, 0, 0]	n/a	FR1	1	R1207J
1107.363	1.618	1118086	ORIENT	n/a	n/a	n/a	-999	10	[0, 0, 0]	n/a	FR1	1	R1207J
1108.981	2.234	1119704	ORIENT_OFF	n/a	n/a	n/a	-999	10	[0, 0, 0]	n/a	FR1	1	R1207J
1111.215	1.615	1121938	WORD	n/a	wordpools/wordpool_EN.txt	DEER	1	10	[0, 0, 0]	n/a	FR1	1	R1207J
1112.83	0.984	1123553	WORD_OFF	n/a	n/a	DEER	1	10	[0, 0, 0]	n/a	FR1	1	R1207J
1113.814	1.616	1124537	WORD	n/a	wordpools/wordpool_EN.txt	CASH	2	10	[0, 0, 0]	n/a	FR1	1	R1207J
1115.43	0.867	1126153	WORD_OFF	n/a	n/a	CASH	2	10	[0, 0, 0]	n/a	FR1	1	R1207J
1116.297	1.618	1127020	WORD	n/a	wordpools/wordpool_EN.txt	TANK	3	10	[0, 0, 0]	n/a	FR1	1	R1207J
1117.915	0.899	1128638	WORD_OFF	n/a	n/a	TANK	3	10	[0, 0, 0]	n/a	FR1	1	R1207J
1118.814	1.617	1129537	WORD	n/a	wordpools/wordpool_EN.txt	BOAT	4	10	[0, 0, 0]	n/a	FR1	1	R1207J
1120.431	0.818	1131154	WORD_OFF	n/a	n/a	BOAT	4	10	[0, 0, 0]	n/a	FR1	1	R1207J
1121.249	1.616	1131972	WORD	n/a	wordpools/wordpool_EN.txt	DUCK	5	10	[0, 0, 0]	n/a	FR1	1	R1207J
1122.865	0.834	1133588	WORD_OFF	n/a	n/a	DUCK	5	10	[0, 0, 0]	n/a	FR1	1	R1207J
1123.699	1.616	1134422	WORD	n/a	wordpools/wordpool_EN.txt	BANK	6	10	[0, 0, 0]	n/a	FR1	1	R1207J
1125.315	0.901	1136038	WORD_OFF	n/a	n/a	BANK	6	10	[0, 0, 0]	n/a	FR1	1	R1207J
1126.216	1.616	1136939	WORD	n/a	wordpools/wordpool_EN.txt	APE	7	10	[0, 0, 0]	n/a	FR1	1	R1207J
1127.832	1.017	1138555	WORD_OFF	n/a	n/a	APE	7	10	[0, 0, 0]	n/a	FR1	1	R1207J
1128.849	1.617	1139572	WORD	n/a	wordpools/wordpool_EN.txt	HAWK	8	10	[0, 0, 0]	n/a	FR1	1	R1207J
1130.466	0.883	1141189	WORD_OFF	n/a	n/a	HAWK	8	10	[0, 0, 0]	n/a	FR1	1	R1207J
1131.349	1.618	1142072	WORD	n/a	wordpools/wordpool_EN.txt	BRANCH	9	10	[0, 0, 0]	n/a	FR1	1	R1207J
1132.967	0.9	1143690	WORD_OFF	n/a	n/a	BRANCH	9	10	[0, 0, 0]	n/a	FR1	1	R1207J
1133.867	1.616	1144590	WORD	n/a	wordpools/wordpool_EN.txt	MUG	10	10	[0, 0, 0]	n/a	FR1	1	R1207J
1135.483	0.917	1146206	WORD_OFF	n/a	n/a	MUG	10	10	[0, 0, 0]	n/a	FR1	1	R1207J
1136.4	1.618	1147123	WORD	n/a	wordpools/wordpool_EN.txt	SEAL	11	10	[0, 0, 0]	n/a	FR1	1	R1207J
1138.018	0.832	1148741	WORD_OFF	n/a	n/a	SEAL	11	10	[0, 0, 0]	n/a	FR1	1	R1207J
1138.85	1.617	1149573	WORD	n/a	wordpools/wordpool_EN.txt	WEB	12	10	[0, 0, 0]	n/a	FR1	1	R1207J
1140.467	0.0	1151190	WORD_OFF	n/a	n/a	WEB	12	10	[0, 0, 0]	n/a	FR1	1	R1207J
1140.467	0.001	1151190	DISTRACT_START	n/a	n/a	n/a	-999	10	[0, 0, 0]	n/a	FR1	1	R1207J
1140.468	0.016	1151191	START	n/a	n/a	n/a	-999	10	[-999, -999, -999]	n/a	FR1	1	R1207J
1140.484	3.317	1151207	PROB	3.317	n/a	n/a	-999	10	[4, 7, 4]	16	FR1	1	R1207J
1143.801	2.534	1154524	PROB	2.534	n/a	n/a	-999	10	[4, 3, 1]	8	FR1	1	R1207J
1146.335	3.117	1157058	PROB	3.117	n/a	n/a	-999	10	[1, 7, 5]	13	FR1	1	R1207J
1149.452	3.184	1160175	PROB	3.184	n/a	n/a	-999	10	[3, 5, 4]	12	FR1	1	R1207J
1152.636	3.166	1163359	PROB	3.166	n/a	n/a	-999	10	[2, 4, 1]	7	FR1	1	R1207J
1155.802	3.584	1166525	PROB	3.584	n/a	n/a	-999	10	[5, 8, 1]	14	FR1	1	R1207J
1159.386	4.361	1170109	PROB	4.361	n/a	n/a	-999	10	[6, 3, 5]	14	FR1	1	R1207J
1163.747	0.006	1174470	STOP	n/a	n/a	n/a	-999	10	[-999, -999, -999]	n/a	FR1	1	R1207J
1163.753	0.717	1174476	DISTRACT_END	n/a	n/a	n/a	-999	10	[0, 0, 0]	n/a	FR1	1	R1207J
1164.47	0.519	1175193	RETRIEVAL_ORIENT	n/a	n/a	n/a	-999	10	[0, 0, 0]	n/a	FR1	1	R1207J
1164.989	1.144	1175712	REC_START	n/a	n/a	n/a	-999	10	[0, 0, 0]	n/a	FR1	1	R1207J
1166.133	1.695	1176856	REC_WORD	1.695	n/a	TANK	-999	10	[0, 0, 0]	n/a	FR1	1	R1207J
1167.828	2.152	1178551	REC_WORD	2.152	n/a	BANK	-999	10	[0, 0, 0]	n/a	FR1	1	R1207J
1169.98	19.543	1180703	REC_WORD	19.543	n/a	CASH	-999	10	[0, 0, 0]	n/a	FR1	1	R1207J
1189.523	1.534	1200246	REC_WORD	1.534	n/a	WALLET	-999	10	[0, 0, 0]	n/a	FR1	1	R1207J
1191.057	3.945	1201780	REC_WORD_VV	3.945	n/a	<>	-999	10	[0, 0, 0]	n/a	FR1	1	R1207J
1195.002	4.807	1205725	REC_END	n/a	n/a	n/a	-999	10	[0, 0, 0]	n/a	FR1	1	R1207J
1199.809	0.5	1210532	TRIAL	n/a	n/a	n/a	-999	11	[0, 0, 0]	n/a	FR1	1	R1207J
1200.309	10.428	1211032	COUNTDOWN_START	n/a	n/a	n/a	-999	11	[0, 0, 0]	n/a	FR1	1	R1207J
1210.737	0.006	1221460	COUNTDOWN_END	n/a	n/a	n/a	-999	11	[0, 0, 0]	n/a	FR1	1	R1207J
1210.743	1.617	1221466	ORIENT	n/a	n/a	n/a	-999	11	[0, 0, 0]	n/a	FR1	1	R1207J
1212.36	2.184	1223083	ORIENT_OFF	n/a	n/a	n/a	-999	11	[0, 0, 0]	n/a	FR1	1	R1207J
1214.544	1.617	1225267	WORD	n/a	wordpools/wordpool_EN.txt	BOARD	1	11	[0, 0, 0]	n/a	FR1	1	R1207J
1216.161	0.901	1226884	WORD_OFF	n/a	n/a	BOARD	1	11	[0, 0, 0]	n/a	FR1	1	R1207J
1217.062	1.616	1227785	WORD	n/a	wordpools/wordpool_EN.txt	SHELL	2	11	[0, 0, 0]	n/a	FR1	1	R1207J
1218.678	0.916	1229401	WORD_OFF	n/a	n/a	SHELL	2	11	[0, 0, 0]	n/a	FR1	1	R1207J
1219.594	1.601	1230317	WORD	n/a	wordpools/wordpool_EN.txt	SHRIMP	3	11	[0, 0, 0]	n/a	FR1	1	R1207J
1221.195	0.984	1231918	WORD_OFF	n/a	n/a	SHRIMP	3	11	[0, 0, 0]	n/a	FR1	1	R1207J
1222.179	1.616	1232902	WORD	n/a	wordpools/wordpool_EN.txt	JUICE	4	11	[0, 0, 0]	n/a	FR1	1	R1207J
1223.795	0.767	1234518	WORD_OFF	n/a	n/a	JUICE	4	11	[0, 0, 0]	n/a	FR1	1	R1207J
1224.562	1.618	1235285	WORD	n/a	wordpools/wordpool_EN.txt	BEAK	5	11	[0, 0, 0]	n/a	FR1	1	R1207J
1226.18	0.817	1236903	WORD_OFF	n/a	n/a	BEAK	5	11	[0, 0, 0]	n/a	FR1	1	R1207J
1226.997	1.616	1237720	WORD	n/a	wordpools/wordpool_EN.txt	BOOT	6	11	[0, 0, 0]	n/a	FR1	1	R1207J
1228.613	0.916	1239336	WORD_OFF	n/a	n/a	BOOT	6	11	[0, 0, 0]	n/a	FR1	1	R1207J
1229.529	1.618	1240252	WORD	n/a	wordpools/wordpool_EN.txt	MULE	7	11	[0, 0, 0]	n/a	FR1	1	R1207J
1231.147	0.784	1241870	WORD_OFF	n/a	n/a	MULE	7	11	[0, 0, 0]	n/a	FR1	1	R1207J
1231.931	1.616	1242654	WORD	n/a	wordpools/wordpool_EN.txt	KEY	8	11	[0, 0, 0]	n/a	FR1	1	R1207J
1233.547	0.95	1244270	WORD_OFF	n/a	n/a	KEY	8	11	[0, 0, 0]	n/a	FR1	1	R1207J
1234.497	1.617	1245220	WORD	n/a	wordpools/wordpool_EN.txt	CRANE	9	11	[0, 0, 0]	n/a	FR1	1	R1207J
1236.114	0.817	1246837	WORD_OFF	n/a	n/a	CRANE	9	11	[0, 0, 0]	n/a	FR1	1	R1207J
1236.931	1.616	1247654	WORD	n/a	wordpools/wordpool_EN.txt	PIN	10	11	[0, 0, 0]	n/a	FR1	1	R1207J
1238.547	0.817	1249270	WORD_OFF	n/a	n/a	PIN	10	11	[0, 0, 0]	n/a	FR1	1	R1207J
1239.364	1.618	1250087	WORD	n/a	wordpools/wordpool_EN.txt	TRAIN	11	11	[0, 0, 0]	n/a	FR1	1	R1207J
1240.982	0.967	1251705	WORD_OFF	n/a	n/a	TRAIN	11	11	[0, 0, 0]	n/a	FR1	1	R1207J
1241.949	1.616	1252672	WORD	n/a	wordpools/wordpool_EN.txt	TRASH	12	11	[0, 0, 0]	n/a	FR1	1	R1207J
1243.565	0.0	1254288	DISTRACT_START	n/a	n/a	n/a	-999	11	[0, 0, 0]	n/a	FR1	1	R1207J
1243.565	0.0	1254288	WORD_OFF	n/a	n/a	TRASH	12	11	[0, 0, 0]	n/a	FR1	1	R1207J
1243.565	0.016	1254288	START	n/a	n/a	n/a	-999	11	[-999, -999, -999]	n/a	FR1	1	R1207J
1243.581	4.051	1254304	PROB	4.051	n/a	n/a	-999	11	[7, 1, 8]	16	FR1	1	R1207J
1247.632	4.034	1258355	PROB	4.034	n/a	n/a	-999	11	[2, 1, 8]	11	FR1	1	R1207J
1251.666	5.218	1262389	PROB	5.218	n/a	n/a	-999	11	[8, 4, 7]	19	FR1	1	R1207J
1256.884	4.084	1267607	PROB	4.084	n/a	n/a	-999	11	[3, 5, 8]	16	FR1	1	R1207J
1260.968	3.736	1271691	PROB	3.736	n/a	n/a	-999	11	[3, 3, 9]	15	FR1	1	R1207J
1264.704	0.013	1275427	STOP	n/a	n/a	n/a	-999	11	[-999, -999, -999]	n/a	FR1	1	R1207J
1264.717	0.633	1275440	DISTRACT_END	n/a	n/a	n/a	-999	11	[0, 0, 0]	n/a	FR1	1	R1207J
1265.35	0.518	1276073	RETRIEVAL_ORIENT	n/a	n/a	n/a	-999	11	[0, 0, 0]	n/a	FR1	1	R1207J
1265.868	0.849	1276591	REC_START	n/a	n/a	n/a	-999	11	[0, 0, 0]	n/a	FR1	1	R1207J
1266.717	0.817	1277440	REC_WORD	0.817	n/a	MULE	-999	11	[0, 0, 0]	n/a	FR1	1	R1207J
1267.534	1.914	1278257	REC_WORD	1.914	n/a	KEY	-999	11	[0, 0, 0]	n/a	FR1	1	R1207J
1269.448	6.215	1280171	REC_WORD	6.215	n/a	TRAIN	-999	11	[0, 0, 0]	n/a	FR1	1	R1207J
1275.663	20.216	1286386	REC_WORD	20.216	n/a	CASH	-999	11	[0, 0, 0]	n/a	FR1	1	R1207J
1295.879	3.977	1306602	REC_END	n/a	n/a	n/a	-999	11	[0, 0, 0]	n/a	FR1	1	R1207J
1299.856	0.5	1310579	TRIAL	n/a	n/a	n/a	-999	12	[0, 0, 0]	n/a	FR1	1	R1207J
1300.356	10.428	1311079	COUNTDOWN_START	n/a	n/a	n/a	-999	12	[0, 0, 0]	n/a	FR1	1	R1207J
1310.784	0.006	1321507	COUNTDOWN_END	n/a	n/a	n/a	-999	12	[0, 0, 0]	n/a	FR1	1	R1207J
1310.79	1.617	1321513	ORIENT	n/a	n/a	n/a	-999	12	[0, 0, 0]	n/a	FR1	1	R1207J
1312.407	2.184	1323130	ORIENT_OFF	n/a	n/a	n/a	-999	12	[0, 0, 0]	n/a	FR1	1	R1207J
1314.591	1.617	1325314	WORD	n/a	wordpools/wordpool_EN.txt	FUDGE	1	12	[0, 0, 0]	n/a	FR1	1	R1207J
1316.208	0.901	1326931	WORD_OFF	n/a	n/a	FUDGE	1	12	[0, 0, 0]	n/a	FR1	1	R1207J
1317.109	1.615	1327832	WORD	n/a	wordpools/wordpool_EN.txt	BOOK	2	12	[0, 0, 0]	n/a	FR1	1	R1207J
1318.724	0.917	1329447	WORD_OFF	n/a	n/a	BOOK	2	12	[0, 0, 0]	n/a	FR1	1	R1207J
1319.641	1.618	1330364	WORD	n/a	wordpools/wordpool_EN.txt	FRUIT	3	12	[0, 0, 0]	n/a	FR1	1	R1207J
1321.259	0.934	1331982	WORD_OFF	n/a	n/a	FRUIT	3	12	[0, 0, 0]	n/a	FR1	1	R1207J
1322.193	1.616	1332916	WORD	n/a	wordpools/wordpool_EN.txt	ROAD	4	12	[0, 0, 0]	n/a	FR1	1	R1207J
1323.809	0.95	1334532	WORD_OFF	n/a	n/a	ROAD	4	12	[0, 0, 0]	n/a	FR1	1	R1207J
1324.759	1.616	1335481	WORD	n/a	wordpools/wordpool_EN.txt	SAIL	5	12	[0, 0, 0]	n/a	FR1	1	R1207J
1326.375	0.984	1337097	WORD_OFF	n/a	n/a	SAIL	5	12	[0, 0, 0]	n/a	FR1	1	R1207J
1327.359	1.618	1338081	WORD	n/a	wordpools/wordpool_EN.txt	TENT	6	12	[0, 0, 0]	n/a	FR1	1	R1207J
1328.977	0.815	1339699	WORD_OFF	n/a	n/a	TENT	6	12	[0, 0, 0]	n/a	FR1	1	R1207J
1329.792	1.618	1340514	WORD	n/a	wordpools/wordpool_EN.txt	BAT	7	12	[0, 0, 0]	n/a	FR1	1	R1207J
1331.41	1.0	1342132	WORD_OFF	n/a	n/a	BAT	7	12	[0, 0, 0]	n/a	FR1	1	R1207J
1332.41	1.618	1343132	WORD	n/a	wordpools/wordpool_EN.txt	SOUP	8	12	[0, 0, 0]	n/a	FR1	1	R1207J
1334.028	0.933	1344750	WORD_OFF	n/a	n/a	SOUP	8	12	[0, 0, 0]	n/a	FR1	1	R1207J
1334.961	1.616	1345683	WORD	n/a	wordpools/wordpool_EN.txt	BEE	9	12	[0, 0, 0]	n/a	FR1	1	R1207J
1336.577	0.767	1347299	WORD_OFF	n/a	n/a	BEE	9	12	[0, 0, 0]	n/a	FR1	1	R1207J
1337.344	1.617	1348066	WORD	n/a	wordpools/wordpool_EN.txt	RICE	10	12	[0, 0, 0]	n/a	FR1	1	R1207J
1338.961	0.833	1349683	WORD_OFF	n/a	n/a	RICE	10	12	[0, 0, 0]	n/a	FR1	1	R1207J
1339.794	1.617	1350516	WORD	n/a	wordpools/wordpool_EN.txt	LAKE	11	12	[0, 0, 0]	n/a	FR1	1	R1207J
1341.411	0.851	1352133	WORD_OFF	n/a	n/a	LAKE	11	12	[0, 0, 0]	n/a	FR1	1	R1207J
1342.262	1.617	1352984	WORD	n/a	wordpools/wordpool_EN.txt	GRASS	12	12	[0, 0, 0]	n/a	FR1	1	R1207J
1343.879	0.0	1354601	WORD_OFF	n/a	n/a	GRASS	12	12	[0, 0, 0]	n/a	FR1	1	R1207J
1343.879	0.001	1354601	DISTRACT_START	n/a	n/a	n/a	-999	12	[0, 0, 0]	n/a	FR1	1	R1207J
1343.88	0.016	1354602	START	n/a	n/a	n/a	-999	12	[-999, -999, -999]	n/a	FR1	1	R1207J
1343.896	3.499	1354618	PROB	3.499	n/a	n/a	-999	12	[6, 4, 6]	16	FR1	1	R1207J
1347.395	3.752	1358117	PROB	3.752	n/a	n/a	-999	12	[8, 6, 8]	22	FR1	1	R1207J
1351.147	3.984	1361869	PROB	3.984	n/a	n/a	-999	12	[2, 6, 5]	14	FR1	1	R1207J
1355.131	3.282	1365853	PROB	3.282	n/a	n/a	-999	12	[6, 3, 7]	16	FR1	1	R1207J
1358.413	2.984	1369135	PROB	2.984	n/a	n/a	-999	12	[4, 5, 3]	12	FR1	1	R1207J
1361.397	3.176	1372119	PROB	3.176	n/a	n/a	-999	12	[4, 6, 8]	18	FR1	1	R1207J
1364.573	0.008	1375295	STOP	n/a	n/a	n/a	-999	12	[-999, -999, -999]	n/a	FR1	1	R1207J
1364.581	0.668	1375303	DISTRACT_END	n/a	n/a	n/a	-999	12	[0, 0, 0]	n/a	FR1	1	R1207J
1365.249	0.516	1375971	RETRIEVAL_ORIENT	n/a	n/a	n/a	-999	12	[0, 0, 0]	n/a	FR1	1	R1207J
1365.765	1.128	1376487	REC_START	n/a	n/a	n/a	-999	12	[0, 0, 0]	n/a	FR1	1	R1207J
1366.893	6.769	1377615	REC_WORD	6.769	n/a	TANK	-999	12	[0, 0, 0]	n/a	FR1	1	R1207J
1373.662	8.077	1384384	REC_WORD	8.077	n/a	BEE	-999	12	[0, 0, 0]	n/a	FR1	1	R1207J
1381.739	4.196	1392461	REC_WORD	4.196	n/a	VASE	-999	12	[0, 0, 0]	n/a	FR1	1	R1207J
1385.935	9.306	1396657	REC_WORD	9.306	n/a	HIVE	-999	12	[0, 0, 0]	n/a	FR1	1	R1207J
1395.241	0.536	1405963	REC_WORD_VV	0.536	n/a	<>	-999	12	[0, 0, 0]	n/a	FR1	1	R1207J
1395.777	5.025	1406499	REC_END	n/a	n/a	n/a	-999	12	[0, 0, 0]	n/a	FR1	1	R1207J
1400.802	0.5	1411524	TRIAL	n/a	n/a	n/a	-999	13	[0, 0, 0]	n/a	FR1	1	R1207J
1401.302	10.428	1412024	COUNTDOWN_START	n/a	n/a	n/a	-999	13	[0, 0, 0]	n/a	FR1	1	R1207J
1411.73	0.007	1422452	COUNTDOWN_END	n/a	n/a	n/a	-999	13	[0, 0, 0]	n/a	FR1	1	R1207J
1411.737	1.617	1422459	ORIENT	n/a	n/a	n/a	-999	13	[0, 0, 0]	n/a	FR1	1	R1207J
1413.354	2.05	1424076	ORIENT_OFF	n/a	n/a	n/a	-999	13	[0, 0, 0]	n/a	FR1	1	R1207J
1415.404	1.618	1426126	WORD	n/a	wordpools/wordpool_EN.txt	CAVE	1	13	[0, 0, 0]	n/a	FR1	1	R1207J
1417.022	0.967	1427744	WORD_OFF	n/a	n/a	CAVE	1	13	[0, 0, 0]	n/a	FR1	1	R1207J
1417.989	1.616	1428711	WORD	n/a	wordpools/wordpool_EN.txt	AXE	2	13	[0, 0, 0]	n/a	FR1	1	R1207J
1419.605	0.85	1430327	WORD_OFF	n/a	n/a	AXE	2	13	[0, 0, 0]	n/a	FR1	1	R1207J
1420.455	1.601	1431177	WORD	n/a	wordpools/wordpool_EN.txt	STOVE	3	13	[0, 0, 0]	n/a	FR1	1	R1207J
1422.056	0.766	1432778	WORD_OFF	n/a	n/a	STOVE	3	13	[0, 0, 0]	n/a	FR1	1	R1207J
1422.822	1.617	1433544	WORD	n/a	wordpools/wordpool_EN.txt	SOAP	4	13	[0, 0, 0]	n/a	FR1	1	R1207J
1424.439	0.917	1435161	WORD_OFF	n/a	n/a	SOAP	4	13	[0, 0, 0]	n/a	FR1	1	R1207J
1425.356	1.617	1436078	WORD	n/a	wordpools/wordpool_EN.txt	TEA	5	13	[0, 0, 0]	n/a	FR1	1	R1207J
1426.973	0.85	1437695	WORD_OFF	n/a	n/a	TEA	5	13	[0, 0, 0]	n/a	FR1	1	R1207J
1427.823	1.616	1438545	WORD	n/a	wordpools/wordpool_EN.txt	TOOTH	6	13	[0, 0, 0]	n/a	FR1	1	R1207J
1429.439	0.867	1440161	WORD_OFF	n/a	n/a	TOOTH	6	13	[0, 0, 0]	n/a	FR1	1	R1207J
1430.306	1.601	1441028	WORD	n/a	wordpools/wordpool_EN.txt	BIRD	7	13	[0, 0, 0]	n/a	FR1	1	R1207J
1431.907	0.95	1442629	WORD_OFF	n/a	n/a	BIRD	7	13	[0, 0, 0]	n/a	FR1	1	R1207J
1432.857	1.617	1443579	WORD	n/a	wordpools/wordpool_EN.txt	SLIME	8	13	[0, 0, 0]	n/a	FR1	1	R1207J
1434.474	0.966	1445196	WORD_OFF	n/a	n/a	SLIME	8	13	[0, 0, 0]	n/a	FR1	1	R1207J
1435.44	1.601	1446162	WORD	n/a	wordpools/wordpool_EN.txt	ANT	9	13	[0, 0, 0]	n/a	FR1	1	R1207J
1437.041	0.917	1447763	WORD_OFF	n/a	n/a	ANT	9	13	[0, 0, 0]	n/a	FR1	1	R1207J
1437.958	1.616	1448680	WORD	n/a	wordpools/wordpool_EN.txt	PLANT	10	13	[0, 0, 0]	n/a	FR1	1	R1207J
1439.574	0.934	1450296	WORD_OFF	n/a	n/a	PLANT	10	13	[0, 0, 0]	n/a	FR1	1	R1207J
1440.508	1.618	1451230	WORD	n/a	wordpools/wordpool_EN.txt	BOMB	11	13	[0, 0, 0]	n/a	FR1	1	R1207J
1442.126	1.0	1452848	WORD_OFF	n/a	n/a	BOMB	11	13	[0, 0, 0]	n/a	FR1	1	R1207J
1443.126	1.616	1453848	WORD	n/a	wordpools/wordpool_EN.txt	HILL	12	13	[0, 0, 0]	n/a	FR1	1	R1207J
1444.742	0.0	1455464	WORD_OFF	n/a	n/a	HILL	12	13	[0, 0, 0]	n/a	FR1	1	R1207J
1444.742	0.0	1455464	DISTRACT_START	n/a	n/a	n/a	-999	13	[0, 0, 0]	n/a	FR1	1	R1207J
1444.742	0.016	1455464	START	n/a	n/a	n/a	-999	13	[-999, -999, -999]	n/a	FR1	1	R1207J
1444.758	3.452	1455480	PROB	3.452	n/a	n/a	-999	13	[1, 5, 9]	15	FR1	1	R1207J
1448.21	2.449	1458932	PROB	2.449	n/a	n/a	-999	13	[4, 1, 6]	11	FR1	1	R1207J
1450.659	4.568	1461381	PROB	4.568	n/a	n/a	-999	13	[7, 5, 7]	19	FR1	1	R1207J
1455.227	2.216	1465949	PROB	2.216	n/a	n/a	-999	13	[3, 1, 9]	13	FR1	1	R1207J
1457.443	3.134	1468165	PROB	3.134	n/a	n/a	-999	13	[7, 3, 1]	11	FR1	1	R1207J
1460.577	2.734	1471299	PROB	2.734	n/a	n/a	-999	13	[2, 6, 5]	13	FR1	1	R1207J
1463.311	2.812	1474033	PROB	2.812	n/a	n/a	-999	13	[5, 4, 2]	11	FR1	1	R1207J
1466.123	0.006	1476845	STOP	n/a	n/a	n/a	-999	13	[-999, -999, -999]	n/a	FR1	1	R1207J
1466.129	0.566	1476851	DISTRACT_END	n/a	n/a	n/a	-999	13	[0, 0, 0]	n/a	FR1	1	R1207J
1466.695	0.518	1477417	RETRIEVAL_ORIENT	n/a	n/a	n/a	-999	13	[0, 0, 0]	n/a	FR1	1	R1207J
1467.213	3.438	1477935	REC_START	n/a	n/a	n/a	-999	13	[0, 0, 0]	n/a	FR1	1	R1207J
1470.651	1.07	1481373	REC_WORD	1.07	n/a	HILL	-999	13	[0, 0, 0]	n/a	FR1	1	R1207J
1471.721	2.003	1482443	REC_WORD	2.003	n/a	ANT	-999	13	[0, 0, 0]	n/a	FR1	1	R1207J
1473.724	4.715	1484446	REC_WORD	4.715	n/a	PLANT	-999	13	[0, 0, 0]	n/a	FR1	1	R1207J
1478.439	18.784	1489161	REC_WORD	18.784	n/a	STOVE	-999	13	[0, 0, 0]	n/a	FR1	1	R1207J
1497.223	4.31	1507945	REC_END	n/a	n/a	n/a	-999	13	[0, 0, 0]	n/a	FR1	1	R1207J
1501.533	0.5	1512255	TRIAL	n/a	n/a	n/a	-999	14	[0, 0, 0]	n/a	FR1	1	R1207J
1502.033	10.428	1512755	COUNTDOWN_START	n/a	n/a	n/a	-999	14	[0, 0, 0]	n/a	FR1	1	R1207J
1512.461	0.006	1523183	COUNTDOWN_END	n/a	n/a	n/a	-999	14	[0, 0, 0]	n/a	FR1	1	R1207J
1512.467	1.618	1523189	ORIENT	n/a	n/a	n/a	-999	14	[0, 0, 0]	n/a	FR1	1	R1207J
1514.085	2.1	1524807	ORIENT_OFF	n/a	n/a	n/a	-999	14	[0, 0, 0]	n/a	FR1	1	R1207J
1516.185	1.616	1526907	WORD	n/a	wordpools/wordpool_EN.txt	VINE	1	14	[0, 0, 0]	n/a	FR1	1	R1207J
1517.801	0.85	1528523	WORD_OFF	n/a	n/a	VINE	1	14	[0, 0, 0]	n/a	FR1	1	R1207J
1518.651	1.618	1529373	WORD	n/a	wordpools/wordpool_EN.txt	MAT	2	14	[0, 0, 0]	n/a	FR1	1	R1207J
1520.269	1.0	1530991	WORD_OFF	n/a	n/a	MAT	2	14	[0, 0, 0]	n/a	FR1	1	R1207J
1521.269	1.617	1531991	WORD	n/a	wordpools/wordpool_EN.txt	CHIN	3	14	[0, 0, 0]	n/a	FR1	1	R1207J
1522.886	0.766	1533608	WORD_OFF	n/a	n/a	CHIN	3	14	[0, 0, 0]	n/a	FR1	1	R1207J
1523.652	1.618	1534374	WORD	n/a	wordpools/wordpool_EN.txt	DIME	4	14	[0, 0, 0]	n/a	FR1	1	R1207J
1525.27	0.9	1535992	WORD_OFF	n/a	n/a	DIME	4	14	[0, 0, 0]	n/a	FR1	1	R1207J
1526.17	1.616	1536892	WORD	n/a	wordpools/wordpool_EN.txt	FISH	5	14	[0, 0, 0]	n/a	FR1	1	R1207J
1527.786	0.85	1538508	WORD_OFF	n/a	n/a	FISH	5	14	[0, 0, 0]	n/a	FR1	1	R1207J
1528.636	1.618	1539358	WORD	n/a	wordpools/wordpool_EN.txt	STREET	6	14	[0, 0, 0]	n/a	FR1	1	R1207J
1530.254	1.0	1540976	WORD_OFF	n/a	n/a	STREET	6	14	[0, 0, 0]	n/a	FR1	1	R1207J
1531.254	1.616	1541976	WORD	n/a	wordpools/wordpool_EN.txt	COUCH	7	14	[0, 0, 0]	n/a	FR1	1	R1207J
1532.87	0.784	1543592	WORD_OFF	n/a	n/a	COUCH	7	14	[0, 0, 0]	n/a	FR1	1	R1207J
1533.654	1.618	1544376	WORD	n/a	wordpools/wordpool_EN.txt	HOLE	8	14	[0, 0, 0]	n/a	FR1	1	R1207J
1535.272	0.933	1545994	WORD_OFF	n/a	n/a	HOLE	8	14	[0, 0, 0]	n/a	FR1	1	R1207J
1536.205	1.616	1546927	WORD	n/a	wordpools/wordpool_EN.txt	THREAD	9	14	[0, 0, 0]	n/a	FR1	1	R1207J
1537.821	1.0	1548543	WORD_OFF	n/a	n/a	THREAD	9	14	[0, 0, 0]	n/a	FR1	1	R1207J
1538.821	1.617	1549543	WORD	n/a	wordpools/wordpool_EN.txt	HOOK	10	14	[0, 0, 0]	n/a	FR1	1	R1207J
1540.438	0.801	1551160	WORD_OFF	n/a	n/a	HOOK	10	14	[0, 0, 0]	n/a	FR1	1	R1207J
1541.239	1.616	1551961	WORD	n/a	wordpools/wordpool_EN.txt	FLUTE	11	14	[0, 0, 0]	n/a	FR1	1	R1207J
1542.855	0.817	1553577	WORD_OFF	n/a	n/a	FLUTE	11	14	[0, 0, 0]	n/a	FR1	1	R1207J
1543.672	1.617	1554394	WORD	n/a	wordpools/wordpool_EN.txt	NOSE	12	14	[0, 0, 0]	n/a	FR1	1	R1207J
1545.289	0.0	1556011	WORD_OFF	n/a	n/a	NOSE	12	14	[0, 0, 0]	n/a	FR1	1	R1207J
1545.289	0.0	1556011	DISTRACT_START	n/a	n/a	n/a	-999	14	[0, 0, 0]	n/a	FR1	1	R1207J
1545.289	0.016	1556011	START	n/a	n/a	n/a	-999	14	[-999, -999, -999]	n/a	FR1	1	R1207J
1545.305	3.384	1556027	PROB	3.384	n/a	n/a	-999	14	[4, 3, 5]	12	FR1	1	R1207J
1548.689	3.634	1559411	PROB	3.634	n/a	n/a	-999	14	[9, 2, 4]	15	FR1	1	R1207J
1552.323	3.433	1563045	PROB	3.433	n/a	n/a	-999	14	[2, 2, 7]	11	FR1	1	R1207J
1555.756	3.584	1566478	PROB	3.584	n/a	n/a	-999	14	[7, 5, 5]	17	FR1	1	R1207J
1559.34	4.118	1570062	PROB	4.118	n/a	n/a	-999	14	[6, 3, 1]	10	FR1	1	R1207J
1563.458	4.421	1574180	PROB	4.421	n/a	n/a	-999	14	[3, 1, 3]	7	FR1	1	R1207J
1567.879	0.013	1578601	STOP	n/a	n/a	n/a	-999	14	[-999, -999, -999]	n/a	FR1	1	R1207J
1567.892	0.599	1578614	DISTRACT_END	n/a	n/a	n/a	-999	14	[0, 0, 0]	n/a	FR1	1	R1207J
1568.491	0.519	1579213	RETRIEVAL_ORIENT	n/a	n/a	n/a	-999	14	[0, 0, 0]	n/a	FR1	1	R1207J
1569.01	0.803	1579732	REC_START	n/a	n/a	n/a	-999	14	[0, 0, 0]	n/a	FR1	1	R1207J
1569.813	2.6	1580535	REC_WORD	2.6	n/a	HOLE	-999	14	[0, 0, 0]	n/a	FR1	1	R1207J
1572.413	4.734	1583135	REC_WORD	4.734	n/a	THREAD	-999	14	[0, 0, 0]	n/a	FR1	1	R1207J
1577.147	6.682	1587869	REC_WORD	6.682	n/a	MOUSE	-999	14	[0, 0, 0]	n/a	FR1	1	R1207J
1583.829	4.553	1594550	REC_WORD	4.553	n/a	AXE	-999	14	[0, 0, 0]	n/a	FR1	1	R1207J
1588.382	8.221	1599103	REC_WORD	8.221	n/a	COUCH	-999	14	[0, 0, 0]	n/a	FR1	1	R1207J
1596.603	2.42	1607324	REC_WORD	2.42	n/a	DIME	-999	14	[0, 0, 0]	n/a	FR1	1	R1207J
1599.023	4.84	1609744	REC_END	n/a	n/a	n/a	-999	14	[0, 0, 0]	n/a	FR1	1	R1207J
1603.863	0.5	1614584	TRIAL	n/a	n/a	n/a	-999	15	[0, 0, 0]	n/a	FR1	1	R1207J
1604.363	10.428	1615084	COUNTDOWN_START	n/a	n/a	n/a	-999	15	[0, 0, 0]	n/a	FR1	1	R1207J
1614.791	0.007	1625512	COUNTDOWN_END	n/a	n/a	n/a	-999	15	[0, 0, 0]	n/a	FR1	1	R1207J
1614.798	1.616	1625519	ORIENT	n/a	n/a	n/a	-999	15	[0, 0, 0]	n/a	FR1	1	R1207J
1616.414	2.051	1627135	ORIENT_OFF	n/a	n/a	n/a	-999	15	[0, 0, 0]	n/a	FR1	1	R1207J
1618.465	1.618	1629186	WORD	n/a	wordpools/wordpool_EN.txt	FOX	1	15	[0, 0, 0]	n/a	FR1	1	R1207J
1620.083	0.782	1630804	WORD_OFF	n/a	n/a	FOX	1	15	[0, 0, 0]	n/a	FR1	1	R1207J
1620.865	1.617	1631586	WORD	n/a	wordpools/wordpool_EN.txt	LOCK	2	15	[0, 0, 0]	n/a	FR1	1	R1207J
1622.482	0.984	1633203	WORD_OFF	n/a	n/a	LOCK	2	15	[0, 0, 0]	n/a	FR1	1	R1207J
1623.466	1.618	1634187	WORD	n/a	wordpools/wordpool_EN.txt	STEAK	3	15	[0, 0, 0]	n/a	FR1	1	R1207J
1625.084	0.866	1635805	WORD_OFF	n/a	n/a	STEAK	3	15	[0, 0, 0]	n/a	FR1	1	R1207J
1625.95	1.616	1636671	WORD	n/a	wordpools/wordpool_EN.txt	MOOSE	4	15	[0, 0, 0]	n/a	FR1	1	R1207J
1627.566	0.9	1638287	WORD_OFF	n/a	n/a	MOOSE	4	15	[0, 0, 0]	n/a	FR1	1	R1207J
1628.466	1.601	1639187	WORD	n/a	wordpools/wordpool_EN.txt	VEST	5	15	[0, 0, 0]	n/a	FR1	1	R1207J
1630.067	0.834	1640788	WORD_OFF	n/a	n/a	VEST	5	15	[0, 0, 0]	n/a	FR1	1	R1207J
1630.901	1.616	1641622	WORD	n/a	wordpools/wordpool_EN.txt	SHIRT	6	15	[0, 0, 0]	n/a	FR1	1	R1207J
1632.517	0.95	1643238	WORD_OFF	n/a	n/a	SHIRT	6	15	[0, 0, 0]	n/a	FR1	1	R1207J
1633.467	1.618	1644188	WORD	n/a	wordpools/wordpool_EN.txt	LEG	7	15	[0, 0, 0]	n/a	FR1	1	R1207J
1635.085	0.95	1645806	WORD_OFF	n/a	n/a	LEG	7	15	[0, 0, 0]	n/a	FR1	1	R1207J
1636.035	1.616	1646756	WORD	n/a	wordpools/wordpool_EN.txt	ARM	8	15	[0, 0, 0]	n/a	FR1	1	R1207J
1637.651	0.916	1648372	WORD_OFF	n/a	n/a	ARM	8	15	[0, 0, 0]	n/a	FR1	1	R1207J
1638.567	1.618	1649288	WORD	n/a	wordpools/wordpool_EN.txt	JEEP	9	15	[0, 0, 0]	n/a	FR1	1	R1207J
1640.185	0.783	1650906	WORD_OFF	n/a	n/a	JEEP	9	15	[0, 0, 0]	n/a	FR1	1	R1207J
1640.968	1.617	1651689	WORD	n/a	wordpools/wordpool_EN.txt	DOLL	10	15	[0, 0, 0]	n/a	FR1	1	R1207J
1642.585	0.833	1653306	WORD_OFF	n/a	n/a	DOLL	10	15	[0, 0, 0]	n/a	FR1	1	R1207J
1643.418	1.618	1654139	WORD	n/a	wordpools/wordpool_EN.txt	BRICK	11	15	[0, 0, 0]	n/a	FR1	1	R1207J
1645.036	0.934	1655757	WORD_OFF	n/a	n/a	BRICK	11	15	[0, 0, 0]	n/a	FR1	1	R1207J
1645.97	1.616	1656691	WORD	n/a	wordpools/wordpool_EN.txt	SHOE	12	15	[0, 0, 0]	n/a	FR1	1	R1207J
1647.586	0.0	1658307	DISTRACT_START	n/a	n/a	n/a	-999	15	[0, 0, 0]	n/a	FR1	1	R1207J
1647.586	0.0	1658307	WORD_OFF	n/a	n/a	SHOE	12	15	[0, 0, 0]	n/a	FR1	1	R1207J
1647.586	0.016	1658307	START	n/a	n/a	n/a	-999	15	[-999, -999, -999]	n/a	FR1	1	R1207J
1647.602	3.984	1658323	PROB	3.984	n/a	n/a	-999	15	[1, 7, 9]	17	FR1	1	R1207J
1651.586	3.385	1662307	PROB	3.385	n/a	n/a	-999	15	[5, 3, 9]	18	FR1	1	R1207J
1654.971	3.783	1665692	PROB	3.783	n/a	n/a	-999	15	[6, 3, 2]	11	FR1	1	R1207J
1658.754	2.534	1669475	PROB	2.534	n/a	n/a	-999	15	[2, 4, 6]	12	FR1	1	R1207J
1661.288	3.117	1672009	PROB	3.117	n/a	n/a	-999	15	[8, 7, 8]	23	FR1	1	R1207J
1664.405	2.617	1675126	PROB	2.617	n/a	n/a	-999	15	[6, 4, 5]	15	FR1	1	R1207J
1667.022	3.174	1677743	PROB	3.174	n/a	n/a	-999	15	[7, 1, 7]	15	FR1	1	R1207J
1670.196	0.01	1680917	STOP	n/a	n/a	n/a	-999	15	[-999, -999, -999]	n/a	FR1	1	R1207J
1670.206	0.533	1680927	DISTRACT_END	n/a	n/a	n/a	-999	15	[0, 0, 0]	n/a	FR1	1	R1207J
1670.739	0.518	1681460	RETRIEVAL_ORIENT	n/a	n/a	n/a	-999	15	[0, 0, 0]	n/a	FR1	1	R1207J
1671.257	0.926	1681978	REC_START	n/a	n/a	n/a	-999	15	[0, 0, 0]	n/a	FR1	1	R1207J
1672.183	1.151	1682904	REC_WORD	1.151	n/a	STEAK	-999	15	[0, 0, 0]	n/a	FR1	1	R1207J
1673.334	1.261	1684055	REC_WORD	1.261	n/a	MOOSE	-999	15	[0, 0, 0]	n/a	FR1	1	R1207J
1674.595	1.534	1685316	REC_WORD	1.534	n/a	VEST	-999	15	[0, 0, 0]	n/a	FR1	1	R1207J
1676.129	1.255	1686850	REC_WORD	1.255	n/a	ARM	-999	15	[0, 0, 0]	n/a	FR1	1	R1207J
1677.384	2.679	1688105	REC_WORD	2.679	n/a	LEG	-999	15	[0, 0, 0]	n/a	FR1	1	R1207J
1680.063	21.206	1690784	REC_WORD	21.206	n/a	CHIN	-999	15	[0, 0, 0]	n/a	FR1	1	R1207J
1701.269	4.108	1711990	REC_END	n/a	n/a	n/a	-999	15	[0, 0, 0]	n/a	FR1	1	R1207J
1705.377	0.5	1716098	TRIAL	n/a	n/a	n/a	-999	16	[0, 0, 0]	n/a	FR1	1	R1207J
1705.877	10.428	1716598	COUNTDOWN_START	n/a	n/a	n/a	-999	16	[0, 0, 0]	n/a	FR1	1	R1207J
1716.305	0.006	1727026	COUNTDOWN_END	n/a	n/a	n/a	-999	16	[0, 0, 0]	n/a	FR1	1	R1207J
1716.311	1.602	1727032	ORIENT	n/a	n/a	n/a	-999	16	[0, 0, 0]	n/a	FR1	1	R1207J
1717.913	2.2	1728634	ORIENT_OFF	n/a	n/a	n/a	-999	16	[0, 0, 0]	n/a	FR1	1	R1207J
1720.113	1.616	1730834	WORD	n/a	wordpools/wordpool_EN.txt	LIP	1	16	[0, 0, 0]	n/a	FR1	1	R1207J
1721.729	0.9	1732450	WORD_OFF	n/a	n/a	LIP	1	16	[0, 0, 0]	n/a	FR1	1	R1207J
1722.629	1.618	1733350	WORD	n/a	wordpools/wordpool_EN.txt	STEAM	2	16	[0, 0, 0]	n/a	FR1	1	R1207J
1724.247	0.784	1734968	WORD_OFF	n/a	n/a	STEAM	2	16	[0, 0, 0]	n/a	FR1	1	R1207J
1725.031	1.615	1735752	WORD	n/a	wordpools/wordpool_EN.txt	FACE	3	16	[0, 0, 0]	n/a	FR1	1	R1207J
1726.646	0.917	1737367	WORD_OFF	n/a	n/a	FACE	3	16	[0, 0, 0]	n/a	FR1	1	R1207J
1727.563	1.618	1738284	WORD	n/a	wordpools/wordpool_EN.txt	SHIELD	4	16	[0, 0, 0]	n/a	FR1	1	R1207J
1729.181	0.9	1739902	WORD_OFF	n/a	n/a	SHIELD	4	16	[0, 0, 0]	n/a	FR1	1	R1207J
1730.081	1.616	1740802	WORD	n/a	wordpools/wordpool_EN.txt	LAMB	5	16	[0, 0, 0]	n/a	FR1	1	R1207J
1731.697	0.867	1742418	WORD_OFF	n/a	n/a	LAMB	5	16	[0, 0, 0]	n/a	FR1	1	R1207J
1732.564	1.601	1743285	WORD	n/a	wordpools/wordpool_EN.txt	ARK	6	16	[0, 0, 0]	n/a	FR1	1	R1207J
1734.165	0.783	1744886	WORD_OFF	n/a	n/a	ARK	6	16	[0, 0, 0]	n/a	FR1	1	R1207J
1734.948	1.616	1745669	WORD	n/a	wordpools/wordpool_EN.txt	DESK	7	16	[0, 0, 0]	n/a	FR1	1	R1207J
1736.564	0.767	1747285	WORD_OFF	n/a	n/a	DESK	7	16	[0, 0, 0]	n/a	FR1	1	R1207J
1737.331	1.618	1748052	WORD	n/a	wordpools/wordpool_EN.txt	SEAT	8	16	[0, 0, 0]	n/a	FR1	1	R1207J
1738.949	0.916	1749670	WORD_OFF	n/a	n/a	SEAT	8	16	[0, 0, 0]	n/a	FR1	1	R1207J
1739.865	1.616	1750586	WORD	n/a	wordpools/wordpool_EN.txt	SWORD	9	16	[0, 0, 0]	n/a	FR1	1	R1207J
1741.481	0.901	1752202	WORD_OFF	n/a	n/a	SWORD	9	16	[0, 0, 0]	n/a	FR1	1	R1207J
1742.382	1.618	1753103	WORD	n/a	wordpools/wordpool_EN.txt	GOAT	10	16	[0, 0, 0]	n/a	FR1	1	R1207J
1744.0	0.916	1754721	WORD_OFF	n/a	n/a	GOAT	10	16	[0, 0, 0]	n/a	FR1	1	R1207J
1744.916	1.616	1755637	WORD	n/a	wordpools/wordpool_EN.txt	SPEAR	11	16	[0, 0, 0]	n/a	FR1	1	R1207J
1746.532	0.783	1757253	WORD_OFF	n/a	n/a	SPEAR	11	16	[0, 0, 0]	n/a	FR1	1	R1207J
1747.315	1.618	1758036	WORD	n/a	wordpools/wordpool_EN.txt	LAMP	12	16	[0, 0, 0]	n/a	FR1	1	R1207J
1748.933	0.0	1759654	WORD_OFF	n/a	n/a	LAMP	12	16	[0, 0, 0]	n/a	FR1	1	R1207J
1748.933	0.001	1759654	DISTRACT_START	n/a	n/a	n/a	-999	16	[0, 0, 0]	n/a	FR1	1	R1207J
1748.934	0.016	1759655	START	n/a	n/a	n/a	-999	16	[-999, -999, -999]	n/a	FR1	1	R1207J
1748.95	3.833	1759671	PROB	3.833	n/a	n/a	-999	16	[6, 6, 2]	14	FR1	1	R1207J
1752.783	2.817	1763504	PROB	2.817	n/a	n/a	-999	16	[1, 9, 5]	15	FR1	1	R1207J
1755.6	3.2	1766321	PROB	3.2	n/a	n/a	-999	16	[2, 7, 3]	12	FR1	1	R1207J
1758.8	4.051	1769521	PROB	4.051	n/a	n/a	-999	16	[2, 9, 3]	14	FR1	1	R1207J
1762.851	2.567	1773572	PROB	2.567	n/a	n/a	-999	16	[5, 1, 7]	13	FR1	1	R1207J
1765.418	4.388	1776139	PROB	4.388	n/a	n/a	-999	16	[9, 5, 7]	21	FR1	1	R1207J
1769.806	0.013	1780527	STOP	n/a	n/a	n/a	-999	16	[-999, -999, -999]	n/a	FR1	1	R1207J
1769.819	0.633	1780540	DISTRACT_END	n/a	n/a	n/a	-999	16	[0, 0, 0]	n/a	FR1	1	R1207J
1770.452	0.519	1781173	RETRIEVAL_ORIENT	n/a	n/a	n/a	-999	16	[0, 0, 0]	n/a	FR1	1	R1207J
1770.971	1.155	1781692	REC_START	n/a	n/a	n/a	-999	16	[0, 0, 0]	n/a	FR1	1	R1207J
1772.126	3.516	1782847	REC_WORD	3.516	n/a	SPEAR	-999	16	[0, 0, 0]	n/a	FR1	1	R1207J
1775.642	16.008	1786363	REC_WORD	16.008	n/a	LAMB	-999	16	[0, 0, 0]	n/a	FR1	1	R1207J
1791.65	9.334	1802371	REC_WORD	9.334	n/a	DESK	-999	16	[0, 0, 0]	n/a	FR1	1	R1207J
1800.984	5.09	1811705	REC_END	n/a	n/a	n/a	-999	16	[0, 0, 0]	n/a	FR1	1	R1207J
1806.074	0.5	1816795	TRIAL	n/a	n/a	n/a	-999	17	[0, 0, 0]	n/a	FR1	1	R1207J
1806.574	10.428	1817295	COUNTDOWN_START	n/a	n/a	n/a	-999	17	[0, 0, 0]	n/a	FR1	1	R1207J
1817.002	0.007	1827723	COUNTDOWN_END	n/a	n/a	n/a	-999	17	[0, 0, 0]	n/a	FR1	1	R1207J
1817.009	1.616	1827730	ORIENT	n/a	n/a	n/a	-999	17	[0, 0, 0]	n/a	FR1	1	R1207J
1818.625	1.967	1829346	ORIENT_OFF	n/a	n/a	n/a	-999	17	[0, 0, 0]	n/a	FR1	1	R1207J
1820.592	1.618	1831313	WORD	n/a	wordpools/wordpool_EN.txt	SUN	1	17	[0, 0, 0]	n/a	FR1	1	R1207J
1822.21	0.85	1832931	WORD_OFF	n/a	n/a	SUN	1	17	[0, 0, 0]	n/a	FR1	1	R1207J
1823.06	1.616	1833781	WORD	n/a	wordpools/wordpool_EN.txt	BRUSH	2	17	[0, 0, 0]	n/a	FR1	1	R1207J
1824.676	0.983	1835397	WORD_OFF	n/a	n/a	BRUSH	2	17	[0, 0, 0]	n/a	FR1	1	R1207J
1825.659	1.602	1836380	WORD	n/a	wordpools/wordpool_EN.txt	FLAME	3	17	[0, 0, 0]	n/a	FR1	1	R1207J
1827.261	0.933	1837982	WORD_OFF	n/a	n/a	FLAME	3	17	[0, 0, 0]	n/a	FR1	1	R1207J
1828.194	1.616	1838915	WORD	n/a	wordpools/wordpool_EN.txt	CUP	4	17	[0, 0, 0]	n/a	FR1	1	R1207J
1829.81	0.934	1840531	WORD_OFF	n/a	n/a	CUP	4	17	[0, 0, 0]	n/a	FR1	1	R1207J
1830.744	1.617	1841465	WORD	n/a	wordpools/wordpool_EN.txt	PEN	5	17	[0, 0, 0]	n/a	FR1	1	R1207J
1832.361	0.983	1843082	WORD_OFF	n/a	n/a	PEN	5	17	[0, 0, 0]	n/a	FR1	1	R1207J
1833.344	1.618	1844065	WORD	n/a	wordpools/wordpool_EN.txt	GATE	6	17	[0, 0, 0]	n/a	FR1	1	R1207J
1834.962	0.782	1845683	WORD_OFF	n/a	n/a	GATE	6	17	[0, 0, 0]	n/a	FR1	1	R1207J
1835.744	1.617	1846465	WORD	n/a	wordpools/wordpool_EN.txt	BATH	7	17	[0, 0, 0]	n/a	FR1	1	R1207J
1837.361	1.0	1848082	WORD_OFF	n/a	n/a	BATH	7	17	[0, 0, 0]	n/a	FR1	1	R1207J
1838.361	1.618	1849082	WORD	n/a	wordpools/wordpool_EN.txt	PEA	8	17	[0, 0, 0]	n/a	FR1	1	R1207J
1839.979	0.833	1850700	WORD_OFF	n/a	n/a	PEA	8	17	[0, 0, 0]	n/a	FR1	1	R1207J
1840.812	1.617	1851533	WORD	n/a	wordpools/wordpool_EN.txt	PLATE	9	17	[0, 0, 0]	n/a	FR1	1	R1207J
1842.429	0.9	1853149	WORD_OFF	n/a	n/a	PLATE	9	17	[0, 0, 0]	n/a	FR1	1	R1207J
1843.329	1.618	1854049	WORD	n/a	wordpools/wordpool_EN.txt	HOSE	10	17	[0, 0, 0]	n/a	FR1	1	R1207J
1844.947	0.933	1855667	WORD_OFF	n/a	n/a	HOSE	10	17	[0, 0, 0]	n/a	FR1	1	R1207J
1845.88	1.616	1856600	WORD	n/a	wordpools/wordpool_EN.txt	VAN	11	17	[0, 0, 0]	n/a	FR1	1	R1207J
1847.496	0.967	1858216	WORD_OFF	n/a	n/a	VAN	11	17	[0, 0, 0]	n/a	FR1	1	R1207J
1848.463	1.617	1859183	WORD	n/a	wordpools/wordpool_EN.txt	CORN	12	17	[0, 0, 0]	n/a	FR1	1	R1207J
1850.08	0.0	1860800	WORD_OFF	n/a	n/a	CORN	12	17	[0, 0, 0]	n/a	FR1	1	R1207J
1850.08	0.001	1860800	DISTRACT_START	n/a	n/a	n/a	-999	17	[0, 0, 0]	n/a	FR1	1	R1207J
1850.081	0.016	1860801	START	n/a	n/a	n/a	-999	17	[-999, -999, -999]	n/a	FR1	1	R1207J
1850.097	2.867	1860817	PROB	2.867	n/a	n/a	-999	17	[2, 4, 6]	12	FR1	1	R1207J
1852.964	4.616	1863684	PROB	4.616	n/a	n/a	-999	17	[4, 6, 6]	16	FR1	1	R1207J
1857.58	3.419	1868300	PROB	3.419	n/a	n/a	-999	17	[5, 6, 6]	17	FR1	1	R1207J
1860.999	3.682	1871719	PROB	3.682	n/a	n/a	-999	17	[2, 9, 3]	14	FR1	1	R1207J
1864.681	3.235	1875401	PROB	3.235	n/a	n/a	-999	17	[7, 8, 4]	19	FR1	1	R1207J
1867.916	3.224	1878636	PROB	3.224	n/a	n/a	-999	17	[3, 8, 7]	18	FR1	1	R1207J
1871.14	0.01	1881860	STOP	n/a	n/a	n/a	-999	17	[-999, -999, -999]	n/a	FR1	1	R1207J
1871.15	0.582	1881870	DISTRACT_END	n/a	n/a	n/a	-999	17	[0, 0, 0]	n/a	FR1	1	R1207J
1871.732	0.519	1882452	RETRIEVAL_ORIENT	n/a	n/a	n/a	-999	17	[0, 0, 0]	n/a	FR1	1	R1207J
1872.251	0.62	1882971	REC_START	n/a	n/a	n/a	-999	17	[0, 0, 0]	n/a	FR1	1	R1207J
1872.871	1.514	1883591	REC_WORD	1.514	n/a	HOSE	-999	17	[0, 0, 0]	n/a	FR1	1	R1207J
1874.385	9.029	1885105	REC_WORD	9.029	n/a	VAN	-999	17	[0, 0, 0]	n/a	FR1	1	R1207J
1883.414	15.292	1894134	REC_WORD	15.292	n/a	LIP	-999	17	[0, 0, 0]	n/a	FR1	1	R1207J
1898.706	3.556	1909426	REC_WORD	3.556	n/a	SUN	-999	17	[0, 0, 0]	n/a	FR1	1	R1207J
1902.262	4.425	1912982	REC_END	n/a	n/a	n/a	-999	17	[0, 0, 0]	n/a	FR1	1	R1207J
1906.687	0.5	1917407	TRIAL	n/a	n/a	n/a	-999	18	[0, 0, 0]	n/a	FR1	1	R1207J
1907.187	10.428	1917907	COUNTDOWN_START	n/a	n/a	n/a	-999	18	[0, 0, 0]	n/a	FR1	1	R1207J
1917.615	0.007	1928335	COUNTDOWN_END	n/a	n/a	n/a	-999	18	[0, 0, 0]	n/a	FR1	1	R1207J
1917.622	1.618	1928342	ORIENT	n/a	n/a	n/a	-999	18	[0, 0, 0]	n/a	FR1	1	R1207J
1919.24	1.9	1929960	ORIENT_OFF	n/a	n/a	n/a	-999	18	[0, 0, 0]	n/a	FR1	1	R1207J
1921.14	1.616	1931860	WORD	n/a	wordpools/wordpool_EN.txt	FUR	1	18	[0, 0, 0]	n/a	FR1	1	R1207J
1922.756	0.867	1933476	WORD_OFF	n/a	n/a	FUR	1	18	[0, 0, 0]	n/a	FR1	1	R1207J
1923.623	1.617	1934343	WORD	n/a	wordpools/wordpool_EN.txt	ROOF	2	18	[0, 0, 0]	n/a	FR1	1	R1207J
1925.24	0.817	1935960	WORD_OFF	n/a	n/a	ROOF	2	18	[0, 0, 0]	n/a	FR1	1	R1207J
1926.057	1.616	1936777	WORD	n/a	wordpools/wordpool_EN.txt	PIG	3	18	[0, 0, 0]	n/a	FR1	1	R1207J
1927.673	0.934	1938393	WORD_OFF	n/a	n/a	PIG	3	18	[0, 0, 0]	n/a	FR1	1	R1207J
1928.607	1.617	1939327	WORD	n/a	wordpools/wordpool_EN.txt	TRUCK	4	18	[0, 0, 0]	n/a	FR1	1	R1207J
1930.224	0.951	1940944	WORD_OFF	n/a	n/a	TRUCK	4	18	[0, 0, 0]	n/a	FR1	1	R1207J
1931.175	1.616	1941895	WORD	n/a	wordpools/wordpool_EN.txt	STORM	5	18	[0, 0, 0]	n/a	FR1	1	R1207J
1932.791	0.95	1943511	WORD_OFF	n/a	n/a	STORM	5	18	[0, 0, 0]	n/a	FR1	1	R1207J
1933.741	1.616	1944461	WORD	n/a	wordpools/wordpool_EN.txt	TAIL	6	18	[0, 0, 0]	n/a	FR1	1	R1207J
1935.357	0.984	1946077	WORD_OFF	n/a	n/a	TAIL	6	18	[0, 0, 0]	n/a	FR1	1	R1207J
1936.341	1.618	1947061	WORD	n/a	wordpools/wordpool_EN.txt	BAND	7	18	[0, 0, 0]	n/a	FR1	1	R1207J
1937.959	0.899	1948679	WORD_OFF	n/a	n/a	BAND	7	18	[0, 0, 0]	n/a	FR1	1	R1207J
1938.858	1.617	1949578	WORD	n/a	wordpools/wordpool_EN.txt	GOLD	8	18	[0, 0, 0]	n/a	FR1	1	R1207J
1940.475	0.933	1951195	WORD_OFF	n/a	n/a	GOLD	8	18	[0, 0, 0]	n/a	FR1	1	R1207J
1941.408	1.618	1952128	WORD	n/a	wordpools/wordpool_EN.txt	RIB	9	18	[0, 0, 0]	n/a	FR1	1	R1207J
1943.026	0.816	1953746	WORD_OFF	n/a	n/a	RIB	9	18	[0, 0, 0]	n/a	FR1	1	R1207J
1943.842	1.617	1954562	WORD	n/a	wordpools/wordpool_EN.txt	BADGE	10	18	[0, 0, 0]	n/a	FR1	1	R1207J
1945.459	0.85	1956179	WORD_OFF	n/a	n/a	BADGE	10	18	[0, 0, 0]	n/a	FR1	1	R1207J
1946.309	1.618	1957029	WORD	n/a	wordpools/wordpool_EN.txt	ROSE	11	18	[0, 0, 0]	n/a	FR1	1	R1207J
1947.927	0.899	1958647	WORD_OFF	n/a	n/a	ROSE	11	18	[0, 0, 0]	n/a	FR1	1	R1207J
1948.826	1.617	1959546	WORD	n/a	wordpools/wordpool_EN.txt	CLIFF	12	18	[0, 0, 0]	n/a	FR1	1	R1207J
1950.443	0.0	1961163	WORD_OFF	n/a	n/a	CLIFF	12	18	[0, 0, 0]	n/a	FR1	1	R1207J
1950.443	0.001	1961163	DISTRACT_START	n/a	n/a	n/a	-999	18	[0, 0, 0]	n/a	FR1	1	R1207J
1950.444	0.016	1961164	START	n/a	n/a	n/a	-999	18	[-999, -999, -999]	n/a	FR1	1	R1207J
1950.46	4.9	1961180	PROB	4.9	n/a	n/a	-999	18	[5, 6, 9]	21	FR1	1	R1207J
1955.36	3.934	1966080	PROB	3.934	n/a	n/a	-999	18	[1, 5, 3]	9	FR1	1	R1207J
1959.294	3.417	1970014	PROB	3.417	n/a	n/a	-999	18	[6, 9, 8]	22	FR1	1	R1207J
1962.711	3.984	1973431	PROB	3.984	n/a	n/a	-999	18	[5, 6, 6]	18	FR1	1	R1207J
1966.695	3.468	1977415	PROB	3.468	n/a	n/a	-999	18	[6, 5, 1]	12	FR1	1	R1207J
1970.163	7.693	1980883	PROB	7.693	n/a	n/a	-999	18	[9, 5, 8]	22	FR1	1	R1207J
1977.856	0.007	1988576	STOP	n/a	n/a	n/a	-999	18	[-999, -999, -999]	n/a	FR1	1	R1207J
1977.863	0.534	1988583	DISTRACT_END	n/a	n/a	n/a	-999	18	[0, 0, 0]	n/a	FR1	1	R1207J
1978.397	0.518	1989117	RETRIEVAL_ORIENT	n/a	n/a	n/a	-999	18	[0, 0, 0]	n/a	FR1	1	R1207J
1978.915	0.992	1989635	REC_START	n/a	n/a	n/a	-999	18	[0, 0, 0]	n/a	FR1	1	R1207J
1979.907	1.25	1990627	REC_WORD	1.25	n/a	BADGE	-999	18	[0, 0, 0]	n/a	FR1	1	R1207J
1981.157	1.127	1991877	REC_WORD	1.127	n/a	ROSE	-999	18	[0, 0, 0]	n/a	FR1	1	R1207J
1982.284	1.671	1993004	REC_WORD	1.671	n/a	CLIP	-999	18	[0, 0, 0]	n/a	FR1	1	R1207J
1983.955	4.246	1994675	REC_WORD	4.246	n/a	CLIFF	-999	18	[0, 0, 0]	n/a	FR1	1	R1207J
1988.201	4.085	1998921	REC_WORD	4.085	n/a	ROOF	-999	18	[0, 0, 0]	n/a	FR1	1	R1207J
1992.286	16.64	2003006	REC_WORD	16.64	n/a	DOOR	-999	18	[0, 0, 0]	n/a	FR1	1	R1207J
2008.926	5.127	2019646	REC_END	n/a	n/a	n/a	-999	18	[0, 0, 0]	n/a	FR1	1	R1207J
2014.053	0.5	2024773	TRIAL	n/a	n/a	n/a	-999	19	[0, 0, 0]	n/a	FR1	1	R1207J
2014.553	10.428	2025273	COUNTDOWN_START	n/a	n/a	n/a	-999	19	[0, 0, 0]	n/a	FR1	1	R1207J
2024.981	0.007	2035701	COUNTDOWN_END	n/a	n/a	n/a	-999	19	[0, 0, 0]	n/a	FR1	1	R1207J
2024.988	1.615	2035708	ORIENT	n/a	n/a	n/a	-999	19	[0, 0, 0]	n/a	FR1	1	R1207J
2026.603	2.05	2037323	ORIENT_OFF	n/a	n/a	n/a	-999	19	[0, 0, 0]	n/a	FR1	1	R1207J
2028.653	1.601	2039373	WORD	n/a	wordpools/wordpool_EN.txt	OAK	1	19	[0, 0, 0]	n/a	FR1	1	R1207J
2030.254	0.918	2040974	WORD_OFF	n/a	n/a	OAK	1	19	[0, 0, 0]	n/a	FR1	1	R1207J
2031.172	1.615	2041892	WORD	n/a	wordpools/wordpool_EN.txt	FORK	2	19	[0, 0, 0]	n/a	FR1	1	R1207J
2032.787	0.934	2043507	WORD_OFF	n/a	n/a	FORK	2	19	[0, 0, 0]	n/a	FR1	1	R1207J
2033.721	1.617	2044441	WORD	n/a	wordpools/wordpool_EN.txt	FORT	3	19	[0, 0, 0]	n/a	FR1	1	R1207J
2035.338	0.917	2046058	WORD_OFF	n/a	n/a	FORT	3	19	[0, 0, 0]	n/a	FR1	1	R1207J
2036.255	1.616	2046975	WORD	n/a	wordpools/wordpool_EN.txt	CLOCK	4	19	[0, 0, 0]	n/a	FR1	1	R1207J
2037.871	0.834	2048591	WORD_OFF	n/a	n/a	CLOCK	4	19	[0, 0, 0]	n/a	FR1	1	R1207J
2038.705	1.617	2049425	WORD	n/a	wordpools/wordpool_EN.txt	FROG	5	19	[0, 0, 0]	n/a	FR1	1	R1207J
2040.322	0.801	2051042	WORD_OFF	n/a	n/a	FROG	5	19	[0, 0, 0]	n/a	FR1	1	R1207J
2041.123	1.616	2051843	WORD	n/a	wordpools/wordpool_EN.txt	ROCK	6	19	[0, 0, 0]	n/a	FR1	1	R1207J
2042.739	0.933	2053459	WORD_OFF	n/a	n/a	ROCK	6	19	[0, 0, 0]	n/a	FR1	1	R1207J
2043.672	1.617	2054392	WORD	n/a	wordpools/wordpool_EN.txt	FLEA	7	19	[0, 0, 0]	n/a	FR1	1	R1207J
2045.289	0.834	2056009	WORD_OFF	n/a	n/a	FLEA	7	19	[0, 0, 0]	n/a	FR1	1	R1207J
2046.123	1.616	2056843	WORD	n/a	wordpools/wordpool_EN.txt	HEART	8	19	[0, 0, 0]	n/a	FR1	1	R1207J
2047.739	0.884	2058459	WORD_OFF	n/a	n/a	HEART	8	19	[0, 0, 0]	n/a	FR1	1	R1207J
2048.623	1.601	2059343	WORD	n/a	wordpools/wordpool_EN.txt	SKI	9	19	[0, 0, 0]	n/a	FR1	1	R1207J
2050.224	1.017	2060944	WORD_OFF	n/a	n/a	SKI	9	19	[0, 0, 0]	n/a	FR1	1	R1207J
2051.241	1.616	2061961	WORD	n/a	wordpools/wordpool_EN.txt	STONE	10	19	[0, 0, 0]	n/a	FR1	1	R1207J
2052.857	1.0	2063577	WORD_OFF	n/a	n/a	STONE	10	19	[0, 0, 0]	n/a	FR1	1	R1207J
2053.857	1.616	2064577	WORD	n/a	wordpools/wordpool_EN.txt	PHONE	11	19	[0, 0, 0]	n/a	FR1	1	R1207J
2055.473	0.867	2066193	WORD_OFF	n/a	n/a	PHONE	11	19	[0, 0, 0]	n/a	FR1	1	R1207J
2056.34	1.618	2067060	WORD	n/a	wordpools/wordpool_EN.txt	PEARL	12	19	[0, 0, 0]	n/a	FR1	1	R1207J
2057.958	0.0	2068678	DISTRACT_START	n/a	n/a	n/a	-999	19	[0, 0, 0]	n/a	FR1	1	R1207J
2057.958	0.001	2068678	WORD_OFF	n/a	n/a	PEARL	12	19	[0, 0, 0]	n/a	FR1	1	R1207J
2057.959	0.016	2068679	START	n/a	n/a	n/a	-999	19	[-999, -999, -999]	n/a	FR1	1	R1207J
2057.975	3.449	2068695	PROB	3.449	n/a	n/a	-999	19	[5, 5, 3]	13	FR1	1	R1207J
2061.424	2.769	2072144	PROB	2.769	n/a	n/a	-999	19	[8, 4, 2]	14	FR1	1	R1207J
2064.193	4.283	2074913	PROB	4.283	n/a	n/a	-999	19	[9, 9, 8]	26	FR1	1	R1207J
2068.476	3.15	2079196	PROB	3.15	n/a	n/a	-999	19	[3, 1, 7]	11	FR1	1	R1207J
2071.626	4.368	2082346	PROB	4.368	n/a	n/a	-999	19	[4, 3, 7]	14	FR1	1	R1207J
2075.994	3.771	2086714	PROB	3.771	n/a	n/a	-999	19	[5, 2, 3]	10	FR1	1	R1207J
2079.765	0.012	2090485	STOP	n/a	n/a	n/a	-999	19	[-999, -999, -999]	n/a	FR1	1	R1207J
2079.777	0.55	2090497	DISTRACT_END	n/a	n/a	n/a	-999	19	[0, 0, 0]	n/a	FR1	1	R1207J
2080.327	0.518	2091047	RETRIEVAL_ORIENT	n/a	n/a	n/a	-999	19	[0, 0, 0]	n/a	FR1	1	R1207J
2080.845	0.757	2091565	REC_START	n/a	n/a	n/a	-999	19	[0, 0, 0]	n/a	FR1	1	R1207J
2081.602	1.575	2092322	REC_WORD	1.575	n/a	PEARL	-999	19	[0, 0, 0]	n/a	FR1	1	R1207J
2083.177	27.682	2093897	REC_WORD	27.682	n/a	STONE	-999	19	[0, 0, 0]	n/a	FR1	1	R1207J
2110.859	4.556	2121578	REC_END	n/a	n/a	n/a	-999	19	[0, 0, 0]	n/a	FR1	1	R1207J
2115.415	0.5	2126134	TRIAL	n/a	n/a	n/a	-999	20	[0, 0, 0]	n/a	FR1	1	R1207J
2115.915	10.428	2126634	COUNTDOWN_START	n/a	n/a	n/a	-999	20	[0, 0, 0]	n/a	FR1	1	R1207J
2126.343	0.007	2137062	COUNTDOWN_END	n/a	n/a	n/a	-999	20	[0, 0, 0]	n/a	FR1	1	R1207J
2126.35	1.618	2137069	ORIENT	n/a	n/a	n/a	-999	20	[0, 0, 0]	n/a	FR1	1	R1207J
2127.968	2.017	2138687	ORIENT_OFF	n/a	n/a	n/a	-999	20	[0, 0, 0]	n/a	FR1	1	R1207J
2129.985	1.616	2140704	WORD	n/a	wordpools/wordpool_EN.txt	WORM	1	20	[0, 0, 0]	n/a	FR1	1	R1207J
2131.601	0.817	2142320	WORD_OFF	n/a	n/a	WORM	1	20	[0, 0, 0]	n/a	FR1	1	R1207J
2132.418	1.618	2143137	WORD	n/a	wordpools/wordpool_EN.txt	SLUSH	2	20	[0, 0, 0]	n/a	FR1	1	R1207J
2134.036	1.016	2144755	WORD_OFF	n/a	n/a	SLUSH	2	20	[0, 0, 0]	n/a	FR1	1	R1207J
2135.052	1.616	2145771	WORD	n/a	wordpools/wordpool_EN.txt	STAIR	3	20	[0, 0, 0]	n/a	FR1	1	R1207J
2136.668	0.95	2147387	WORD_OFF	n/a	n/a	STAIR	3	20	[0, 0, 0]	n/a	FR1	1	R1207J
2137.618	1.618	2148337	WORD	n/a	wordpools/wordpool_EN.txt	WOOD	4	20	[0, 0, 0]	n/a	FR1	1	R1207J
2139.236	0.834	2149955	WORD_OFF	n/a	n/a	WOOD	4	20	[0, 0, 0]	n/a	FR1	1	R1207J
2140.07	1.616	2150789	WORD	n/a	wordpools/wordpool_EN.txt	ROOM	5	20	[0, 0, 0]	n/a	FR1	1	R1207J
2141.686	0.983	2152405	WORD_OFF	n/a	n/a	ROOM	5	20	[0, 0, 0]	n/a	FR1	1	R1207J
2142.669	1.618	2153388	WORD	n/a	wordpools/wordpool_EN.txt	PANTS	6	20	[0, 0, 0]	n/a	FR1	1	R1207J
2144.287	0.983	2155006	WORD_OFF	n/a	n/a	PANTS	6	20	[0, 0, 0]	n/a	FR1	1	R1207J
2145.27	1.617	2155989	WORD	n/a	wordpools/wordpool_EN.txt	PIE	7	20	[0, 0, 0]	n/a	FR1	1	R1207J
2146.887	0.882	2157606	WORD_OFF	n/a	n/a	PIE	7	20	[0, 0, 0]	n/a	FR1	1	R1207J
2147.769	1.617	2158488	WORD	n/a	wordpools/wordpool_EN.txt	PEAR	8	20	[0, 0, 0]	n/a	FR1	1	R1207J
2149.386	1.0	2160105	WORD_OFF	n/a	n/a	PEAR	8	20	[0, 0, 0]	n/a	FR1	1	R1207J
2150.386	1.602	2161105	WORD	n/a	wordpools/wordpool_EN.txt	SUIT	9	20	[0, 0, 0]	n/a	FR1	1	R1207J
2151.988	1.0	2162707	WORD_OFF	n/a	n/a	SUIT	9	20	[0, 0, 0]	n/a	FR1	1	R1207J
2152.988	1.616	2163707	WORD	n/a	wordpools/wordpool_EN.txt	NAIL	10	20	[0, 0, 0]	n/a	FR1	1	R1207J
2154.604	0.866	2165323	WORD_OFF	n/a	n/a	NAIL	10	20	[0, 0, 0]	n/a	FR1	1	R1207J
2155.47	1.601	2166189	WORD	n/a	wordpools/wordpool_EN.txt	BROOM	11	20	[0, 0, 0]	n/a	FR1	1	R1207J
2157.071	0.851	2167790	WORD_OFF	n/a	n/a	BROOM	11	20	[0, 0, 0]	n/a	FR1	1	R1207J
2157.922	1.616	2168641	WORD	n/a	wordpools/wordpool_EN.txt	FOG	12	20	[0, 0, 0]	n/a	FR1	1	R1207J
2159.538	0.0	2170257	WORD_OFF	n/a	n/a	FOG	12	20	[0, 0, 0]	n/a	FR1	1	R1207J
2159.538	0.001	2170257	DISTRACT_START	n/a	n/a	n/a	-999	20	[0, 0, 0]	n/a	FR1	1	R1207J
2159.539	0.015	2170258	START	n/a	n/a	n/a	-999	20	[-999, -999, -999]	n/a	FR1	1	R1207J
2159.554	4.318	2170273	PROB	4.318	n/a	n/a	-999	20	[7, 6, 6]	20	FR1	1	R1207J
2163.872	4.018	2174591	PROB	4.018	n/a	n/a	-999	20	[2, 2, 6]	10	FR1	1	R1207J
2167.89	2.916	2178609	PROB	2.916	n/a	n/a	-999	20	[6, 2, 6]	14	FR1	1	R1207J
2170.806	2.301	2181525	PROB	2.301	n/a	n/a	-999	20	[2, 8, 1]	11	FR1	1	R1207J
2173.107	5.768	2183826	PROB	5.768	n/a	n/a	-999	20	[5, 7, 9]	21	FR1	1	R1207J
2178.875	3.295	2189594	PROB	3.295	n/a	n/a	-999	20	[8, 3, 1]	12	FR1	1	R1207J
2182.17	0.022	2192889	STOP	n/a	n/a	n/a	-999	20	[-999, -999, -999]	n/a	FR1	1	R1207J
2182.192	0.632	2192911	DISTRACT_END	n/a	n/a	n/a	-999	20	[0, 0, 0]	n/a	FR1	1	R1207J
2182.824	0.518	2193543	RETRIEVAL_ORIENT	n/a	n/a	n/a	-999	20	[0, 0, 0]	n/a	FR1	1	R1207J
2183.342	16.758	2194061	REC_START	n/a	n/a	n/a	-999	20	[0, 0, 0]	n/a	FR1	1	R1207J
2200.1	13.253	2210819	REC_WORD	13.253	n/a	ROOF	-999	20	[0, 0, 0]	n/a	FR1	1	R1207J
2213.353	4.743	2224072	REC_END	n/a	n/a	n/a	-999	20	[0, 0, 0]	n/a	FR1	1	R1207J
2218.096	0.5	2228815	TRIAL	n/a	n/a	n/a	-999	21	[0, 0, 0]	n/a	FR1	1	R1207J
2218.596	10.428	2229315	COUNTDOWN_START	n/a	n/a	n/a	-999	21	[0, 0, 0]	n/a	FR1	1	R1207J
2229.024	0.007	2239743	COUNTDOWN_END	n/a	n/a	n/a	-999	21	[0, 0, 0]	n/a	FR1	1	R1207J
2229.031	1.616	2239750	ORIENT	n/a	n/a	n/a	-999	21	[0, 0, 0]	n/a	FR1	1	R1207J
2230.647	1.901	2241366	ORIENT_OFF	n/a	n/a	n/a	-999	21	[0, 0, 0]	n/a	FR1	1	R1207J
2232.548	1.618	2243267	WORD	n/a	wordpools/wordpool_EN.txt	SHEEP	1	21	[0, 0, 0]	n/a	FR1	1	R1207J
2234.166	0.866	2244885	WORD_OFF	n/a	n/a	SHEEP	1	21	[0, 0, 0]	n/a	FR1	1	R1207J
2235.032	1.616	2245751	WORD	n/a	wordpools/wordpool_EN.txt	CHALK	2	21	[0, 0, 0]	n/a	FR1	1	R1207J
2236.648	0.783	2247367	WORD_OFF	n/a	n/a	CHALK	2	21	[0, 0, 0]	n/a	FR1	1	R1207J
2237.431	1.618	2248150	WORD	n/a	wordpools/wordpool_EN.txt	SHARK	3	21	[0, 0, 0]	n/a	FR1	1	R1207J
2239.049	1.0	2249768	WORD_OFF	n/a	n/a	SHARK	3	21	[0, 0, 0]	n/a	FR1	1	R1207J
2240.049	1.616	2250768	WORD	n/a	wordpools/wordpool_EN.txt	SEED	4	21	[0, 0, 0]	n/a	FR1	1	R1207J
2241.665	0.801	2252384	WORD_OFF	n/a	n/a	SEED	4	21	[0, 0, 0]	n/a	FR1	1	R1207J
2242.466	1.617	2253185	WORD	n/a	wordpools/wordpool_EN.txt	SNAIL	5	21	[0, 0, 0]	n/a	FR1	1	R1207J
2244.083	0.834	2254802	WORD_OFF	n/a	n/a	SNAIL	5	21	[0, 0, 0]	n/a	FR1	1	R1207J
2244.917	1.615	2255636	WORD	n/a	wordpools/wordpool_EN.txt	CANE	6	21	[0, 0, 0]	n/a	FR1	1	R1207J
2246.532	0.85	2257251	WORD_OFF	n/a	n/a	CANE	6	21	[0, 0, 0]	n/a	FR1	1	R1207J
2247.382	1.602	2258101	WORD	n/a	wordpools/wordpool_EN.txt	SWAMP	7	21	[0, 0, 0]	n/a	FR1	1	R1207J
2248.984	1.017	2259703	WORD_OFF	n/a	n/a	SWAMP	7	21	[0, 0, 0]	n/a	FR1	1	R1207J
2250.001	1.616	2260720	WORD	n/a	wordpools/wordpool_EN.txt	FARM	8	21	[0, 0, 0]	n/a	FR1	1	R1207J
2251.617	0.767	2262336	WORD_OFF	n/a	n/a	FARM	8	21	[0, 0, 0]	n/a	FR1	1	R1207J
2252.384	1.617	2263103	WORD	n/a	wordpools/wordpool_EN.txt	SPARK	9	21	[0, 0, 0]	n/a	FR1	1	R1207J
2254.001	0.866	2264720	WORD_OFF	n/a	n/a	SPARK	9	21	[0, 0, 0]	n/a	FR1	1	R1207J
2254.867	1.617	2265586	WORD	n/a	wordpools/wordpool_EN.txt	FLAG	10	21	[0, 0, 0]	n/a	FR1	1	R1207J
2256.484	0.983	2267203	WORD_OFF	n/a	n/a	FLAG	10	21	[0, 0, 0]	n/a	FR1	1	R1207J
2257.467	1.618	2268186	WORD	n/a	wordpools/wordpool_EN.txt	CLOUD	11	21	[0, 0, 0]	n/a	FR1	1	R1207J
2259.085	0.834	2269804	WORD_OFF	n/a	n/a	CLOUD	11	21	[0, 0, 0]	n/a	FR1	1	R1207J
2259.919	1.616	2270638	WORD	n/a	wordpools/wordpool_EN.txt	RAT	12	21	[0, 0, 0]	n/a	FR1	1	R1207J
2261.535	0.0	2272254	WORD_OFF	n/a	n/a	RAT	12	21	[0, 0, 0]	n/a	FR1	1	R1207J
2261.535	0.0	2272254	DISTRACT_START	n/a	n/a	n/a	-999	21	[0, 0, 0]	n/a	FR1	1	R1207J
2261.535	0.016	2272254	START	n/a	n/a	n/a	-999	21	[-999, -999, -999]	n/a	FR1	1	R1207J
2261.551	4.735	2272270	PROB	4.735	n/a	n/a	-999	21	[5, 1, 3]	9	FR1	1	R1207J
2266.286	5.818	2277005	PROB	5.818	n/a	n/a	-999	21	[5, 6, 7]	18	FR1	1	R1207J
2272.104	4.8	2282823	PROB	4.8	n/a	n/a	-999	21	[9, 3, 6]	18	FR1	1	R1207J
2276.904	3.034	2287623	PROB	3.034	n/a	n/a	-999	21	[8, 6, 2]	16	FR1	1	R1207J
2279.938	2.947	2290657	PROB	2.947	n/a	n/a	-999	21	[6, 8, 8]	22	FR1	1	R1207J
2282.885	0.02	2293604	STOP	n/a	n/a	n/a	-999	21	[-999, -999, -999]	n/a	FR1	1	R1207J
2282.905	0.632	2293624	DISTRACT_END	n/a	n/a	n/a	-999	21	[0, 0, 0]	n/a	FR1	1	R1207J
2283.537	0.519	2294256	RETRIEVAL_ORIENT	n/a	n/a	n/a	-999	21	[0, 0, 0]	n/a	FR1	1	R1207J
2284.056	3.129	2294775	REC_START	n/a	n/a	n/a	-999	21	[0, 0, 0]	n/a	FR1	1	R1207J
2287.185	2.061	2297904	REC_WORD	2.061	n/a	SNAIL	-999	21	[0, 0, 0]	n/a	FR1	1	R1207J
2289.246	24.822	2299965	REC_WORD	24.822	n/a	SWAMP	-999	21	[0, 0, 0]	n/a	FR1	1	R1207J
2314.068	5.142	2324787	REC_END	n/a	n/a	n/a	-999	21	[0, 0, 0]	n/a	FR1	1	R1207J
2319.21	0.5	2329929	TRIAL	n/a	n/a	n/a	-999	22	[0, 0, 0]	n/a	FR1	1	R1207J
2319.71	10.428	2330429	COUNTDOWN_START	n/a	n/a	n/a	-999	22	[0, 0, 0]	n/a	FR1	1	R1207J
2330.138	0.007	2340857	COUNTDOWN_END	n/a	n/a	n/a	-999	22	[0, 0, 0]	n/a	FR1	1	R1207J
2330.145	1.616	2340864	ORIENT	n/a	n/a	n/a	-999	22	[0, 0, 0]	n/a	FR1	1	R1207J
2331.761	1.933	2342480	ORIENT_OFF	n/a	n/a	n/a	-999	22	[0, 0, 0]	n/a	FR1	1	R1207J
2333.694	1.617	2344413	WORD	n/a	wordpools/wordpool_EN.txt	BAG	1	22	[0, 0, 0]	n/a	FR1	1	R1207J
2335.311	0.784	2346030	WORD_OFF	n/a	n/a	BAG	1	22	[0, 0, 0]	n/a	FR1	1	R1207J
2336.095	1.616	2346814	WORD	n/a	wordpools/wordpool_EN.txt	FENCE	2	22	[0, 0, 0]	n/a	FR1	1	R1207J
2337.711	0.8	2348430	WORD_OFF	n/a	n/a	FENCE	2	22	[0, 0, 0]	n/a	FR1	1	R1207J
2338.511	1.618	2349230	WORD	n/a	wordpools/wordpool_EN.txt	PALM	3	22	[0, 0, 0]	n/a	FR1	1	R1207J
2340.129	0.817	2350848	WORD_OFF	n/a	n/a	PALM	3	22	[0, 0, 0]	n/a	FR1	1	R1207J
2340.946	1.616	2351665	WORD	n/a	wordpools/wordpool_EN.txt	COW	4	22	[0, 0, 0]	n/a	FR1	1	R1207J
2342.562	0.984	2353281	WORD_OFF	n/a	n/a	COW	4	22	[0, 0, 0]	n/a	FR1	1	R1207J
2343.546	1.617	2354265	WORD	n/a	wordpools/wordpool_EN.txt	SNOW	5	22	[0, 0, 0]	n/a	FR1	1	R1207J
2345.163	0.984	2355882	WORD_OFF	n/a	n/a	SNOW	5	22	[0, 0, 0]	n/a	FR1	1	R1207J
2346.147	1.616	2356866	WORD	n/a	wordpools/wordpool_EN.txt	TOAST	6	22	[0, 0, 0]	n/a	FR1	1	R1207J
2347.763	0.8	2358482	WORD_OFF	n/a	n/a	TOAST	6	22	[0, 0, 0]	n/a	FR1	1	R1207J
2348.563	1.618	2359282	WORD	n/a	wordpools/wordpool_EN.txt	WEED	7	22	[0, 0, 0]	n/a	FR1	1	R1207J
2350.181	0.95	2360900	WORD_OFF	n/a	n/a	WEED	7	22	[0, 0, 0]	n/a	FR1	1	R1207J
2351.131	1.616	2361850	WORD	n/a	wordpools/wordpool_EN.txt	FOAM	8	22	[0, 0, 0]	n/a	FR1	1	R1207J
2352.747	1.0	2363466	WORD_OFF	n/a	n/a	FOAM	8	22	[0, 0, 0]	n/a	FR1	1	R1207J
2353.747	1.616	2364466	WORD	n/a	wordpools/wordpool_EN.txt	GEESE	9	22	[0, 0, 0]	n/a	FR1	1	R1207J
2355.363	0.868	2366082	WORD_OFF	n/a	n/a	GEESE	9	22	[0, 0, 0]	n/a	FR1	1	R1207J
2356.231	1.616	2366950	WORD	n/a	wordpools/wordpool_EN.txt	NEST	10	22	[0, 0, 0]	n/a	FR1	1	R1207J
2357.847	0.834	2368566	WORD_OFF	n/a	n/a	NEST	10	22	[0, 0, 0]	n/a	FR1	1	R1207J
2358.681	1.617	2369399	WORD	n/a	wordpools/wordpool_EN.txt	SINK	11	22	[0, 0, 0]	n/a	FR1	1	R1207J
2360.298	0.801	2371016	WORD_OFF	n/a	n/a	SINK	11	22	[0, 0, 0]	n/a	FR1	1	R1207J
2361.099	1.616	2371817	WORD	n/a	wordpools/wordpool_EN.txt	TRAY	12	22	[0, 0, 0]	n/a	FR1	1	R1207J
2362.715	0.0	2373433	WORD_OFF	n/a	n/a	TRAY	12	22	[0, 0, 0]	n/a	FR1	1	R1207J
2362.715	0.0	2373433	DISTRACT_START	n/a	n/a	n/a	-999	22	[0, 0, 0]	n/a	FR1	1	R1207J
2362.715	0.016	2373433	START	n/a	n/a	n/a	-999	22	[-999, -999, -999]	n/a	FR1	1	R1207J
2362.731	5.252	2373449	PROB	5.252	n/a	n/a	-999	22	[5, 8, 3]	16	FR1	1	R1207J
2367.983	3.6	2378701	PROB	3.6	n/a	n/a	-999	22	[5, 5, 7]	17	FR1	1	R1207J
2371.583	4.017	2382301	PROB	4.017	n/a	n/a	-999	22	[6, 2, 5]	16	FR1	1	R1207J
2375.6	3.418	2386318	PROB	3.418	n/a	n/a	-999	22	[8, 1, 9]	18	FR1	1	R1207J
2379.018	4.233	2389736	PROB	4.233	n/a	n/a	-999	22	[8, 4, 8]	20	FR1	1	R1207J
2383.251	0.018	2393969	STOP	n/a	n/a	n/a	-999	22	[-999, -999, -999]	n/a	FR1	1	R1207J
2383.269	0.515	2393987	DISTRACT_END	n/a	n/a	n/a	-999	22	[0, 0, 0]	n/a	FR1	1	R1207J
2383.784	0.518	2394502	RETRIEVAL_ORIENT	n/a	n/a	n/a	-999	22	[0, 0, 0]	n/a	FR1	1	R1207J
2384.302	0.752	2395020	REC_START	n/a	n/a	n/a	-999	22	[0, 0, 0]	n/a	FR1	1	R1207J
2385.054	1.728	2395772	REC_WORD	1.728	n/a	NEST	-999	22	[0, 0, 0]	n/a	FR1	1	R1207J
2386.782	1.688	2397500	REC_WORD	1.688	n/a	SINK	-999	22	[0, 0, 0]	n/a	FR1	1	R1207J
2388.47	7.421	2399188	REC_WORD	7.421	n/a	TRAY	-999	22	[0, 0, 0]	n/a	FR1	1	R1207J
2395.891	7.124	2406609	REC_WORD	7.124	n/a	SNOW	-999	22	[0, 0, 0]	n/a	FR1	1	R1207J
2403.015	11.3	2413733	REC_WORD	11.3	n/a	PALM	-999	22	[0, 0, 0]	n/a	FR1	1	R1207J
2414.315	4.875	2425033	REC_END	n/a	n/a	n/a	-999	22	[0, 0, 0]	n/a	FR1	1	R1207J
2419.19	0.5	2429908	TRIAL	n/a	n/a	n/a	-999	23	[0, 0, 0]	n/a	FR1	1	R1207J
2419.69	10.428	2430408	COUNTDOWN_START	n/a	n/a	n/a	-999	23	[0, 0, 0]	n/a	FR1	1	R1207J
2430.118	0.007	2440836	COUNTDOWN_END	n/a	n/a	n/a	-999	23	[0, 0, 0]	n/a	FR1	1	R1207J
2430.125	1.616	2440843	ORIENT	n/a	n/a	n/a	-999	23	[0, 0, 0]	n/a	FR1	1	R1207J
2431.741	2.251	2442459	ORIENT_OFF	n/a	n/a	n/a	-999	23	[0, 0, 0]	n/a	FR1	1	R1207J
2433.992	1.616	2444710	WORD	n/a	wordpools/wordpool_EN.txt	SMILE	1	23	[0, 0, 0]	n/a	FR1	1	R1207J
2435.608	0.967	2446326	WORD_OFF	n/a	n/a	SMILE	1	23	[0, 0, 0]	n/a	FR1	1	R1207J
2436.575	1.618	2447293	WORD	n/a	wordpools/wordpool_EN.txt	CUBE	2	23	[0, 0, 0]	n/a	FR1	1	R1207J
2438.193	0.783	2448911	WORD_OFF	n/a	n/a	CUBE	2	23	[0, 0, 0]	n/a	FR1	1	R1207J
2438.976	1.616	2449694	WORD	n/a	wordpools/wordpool_EN.txt	SHEET	3	23	[0, 0, 0]	n/a	FR1	1	R1207J
2440.592	0.783	2451310	WORD_OFF	n/a	n/a	SHEET	3	23	[0, 0, 0]	n/a	FR1	1	R1207J
2441.375	1.601	2452093	WORD	n/a	wordpools/wordpool_EN.txt	BEAR	4	23	[0, 0, 0]	n/a	FR1	1	R1207J
2442.976	0.767	2453694	WORD_OFF	n/a	n/a	BEAR	4	23	[0, 0, 0]	n/a	FR1	1	R1207J
2443.743	1.616	2454461	WORD	n/a	wordpools/wordpool_EN.txt	GLASS	5	23	[0, 0, 0]	n/a	FR1	1	R1207J
2445.359	0.784	2456077	WORD_OFF	n/a	n/a	GLASS	5	23	[0, 0, 0]	n/a	FR1	1	R1207J
2446.143	1.617	2456861	WORD	n/a	wordpools/wordpool_EN.txt	CROWN	6	23	[0, 0, 0]	n/a	FR1	1	R1207J
2447.76	0.783	2458478	WORD_OFF	n/a	n/a	CROWN	6	23	[0, 0, 0]	n/a	FR1	1	R1207J
2448.543	1.618	2459261	WORD	n/a	wordpools/wordpool_EN.txt	PARK	7	23	[0, 0, 0]	n/a	FR1	1	R1207J
2450.161	0.767	2460879	WORD_OFF	n/a	n/a	PARK	7	23	[0, 0, 0]	n/a	FR1	1	R1207J
2450.928	1.616	2461646	WORD	n/a	wordpools/wordpool_EN.txt	BUSH	8	23	[0, 0, 0]	n/a	FR1	1	R1207J
2452.544	0.783	2463262	WORD_OFF	n/a	n/a	BUSH	8	23	[0, 0, 0]	n/a	FR1	1	R1207J
2453.327	1.618	2464045	WORD	n/a	wordpools/wordpool_EN.txt	RAIN	9	23	[0, 0, 0]	n/a	FR1	1	R1207J
2454.945	0.815	2465663	WORD_OFF	n/a	n/a	RAIN	9	23	[0, 0, 0]	n/a	FR1	1	R1207J
2455.76	1.617	2466478	WORD	n/a	wordpools/wordpool_EN.txt	PIT	10	23	[0, 0, 0]	n/a	FR1	1	R1207J
2457.377	1.0	2468095	WORD_OFF	n/a	n/a	PIT	10	23	[0, 0, 0]	n/a	FR1	1	R1207J
2458.377	1.618	2469095	WORD	n/a	wordpools/wordpool_EN.txt	EGG	11	23	[0, 0, 0]	n/a	FR1	1	R1207J
2459.995	0.816	2470713	WORD_OFF	n/a	n/a	EGG	11	23	[0, 0, 0]	n/a	FR1	1	R1207J
2460.811	1.617	2471529	WORD	n/a	wordpools/wordpool_EN.txt	DRESS	12	23	[0, 0, 0]	n/a	FR1	1	R1207J
2462.428	0.0	2473146	WORD_OFF	n/a	n/a	DRESS	12	23	[0, 0, 0]	n/a	FR1	1	R1207J
2462.428	0.001	2473146	DISTRACT_START	n/a	n/a	n/a	-999	23	[0, 0, 0]	n/a	FR1	1	R1207J
2462.429	0.016	2473147	START	n/a	n/a	n/a	-999	23	[-999, -999, -999]	n/a	FR1	1	R1207J
2462.445	4.25	2473163	PROB	4.25	n/a	n/a	-999	23	[3, 4, 3]	11	FR1	1	R1207J
2466.695	3.167	2477413	PROB	3.167	n/a	n/a	-999	23	[8, 1, 8]	17	FR1	1	R1207J
2469.862	2.751	2480580	PROB	2.751	n/a	n/a	-999	23	[9, 1, 5]	15	FR1	1	R1207J
2472.613	2.435	2483331	PROB	2.435	n/a	n/a	-999	23	[7, 3, 4]	14	FR1	1	R1207J
2475.048	3.249	2485766	PROB	3.249	n/a	n/a	-999	23	[5, 4, 6]	15	FR1	1	R1207J
2478.297	5.301	2489015	PROB	5.301	n/a	n/a	-999	23	[6, 7, 6]	19	FR1	1	R1207J
2483.598	0.016	2494316	STOP	n/a	n/a	n/a	-999	23	[-999, -999, -999]	n/a	FR1	1	R1207J
2483.614	0.684	2494332	DISTRACT_END	n/a	n/a	n/a	-999	23	[0, 0, 0]	n/a	FR1	1	R1207J
2484.298	0.518	2495016	RETRIEVAL_ORIENT	n/a	n/a	n/a	-999	23	[0, 0, 0]	n/a	FR1	1	R1207J
2484.816	1.173	2495534	REC_START	n/a	n/a	n/a	-999	23	[0, 0, 0]	n/a	FR1	1	R1207J
2485.989	1.338	2496707	REC_WORD	1.338	n/a	EGG	-999	23	[0, 0, 0]	n/a	FR1	1	R1207J
2487.327	1.433	2498045	REC_WORD	1.433	n/a	NEST	-999	23	[0, 0, 0]	n/a	FR1	1	R1207J
2488.76	21.826	2499478	REC_WORD	21.826	n/a	SHEET	-999	23	[0, 0, 0]	n/a	FR1	1	R1207J
2510.586	4.242	2521304	REC_WORD	4.242	n/a	SMILE	-999	23	[0, 0, 0]	n/a	FR1	1	R1207J
2514.828	4.808	2525546	REC_END	n/a	n/a	n/a	-999	23	[0, 0, 0]	n/a	FR1	1	R1207J
2519.636	0.5	2530354	TRIAL	n/a	n/a	n/a	-999	24	[0, 0, 0]	n/a	FR1	1	R1207J
2520.136	10.428	2530854	COUNTDOWN_START	n/a	n/a	n/a	-999	24	[0, 0, 0]	n/a	FR1	1	R1207J
2530.564	0.007	2541282	COUNTDOWN_END	n/a	n/a	n/a	-999	24	[0, 0, 0]	n/a	FR1	1	R1207J
2530.571	1.617	2541289	ORIENT	n/a	n/a	n/a	-999	24	[0, 0, 0]	n/a	FR1	1	R1207J
2532.188	2.233	2542906	ORIENT_OFF	n/a	n/a	n/a	-999	24	[0, 0, 0]	n/a	FR1	1	R1207J
2534.421	1.618	2545139	WORD	n/a	wordpools/wordpool_EN.txt	BED	1	24	[0, 0, 0]	n/a	FR1	1	R1207J
2536.039	0.85	2546757	WORD_OFF	n/a	n/a	BED	1	24	[0, 0, 0]	n/a	FR1	1	R1207J
2536.889	1.616	2547607	WORD	n/a	wordpools/wordpool_EN.txt	TOY	2	24	[0, 0, 0]	n/a	FR1	1	R1207J
2538.505	1.0	2549223	WORD_OFF	n/a	n/a	TOY	2	24	[0, 0, 0]	n/a	FR1	1	R1207J
2539.505	1.601	2550223	WORD	n/a	wordpools/wordpool_EN.txt	RUG	3	24	[0, 0, 0]	n/a	FR1	1	R1207J
2541.106	0.967	2551824	WORD_OFF	n/a	n/a	RUG	3	24	[0, 0, 0]	n/a	FR1	1	R1207J
2542.073	1.616	2552791	WORD	n/a	wordpools/wordpool_EN.txt	DOG	4	24	[0, 0, 0]	n/a	FR1	1	R1207J
2543.689	1.0	2554407	WORD_OFF	n/a	n/a	DOG	4	24	[0, 0, 0]	n/a	FR1	1	R1207J
2544.689	1.617	2555407	WORD	n/a	wordpools/wordpool_EN.txt	PIPE	5	24	[0, 0, 0]	n/a	FR1	1	R1207J
2546.306	0.951	2557024	WORD_OFF	n/a	n/a	PIPE	5	24	[0, 0, 0]	n/a	FR1	1	R1207J
2547.257	1.617	2557975	WORD	n/a	wordpools/wordpool_EN.txt	CALF	6	24	[0, 0, 0]	n/a	FR1	1	R1207J
2548.874	0.8	2559592	WORD_OFF	n/a	n/a	CALF	6	24	[0, 0, 0]	n/a	FR1	1	R1207J
2549.674	1.616	2560392	WORD	n/a	wordpools/wordpool_EN.txt	ROPE	7	24	[0, 0, 0]	n/a	FR1	1	R1207J
2551.29	0.768	2562008	WORD_OFF	n/a	n/a	ROPE	7	24	[0, 0, 0]	n/a	FR1	1	R1207J
2552.058	1.616	2562776	WORD	n/a	wordpools/wordpool_EN.txt	LAWN	8	24	[0, 0, 0]	n/a	FR1	1	R1207J
2553.674	0.867	2564392	WORD_OFF	n/a	n/a	LAWN	8	24	[0, 0, 0]	n/a	FR1	1	R1207J
2554.541	1.617	2565259	WORD	n/a	wordpools/wordpool_EN.txt	CHEEK	9	24	[0, 0, 0]	n/a	FR1	1	R1207J
2556.158	0.817	2566876	WORD_OFF	n/a	n/a	CHEEK	9	24	[0, 0, 0]	n/a	FR1	1	R1207J
2556.975	1.616	2567693	WORD	n/a	wordpools/wordpool_EN.txt	BOY	10	24	[0, 0, 0]	n/a	FR1	1	R1207J
2558.591	0.817	2569309	WORD_OFF	n/a	n/a	BOY	10	24	[0, 0, 0]	n/a	FR1	1	R1207J
2559.408	1.618	2570126	WORD	n/a	wordpools/wordpool_EN.txt	SPOON	11	24	[0, 0, 0]	n/a	FR1	1	R1207J
2561.026	0.782	2571744	WORD_OFF	n/a	n/a	SPOON	11	24	[0, 0, 0]	n/a	FR1	1	R1207J
2561.808	1.617	2572526	WORD	n/a	wordpools/wordpool_EN.txt	BARN	12	24	[0, 0, 0]	n/a	FR1	1	R1207J
2563.425	0.0	2574143	WORD_OFF	n/a	n/a	BARN	12	24	[0, 0, 0]	n/a	FR1	1	R1207J
2563.425	0.001	2574143	DISTRACT_START	n/a	n/a	n/a	-999	24	[0, 0, 0]	n/a	FR1	1	R1207J
2563.426	0.016	2574144	START	n/a	n/a	n/a	-999	24	[-999, -999, -999]	n/a	FR1	1	R1207J
2563.442	4.718	2574160	PROB	4.718	n/a	n/a	-999	24	[3, 5, 9]	18	FR1	1	R1207J
2568.16	3.216	2578878	PROB	3.216	n/a	n/a	-999	24	[7, 3, 7]	17	FR1	1	R1207J
2571.376	2.902	2582094	PROB	2.902	n/a	n/a	-999	24	[2, 2, 1]	5	FR1	1	R1207J
2574.278	4.199	2584996	PROB	4.199	n/a	n/a	-999	24	[5, 9, 4]	18	FR1	1	R1207J
2578.477	3.351	2589195	PROB	3.351	n/a	n/a	-999	24	[5, 8, 9]	21	FR1	1	R1207J
2581.828	2.536	2592546	PROB	2.536	n/a	n/a	-999	24	[1, 3, 1]	5	FR1	1	R1207J
2584.364	0.014	2595082	STOP	n/a	n/a	n/a	-999	24	[-999, -999, -999]	n/a	FR1	1	R1207J
2584.378	0.618	2595096	DISTRACT_END	n/a	n/a	n/a	-999	24	[0, 0, 0]	n/a	FR1	1	R1207J
2584.996	0.516	2595714	RETRIEVAL_ORIENT	n/a	n/a	n/a	-999	24	[0, 0, 0]	n/a	FR1	1	R1207J
2585.512	0.721	2596230	REC_START	n/a	n/a	n/a	-999	24	[0, 0, 0]	n/a	FR1	1	R1207J
2586.233	1.419	2596951	REC_WORD	1.419	n/a	BARN	-999	24	[0, 0, 0]	n/a	FR1	1	R1207J
2587.652	1.908	2598370	REC_WORD	1.908	n/a	CHEEK	-999	24	[0, 0, 0]	n/a	FR1	1	R1207J
2589.56	18.414	2600278	REC_WORD	18.414	n/a	BOY	-999	24	[0, 0, 0]	n/a	FR1	1	R1207J
2607.974	7.551	2618692	REC_WORD	7.551	n/a	BED	-999	24	[0, 0, 0]	n/a	FR1	1	R1207J
2615.525	4.692	2626243	REC_END	n/a	n/a	n/a	-999	24	[0, 0, 0]	n/a	FR1	1	R1207J
2620.217	0.5	2630934	TRIAL	n/a	n/a	n/a	-999	25	[0, 0, 0]	n/a	FR1	1	R1207J
2620.717	10.428	2631434	COUNTDOWN_START	n/a	n/a	n/a	-999	25	[0, 0, 0]	n/a	FR1	1	R1207J
2631.145	0.007	2641862	COUNTDOWN_END	n/a	n/a	n/a	-999	25	[0, 0, 0]	n/a	FR1	1	R1207J
2631.152	1.616	2641869	ORIENT	n/a	n/a	n/a	-999	25	[0, 0, 0]	n/a	FR1	1	R1207J
2632.768	2.251	2643485	ORIENT_OFF	n/a	n/a	n/a	-999	25	[0, 0, 0]	n/a	FR1	1	R1207J
2635.019	1.616	2645736	WORD	n/a	wordpools/wordpool_EN.txt	SMOKE	1	25	[0, 0, 0]	n/a	FR1	1	R1207J
2636.635	0.766	2647352	WORD_OFF	n/a	n/a	SMOKE	1	25	[0, 0, 0]	n/a	FR1	1	R1207J
2637.401	1.602	2648118	WORD	n/a	wordpools/wordpool_EN.txt	TREE	2	25	[0, 0, 0]	n/a	FR1	1	R1207J
2639.003	0.816	2649720	WORD_OFF	n/a	n/a	TREE	2	25	[0, 0, 0]	n/a	FR1	1	R1207J
2639.819	1.617	2650536	WORD	n/a	wordpools/wordpool_EN.txt	ICE	3	25	[0, 0, 0]	n/a	FR1	1	R1207J
2641.436	0.767	2652153	WORD_OFF	n/a	n/a	ICE	3	25	[0, 0, 0]	n/a	FR1	1	R1207J
2642.203	1.616	2652920	WORD	n/a	wordpools/wordpool_EN.txt	MOUSE	4	25	[0, 0, 0]	n/a	FR1	1	R1207J
2643.819	0.951	2654536	WORD_OFF	n/a	n/a	MOUSE	4	25	[0, 0, 0]	n/a	FR1	1	R1207J
2644.77	1.616	2655487	WORD	n/a	wordpools/wordpool_EN.txt	DOCK	5	25	[0, 0, 0]	n/a	FR1	1	R1207J
2646.386	0.818	2657103	WORD_OFF	n/a	n/a	DOCK	5	25	[0, 0, 0]	n/a	FR1	1	R1207J
2647.204	1.616	2657921	WORD	n/a	wordpools/wordpool_EN.txt	MOLE	6	25	[0, 0, 0]	n/a	FR1	1	R1207J
2648.82	0.916	2659537	WORD_OFF	n/a	n/a	MOLE	6	25	[0, 0, 0]	n/a	FR1	1	R1207J
2649.736	1.617	2660453	WORD	n/a	wordpools/wordpool_EN.txt	WORLD	7	25	[0, 0, 0]	n/a	FR1	1	R1207J
2651.353	0.818	2662070	WORD_OFF	n/a	n/a	WORLD	7	25	[0, 0, 0]	n/a	FR1	1	R1207J
2652.171	1.616	2662888	WORD	n/a	wordpools/wordpool_EN.txt	WHEEL	8	25	[0, 0, 0]	n/a	FR1	1	R1207J
2653.787	0.85	2664504	WORD_OFF	n/a	n/a	WHEEL	8	25	[0, 0, 0]	n/a	FR1	1	R1207J
2654.637	1.618	2665354	WORD	n/a	wordpools/wordpool_EN.txt	STORE	9	25	[0, 0, 0]	n/a	FR1	1	R1207J
2656.255	0.933	2666972	WORD_OFF	n/a	n/a	STORE	9	25	[0, 0, 0]	n/a	FR1	1	R1207J
2657.188	1.616	2667905	WORD	n/a	wordpools/wordpool_EN.txt	PRINCE	10	25	[0, 0, 0]	n/a	FR1	1	R1207J
2658.804	0.984	2669521	WORD_OFF	n/a	n/a	PRINCE	10	25	[0, 0, 0]	n/a	FR1	1	R1207J
2659.788	1.617	2670505	WORD	n/a	wordpools/wordpool_EN.txt	TEETH	11	25	[0, 0, 0]	n/a	FR1	1	R1207J
2661.405	0.967	2672122	WORD_OFF	n/a	n/a	TEETH	11	25	[0, 0, 0]	n/a	FR1	1	R1207J
2662.372	1.618	2673089	WORD	n/a	wordpools/wordpool_EN.txt	STRING	12	25	[0, 0, 0]	n/a	FR1	1	R1207J
2663.99	0.0	2674707	WORD_OFF	n/a	n/a	STRING	12	25	[0, 0, 0]	n/a	FR1	1	R1207J
2663.99	0.0	2674707	DISTRACT_START	n/a	n/a	n/a	-999	25	[0, 0, 0]	n/a	FR1	1	R1207J
2663.99	0.016	2674707	START	n/a	n/a	n/a	-999	25	[-999, -999, -999]	n/a	FR1	1	R1207J
2664.006	3.717	2674723	PROB	3.717	n/a	n/a	-999	25	[3, 5, 5]	13	FR1	1	R1207J
2667.723	5.834	2678440	PROB	5.834	n/a	n/a	-999	25	[6, 5, 8]	19	FR1	1	R1207J
2673.557	4.917	2684274	PROB	4.917	n/a	n/a	-999	25	[1, 5, 7]	13	FR1	1	R1207J
2678.474	2.317	2689191	PROB	2.317	n/a	n/a	-999	25	[9, 8, 1]	18	FR1	1	R1207J
2680.791	2.534	2691508	PROB	2.534	n/a	n/a	-999	25	[5, 3, 1]	9	FR1	1	R1207J
2683.325	2.338	2694042	PROB	2.338	n/a	n/a	-999	25	[7, 3, 5]	15	FR1	1	R1207J
2685.663	0.012	2696380	STOP	n/a	n/a	n/a	-999	25	[-999, -999, -999]	n/a	FR1	1	R1207J
2685.675	0.517	2696392	DISTRACT_END	n/a	n/a	n/a	-999	25	[0, 0, 0]	n/a	FR1	1	R1207J
2686.192	0.517	2696909	RETRIEVAL_ORIENT	n/a	n/a	n/a	-999	25	[0, 0, 0]	n/a	FR1	1	R1207J
2686.709	1.028	2697426	REC_START	n/a	n/a	n/a	-999	25	[0, 0, 0]	n/a	FR1	1	R1207J
2687.737	1.5	2698454	REC_WORD	1.5	n/a	SMOKE	-999	25	[0, 0, 0]	n/a	FR1	1	R1207J
2689.237	1.381	2699954	REC_WORD	1.381	n/a	PRINCE	-999	25	[0, 0, 0]	n/a	FR1	1	R1207J
2690.618	2.029	2701335	REC_WORD	2.029	n/a	ICE	-999	25	[0, 0, 0]	n/a	FR1	1	R1207J
2692.647	6.255	2703364	REC_WORD	6.255	n/a	FOG	-999	25	[0, 0, 0]	n/a	FR1	1	R1207J
2698.902	5.894	2709619	REC_WORD	5.894	n/a	BOY	-999	25	[0, 0, 0]	n/a	FR1	1	R1207J
2704.796	11.926	2715513	REC_WORD_VV	11.926	n/a	<>	-999	25	[0, 0, 0]	n/a	FR1	1	R1207J
2716.722	0.0	2727439	REC_END	n/a	n/a	n/a	-999	25	[0, 0, 0]	n/a	FR1	1	R1207J
