onset	duration	sample	trial_type	response_time	stim_file	item_name	serialpos	list	test	answer	experiment	session	subject
0.0	46.864	2123	INSTRUCT_START	n/a	n/a	n/a	-999	-999	[0, 0, 0]	n/a	FR1	1	R1425D
46.864	82.183	48973	INSTRUCT_END	n/a	n/a	n/a	-999	-999	[0, 0, 0]	n/a	FR1	1	R1425D
129.047	10.428	131170	COUNTDOWN_START	n/a	n/a	n/a	-999	-999	[0, 0, 0]	n/a	FR1	1	R1425D
139.475	1.09	141577	COUNTDOWN_END	n/a	n/a	n/a	-999	-999	[0, 0, 0]	n/a	FR1	1	R1425D
140.565	0.844	142656	ENCODING_START	n/a	n/a	n/a	-999	-1	[0, 0, 0]	n/a	FR1	1	R1425D
141.409	1.623	143509	WORD	n/a	n/a	WATCH	1	-1	[0, 0, 0]	n/a	FR1	1	R1425D
143.032	0.904	145127	WORD_OFF	n/a	n/a	WATCH	1	-1	[0, 0, 0]	n/a	FR1	1	R1425D
143.936	1.629	146050	WORD	n/a	n/a	FLOOD	2	-1	[0, 0, 0]	n/a	FR1	1	R1425D
145.565	0.806	147668	WORD_OFF	n/a	n/a	FLOOD	2	-1	[0, 0, 0]	n/a	FR1	1	R1425D
146.371	1.628	148469	WORD	n/a	n/a	BABY	3	-1	[0, 0, 0]	n/a	FR1	1	R1425D
147.999	1.143	150087	WORD_OFF	n/a	n/a	BABY	3	-1	[0, 0, 0]	n/a	FR1	1	R1425D
149.142	1.624	151236	WORD	n/a	n/a	TONGUE	4	-1	[0, 0, 0]	n/a	FR1	1	R1425D
150.766	0.918	152854	WORD_OFF	n/a	n/a	TONGUE	4	-1	[0, 0, 0]	n/a	FR1	1	R1425D
151.684	1.632	153794	WORD	n/a	n/a	WAGON	5	-1	[0, 0, 0]	n/a	FR1	1	R1425D
153.316	1.038	155413	WORD_OFF	n/a	n/a	WAGON	5	-1	[0, 0, 0]	n/a	FR1	1	R1425D
154.354	1.629	156457	WORD	n/a	n/a	RING	6	-1	[0, 0, 0]	n/a	FR1	1	R1425D
155.983	0.851	158075	WORD_OFF	n/a	n/a	RING	6	-1	[0, 0, 0]	n/a	FR1	1	R1425D
156.834	1.633	158946	WORD	n/a	n/a	IMAGE	7	-1	[0, 0, 0]	n/a	FR1	1	R1425D
158.467	1.077	160564	WORD_OFF	n/a	n/a	IMAGE	7	-1	[0, 0, 0]	n/a	FR1	1	R1425D
159.544	1.625	161643	WORD	n/a	n/a	RHINO	8	-1	[0, 0, 0]	n/a	FR1	1	R1425D
161.169	1.037	163262	WORD_OFF	n/a	n/a	RHINO	8	-1	[0, 0, 0]	n/a	FR1	1	R1425D
162.206	1.629	164306	WORD	n/a	n/a	CAMEL	9	-1	[0, 0, 0]	n/a	FR1	1	R1425D
163.835	1.002	165924	WORD_OFF	n/a	n/a	CAMEL	9	-1	[0, 0, 0]	n/a	FR1	1	R1425D
164.837	1.632	166951	WORD	n/a	n/a	BEAM	10	-1	[0, 0, 0]	n/a	FR1	1	R1425D
166.469	0.93	168570	WORD_OFF	n/a	n/a	BEAM	10	-1	[0, 0, 0]	n/a	FR1	1	R1425D
167.399	1.638	169510	WORD	n/a	n/a	CHEST	11	-1	[0, 0, 0]	n/a	FR1	1	R1425D
169.037	0.752	171128	WORD_OFF	n/a	n/a	CHEST	11	-1	[0, 0, 0]	n/a	FR1	1	R1425D
169.789	1.631	171894	WORD	n/a	n/a	COTTON	12	-1	[0, 0, 0]	n/a	FR1	1	R1425D
171.42	0.0	173530	WORD_OFF	n/a	n/a	COTTON	12	-1	[0, 0, 0]	n/a	FR1	1	R1425D
171.42	0.001	173530	ENCODING_END	n/a	n/a	n/a	-999	-1	[0, 0, 0]	n/a	FR1	1	R1425D
171.421	0.0	173530	DISTRACT_START	n/a	n/a	n/a	-999	-1	[0, 0, 0]	n/a	FR1	1	R1425D
171.421	0.015	173530	START	n/a	n/a	n/a	-999	-1	[-999, -999, -999]	n/a	FR1	1	R1425D
171.436	4.084	173545	PROB	4.084	n/a	n/a	-999	-1	[7, 8, 7]	22	FR1	1	R1425D
175.52	2.101	177629	PROB	2.101	n/a	n/a	-999	-1	[1, 1, 9]	11	FR1	1	R1425D
177.621	2.833	179730	PROB	2.833	n/a	n/a	-999	-1	[8, 5, 5]	18	FR1	1	R1425D
180.454	2.918	182562	PROB	2.918	n/a	n/a	-999	-1	[7, 1, 4]	12	FR1	1	R1425D
183.372	3.834	185480	PROB	3.834	n/a	n/a	-999	-1	[1, 7, 6]	14	FR1	1	R1425D
187.206	2.918	189314	PROB	2.918	n/a	n/a	-999	-1	[8, 8, 6]	22	FR1	1	R1425D
190.124	2.752	192232	PROB	2.752	n/a	n/a	-999	-1	[1, 1, 3]	5	FR1	1	R1425D
192.876	0.014	194984	STOP	n/a	n/a	n/a	-999	-1	[-999, -999, -999]	n/a	FR1	1	R1425D
192.89	2.351	194988	DISTRACT_END	n/a	n/a	n/a	-999	-1	[0, 0, 0]	n/a	FR1	1	R1425D
195.241	0.668	197338	REC_START	n/a	n/a	n/a	-999	-1	[0, 0, 0]	n/a	FR1	1	R1425D
195.909	0.69	198017	REC_WORD	0.69	n/a	WATCH	1	-1	[0, 0, 0]	n/a	FR1	1	R1425D
196.599	1.015	198707	REC_WORD	1.015	n/a	BABY	3	-1	[0, 0, 0]	n/a	FR1	1	R1425D
197.614	3.516	199722	REC_WORD	3.516	n/a	RHINO	8	-1	[0, 0, 0]	n/a	FR1	1	R1425D
201.13	1.295	203237	REC_WORD	1.295	n/a	WAGON	5	-1	[0, 0, 0]	n/a	FR1	1	R1425D
202.425	2.379	204532	REC_WORD	2.379	n/a	FLOOD	2	-1	[0, 0, 0]	n/a	FR1	1	R1425D
204.804	20.449	206911	REC_WORD	20.449	n/a	RING	6	-1	[0, 0, 0]	n/a	FR1	1	R1425D
225.253	10.646	227376	REC_END	n/a	n/a	n/a	-999	-1	[0, 0, 0]	n/a	FR1	1	R1425D
235.899	10.429	238027	COUNTDOWN_START	n/a	n/a	n/a	-999	1	[0, 0, 0]	n/a	FR1	1	R1425D
246.328	1.206	248417	COUNTDOWN_END	n/a	n/a	n/a	-999	1	[0, 0, 0]	n/a	FR1	1	R1425D
247.534	0.93	249618	ENCODING_START	n/a	n/a	n/a	-999	1	[0, 0, 0]	n/a	FR1	1	R1425D
248.464	1.638	250575	WORD	n/a	wordpools/wordpool_EN.txt	FLAG	1	1	[0, 0, 0]	n/a	FR1	1	R1425D
250.102	0.947	252193	WORD_OFF	n/a	n/a	FLAG	1	1	[0, 0, 0]	n/a	FR1	1	R1425D
251.049	1.635	253151	WORD	n/a	wordpools/wordpool_EN.txt	SEED	2	1	[0, 0, 0]	n/a	FR1	1	R1425D
252.684	1.046	254769	WORD_OFF	n/a	n/a	SEED	2	1	[0, 0, 0]	n/a	FR1	1	R1425D
253.73	1.638	255848	WORD	n/a	wordpools/wordpool_EN.txt	TOAST	3	1	[0, 0, 0]	n/a	FR1	1	R1425D
255.368	0.762	257449	WORD_OFF	n/a	n/a	TOAST	3	1	[0, 0, 0]	n/a	FR1	1	R1425D
256.13	1.622	258232	WORD	n/a	wordpools/wordpool_EN.txt	HORN	4	1	[0, 0, 0]	n/a	FR1	1	R1425D
257.752	1.008	259834	WORD_OFF	n/a	n/a	HORN	4	1	[0, 0, 0]	n/a	FR1	1	R1425D
258.76	1.626	260860	WORD	n/a	wordpools/wordpool_EN.txt	AXE	5	1	[0, 0, 0]	n/a	FR1	1	R1425D
260.386	1.119	262479	WORD_OFF	n/a	n/a	AXE	5	1	[0, 0, 0]	n/a	FR1	1	R1425D
261.505	1.632	263610	WORD	n/a	wordpools/wordpool_EN.txt	HORSE	6	1	[0, 0, 0]	n/a	FR1	1	R1425D
263.137	1.128	265229	WORD_OFF	n/a	n/a	HORSE	6	1	[0, 0, 0]	n/a	FR1	1	R1425D
264.265	1.622	266360	WORD	n/a	wordpools/wordpool_EN.txt	TOAD	7	1	[0, 0, 0]	n/a	FR1	1	R1425D
265.887	0.879	267978	WORD_OFF	n/a	n/a	TOAD	7	1	[0, 0, 0]	n/a	FR1	1	R1425D
266.766	1.621	268866	WORD	n/a	wordpools/wordpool_EN.txt	PET	8	1	[0, 0, 0]	n/a	FR1	1	R1425D
268.387	0.876	270467	WORD_OFF	n/a	n/a	PET	8	1	[0, 0, 0]	n/a	FR1	1	R1425D
269.263	1.625	271355	WORD	n/a	wordpools/wordpool_EN.txt	LAMB	9	1	[0, 0, 0]	n/a	FR1	1	R1425D
270.888	0.858	272973	WORD_OFF	n/a	n/a	LAMB	9	1	[0, 0, 0]	n/a	FR1	1	R1425D
271.746	1.625	273843	WORD	n/a	wordpools/wordpool_EN.txt	FUDGE	10	1	[0, 0, 0]	n/a	FR1	1	R1425D
273.371	0.829	275462	WORD_OFF	n/a	n/a	FUDGE	10	1	[0, 0, 0]	n/a	FR1	1	R1425D
274.2	1.622	276297	WORD	n/a	wordpools/wordpool_EN.txt	CAKE	11	1	[0, 0, 0]	n/a	FR1	1	R1425D
275.822	0.99	277916	WORD_OFF	n/a	n/a	CAKE	11	1	[0, 0, 0]	n/a	FR1	1	R1425D
276.812	1.628	278908	WORD	n/a	wordpools/wordpool_EN.txt	STEM	12	1	[0, 0, 0]	n/a	FR1	1	R1425D
278.44	0.0	280543	START	n/a	n/a	n/a	-999	1	[-999, -999, -999]	n/a	FR1	1	R1425D
278.439	0.001	280544	WORD_OFF	n/a	n/a	STEM	12	1	[0, 0, 0]	n/a	FR1	1	R1425D
278.44	0.0	280544	ENCODING_END	n/a	n/a	n/a	-999	1	[0, 0, 0]	n/a	FR1	1	R1425D
278.44	0.016	280544	DISTRACT_START	n/a	n/a	n/a	-999	1	[0, 0, 0]	n/a	FR1	1	R1425D
278.456	3.05	280559	PROB	3.05	n/a	n/a	-999	1	[3, 2, 7]	12	FR1	1	R1425D
281.506	2.684	283609	PROB	2.684	n/a	n/a	-999	1	[1, 9, 5]	15	FR1	1	R1425D
284.19	2.968	286293	PROB	2.968	n/a	n/a	-999	1	[2, 4, 1]	7	FR1	1	R1425D
287.158	3.033	289261	PROB	3.033	n/a	n/a	-999	1	[3, 2, 9]	14	FR1	1	R1425D
290.191	2.117	292294	PROB	2.117	n/a	n/a	-999	1	[5, 3, 3]	11	FR1	1	R1425D
292.308	4.468	294411	PROB	4.468	n/a	n/a	-999	1	[5, 8, 4]	17	FR1	1	R1425D
296.776	3.948	298878	PROB	3.948	n/a	n/a	-999	1	[3, 5, 5]	13	FR1	1	R1425D
300.724	0.019	302826	STOP	n/a	n/a	n/a	-999	1	[-999, -999, -999]	n/a	FR1	1	R1425D
300.743	2.302	302838	DISTRACT_END	n/a	n/a	n/a	-999	1	[0, 0, 0]	n/a	FR1	1	R1425D
303.045	0.618	305135	REC_START	n/a	n/a	n/a	-999	1	[0, 0, 0]	n/a	FR1	1	R1425D
303.663	0.422	305765	REC_WORD	0.422	n/a	FLAG	1	1	[0, 0, 0]	n/a	FR1	1	R1425D
304.085	2.646	306187	REC_WORD	2.646	n/a	SEED	2	1	[0, 0, 0]	n/a	FR1	1	R1425D
306.731	3.144	308833	REC_WORD_VV	3.144	n/a	<>	-999	1	[0, 0, 0]	n/a	FR1	1	R1425D
309.875	1.067	311977	REC_WORD_VV	1.067	n/a	<>	-999	1	[0, 0, 0]	n/a	FR1	1	R1425D
310.942	0.463	313044	REC_WORD	0.463	n/a	FLAG	1	1	[0, 0, 0]	n/a	FR1	1	R1425D
311.405	1.22	313507	REC_WORD	1.22	n/a	SEED	2	1	[0, 0, 0]	n/a	FR1	1	R1425D
312.625	1.435	314727	REC_WORD	1.435	n/a	FUDGE	10	1	[0, 0, 0]	n/a	FR1	1	R1425D
314.06	18.996	316162	REC_WORD	18.996	n/a	AXE	5	1	[0, 0, 0]	n/a	FR1	1	R1425D
333.056	4.945	335156	REC_END	n/a	n/a	n/a	-999	1	[0, 0, 0]	n/a	FR1	1	R1425D
338.001	10.429	340116	COUNTDOWN_START	n/a	n/a	n/a	-999	2	[0, 0, 0]	n/a	FR1	1	R1425D
348.43	1.04	350523	COUNTDOWN_END	n/a	n/a	n/a	-999	2	[0, 0, 0]	n/a	FR1	1	R1425D
349.47	1.022	351550	ENCODING_START	n/a	n/a	n/a	-999	2	[0, 0, 0]	n/a	FR1	1	R1425D
350.492	1.628	352594	WORD	n/a	wordpools/wordpool_EN.txt	BANK	1	2	[0, 0, 0]	n/a	FR1	1	R1425D
352.12	1.035	354213	WORD_OFF	n/a	n/a	BANK	1	2	[0, 0, 0]	n/a	FR1	1	R1425D
353.155	1.631	355257	WORD	n/a	wordpools/wordpool_EN.txt	SHIRT	2	2	[0, 0, 0]	n/a	FR1	1	R1425D
354.786	0.907	356876	WORD_OFF	n/a	n/a	SHIRT	2	2	[0, 0, 0]	n/a	FR1	1	R1425D
355.693	1.627	357780	WORD	n/a	wordpools/wordpool_EN.txt	GLASS	3	2	[0, 0, 0]	n/a	FR1	1	R1425D
357.32	0.785	359399	WORD_OFF	n/a	n/a	GLASS	3	2	[0, 0, 0]	n/a	FR1	1	R1425D
358.105	1.632	360200	WORD	n/a	wordpools/wordpool_EN.txt	TRASH	4	2	[0, 0, 0]	n/a	FR1	1	R1425D
359.737	0.827	361818	WORD_OFF	n/a	n/a	TRASH	4	2	[0, 0, 0]	n/a	FR1	1	R1425D
360.564	1.625	362653	WORD	n/a	wordpools/wordpool_EN.txt	FLAME	5	2	[0, 0, 0]	n/a	FR1	1	R1425D
362.189	0.855	364272	WORD_OFF	n/a	n/a	FLAME	5	2	[0, 0, 0]	n/a	FR1	1	R1425D
363.044	1.627	365142	WORD	n/a	wordpools/wordpool_EN.txt	SHEEP	6	2	[0, 0, 0]	n/a	FR1	1	R1425D
364.671	1.073	366761	WORD_OFF	n/a	n/a	SHEEP	6	2	[0, 0, 0]	n/a	FR1	1	R1425D
365.744	1.628	367840	WORD	n/a	wordpools/wordpool_EN.txt	COIN	7	2	[0, 0, 0]	n/a	FR1	1	R1425D
367.372	0.841	369458	WORD_OFF	n/a	n/a	COIN	7	2	[0, 0, 0]	n/a	FR1	1	R1425D
368.213	1.626	370311	WORD	n/a	wordpools/wordpool_EN.txt	CLOTH	8	2	[0, 0, 0]	n/a	FR1	1	R1425D
369.839	0.947	371929	WORD_OFF	n/a	n/a	CLOTH	8	2	[0, 0, 0]	n/a	FR1	1	R1425D
370.786	1.62	372869	WORD	n/a	wordpools/wordpool_EN.txt	PEAR	9	2	[0, 0, 0]	n/a	FR1	1	R1425D
372.406	0.902	374488	WORD_OFF	n/a	n/a	PEAR	9	2	[0, 0, 0]	n/a	FR1	1	R1425D
373.308	1.632	375410	WORD	n/a	wordpools/wordpool_EN.txt	PRINCE	10	2	[0, 0, 0]	n/a	FR1	1	R1425D
374.94	0.777	377029	WORD_OFF	n/a	n/a	PRINCE	10	2	[0, 0, 0]	n/a	FR1	1	R1425D
375.717	1.623	377812	WORD	n/a	wordpools/wordpool_EN.txt	CHEEK	11	2	[0, 0, 0]	n/a	FR1	1	R1425D
377.34	1.13	379430	WORD_OFF	n/a	n/a	CHEEK	11	2	[0, 0, 0]	n/a	FR1	1	R1425D
378.47	1.623	380562	WORD	n/a	wordpools/wordpool_EN.txt	CAR	12	2	[0, 0, 0]	n/a	FR1	1	R1425D
380.093	0.0	382191	START	n/a	n/a	n/a	-999	2	[-999, -999, -999]	n/a	FR1	1	R1425D
380.092	0.0	382198	WORD_OFF	n/a	n/a	CAR	12	2	[0, 0, 0]	n/a	FR1	1	R1425D
380.092	0.001	382198	ENCODING_END	n/a	n/a	n/a	-999	2	[0, 0, 0]	n/a	FR1	1	R1425D
380.093	0.016	382198	DISTRACT_START	n/a	n/a	n/a	-999	2	[0, 0, 0]	n/a	FR1	1	R1425D
380.109	4.616	382207	PROB	4.616	n/a	n/a	-999	2	[7, 7, 3]	17	FR1	1	R1425D
384.725	3.467	386823	PROB	3.467	n/a	n/a	-999	2	[8, 6, 9]	23	FR1	1	R1425D
388.192	4.018	390290	PROB	4.018	n/a	n/a	-999	2	[2, 8, 5]	15	FR1	1	R1425D
392.21	2.317	394308	PROB	2.317	n/a	n/a	-999	2	[2, 9, 1]	12	FR1	1	R1425D
394.527	3.951	396624	PROB	3.951	n/a	n/a	-999	2	[9, 6, 9]	24	FR1	1	R1425D
398.478	4.301	400575	PROB	4.301	n/a	n/a	-999	2	[6, 9, 2]	17	FR1	1	R1425D
402.779	0.0	404857	DISTRACT_END	n/a	n/a	n/a	-999	2	[0, 0, 0]	n/a	FR1	1	R1425D
402.771	2.208	404868	STOP	n/a	n/a	n/a	-999	2	[-999, -999, -999]	n/a	FR1	1	R1425D
404.979	1.508	407067	REC_START	n/a	n/a	n/a	-999	2	[0, 0, 0]	n/a	FR1	1	R1425D
406.487	3.545	408584	REC_WORD_VV	3.545	n/a	<>	-999	2	[0, 0, 0]	n/a	FR1	1	R1425D
410.032	0.765	412129	REC_WORD	0.765	n/a	FLAME	5	2	[0, 0, 0]	n/a	FR1	1	R1425D
410.797	1.445	412894	REC_WORD	1.445	n/a	SHEEP	6	2	[0, 0, 0]	n/a	FR1	1	R1425D
412.242	0.859	414338	REC_WORD	0.859	n/a	TRASH	4	2	[0, 0, 0]	n/a	FR1	1	R1425D
413.101	21.892	415197	REC_WORD	21.892	n/a	GLASS	3	2	[0, 0, 0]	n/a	FR1	1	R1425D
434.993	3.843	437088	REC_END	n/a	n/a	n/a	-999	2	[0, 0, 0]	n/a	FR1	1	R1425D
438.836	10.428	440952	COUNTDOWN_START	n/a	n/a	n/a	-999	3	[0, 0, 0]	n/a	FR1	1	R1425D
449.264	1.157	451342	COUNTDOWN_END	n/a	n/a	n/a	-999	3	[0, 0, 0]	n/a	FR1	1	R1425D
450.421	0.989	452508	ENCODING_START	n/a	n/a	n/a	-999	3	[0, 0, 0]	n/a	FR1	1	R1425D
451.41	1.629	453500	WORD	n/a	wordpools/wordpool_EN.txt	BAND	1	3	[0, 0, 0]	n/a	FR1	1	R1425D
453.039	0.814	455118	WORD_OFF	n/a	n/a	BAND	1	3	[0, 0, 0]	n/a	FR1	1	R1425D
453.853	1.635	455954	WORD	n/a	wordpools/wordpool_EN.txt	FLEA	2	3	[0, 0, 0]	n/a	FR1	1	R1425D
455.488	0.761	457572	WORD_OFF	n/a	n/a	FLEA	2	3	[0, 0, 0]	n/a	FR1	1	R1425D
456.249	1.623	458338	WORD	n/a	wordpools/wordpool_EN.txt	RICE	3	3	[0, 0, 0]	n/a	FR1	1	R1425D
457.872	0.944	459956	WORD_OFF	n/a	n/a	RICE	3	3	[0, 0, 0]	n/a	FR1	1	R1425D
458.816	1.623	460896	WORD	n/a	wordpools/wordpool_EN.txt	COW	4	3	[0, 0, 0]	n/a	FR1	1	R1425D
460.439	1.049	462515	WORD_OFF	n/a	n/a	COW	4	3	[0, 0, 0]	n/a	FR1	1	R1425D
461.488	1.636	463576	WORD	n/a	wordpools/wordpool_EN.txt	SKY	5	3	[0, 0, 0]	n/a	FR1	1	R1425D
463.124	1.149	465195	WORD_OFF	n/a	n/a	SKY	5	3	[0, 0, 0]	n/a	FR1	1	R1425D
464.273	1.634	466361	WORD	n/a	wordpools/wordpool_EN.txt	MAIL	6	3	[0, 0, 0]	n/a	FR1	1	R1425D
465.907	0.804	467979	WORD_OFF	n/a	n/a	MAIL	6	3	[0, 0, 0]	n/a	FR1	1	R1425D
466.711	1.629	468797	WORD	n/a	wordpools/wordpool_EN.txt	SOUP	7	3	[0, 0, 0]	n/a	FR1	1	R1425D
468.34	1.043	470416	WORD_OFF	n/a	n/a	SOUP	7	3	[0, 0, 0]	n/a	FR1	1	R1425D
469.383	1.626	471460	WORD	n/a	wordpools/wordpool_EN.txt	FORT	8	3	[0, 0, 0]	n/a	FR1	1	R1425D
471.009	0.861	473079	WORD_OFF	n/a	n/a	FORT	8	3	[0, 0, 0]	n/a	FR1	1	R1425D
471.87	1.621	473949	WORD	n/a	wordpools/wordpool_EN.txt	CAPE	9	3	[0, 0, 0]	n/a	FR1	1	R1425D
473.491	0.795	475567	WORD_OFF	n/a	n/a	CAPE	9	3	[0, 0, 0]	n/a	FR1	1	R1425D
474.286	1.622	476368	WORD	n/a	wordpools/wordpool_EN.txt	SPEAR	10	3	[0, 0, 0]	n/a	FR1	1	R1425D
475.908	0.977	477986	WORD_OFF	n/a	n/a	SPEAR	10	3	[0, 0, 0]	n/a	FR1	1	R1425D
476.885	1.624	478961	WORD	n/a	wordpools/wordpool_EN.txt	PANTS	11	3	[0, 0, 0]	n/a	FR1	1	R1425D
478.509	0.921	480580	WORD_OFF	n/a	n/a	PANTS	11	3	[0, 0, 0]	n/a	FR1	1	R1425D
479.43	1.631	481519	WORD	n/a	wordpools/wordpool_EN.txt	HAWK	12	3	[0, 0, 0]	n/a	FR1	1	R1425D
481.061	0.0	483154	START	n/a	n/a	n/a	-999	3	[-999, -999, -999]	n/a	FR1	1	R1425D
481.06	0.001	483155	WORD_OFF	n/a	n/a	HAWK	12	3	[0, 0, 0]	n/a	FR1	1	R1425D
481.061	0.0	483155	ENCODING_END	n/a	n/a	n/a	-999	3	[0, 0, 0]	n/a	FR1	1	R1425D
481.061	0.016	483155	DISTRACT_START	n/a	n/a	n/a	-999	3	[0, 0, 0]	n/a	FR1	1	R1425D
481.077	6.018	483170	PROB	6.018	n/a	n/a	-999	3	[3, 7, 4]	14	FR1	1	R1425D
487.095	4.15	489188	PROB	4.15	n/a	n/a	-999	3	[9, 4, 9]	22	FR1	1	R1425D
491.245	3.801	493337	PROB	3.801	n/a	n/a	-999	3	[3, 8, 6]	17	FR1	1	R1425D
495.046	1.616	497138	PROB	1.616	n/a	n/a	-999	3	[4, 4, 4]	12	FR1	1	R1425D
496.662	2.151	498754	PROB	2.151	n/a	n/a	-999	3	[9, 4, 1]	14	FR1	1	R1425D
498.813	2.334	500905	PROB	2.334	n/a	n/a	-999	3	[1, 6, 3]	8	FR1	1	R1425D
501.147	0.0	503221	DISTRACT_END	n/a	n/a	n/a	-999	3	[0, 0, 0]	n/a	FR1	1	R1425D
501.137	2.26	503229	STOP	n/a	n/a	n/a	-999	3	[-999, -999, -999]	n/a	FR1	1	R1425D
503.397	1.643	505484	REC_START	n/a	n/a	n/a	-999	3	[0, 0, 0]	n/a	FR1	1	R1425D
505.04	0.931	507132	REC_WORD	0.931	n/a	FORT	8	3	[0, 0, 0]	n/a	FR1	1	R1425D
505.971	3.486	508063	REC_WORD	3.486	n/a	CAPE	9	3	[0, 0, 0]	n/a	FR1	1	R1425D
509.457	1.136	511548	REC_WORD	1.136	n/a	SPEAR	10	3	[0, 0, 0]	n/a	FR1	1	R1425D
510.593	3.077	512684	REC_WORD	3.077	n/a	PEAR	-999	3	[0, 0, 0]	n/a	FR1	1	R1425D
513.67	6.983	515761	REC_WORD_VV	6.983	n/a	<>	-999	3	[0, 0, 0]	n/a	FR1	1	R1425D
520.653	4.478	522744	REC_WORD	4.478	n/a	SHEEP	-999	3	[0, 0, 0]	n/a	FR1	1	R1425D
525.131	8.278	527222	REC_WORD	8.278	n/a	HAWK	12	3	[0, 0, 0]	n/a	FR1	1	R1425D
533.409	4.812	535505	REC_END	n/a	n/a	n/a	-999	3	[0, 0, 0]	n/a	FR1	1	R1425D
538.221	10.429	540326	COUNTDOWN_START	n/a	n/a	n/a	-999	4	[0, 0, 0]	n/a	FR1	1	R1425D
548.65	1.156	550733	COUNTDOWN_END	n/a	n/a	n/a	-999	4	[0, 0, 0]	n/a	FR1	1	R1425D
549.806	1.137	551882	ENCODING_START	n/a	n/a	n/a	-999	4	[0, 0, 0]	n/a	FR1	1	R1425D
550.943	1.63	553030	WORD	n/a	wordpools/wordpool_EN.txt	KEY	1	4	[0, 0, 0]	n/a	FR1	1	R1425D
552.573	0.897	554649	WORD_OFF	n/a	n/a	KEY	1	4	[0, 0, 0]	n/a	FR1	1	R1425D
553.47	1.637	555554	WORD	n/a	wordpools/wordpool_EN.txt	VINE	2	4	[0, 0, 0]	n/a	FR1	1	R1425D
555.107	0.906	557172	WORD_OFF	n/a	n/a	VINE	2	4	[0, 0, 0]	n/a	FR1	1	R1425D
556.013	1.627	558095	WORD	n/a	wordpools/wordpool_EN.txt	BEAN	3	4	[0, 0, 0]	n/a	FR1	1	R1425D
557.64	0.863	559713	WORD_OFF	n/a	n/a	BEAN	3	4	[0, 0, 0]	n/a	FR1	1	R1425D
558.503	1.622	560583	WORD	n/a	wordpools/wordpool_EN.txt	DART	4	4	[0, 0, 0]	n/a	FR1	1	R1425D
560.125	0.818	562202	WORD_OFF	n/a	n/a	DART	4	4	[0, 0, 0]	n/a	FR1	1	R1425D
560.943	1.631	563037	WORD	n/a	wordpools/wordpool_EN.txt	WING	5	4	[0, 0, 0]	n/a	FR1	1	R1425D
562.574	0.997	564656	WORD_OFF	n/a	n/a	WING	5	4	[0, 0, 0]	n/a	FR1	1	R1425D
563.571	1.605	565648	WORD	n/a	wordpools/wordpool_EN.txt	SAIL	6	4	[0, 0, 0]	n/a	FR1	1	R1425D
565.176	1.14	567249	WORD_OFF	n/a	n/a	SAIL	6	4	[0, 0, 0]	n/a	FR1	1	R1425D
566.316	1.626	568397	WORD	n/a	wordpools/wordpool_EN.txt	BIRD	7	4	[0, 0, 0]	n/a	FR1	1	R1425D
567.942	0.996	570016	WORD_OFF	n/a	n/a	BIRD	7	4	[0, 0, 0]	n/a	FR1	1	R1425D
568.938	1.621	571008	WORD	n/a	wordpools/wordpool_EN.txt	TAIL	8	4	[0, 0, 0]	n/a	FR1	1	R1425D
570.559	0.778	572627	WORD_OFF	n/a	n/a	TAIL	8	4	[0, 0, 0]	n/a	FR1	1	R1425D
571.337	1.623	573410	WORD	n/a	wordpools/wordpool_EN.txt	LAND	9	4	[0, 0, 0]	n/a	FR1	1	R1425D
572.96	0.923	575028	WORD_OFF	n/a	n/a	LAND	9	4	[0, 0, 0]	n/a	FR1	1	R1425D
573.883	1.627	575968	WORD	n/a	wordpools/wordpool_EN.txt	GRAPE	10	4	[0, 0, 0]	n/a	FR1	1	R1425D
575.51	1.063	577587	WORD_OFF	n/a	n/a	GRAPE	10	4	[0, 0, 0]	n/a	FR1	1	R1425D
576.573	1.621	578648	WORD	n/a	wordpools/wordpool_EN.txt	TOE	11	4	[0, 0, 0]	n/a	FR1	1	R1425D
578.194	0.905	580267	WORD_OFF	n/a	n/a	TOE	11	4	[0, 0, 0]	n/a	FR1	1	R1425D
579.099	1.629	581189	WORD	n/a	wordpools/wordpool_EN.txt	PEN	12	4	[0, 0, 0]	n/a	FR1	1	R1425D
580.728	0.001	582808	WORD_OFF	n/a	n/a	PEN	12	4	[0, 0, 0]	n/a	FR1	1	R1425D
580.729	0.0	582817	START	n/a	n/a	n/a	-999	4	[-999, -999, -999]	n/a	FR1	1	R1425D
580.728	0.001	582825	ENCODING_END	n/a	n/a	n/a	-999	4	[0, 0, 0]	n/a	FR1	1	R1425D
580.729	0.015	582825	DISTRACT_START	n/a	n/a	n/a	-999	4	[0, 0, 0]	n/a	FR1	1	R1425D
580.744	3.368	582832	PROB	3.368	n/a	n/a	-999	4	[2, 1, 2]	5	FR1	1	R1425D
584.112	5.617	586200	PROB	5.617	n/a	n/a	-999	4	[2, 1, 2]	5	FR1	1	R1425D
589.729	2.517	591816	PROB	2.517	n/a	n/a	-999	4	[4, 6, 2]	12	FR1	1	R1425D
592.246	5.151	594333	PROB	5.151	n/a	n/a	-999	4	[7, 8, 9]	24	FR1	1	R1425D
597.397	3.151	599484	PROB	3.151	n/a	n/a	-999	4	[5, 8, 2]	15	FR1	1	R1425D
600.548	4.568	602635	PROB	4.568	n/a	n/a	-999	4	[4, 8, 6]	18	FR1	1	R1425D
605.116	0.0	607190	DISTRACT_END	n/a	n/a	n/a	-999	4	[0, 0, 0]	n/a	FR1	1	R1425D
605.111	2.272	607198	STOP	n/a	n/a	n/a	-999	4	[-999, -999, -999]	n/a	FR1	1	R1425D
607.383	2.012	609470	REC_START	n/a	n/a	n/a	-999	4	[0, 0, 0]	n/a	FR1	1	R1425D
609.395	0.523	611481	REC_WORD	0.523	n/a	KEY	1	4	[0, 0, 0]	n/a	FR1	1	R1425D
609.918	0.855	612004	REC_WORD	0.855	n/a	VINE	2	4	[0, 0, 0]	n/a	FR1	1	R1425D
610.773	0.929	612859	REC_WORD	0.929	n/a	BEAT	-999	4	[0, 0, 0]	n/a	FR1	1	R1425D
611.702	2.355	613788	REC_WORD	2.355	n/a	GRAPE	10	4	[0, 0, 0]	n/a	FR1	1	R1425D
614.057	3.062	616143	REC_WORD	3.062	n/a	SAIL	6	4	[0, 0, 0]	n/a	FR1	1	R1425D
617.119	20.275	619205	REC_WORD	20.275	n/a	TOE	11	4	[0, 0, 0]	n/a	FR1	1	R1425D
637.394	3.763	639473	REC_END	n/a	n/a	n/a	-999	4	[0, 0, 0]	n/a	FR1	1	R1425D
641.157	10.428	643267	COUNTDOWN_START	n/a	n/a	n/a	-999	5	[0, 0, 0]	n/a	FR1	1	R1425D
651.585	1.156	653657	COUNTDOWN_END	n/a	n/a	n/a	-999	5	[0, 0, 0]	n/a	FR1	1	R1425D
652.741	0.96	654806	ENCODING_START	n/a	n/a	n/a	-999	5	[0, 0, 0]	n/a	FR1	1	R1425D
653.701	1.624	655780	WORD	n/a	wordpools/wordpool_EN.txt	PIPE	1	5	[0, 0, 0]	n/a	FR1	1	R1425D
655.325	1.07	657399	WORD_OFF	n/a	n/a	PIPE	1	5	[0, 0, 0]	n/a	FR1	1	R1425D
656.395	1.615	658478	WORD	n/a	wordpools/wordpool_EN.txt	PLANE	2	5	[0, 0, 0]	n/a	FR1	1	R1425D
658.01	0.92	660079	WORD_OFF	n/a	n/a	PLANE	2	5	[0, 0, 0]	n/a	FR1	1	R1425D
658.93	1.629	661001	WORD	n/a	wordpools/wordpool_EN.txt	STOVE	3	5	[0, 0, 0]	n/a	FR1	1	R1425D
660.559	0.898	662620	WORD_OFF	n/a	n/a	STOVE	3	5	[0, 0, 0]	n/a	FR1	1	R1425D
661.457	1.637	663542	WORD	n/a	wordpools/wordpool_EN.txt	STOOL	4	5	[0, 0, 0]	n/a	FR1	1	R1425D
663.094	1.039	665161	WORD_OFF	n/a	n/a	STOOL	4	5	[0, 0, 0]	n/a	FR1	1	R1425D
664.133	1.627	666205	WORD	n/a	wordpools/wordpool_EN.txt	STONE	5	5	[0, 0, 0]	n/a	FR1	1	R1425D
665.76	0.867	667824	WORD_OFF	n/a	n/a	STONE	5	5	[0, 0, 0]	n/a	FR1	1	R1425D
666.627	1.633	668711	WORD	n/a	wordpools/wordpool_EN.txt	TIE	6	5	[0, 0, 0]	n/a	FR1	1	R1425D
668.26	1.109	670330	WORD_OFF	n/a	n/a	TIE	6	5	[0, 0, 0]	n/a	FR1	1	R1425D
669.369	1.625	671444	WORD	n/a	wordpools/wordpool_EN.txt	GOLD	7	5	[0, 0, 0]	n/a	FR1	1	R1425D
670.994	1.132	673062	WORD_OFF	n/a	n/a	GOLD	7	5	[0, 0, 0]	n/a	FR1	1	R1425D
672.126	1.635	674211	WORD	n/a	wordpools/wordpool_EN.txt	SWORD	8	5	[0, 0, 0]	n/a	FR1	1	R1425D
673.761	1.0	675829	WORD_OFF	n/a	n/a	SWORD	8	5	[0, 0, 0]	n/a	FR1	1	R1425D
674.761	1.634	676839	WORD	n/a	wordpools/wordpool_EN.txt	THUMB	9	5	[0, 0, 0]	n/a	FR1	1	R1425D
676.395	1.081	678457	WORD_OFF	n/a	n/a	THUMB	9	5	[0, 0, 0]	n/a	FR1	1	R1425D
677.476	1.637	679554	WORD	n/a	wordpools/wordpool_EN.txt	LEAF	10	5	[0, 0, 0]	n/a	FR1	1	R1425D
679.113	1.053	681172	WORD_OFF	n/a	n/a	LEAF	10	5	[0, 0, 0]	n/a	FR1	1	R1425D
680.166	1.63	682251	WORD	n/a	wordpools/wordpool_EN.txt	PIN	11	5	[0, 0, 0]	n/a	FR1	1	R1425D
681.796	1.001	683870	WORD_OFF	n/a	n/a	PIN	11	5	[0, 0, 0]	n/a	FR1	1	R1425D
682.797	1.634	684879	WORD	n/a	wordpools/wordpool_EN.txt	MAT	12	5	[0, 0, 0]	n/a	FR1	1	R1425D
684.431	0.0	686513	START	n/a	n/a	n/a	-999	5	[-999, -999, -999]	n/a	FR1	1	R1425D
684.43	0.001	686515	WORD_OFF	n/a	n/a	MAT	12	5	[0, 0, 0]	n/a	FR1	1	R1425D
684.431	0.0	686515	ENCODING_END	n/a	n/a	n/a	-999	5	[0, 0, 0]	n/a	FR1	1	R1425D
684.431	0.015	686515	DISTRACT_START	n/a	n/a	n/a	-999	5	[0, 0, 0]	n/a	FR1	1	R1425D
684.446	4.652	686528	PROB	4.652	n/a	n/a	-999	5	[1, 8, 6]	15	FR1	1	R1425D
689.098	3.433	691180	PROB	3.433	n/a	n/a	-999	5	[7, 5, 7]	19	FR1	1	R1425D
692.531	3.001	694613	PROB	3.001	n/a	n/a	-999	5	[3, 1, 7]	11	FR1	1	R1425D
695.532	3.967	697614	PROB	3.967	n/a	n/a	-999	5	[5, 8, 2]	15	FR1	1	R1425D
699.499	3.585	701581	PROB	3.585	n/a	n/a	-999	5	[4, 6, 9]	19	FR1	1	R1425D
703.084	4.496	705166	PROB	4.496	n/a	n/a	-999	5	[6, 2, 7]	15	FR1	1	R1425D
707.58	0.021	709661	STOP	n/a	n/a	n/a	-999	5	[-999, -999, -999]	n/a	FR1	1	R1425D
707.601	2.234	709662	DISTRACT_END	n/a	n/a	n/a	-999	5	[0, 0, 0]	n/a	FR1	1	R1425D
709.835	2.761	711907	REC_START	n/a	n/a	n/a	-999	5	[0, 0, 0]	n/a	FR1	1	R1425D
712.596	0.757	714677	REC_WORD	0.757	n/a	TIE	6	5	[0, 0, 0]	n/a	FR1	1	R1425D
713.353	4.53	715434	REC_WORD	4.53	n/a	PIN	11	5	[0, 0, 0]	n/a	FR1	1	R1425D
717.883	0.747	719964	REC_WORD	0.747	n/a	THUMB	9	5	[0, 0, 0]	n/a	FR1	1	R1425D
718.63	1.171	720711	REC_WORD	1.171	n/a	SWORD	8	5	[0, 0, 0]	n/a	FR1	1	R1425D
719.801	14.233	721882	REC_WORD	14.233	n/a	LEAF	10	5	[0, 0, 0]	n/a	FR1	1	R1425D
734.034	5.813	736114	REC_WORD	5.813	n/a	GOLD	7	5	[0, 0, 0]	n/a	FR1	1	R1425D
739.847	4.811	741928	REC_END	n/a	n/a	n/a	-999	5	[0, 0, 0]	n/a	FR1	1	R1425D
744.658	10.429	746748	COUNTDOWN_START	n/a	n/a	n/a	-999	6	[0, 0, 0]	n/a	FR1	1	R1425D
755.087	1.19	757156	COUNTDOWN_END	n/a	n/a	n/a	-999	6	[0, 0, 0]	n/a	FR1	1	R1425D
756.277	0.762	758339	ENCODING_START	n/a	n/a	n/a	-999	6	[0, 0, 0]	n/a	FR1	1	R1425D
757.039	1.621	759105	WORD	n/a	wordpools/wordpool_EN.txt	EGG	1	6	[0, 0, 0]	n/a	FR1	1	R1425D
758.66	0.881	760723	WORD_OFF	n/a	n/a	EGG	1	6	[0, 0, 0]	n/a	FR1	1	R1425D
759.541	1.637	761628	WORD	n/a	wordpools/wordpool_EN.txt	MOON	2	6	[0, 0, 0]	n/a	FR1	1	R1425D
761.178	1.048	763247	WORD_OFF	n/a	n/a	MOON	2	6	[0, 0, 0]	n/a	FR1	1	R1425D
762.226	1.635	764309	WORD	n/a	wordpools/wordpool_EN.txt	DRESS	3	6	[0, 0, 0]	n/a	FR1	1	R1425D
763.861	1.12	765927	WORD_OFF	n/a	n/a	DRESS	3	6	[0, 0, 0]	n/a	FR1	1	R1425D
764.981	1.631	767058	WORD	n/a	wordpools/wordpool_EN.txt	DIME	4	6	[0, 0, 0]	n/a	FR1	1	R1425D
766.612	0.794	768677	WORD_OFF	n/a	n/a	DIME	4	6	[0, 0, 0]	n/a	FR1	1	R1425D
767.406	1.624	769477	WORD	n/a	wordpools/wordpool_EN.txt	ELF	5	6	[0, 0, 0]	n/a	FR1	1	R1425D
769.03	1.146	771096	WORD_OFF	n/a	n/a	ELF	5	6	[0, 0, 0]	n/a	FR1	1	R1425D
770.176	1.62	772245	WORD	n/a	wordpools/wordpool_EN.txt	TOOTH	6	6	[0, 0, 0]	n/a	FR1	1	R1425D
771.796	0.822	773863	WORD_OFF	n/a	n/a	TOOTH	6	6	[0, 0, 0]	n/a	FR1	1	R1425D
772.618	1.628	774698	WORD	n/a	wordpools/wordpool_EN.txt	MILK	7	6	[0, 0, 0]	n/a	FR1	1	R1425D
774.246	0.863	776317	WORD_OFF	n/a	n/a	MILK	7	6	[0, 0, 0]	n/a	FR1	1	R1425D
775.109	1.621	777170	WORD	n/a	wordpools/wordpool_EN.txt	PIG	8	6	[0, 0, 0]	n/a	FR1	1	R1425D
776.73	1.122	778788	WORD_OFF	n/a	n/a	PIG	8	6	[0, 0, 0]	n/a	FR1	1	R1425D
777.852	1.629	779920	WORD	n/a	wordpools/wordpool_EN.txt	KITE	9	6	[0, 0, 0]	n/a	FR1	1	R1425D
779.481	1.079	781538	WORD_OFF	n/a	n/a	KITE	9	6	[0, 0, 0]	n/a	FR1	1	R1425D
780.56	1.622	782634	WORD	n/a	wordpools/wordpool_EN.txt	VASE	10	6	[0, 0, 0]	n/a	FR1	1	R1425D
782.182	0.765	784236	WORD_OFF	n/a	n/a	VASE	10	6	[0, 0, 0]	n/a	FR1	1	R1425D
782.947	1.635	785019	WORD	n/a	wordpools/wordpool_EN.txt	STEAM	11	6	[0, 0, 0]	n/a	FR1	1	R1425D
784.582	1.046	786637	WORD_OFF	n/a	n/a	STEAM	11	6	[0, 0, 0]	n/a	FR1	1	R1425D
785.628	1.622	787699	WORD	n/a	wordpools/wordpool_EN.txt	PEA	12	6	[0, 0, 0]	n/a	FR1	1	R1425D
787.25	0.0	789327	START	n/a	n/a	n/a	-999	6	[-999, -999, -999]	n/a	FR1	1	R1425D
787.249	0.0	789335	WORD_OFF	n/a	n/a	PEA	12	6	[0, 0, 0]	n/a	FR1	1	R1425D
787.249	0.001	789335	ENCODING_END	n/a	n/a	n/a	-999	6	[0, 0, 0]	n/a	FR1	1	R1425D
787.25	0.015	789335	DISTRACT_START	n/a	n/a	n/a	-999	6	[0, 0, 0]	n/a	FR1	1	R1425D
787.265	4.786	789342	PROB	4.786	n/a	n/a	-999	6	[1, 3, 4]	8	FR1	1	R1425D
792.051	3.182	794128	PROB	3.182	n/a	n/a	-999	6	[7, 1, 4]	12	FR1	1	R1425D
795.233	3.651	797310	PROB	3.651	n/a	n/a	-999	6	[8, 5, 2]	15	FR1	1	R1425D
798.884	3.818	800961	PROB	3.818	n/a	n/a	-999	6	[5, 3, 6]	14	FR1	1	R1425D
802.702	4.817	804778	PROB	4.817	n/a	n/a	-999	6	[7, 6, 8]	21	FR1	1	R1425D
807.519	0.0	809575	DISTRACT_END	n/a	n/a	n/a	-999	6	[0, 0, 0]	n/a	FR1	1	R1425D
807.503	2.184	809579	STOP	n/a	n/a	n/a	-999	6	[-999, -999, -999]	n/a	FR1	1	R1425D
809.687	1.156	811750	REC_START	n/a	n/a	n/a	-999	6	[0, 0, 0]	n/a	FR1	1	R1425D
810.843	0.696	812919	REC_WORD	0.696	n/a	KITE	9	6	[0, 0, 0]	n/a	FR1	1	R1425D
811.539	1.104	813615	REC_WORD	1.104	n/a	VASE	10	6	[0, 0, 0]	n/a	FR1	1	R1425D
812.643	2.148	814719	REC_WORD	2.148	n/a	STEAM	11	6	[0, 0, 0]	n/a	FR1	1	R1425D
814.791	0.936	816867	REC_WORD	0.936	n/a	PEA	12	6	[0, 0, 0]	n/a	FR1	1	R1425D
815.727	23.973	817803	REC_WORD	23.973	n/a	DRESS	3	6	[0, 0, 0]	n/a	FR1	1	R1425D
839.7	5.51	841771	REC_END	n/a	n/a	n/a	-999	6	[0, 0, 0]	n/a	FR1	1	R1425D
845.21	10.428	847306	COUNTDOWN_START	n/a	n/a	n/a	-999	7	[0, 0, 0]	n/a	FR1	1	R1425D
855.638	1.274	857696	COUNTDOWN_END	n/a	n/a	n/a	-999	7	[0, 0, 0]	n/a	FR1	1	R1425D
856.912	0.784	858966	ENCODING_START	n/a	n/a	n/a	-999	7	[0, 0, 0]	n/a	FR1	1	R1425D
857.696	1.633	859767	WORD	n/a	wordpools/wordpool_EN.txt	SIGN	1	7	[0, 0, 0]	n/a	FR1	1	R1425D
859.329	0.951	861385	WORD_OFF	n/a	n/a	SIGN	1	7	[0, 0, 0]	n/a	FR1	1	R1425D
860.28	1.632	862360	WORD	n/a	wordpools/wordpool_EN.txt	INK	2	7	[0, 0, 0]	n/a	FR1	1	R1425D
861.912	0.793	863978	WORD_OFF	n/a	n/a	INK	2	7	[0, 0, 0]	n/a	FR1	1	R1425D
862.705	1.625	864761	WORD	n/a	wordpools/wordpool_EN.txt	RIB	3	7	[0, 0, 0]	n/a	FR1	1	R1425D
864.33	0.802	866380	WORD_OFF	n/a	n/a	RIB	3	7	[0, 0, 0]	n/a	FR1	1	R1425D
865.132	1.631	867198	WORD	n/a	wordpools/wordpool_EN.txt	BENCH	4	7	[0, 0, 0]	n/a	FR1	1	R1425D
866.763	0.89	868816	WORD_OFF	n/a	n/a	BENCH	4	7	[0, 0, 0]	n/a	FR1	1	R1425D
867.653	1.628	869721	WORD	n/a	wordpools/wordpool_EN.txt	POND	5	7	[0, 0, 0]	n/a	FR1	1	R1425D
869.281	0.756	871340	WORD_OFF	n/a	n/a	POND	5	7	[0, 0, 0]	n/a	FR1	1	R1425D
870.037	1.627	872106	WORD	n/a	wordpools/wordpool_EN.txt	SPARK	6	7	[0, 0, 0]	n/a	FR1	1	R1425D
871.664	0.838	873724	WORD_OFF	n/a	n/a	SPARK	6	7	[0, 0, 0]	n/a	FR1	1	R1425D
872.502	1.614	874577	WORD	n/a	wordpools/wordpool_EN.txt	FUR	7	7	[0, 0, 0]	n/a	FR1	1	R1425D
874.116	1.085	876178	WORD_OFF	n/a	n/a	FUR	7	7	[0, 0, 0]	n/a	FR1	1	R1425D
875.201	1.631	877275	WORD	n/a	wordpools/wordpool_EN.txt	GOAT	8	7	[0, 0, 0]	n/a	FR1	1	R1425D
876.832	1.05	878893	WORD_OFF	n/a	n/a	GOAT	8	7	[0, 0, 0]	n/a	FR1	1	R1425D
877.882	1.634	879955	WORD	n/a	wordpools/wordpool_EN.txt	SKUNK	9	7	[0, 0, 0]	n/a	FR1	1	R1425D
879.516	0.827	881573	WORD_OFF	n/a	n/a	SKUNK	9	7	[0, 0, 0]	n/a	FR1	1	R1425D
880.343	1.623	882409	WORD	n/a	wordpools/wordpool_EN.txt	TRAY	10	7	[0, 0, 0]	n/a	FR1	1	R1425D
881.966	0.766	884027	WORD_OFF	n/a	n/a	TRAY	10	7	[0, 0, 0]	n/a	FR1	1	R1425D
882.732	1.635	884810	WORD	n/a	wordpools/wordpool_EN.txt	LOCK	11	7	[0, 0, 0]	n/a	FR1	1	R1425D
884.367	0.894	886429	WORD_OFF	n/a	n/a	LOCK	11	7	[0, 0, 0]	n/a	FR1	1	R1425D
885.261	1.623	887316	WORD	n/a	wordpools/wordpool_EN.txt	DEER	12	7	[0, 0, 0]	n/a	FR1	1	R1425D
886.884	0.0	888952	WORD_OFF	n/a	n/a	DEER	12	7	[0, 0, 0]	n/a	FR1	1	R1425D
886.884	0.001	888952	ENCODING_END	n/a	n/a	n/a	-999	7	[0, 0, 0]	n/a	FR1	1	R1425D
886.885	0.0	888952	DISTRACT_START	n/a	n/a	n/a	-999	7	[0, 0, 0]	n/a	FR1	1	R1425D
886.885	0.015	888957	START	n/a	n/a	n/a	-999	7	[-999, -999, -999]	n/a	FR1	1	R1425D
886.9	4.885	888972	PROB	4.885	n/a	n/a	-999	7	[9, 5, 2]	16	FR1	1	R1425D
891.785	4.517	893857	PROB	4.517	n/a	n/a	-999	7	[6, 6, 1]	13	FR1	1	R1425D
896.302	3.201	898374	PROB	3.201	n/a	n/a	-999	7	[8, 7, 5]	20	FR1	1	R1425D
899.503	3.05	901574	PROB	3.05	n/a	n/a	-999	7	[6, 5, 1]	12	FR1	1	R1425D
902.553	2.734	904624	PROB	2.734	n/a	n/a	-999	7	[7, 8, 8]	23	FR1	1	R1425D
905.287	3.401	907358	PROB	3.401	n/a	n/a	-999	7	[4, 6, 8]	18	FR1	1	R1425D
908.688	0.0	910741	DISTRACT_END	n/a	n/a	n/a	-999	7	[0, 0, 0]	n/a	FR1	1	R1425D
908.675	2.164	910746	STOP	n/a	n/a	n/a	-999	7	[-999, -999, -999]	n/a	FR1	1	R1425D
910.839	1.033	912900	REC_START	n/a	n/a	n/a	-999	7	[0, 0, 0]	n/a	FR1	1	R1425D
911.872	0.739	913943	REC_WORD	0.739	n/a	FUR	7	7	[0, 0, 0]	n/a	FR1	1	R1425D
912.611	0.969	914682	REC_WORD	0.969	n/a	GOAT	8	7	[0, 0, 0]	n/a	FR1	1	R1425D
913.58	1.099	915651	REC_WORD	1.099	n/a	SKUNK	9	7	[0, 0, 0]	n/a	FR1	1	R1425D
914.679	1.054	916750	REC_WORD	1.054	n/a	DEER	12	7	[0, 0, 0]	n/a	FR1	1	R1425D
915.733	1.618	917804	REC_WORD	1.618	n/a	INK	2	7	[0, 0, 0]	n/a	FR1	1	R1425D
917.351	1.605	919422	REC_WORD	1.605	n/a	SIGN	1	7	[0, 0, 0]	n/a	FR1	1	R1425D
918.956	21.895	921026	REC_WORD	21.895	n/a	BENCH	4	7	[0, 0, 0]	n/a	FR1	1	R1425D
940.851	3.144	942921	REC_END	n/a	n/a	n/a	-999	7	[0, 0, 0]	n/a	FR1	1	R1425D
943.995	10.429	946088	COUNTDOWN_START	n/a	n/a	n/a	-999	8	[0, 0, 0]	n/a	FR1	1	R1425D
954.424	1.14	956478	COUNTDOWN_END	n/a	n/a	n/a	-999	8	[0, 0, 0]	n/a	FR1	1	R1425D
955.564	0.881	957609	ENCODING_START	n/a	n/a	n/a	-999	8	[0, 0, 0]	n/a	FR1	1	R1425D
956.445	1.636	958514	WORD	n/a	wordpools/wordpool_EN.txt	ARM	1	8	[0, 0, 0]	n/a	FR1	1	R1425D
958.081	0.877	960133	WORD_OFF	n/a	n/a	ARM	1	8	[0, 0, 0]	n/a	FR1	1	R1425D
958.958	1.623	961020	WORD	n/a	wordpools/wordpool_EN.txt	SPRING	2	8	[0, 0, 0]	n/a	FR1	1	R1425D
960.581	1.026	962639	WORD_OFF	n/a	n/a	SPRING	2	8	[0, 0, 0]	n/a	FR1	1	R1425D
961.607	1.624	963665	WORD	n/a	wordpools/wordpool_EN.txt	FOX	3	8	[0, 0, 0]	n/a	FR1	1	R1425D
963.231	0.832	965284	WORD_OFF	n/a	n/a	FOX	3	8	[0, 0, 0]	n/a	FR1	1	R1425D
964.063	1.635	966137	WORD	n/a	wordpools/wordpool_EN.txt	BLUSH	4	8	[0, 0, 0]	n/a	FR1	1	R1425D
965.698	0.824	967755	WORD_OFF	n/a	n/a	BLUSH	4	8	[0, 0, 0]	n/a	FR1	1	R1425D
966.522	1.628	968591	WORD	n/a	wordpools/wordpool_EN.txt	SNOW	5	8	[0, 0, 0]	n/a	FR1	1	R1425D
968.15	1.12	970209	WORD_OFF	n/a	n/a	SNOW	5	8	[0, 0, 0]	n/a	FR1	1	R1425D
969.27	1.629	971340	WORD	n/a	wordpools/wordpool_EN.txt	CUBE	6	8	[0, 0, 0]	n/a	FR1	1	R1425D
970.899	0.94	972959	WORD_OFF	n/a	n/a	CUBE	6	8	[0, 0, 0]	n/a	FR1	1	R1425D
971.839	1.627	973899	WORD	n/a	wordpools/wordpool_EN.txt	SEA	7	8	[0, 0, 0]	n/a	FR1	1	R1425D
973.466	0.911	975517	WORD_OFF	n/a	n/a	SEA	7	8	[0, 0, 0]	n/a	FR1	1	R1425D
974.377	1.623	976440	WORD	n/a	wordpools/wordpool_EN.txt	SHARK	8	8	[0, 0, 0]	n/a	FR1	1	R1425D
976.0	0.95	978058	WORD_OFF	n/a	n/a	SHARK	8	8	[0, 0, 0]	n/a	FR1	1	R1425D
976.95	1.634	979015	WORD	n/a	wordpools/wordpool_EN.txt	SHELL	9	8	[0, 0, 0]	n/a	FR1	1	R1425D
978.584	1.026	980634	WORD_OFF	n/a	n/a	SHELL	9	8	[0, 0, 0]	n/a	FR1	1	R1425D
979.61	1.624	981661	WORD	n/a	wordpools/wordpool_EN.txt	LAMP	10	8	[0, 0, 0]	n/a	FR1	1	R1425D
981.234	0.895	983279	WORD_OFF	n/a	n/a	LAMP	10	8	[0, 0, 0]	n/a	FR1	1	R1425D
982.129	1.622	984184	WORD	n/a	wordpools/wordpool_EN.txt	DUCK	11	8	[0, 0, 0]	n/a	FR1	1	R1425D
983.751	1.112	985803	WORD_OFF	n/a	n/a	DUCK	11	8	[0, 0, 0]	n/a	FR1	1	R1425D
984.863	1.622	986917	WORD	n/a	wordpools/wordpool_EN.txt	PLATE	12	8	[0, 0, 0]	n/a	FR1	1	R1425D
986.485	0.001	988552	WORD_OFF	n/a	n/a	PLATE	12	8	[0, 0, 0]	n/a	FR1	1	R1425D
986.486	0.0	988552	ENCODING_END	n/a	n/a	n/a	-999	8	[0, 0, 0]	n/a	FR1	1	R1425D
986.486	0.016	988553	START	n/a	n/a	n/a	-999	8	[-999, -999, -999]	n/a	FR1	1	R1425D
986.502	0.0	988569	PROB	0.0	n/a	n/a	-999	8	[5, 3, 1]	9	FR1	1	R1425D
986.486	4.367	988570	DISTRACT_START	n/a	n/a	n/a	-999	8	[0, 0, 0]	n/a	FR1	1	R1425D
990.853	2.6	992920	PROB	2.6	n/a	n/a	-999	8	[1, 7, 4]	12	FR1	1	R1425D
993.453	3.768	995520	PROB	3.768	n/a	n/a	-999	8	[3, 5, 9]	17	FR1	1	R1425D
997.221	2.633	999287	PROB	2.633	n/a	n/a	-999	8	[6, 9, 6]	21	FR1	1	R1425D
999.854	4.084	1001920	PROB	4.084	n/a	n/a	-999	8	[9, 5, 9]	23	FR1	1	R1425D
1003.938	5.448	1006004	PROB	5.448	n/a	n/a	-999	8	[4, 9, 2]	15	FR1	1	R1425D
1009.386	0.02	1011452	STOP	n/a	n/a	n/a	-999	8	[-999, -999, -999]	n/a	FR1	1	R1425D
1009.406	2.151	1011456	DISTRACT_END	n/a	n/a	n/a	-999	8	[0, 0, 0]	n/a	FR1	1	R1425D
1011.557	0.945	1013614	REC_START	n/a	n/a	n/a	-999	8	[0, 0, 0]	n/a	FR1	1	R1425D
1012.502	0.604	1014568	REC_WORD	0.604	n/a	SEA	7	8	[0, 0, 0]	n/a	FR1	1	R1425D
1013.106	1.929	1015172	REC_WORD	1.929	n/a	SHARK	8	8	[0, 0, 0]	n/a	FR1	1	R1425D
1015.035	2.75	1017101	REC_WORD	2.75	n/a	SHELL	9	8	[0, 0, 0]	n/a	FR1	1	R1425D
1017.785	4.153	1019850	REC_WORD_VV	4.153	n/a	<>	-999	8	[0, 0, 0]	n/a	FR1	1	R1425D
1021.938	10.716	1024003	REC_WORD	10.716	n/a	ARM	1	8	[0, 0, 0]	n/a	FR1	1	R1425D
1032.654	8.914	1034719	REC_WORD_VV	8.914	n/a	<>	-999	8	[0, 0, 0]	n/a	FR1	1	R1425D
1041.568	3.812	1043635	REC_END	n/a	n/a	n/a	-999	8	[0, 0, 0]	n/a	FR1	1	R1425D
1045.38	10.428	1047463	COUNTDOWN_START	n/a	n/a	n/a	-999	9	[0, 0, 0]	n/a	FR1	1	R1425D
1055.808	1.074	1057853	COUNTDOWN_END	n/a	n/a	n/a	-999	9	[0, 0, 0]	n/a	FR1	1	R1425D
1056.882	0.888	1058932	ENCODING_START	n/a	n/a	n/a	-999	9	[0, 0, 0]	n/a	FR1	1	R1425D
1057.77	1.629	1059837	WORD	n/a	wordpools/wordpool_EN.txt	PARK	1	9	[0, 0, 0]	n/a	FR1	1	R1425D
1059.399	1.048	1061438	WORD_OFF	n/a	n/a	PARK	1	9	[0, 0, 0]	n/a	FR1	1	R1425D
1060.447	1.62	1062517	WORD	n/a	wordpools/wordpool_EN.txt	ZOO	2	9	[0, 0, 0]	n/a	FR1	1	R1425D
1062.067	0.989	1064118	WORD_OFF	n/a	n/a	ZOO	2	9	[0, 0, 0]	n/a	FR1	1	R1425D
1063.056	1.627	1065110	WORD	n/a	wordpools/wordpool_EN.txt	SOAP	3	9	[0, 0, 0]	n/a	FR1	1	R1425D
1064.683	1.104	1066729	WORD_OFF	n/a	n/a	SOAP	3	9	[0, 0, 0]	n/a	FR1	1	R1425D
1065.787	1.63	1067843	WORD	n/a	wordpools/wordpool_EN.txt	BAT	4	9	[0, 0, 0]	n/a	FR1	1	R1425D
1067.417	0.817	1069461	WORD_OFF	n/a	n/a	BAT	4	9	[0, 0, 0]	n/a	FR1	1	R1425D
1068.234	1.633	1070297	WORD	n/a	wordpools/wordpool_EN.txt	JAIL	5	9	[0, 0, 0]	n/a	FR1	1	R1425D
1069.867	0.99	1071915	WORD_OFF	n/a	n/a	JAIL	5	9	[0, 0, 0]	n/a	FR1	1	R1425D
1070.857	1.627	1072907	WORD	n/a	wordpools/wordpool_EN.txt	FORK	6	9	[0, 0, 0]	n/a	FR1	1	R1425D
1072.484	0.948	1074526	WORD_OFF	n/a	n/a	FORK	6	9	[0, 0, 0]	n/a	FR1	1	R1425D
1073.432	1.621	1075500	WORD	n/a	wordpools/wordpool_EN.txt	BADGE	7	9	[0, 0, 0]	n/a	FR1	1	R1425D
1075.053	1.023	1077101	WORD_OFF	n/a	n/a	BADGE	7	9	[0, 0, 0]	n/a	FR1	1	R1425D
1076.076	1.626	1078128	WORD	n/a	wordpools/wordpool_EN.txt	RAIN	8	9	[0, 0, 0]	n/a	FR1	1	R1425D
1077.702	0.98	1079747	WORD_OFF	n/a	n/a	RAIN	8	9	[0, 0, 0]	n/a	FR1	1	R1425D
1078.682	1.637	1080756	WORD	n/a	wordpools/wordpool_EN.txt	BOARD	9	9	[0, 0, 0]	n/a	FR1	1	R1425D
1080.319	1.148	1082357	WORD_OFF	n/a	n/a	BOARD	9	9	[0, 0, 0]	n/a	FR1	1	R1425D
1081.467	1.637	1083541	WORD	n/a	wordpools/wordpool_EN.txt	ROCK	10	9	[0, 0, 0]	n/a	FR1	1	R1425D
1083.104	0.952	1085142	WORD_OFF	n/a	n/a	ROCK	10	9	[0, 0, 0]	n/a	FR1	1	R1425D
1084.056	1.631	1086116	WORD	n/a	wordpools/wordpool_EN.txt	NEST	11	9	[0, 0, 0]	n/a	FR1	1	R1425D
1085.687	0.859	1087735	WORD_OFF	n/a	n/a	NEST	11	9	[0, 0, 0]	n/a	FR1	1	R1425D
1086.546	1.627	1088605	WORD	n/a	wordpools/wordpool_EN.txt	EEL	12	9	[0, 0, 0]	n/a	FR1	1	R1425D
1088.173	0.0	1090235	START	n/a	n/a	n/a	-999	9	[-999, -999, -999]	n/a	FR1	1	R1425D
1088.172	0.0	1090241	WORD_OFF	n/a	n/a	EEL	12	9	[0, 0, 0]	n/a	FR1	1	R1425D
1088.172	0.001	1090241	ENCODING_END	n/a	n/a	n/a	-999	9	[0, 0, 0]	n/a	FR1	1	R1425D
1088.173	0.015	1090241	DISTRACT_START	n/a	n/a	n/a	-999	9	[0, 0, 0]	n/a	FR1	1	R1425D
1088.188	4.467	1090250	PROB	4.467	n/a	n/a	-999	9	[5, 9, 2]	16	FR1	1	R1425D
1092.655	3.584	1094717	PROB	3.584	n/a	n/a	-999	9	[4, 9, 6]	19	FR1	1	R1425D
1096.239	7.534	1098300	PROB	7.534	n/a	n/a	-999	9	[9, 8, 5]	22	FR1	1	R1425D
1103.773	3.118	1105834	PROB	3.118	n/a	n/a	-999	9	[3, 1, 4]	8	FR1	1	R1425D
1106.891	3.55	1108952	PROB	3.55	n/a	n/a	-999	9	[9, 2, 4]	15	FR1	1	R1425D
1110.441	0.0	1112483	DISTRACT_END	n/a	n/a	n/a	-999	9	[0, 0, 0]	n/a	FR1	1	R1425D
1110.43	2.229	1112491	STOP	n/a	n/a	n/a	-999	9	[-999, -999, -999]	n/a	FR1	1	R1425D
1112.659	1.486	1114710	REC_START	n/a	n/a	n/a	-999	9	[0, 0, 0]	n/a	FR1	1	R1425D
1114.145	0.569	1116205	REC_WORD	0.569	n/a	PARK	1	9	[0, 0, 0]	n/a	FR1	1	R1425D
1114.714	1.226	1116774	REC_WORD	1.226	n/a	ZOO	2	9	[0, 0, 0]	n/a	FR1	1	R1425D
1115.94	26.73	1118000	REC_WORD	26.73	n/a	EEL	12	9	[0, 0, 0]	n/a	FR1	1	R1425D
1142.67	2.945	1144731	REC_END	n/a	n/a	n/a	-999	9	[0, 0, 0]	n/a	FR1	1	R1425D
1145.615	10.429	1147690	COUNTDOWN_START	n/a	n/a	n/a	-999	10	[0, 0, 0]	n/a	FR1	1	R1425D
1156.044	1.074	1158097	COUNTDOWN_END	n/a	n/a	n/a	-999	10	[0, 0, 0]	n/a	FR1	1	R1425D
1157.118	1.019	1159159	ENCODING_START	n/a	n/a	n/a	-999	10	[0, 0, 0]	n/a	FR1	1	R1425D
1158.137	1.63	1160186	WORD	n/a	wordpools/wordpool_EN.txt	DITCH	1	10	[0, 0, 0]	n/a	FR1	1	R1425D
1159.767	0.818	1161804	WORD_OFF	n/a	n/a	DITCH	1	10	[0, 0, 0]	n/a	FR1	1	R1425D
1160.585	1.633	1162640	WORD	n/a	wordpools/wordpool_EN.txt	WHEEL	2	10	[0, 0, 0]	n/a	FR1	1	R1425D
1162.218	1.075	1164258	WORD_OFF	n/a	n/a	WHEEL	2	10	[0, 0, 0]	n/a	FR1	1	R1425D
1163.293	1.625	1165337	WORD	n/a	wordpools/wordpool_EN.txt	NOSE	3	10	[0, 0, 0]	n/a	FR1	1	R1425D
1164.918	1.141	1166956	WORD_OFF	n/a	n/a	NOSE	3	10	[0, 0, 0]	n/a	FR1	1	R1425D
1166.059	1.626	1168104	WORD	n/a	wordpools/wordpool_EN.txt	BOOK	4	10	[0, 0, 0]	n/a	FR1	1	R1425D
1167.685	0.929	1169723	WORD_OFF	n/a	n/a	BOOK	4	10	[0, 0, 0]	n/a	FR1	1	R1425D
1168.614	1.638	1170680	WORD	n/a	wordpools/wordpool_EN.txt	THREAD	5	10	[0, 0, 0]	n/a	FR1	1	R1425D
1170.252	0.796	1172299	WORD_OFF	n/a	n/a	THREAD	5	10	[0, 0, 0]	n/a	FR1	1	R1425D
1171.048	1.621	1173099	WORD	n/a	wordpools/wordpool_EN.txt	MAP	6	10	[0, 0, 0]	n/a	FR1	1	R1425D
1172.669	0.902	1174718	WORD_OFF	n/a	n/a	MAP	6	10	[0, 0, 0]	n/a	FR1	1	R1425D
1173.571	1.617	1175623	WORD	n/a	wordpools/wordpool_EN.txt	ANT	7	10	[0, 0, 0]	n/a	FR1	1	R1425D
1175.188	0.968	1177224	WORD_OFF	n/a	n/a	ANT	7	10	[0, 0, 0]	n/a	FR1	1	R1425D
1176.156	1.631	1178216	WORD	n/a	wordpools/wordpool_EN.txt	PLANT	8	10	[0, 0, 0]	n/a	FR1	1	R1425D
1177.787	0.754	1179834	WORD_OFF	n/a	n/a	PLANT	8	10	[0, 0, 0]	n/a	FR1	1	R1425D
1178.541	1.631	1180600	WORD	n/a	wordpools/wordpool_EN.txt	SPOON	9	10	[0, 0, 0]	n/a	FR1	1	R1425D
1180.172	0.83	1182219	WORD_OFF	n/a	n/a	SPOON	9	10	[0, 0, 0]	n/a	FR1	1	R1425D
1181.002	1.636	1183054	WORD	n/a	wordpools/wordpool_EN.txt	JEEP	10	10	[0, 0, 0]	n/a	FR1	1	R1425D
1182.638	0.899	1184672	WORD_OFF	n/a	n/a	JEEP	10	10	[0, 0, 0]	n/a	FR1	1	R1425D
1183.537	1.636	1185595	WORD	n/a	wordpools/wordpool_EN.txt	BEACH	11	10	[0, 0, 0]	n/a	FR1	1	R1425D
1185.173	1.149	1187213	WORD_OFF	n/a	n/a	BEACH	11	10	[0, 0, 0]	n/a	FR1	1	R1425D
1186.322	1.634	1188379	WORD	n/a	wordpools/wordpool_EN.txt	SNAIL	12	10	[0, 0, 0]	n/a	FR1	1	R1425D
1187.956	0.0	1190013	START	n/a	n/a	n/a	-999	10	[-999, -999, -999]	n/a	FR1	1	R1425D
1187.956	0.0	1190015	WORD_OFF	n/a	n/a	SNAIL	12	10	[0, 0, 0]	n/a	FR1	1	R1425D
1187.956	0.0	1190015	ENCODING_END	n/a	n/a	n/a	-999	10	[0, 0, 0]	n/a	FR1	1	R1425D
1187.956	0.016	1190015	DISTRACT_START	n/a	n/a	n/a	-999	10	[0, 0, 0]	n/a	FR1	1	R1425D
1187.972	3.684	1190029	PROB	3.684	n/a	n/a	-999	10	[4, 4, 2]	10	FR1	1	R1425D
1191.656	5.651	1193712	PROB	5.651	n/a	n/a	-999	10	[8, 1, 3]	12	FR1	1	R1425D
1197.307	3.317	1199363	PROB	3.317	n/a	n/a	-999	10	[8, 9, 4]	21	FR1	1	R1425D
1200.624	3.134	1202680	PROB	3.134	n/a	n/a	-999	10	[5, 1, 9]	15	FR1	1	R1425D
1203.758	3.684	1205814	PROB	3.684	n/a	n/a	-999	10	[1, 2, 5]	8	FR1	1	R1425D
1207.442	3.968	1209498	PROB	3.968	n/a	n/a	-999	10	[7, 5, 3]	15	FR1	1	R1425D
1211.41	0.0	1213458	DISTRACT_END	n/a	n/a	n/a	-999	10	[0, 0, 0]	n/a	FR1	1	R1425D
1211.403	2.291	1213458	STOP	n/a	n/a	n/a	-999	10	[-999, -999, -999]	n/a	FR1	1	R1425D
1213.694	1.069	1215738	REC_START	n/a	n/a	n/a	-999	10	[0, 0, 0]	n/a	FR1	1	R1425D
1214.763	0.723	1216818	REC_WORD	0.723	n/a	NOSE	3	10	[0, 0, 0]	n/a	FR1	1	R1425D
1215.486	2.661	1217541	REC_WORD	2.661	n/a	MAP	6	10	[0, 0, 0]	n/a	FR1	1	R1425D
1218.147	0.836	1220202	REC_WORD	0.836	n/a	BOOK	4	10	[0, 0, 0]	n/a	FR1	1	R1425D
1218.983	6.755	1221038	REC_WORD	6.755	n/a	THREAD	5	10	[0, 0, 0]	n/a	FR1	1	R1425D
1225.738	0.705	1227793	REC_WORD	0.705	n/a	DITCH	1	10	[0, 0, 0]	n/a	FR1	1	R1425D
1226.443	12.975	1228498	REC_WORD	12.975	n/a	WHEEL	2	10	[0, 0, 0]	n/a	FR1	1	R1425D
1239.418	4.288	1241472	REC_WORD	4.288	n/a	SPOON	9	10	[0, 0, 0]	n/a	FR1	1	R1425D
1243.706	4.761	1245759	REC_END	n/a	n/a	n/a	-999	10	[0, 0, 0]	n/a	FR1	1	R1425D
1248.467	10.428	1250545	COUNTDOWN_START	n/a	n/a	n/a	-999	11	[0, 0, 0]	n/a	FR1	1	R1425D
1258.895	1.041	1260935	COUNTDOWN_END	n/a	n/a	n/a	-999	11	[0, 0, 0]	n/a	FR1	1	R1425D
1259.936	0.819	1261979	ENCODING_START	n/a	n/a	n/a	-999	11	[0, 0, 0]	n/a	FR1	1	R1425D
1260.755	1.631	1262814	WORD	n/a	wordpools/wordpool_EN.txt	FISH	1	11	[0, 0, 0]	n/a	FR1	1	R1425D
1262.386	0.959	1264415	WORD_OFF	n/a	n/a	FISH	1	11	[0, 0, 0]	n/a	FR1	1	R1425D
1263.345	1.625	1265390	WORD	n/a	wordpools/wordpool_EN.txt	HAT	2	11	[0, 0, 0]	n/a	FR1	1	R1425D
1264.97	0.801	1267008	WORD_OFF	n/a	n/a	HAT	2	11	[0, 0, 0]	n/a	FR1	1	R1425D
1265.771	1.633	1267826	WORD	n/a	wordpools/wordpool_EN.txt	CAVE	3	11	[0, 0, 0]	n/a	FR1	1	R1425D
1267.404	0.935	1269445	WORD_OFF	n/a	n/a	CAVE	3	11	[0, 0, 0]	n/a	FR1	1	R1425D
1268.339	1.632	1270385	WORD	n/a	wordpools/wordpool_EN.txt	STRING	4	11	[0, 0, 0]	n/a	FR1	1	R1425D
1269.971	0.97	1272003	WORD_OFF	n/a	n/a	STRING	4	11	[0, 0, 0]	n/a	FR1	1	R1425D
1270.941	1.63	1272995	WORD	n/a	wordpools/wordpool_EN.txt	DRUM	5	11	[0, 0, 0]	n/a	FR1	1	R1425D
1272.571	1.106	1274614	WORD_OFF	n/a	n/a	DRUM	5	11	[0, 0, 0]	n/a	FR1	1	R1425D
1273.677	1.628	1275727	WORD	n/a	wordpools/wordpool_EN.txt	SHRIMP	6	11	[0, 0, 0]	n/a	FR1	1	R1425D
1275.305	1.14	1277346	WORD_OFF	n/a	n/a	SHRIMP	6	11	[0, 0, 0]	n/a	FR1	1	R1425D
1276.445	1.628	1278495	WORD	n/a	wordpools/wordpool_EN.txt	OWL	7	11	[0, 0, 0]	n/a	FR1	1	R1425D
1278.073	1.115	1280113	WORD_OFF	n/a	n/a	OWL	7	11	[0, 0, 0]	n/a	FR1	1	R1425D
1279.188	1.635	1281244	WORD	n/a	wordpools/wordpool_EN.txt	CORD	8	11	[0, 0, 0]	n/a	FR1	1	R1425D
1280.823	0.752	1282863	WORD_OFF	n/a	n/a	CORD	8	11	[0, 0, 0]	n/a	FR1	1	R1425D
1281.575	1.615	1283629	WORD	n/a	wordpools/wordpool_EN.txt	TREE	9	11	[0, 0, 0]	n/a	FR1	1	R1425D
1283.19	1.092	1285230	WORD_OFF	n/a	n/a	TREE	9	11	[0, 0, 0]	n/a	FR1	1	R1425D
1284.282	1.625	1286326	WORD	n/a	wordpools/wordpool_EN.txt	HOOK	10	11	[0, 0, 0]	n/a	FR1	1	R1425D
1285.907	0.973	1287945	WORD_OFF	n/a	n/a	HOOK	10	11	[0, 0, 0]	n/a	FR1	1	R1425D
1286.88	1.627	1288919	WORD	n/a	wordpools/wordpool_EN.txt	CAT	11	11	[0, 0, 0]	n/a	FR1	1	R1425D
1288.507	0.926	1290538	WORD_OFF	n/a	n/a	CAT	11	11	[0, 0, 0]	n/a	FR1	1	R1425D
1289.433	1.627	1291478	WORD	n/a	wordpools/wordpool_EN.txt	CLOWN	12	11	[0, 0, 0]	n/a	FR1	1	R1425D
1291.06	0.0	1293111	START	n/a	n/a	n/a	-999	11	[-999, -999, -999]	n/a	FR1	1	R1425D
1291.059	0.0	1293114	WORD_OFF	n/a	n/a	CLOWN	12	11	[0, 0, 0]	n/a	FR1	1	R1425D
1291.059	0.001	1293114	ENCODING_END	n/a	n/a	n/a	-999	11	[0, 0, 0]	n/a	FR1	1	R1425D
1291.06	0.015	1293114	DISTRACT_START	n/a	n/a	n/a	-999	11	[0, 0, 0]	n/a	FR1	1	R1425D
1291.075	3.934	1293126	PROB	3.934	n/a	n/a	-999	11	[5, 8, 8]	21	FR1	1	R1425D
1295.009	3.433	1297060	PROB	3.433	n/a	n/a	-999	11	[6, 9, 8]	23	FR1	1	R1425D
1298.442	3.068	1300493	PROB	3.068	n/a	n/a	-999	11	[2, 7, 4]	13	FR1	1	R1425D
1301.51	3.45	1303561	PROB	3.45	n/a	n/a	-999	11	[8, 7, 5]	20	FR1	1	R1425D
1304.96	4.368	1307011	PROB	4.368	n/a	n/a	-999	11	[9, 4, 8]	21	FR1	1	R1425D
1309.328	2.984	1311378	PROB	2.984	n/a	n/a	-999	11	[7, 7, 4]	18	FR1	1	R1425D
1312.312	0.0	1314346	DISTRACT_END	n/a	n/a	n/a	-999	11	[0, 0, 0]	n/a	FR1	1	R1425D
1312.305	2.141	1314355	STOP	n/a	n/a	n/a	-999	11	[-999, -999, -999]	n/a	FR1	1	R1425D
1314.446	1.4	1316486	REC_START	n/a	n/a	n/a	-999	11	[0, 0, 0]	n/a	FR1	1	R1425D
1315.846	0.657	1317896	REC_WORD	0.657	n/a	FISH	1	11	[0, 0, 0]	n/a	FR1	1	R1425D
1316.503	0.959	1318553	REC_WORD	0.959	n/a	HAT	2	11	[0, 0, 0]	n/a	FR1	1	R1425D
1317.462	0.888	1319512	REC_WORD	0.888	n/a	CAT	11	11	[0, 0, 0]	n/a	FR1	1	R1425D
1318.35	6.343	1320400	REC_WORD	6.343	n/a	CAVE	3	11	[0, 0, 0]	n/a	FR1	1	R1425D
1324.693	13.719	1326743	REC_WORD_VV	13.719	n/a	<>	-999	11	[0, 0, 0]	n/a	FR1	1	R1425D
1338.412	3.743	1340461	REC_WORD_VV	3.743	n/a	<>	-999	11	[0, 0, 0]	n/a	FR1	1	R1425D
1342.155	2.305	1344204	REC_WORD_VV	2.305	n/a	<>	-999	11	[0, 0, 0]	n/a	FR1	1	R1425D
1344.46	6.561	1346507	REC_END	n/a	n/a	n/a	-999	11	[0, 0, 0]	n/a	FR1	1	R1425D
1351.021	10.429	1353086	COUNTDOWN_START	n/a	n/a	n/a	-999	12	[0, 0, 0]	n/a	FR1	1	R1425D
1361.45	1.088	1363493	COUNTDOWN_END	n/a	n/a	n/a	-999	12	[0, 0, 0]	n/a	FR1	1	R1425D
1362.538	0.828	1364572	ENCODING_START	n/a	n/a	n/a	-999	12	[0, 0, 0]	n/a	FR1	1	R1425D
1363.366	1.622	1365408	WORD	n/a	wordpools/wordpool_EN.txt	FLUTE	1	12	[0, 0, 0]	n/a	FR1	1	R1425D
1364.988	0.994	1367026	WORD_OFF	n/a	n/a	FLUTE	1	12	[0, 0, 0]	n/a	FR1	1	R1425D
1365.982	1.623	1368018	WORD	n/a	wordpools/wordpool_EN.txt	BRANCH	2	12	[0, 0, 0]	n/a	FR1	1	R1425D
1367.605	1.117	1369637	WORD_OFF	n/a	n/a	BRANCH	2	12	[0, 0, 0]	n/a	FR1	1	R1425D
1368.722	1.634	1370768	WORD	n/a	wordpools/wordpool_EN.txt	WHALE	3	12	[0, 0, 0]	n/a	FR1	1	R1425D
1370.356	0.9	1372386	WORD_OFF	n/a	n/a	WHALE	3	12	[0, 0, 0]	n/a	FR1	1	R1425D
1371.256	1.633	1373309	WORD	n/a	wordpools/wordpool_EN.txt	TRAIN	4	12	[0, 0, 0]	n/a	FR1	1	R1425D
1372.889	1.104	1374927	WORD_OFF	n/a	n/a	TRAIN	4	12	[0, 0, 0]	n/a	FR1	1	R1425D
1373.993	1.63	1376041	WORD	n/a	wordpools/wordpool_EN.txt	SHOE	5	12	[0, 0, 0]	n/a	FR1	1	R1425D
1375.623	0.985	1377660	WORD_OFF	n/a	n/a	SHOE	5	12	[0, 0, 0]	n/a	FR1	1	R1425D
1376.608	1.632	1378652	WORD	n/a	wordpools/wordpool_EN.txt	MUG	6	12	[0, 0, 0]	n/a	FR1	1	R1425D
1378.24	0.787	1380270	WORD_OFF	n/a	n/a	MUG	6	12	[0, 0, 0]	n/a	FR1	1	R1425D
1379.027	1.631	1381071	WORD	n/a	wordpools/wordpool_EN.txt	FARM	7	12	[0, 0, 0]	n/a	FR1	1	R1425D
1380.658	1.116	1382689	WORD_OFF	n/a	n/a	FARM	7	12	[0, 0, 0]	n/a	FR1	1	R1425D
1381.774	1.634	1383820	WORD	n/a	wordpools/wordpool_EN.txt	DOCK	8	12	[0, 0, 0]	n/a	FR1	1	R1425D
1383.408	1.07	1385439	WORD_OFF	n/a	n/a	DOCK	8	12	[0, 0, 0]	n/a	FR1	1	R1425D
1384.478	1.632	1386518	WORD	n/a	wordpools/wordpool_EN.txt	SINK	9	12	[0, 0, 0]	n/a	FR1	1	R1425D
1386.11	1.008	1388137	WORD_OFF	n/a	n/a	SINK	9	12	[0, 0, 0]	n/a	FR1	1	R1425D
1387.118	1.624	1389163	WORD	n/a	wordpools/wordpool_EN.txt	HEN	10	12	[0, 0, 0]	n/a	FR1	1	R1425D
1388.742	1.115	1390782	WORD_OFF	n/a	n/a	HEN	10	12	[0, 0, 0]	n/a	FR1	1	R1425D
1389.857	1.636	1391913	WORD	n/a	wordpools/wordpool_EN.txt	YARD	11	12	[0, 0, 0]	n/a	FR1	1	R1425D
1391.493	1.069	1393514	WORD_OFF	n/a	n/a	YARD	11	12	[0, 0, 0]	n/a	FR1	1	R1425D
1392.562	1.633	1394611	WORD	n/a	wordpools/wordpool_EN.txt	BLOOM	12	12	[0, 0, 0]	n/a	FR1	1	R1425D
1394.195	0.0	1396241	START	n/a	n/a	n/a	-999	12	[-999, -999, -999]	n/a	FR1	1	R1425D
1394.194	0.0	1396247	WORD_OFF	n/a	n/a	BLOOM	12	12	[0, 0, 0]	n/a	FR1	1	R1425D
1394.194	0.001	1396247	ENCODING_END	n/a	n/a	n/a	-999	12	[0, 0, 0]	n/a	FR1	1	R1425D
1394.195	0.015	1396247	DISTRACT_START	n/a	n/a	n/a	-999	12	[0, 0, 0]	n/a	FR1	1	R1425D
1394.21	3.902	1396256	PROB	3.902	n/a	n/a	-999	12	[9, 9, 4]	22	FR1	1	R1425D
1398.112	2.967	1400158	PROB	2.967	n/a	n/a	-999	12	[9, 2, 3]	14	FR1	1	R1425D
1401.079	3.633	1403125	PROB	3.633	n/a	n/a	-999	12	[2, 9, 4]	15	FR1	1	R1425D
1404.712	4.151	1406757	PROB	4.151	n/a	n/a	-999	12	[2, 9, 3]	14	FR1	1	R1425D
1408.863	4.235	1410908	PROB	4.235	n/a	n/a	-999	12	[1, 2, 6]	9	FR1	1	R1425D
1413.098	3.366	1415143	PROB	3.366	n/a	n/a	-999	12	[5, 8, 1]	14	FR1	1	R1425D
1416.464	0.0	1418488	DISTRACT_END	n/a	n/a	n/a	-999	12	[0, 0, 0]	n/a	FR1	1	R1425D
1416.45	2.365	1418495	STOP	n/a	n/a	n/a	-999	12	[-999, -999, -999]	n/a	FR1	1	R1425D
1418.815	1.017	1420855	REC_START	n/a	n/a	n/a	-999	12	[0, 0, 0]	n/a	FR1	1	R1425D
1419.832	0.622	1421877	REC_WORD	0.622	n/a	BLOOM	12	12	[0, 0, 0]	n/a	FR1	1	R1425D
1420.454	1.643	1422499	REC_WORD	1.643	n/a	YARD	11	12	[0, 0, 0]	n/a	FR1	1	R1425D
1422.097	3.465	1424142	REC_WORD	3.465	n/a	FARM	7	12	[0, 0, 0]	n/a	FR1	1	R1425D
1425.562	1.113	1427606	REC_WORD	1.113	n/a	WHALE	3	12	[0, 0, 0]	n/a	FR1	1	R1425D
1426.675	16.178	1428719	REC_WORD	16.178	n/a	DOCK	8	12	[0, 0, 0]	n/a	FR1	1	R1425D
1442.853	1.717	1444897	REC_WORD_VV	1.717	n/a	<>	-999	12	[0, 0, 0]	n/a	FR1	1	R1425D
1444.57	4.257	1446613	REC_WORD_VV	4.257	n/a	<>	-999	12	[0, 0, 0]	n/a	FR1	1	R1425D
1448.827	3.195	1450876	REC_END	n/a	n/a	n/a	-999	12	[0, 0, 0]	n/a	FR1	1	R1425D
1452.022	10.429	1454078	COUNTDOWN_START	n/a	n/a	n/a	-999	13	[0, 0, 0]	n/a	FR1	1	R1425D
1462.451	1.156	1464486	COUNTDOWN_END	n/a	n/a	n/a	-999	13	[0, 0, 0]	n/a	FR1	1	R1425D
1463.607	1.044	1465634	ENCODING_START	n/a	n/a	n/a	-999	13	[0, 0, 0]	n/a	FR1	1	R1425D
1464.651	1.622	1466679	WORD	n/a	wordpools/wordpool_EN.txt	HOLE	1	13	[0, 0, 0]	n/a	FR1	1	R1425D
1466.273	1.073	1468297	WORD_OFF	n/a	n/a	HOLE	1	13	[0, 0, 0]	n/a	FR1	1	R1425D
1467.346	1.628	1469376	WORD	n/a	wordpools/wordpool_EN.txt	PALM	2	13	[0, 0, 0]	n/a	FR1	1	R1425D
1468.974	0.945	1470995	WORD_OFF	n/a	n/a	PALM	2	13	[0, 0, 0]	n/a	FR1	1	R1425D
1469.919	1.622	1471952	WORD	n/a	wordpools/wordpool_EN.txt	WOLF	3	13	[0, 0, 0]	n/a	FR1	1	R1425D
1471.541	0.821	1473570	WORD_OFF	n/a	n/a	WOLF	3	13	[0, 0, 0]	n/a	FR1	1	R1425D
1472.362	1.629	1474406	WORD	n/a	wordpools/wordpool_EN.txt	CLOCK	4	13	[0, 0, 0]	n/a	FR1	1	R1425D
1473.991	0.902	1476024	WORD_OFF	n/a	n/a	CLOCK	4	13	[0, 0, 0]	n/a	FR1	1	R1425D
1474.893	1.632	1476929	WORD	n/a	wordpools/wordpool_EN.txt	MOOSE	5	13	[0, 0, 0]	n/a	FR1	1	R1425D
1476.525	0.905	1478548	WORD_OFF	n/a	n/a	MOOSE	5	13	[0, 0, 0]	n/a	FR1	1	R1425D
1477.43	1.613	1479470	WORD	n/a	wordpools/wordpool_EN.txt	PURSE	6	13	[0, 0, 0]	n/a	FR1	1	R1425D
1479.043	0.836	1481071	WORD_OFF	n/a	n/a	PURSE	6	13	[0, 0, 0]	n/a	FR1	1	R1425D
1479.879	1.63	1481924	WORD	n/a	wordpools/wordpool_EN.txt	BRUSH	7	13	[0, 0, 0]	n/a	FR1	1	R1425D
1481.509	0.966	1483543	WORD_OFF	n/a	n/a	BRUSH	7	13	[0, 0, 0]	n/a	FR1	1	R1425D
1482.475	1.636	1484517	WORD	n/a	wordpools/wordpool_EN.txt	WORM	8	13	[0, 0, 0]	n/a	FR1	1	R1425D
1484.111	1.106	1486136	WORD_OFF	n/a	n/a	WORM	8	13	[0, 0, 0]	n/a	FR1	1	R1425D
1485.217	1.627	1487249	WORD	n/a	wordpools/wordpool_EN.txt	WOOD	9	13	[0, 0, 0]	n/a	FR1	1	R1425D
1486.844	1.046	1488868	WORD_OFF	n/a	n/a	WOOD	9	13	[0, 0, 0]	n/a	FR1	1	R1425D
1487.89	1.621	1489912	WORD	n/a	wordpools/wordpool_EN.txt	TENT	10	13	[0, 0, 0]	n/a	FR1	1	R1425D
1489.511	1.033	1491531	WORD_OFF	n/a	n/a	TENT	10	13	[0, 0, 0]	n/a	FR1	1	R1425D
1490.544	1.618	1492592	WORD	n/a	wordpools/wordpool_EN.txt	CLAY	11	13	[0, 0, 0]	n/a	FR1	1	R1425D
1492.162	0.915	1494193	WORD_OFF	n/a	n/a	CLAY	11	13	[0, 0, 0]	n/a	FR1	1	R1425D
1493.077	1.635	1495116	WORD	n/a	wordpools/wordpool_EN.txt	SOCK	12	13	[0, 0, 0]	n/a	FR1	1	R1425D
1494.712	0.0	1496752	WORD_OFF	n/a	n/a	SOCK	12	13	[0, 0, 0]	n/a	FR1	1	R1425D
1494.712	0.001	1496752	ENCODING_END	n/a	n/a	n/a	-999	13	[0, 0, 0]	n/a	FR1	1	R1425D
1494.713	0.0	1496752	DISTRACT_START	n/a	n/a	n/a	-999	13	[0, 0, 0]	n/a	FR1	1	R1425D
1494.713	0.015	1496754	START	n/a	n/a	n/a	-999	13	[-999, -999, -999]	n/a	FR1	1	R1425D
1494.728	4.251	1496769	PROB	4.251	n/a	n/a	-999	13	[5, 2, 9]	16	FR1	1	R1425D
1498.979	3.284	1501020	PROB	3.284	n/a	n/a	-999	13	[7, 3, 4]	14	FR1	1	R1425D
1502.263	3.467	1504303	PROB	3.467	n/a	n/a	-999	13	[5, 9, 3]	17	FR1	1	R1425D
1505.73	2.234	1507770	PROB	2.234	n/a	n/a	-999	13	[1, 1, 1]	3	FR1	1	R1425D
1507.964	2.401	1510004	PROB	2.401	n/a	n/a	-999	13	[7, 7, 1]	15	FR1	1	R1425D
1510.365	2.917	1512405	PROB	2.917	n/a	n/a	-999	13	[9, 2, 3]	14	FR1	1	R1425D
1513.282	2.667	1515322	PROB	2.667	n/a	n/a	-999	13	[7, 2, 4]	13	FR1	1	R1425D
1515.949	0.0	1517967	DISTRACT_END	n/a	n/a	n/a	-999	13	[0, 0, 0]	n/a	FR1	1	R1425D
1515.934	2.349	1517974	STOP	n/a	n/a	n/a	-999	13	[-999, -999, -999]	n/a	FR1	1	R1425D
1518.283	1.299	1520316	REC_START	n/a	n/a	n/a	-999	13	[0, 0, 0]	n/a	FR1	1	R1425D
1519.582	0.516	1521622	REC_WORD	0.516	n/a	BRUSH	7	13	[0, 0, 0]	n/a	FR1	1	R1425D
1520.098	0.879	1522138	REC_WORD	0.879	n/a	WARM	-999	13	[0, 0, 0]	n/a	FR1	1	R1425D
1520.977	0.916	1523017	REC_WORD	0.916	n/a	WOOD	9	13	[0, 0, 0]	n/a	FR1	1	R1425D
1521.893	2.486	1523932	REC_WORD	2.486	n/a	MOOSE	5	13	[0, 0, 0]	n/a	FR1	1	R1425D
1524.379	0.957	1526418	REC_WORD	0.957	n/a	CLOCK	4	13	[0, 0, 0]	n/a	FR1	1	R1425D
1525.336	18.46	1527375	REC_WORD	18.46	n/a	SOCK	12	13	[0, 0, 0]	n/a	FR1	1	R1425D
1543.796	4.5	1545834	REC_WORD	4.5	n/a	CLAY	11	13	[0, 0, 0]	n/a	FR1	1	R1425D
1548.296	5.127	1550337	REC_END	n/a	n/a	n/a	-999	13	[0, 0, 0]	n/a	FR1	1	R1425D
1553.423	10.428	1555471	COUNTDOWN_START	n/a	n/a	n/a	-999	14	[0, 0, 0]	n/a	FR1	1	R1425D
1563.851	1.091	1565878	COUNTDOWN_END	n/a	n/a	n/a	-999	14	[0, 0, 0]	n/a	FR1	1	R1425D
1564.942	0.982	1566957	ENCODING_START	n/a	n/a	n/a	-999	14	[0, 0, 0]	n/a	FR1	1	R1425D
1565.924	1.634	1567967	WORD	n/a	wordpools/wordpool_EN.txt	MAZE	1	14	[0, 0, 0]	n/a	FR1	1	R1425D
1567.558	0.884	1569585	WORD_OFF	n/a	n/a	MAZE	1	14	[0, 0, 0]	n/a	FR1	1	R1425D
1568.442	1.635	1570473	WORD	n/a	wordpools/wordpool_EN.txt	FAN	2	14	[0, 0, 0]	n/a	FR1	1	R1425D
1570.077	0.802	1572091	WORD_OFF	n/a	n/a	FAN	2	14	[0, 0, 0]	n/a	FR1	1	R1425D
1570.879	1.63	1572909	WORD	n/a	wordpools/wordpool_EN.txt	JUICE	3	14	[0, 0, 0]	n/a	FR1	1	R1425D
1572.509	0.892	1574528	WORD_OFF	n/a	n/a	JUICE	3	14	[0, 0, 0]	n/a	FR1	1	R1425D
1573.401	1.61	1575433	WORD	n/a	wordpools/wordpool_EN.txt	BOWL	4	14	[0, 0, 0]	n/a	FR1	1	R1425D
1575.011	0.84	1577034	WORD_OFF	n/a	n/a	BOWL	4	14	[0, 0, 0]	n/a	FR1	1	R1425D
1575.851	1.626	1577887	WORD	n/a	wordpools/wordpool_EN.txt	RAKE	5	14	[0, 0, 0]	n/a	FR1	1	R1425D
1577.477	1.084	1579505	WORD_OFF	n/a	n/a	RAKE	5	14	[0, 0, 0]	n/a	FR1	1	R1425D
1578.561	1.617	1580602	WORD	n/a	wordpools/wordpool_EN.txt	LAWN	6	14	[0, 0, 0]	n/a	FR1	1	R1425D
1580.178	0.815	1582203	WORD_OFF	n/a	n/a	LAWN	6	14	[0, 0, 0]	n/a	FR1	1	R1425D
1580.993	1.635	1583038	WORD	n/a	wordpools/wordpool_EN.txt	CANE	7	14	[0, 0, 0]	n/a	FR1	1	R1425D
1582.628	1.099	1584657	WORD_OFF	n/a	n/a	CANE	7	14	[0, 0, 0]	n/a	FR1	1	R1425D
1583.727	1.635	1585771	WORD	n/a	wordpools/wordpool_EN.txt	TOOL	8	14	[0, 0, 0]	n/a	FR1	1	R1425D
1585.362	0.905	1587389	WORD_OFF	n/a	n/a	TOOL	8	14	[0, 0, 0]	n/a	FR1	1	R1425D
1586.267	1.629	1588294	WORD	n/a	wordpools/wordpool_EN.txt	DOOR	9	14	[0, 0, 0]	n/a	FR1	1	R1425D
1587.896	1.006	1589913	WORD_OFF	n/a	n/a	DOOR	9	14	[0, 0, 0]	n/a	FR1	1	R1425D
1588.902	1.627	1590939	WORD	n/a	wordpools/wordpool_EN.txt	VEST	10	14	[0, 0, 0]	n/a	FR1	1	R1425D
1590.529	1.058	1592558	WORD_OFF	n/a	n/a	VEST	10	14	[0, 0, 0]	n/a	FR1	1	R1425D
1591.587	1.626	1593620	WORD	n/a	wordpools/wordpool_EN.txt	PASTE	11	14	[0, 0, 0]	n/a	FR1	1	R1425D
1593.213	0.984	1595238	WORD_OFF	n/a	n/a	PASTE	11	14	[0, 0, 0]	n/a	FR1	1	R1425D
1594.197	1.633	1596230	WORD	n/a	wordpools/wordpool_EN.txt	SMOKE	12	14	[0, 0, 0]	n/a	FR1	1	R1425D
1595.83	0.001	1597866	WORD_OFF	n/a	n/a	SMOKE	12	14	[0, 0, 0]	n/a	FR1	1	R1425D
1595.831	0.0	1597866	ENCODING_END	n/a	n/a	n/a	-999	14	[0, 0, 0]	n/a	FR1	1	R1425D
1595.831	0.0	1597866	DISTRACT_START	n/a	n/a	n/a	-999	14	[0, 0, 0]	n/a	FR1	1	R1425D
1595.831	0.016	1597867	START	n/a	n/a	n/a	-999	14	[-999, -999, -999]	n/a	FR1	1	R1425D
1595.847	3.434	1597883	PROB	3.434	n/a	n/a	-999	14	[2, 8, 2]	12	FR1	1	R1425D
1599.281	8.952	1601317	PROB	8.952	n/a	n/a	-999	14	[9, 7, 8]	24	FR1	1	R1425D
1608.233	3.183	1610268	PROB	3.183	n/a	n/a	-999	14	[4, 8, 7]	19	FR1	1	R1425D
1611.416	4.699	1613451	PROB	4.699	n/a	n/a	-999	14	[9, 5, 4]	18	FR1	1	R1425D
1616.115	0.02	1618150	STOP	n/a	n/a	n/a	-999	14	[-999, -999, -999]	n/a	FR1	1	R1425D
1616.135	2.267	1618159	DISTRACT_END	n/a	n/a	n/a	-999	14	[0, 0, 0]	n/a	FR1	1	R1425D
1618.402	2.338	1620438	REC_START	n/a	n/a	n/a	-999	14	[0, 0, 0]	n/a	FR1	1	R1425D
1620.74	1.002	1622774	REC_WORD	1.002	n/a	RAKE	5	14	[0, 0, 0]	n/a	FR1	1	R1425D
1621.742	3.284	1623776	REC_WORD	3.284	n/a	LAWN	6	14	[0, 0, 0]	n/a	FR1	1	R1425D
1625.026	3.796	1627060	REC_WORD_VV	3.796	n/a	<>	-999	14	[0, 0, 0]	n/a	FR1	1	R1425D
1628.822	10.757	1630856	REC_WORD_VV	10.757	n/a	<>	-999	14	[0, 0, 0]	n/a	FR1	1	R1425D
1639.579	8.836	1641612	REC_WORD_VV	8.836	n/a	<>	-999	14	[0, 0, 0]	n/a	FR1	1	R1425D
1648.415	4.493	1650442	REC_END	n/a	n/a	n/a	-999	14	[0, 0, 0]	n/a	FR1	1	R1425D
1652.908	10.428	1654967	COUNTDOWN_START	n/a	n/a	n/a	-999	15	[0, 0, 0]	n/a	FR1	1	R1425D
1663.336	1.191	1665357	COUNTDOWN_END	n/a	n/a	n/a	-999	15	[0, 0, 0]	n/a	FR1	1	R1425D
1664.527	0.984	1666540	ENCODING_START	n/a	n/a	n/a	-999	15	[0, 0, 0]	n/a	FR1	1	R1425D
1665.511	1.633	1667550	WORD	n/a	wordpools/wordpool_EN.txt	BATH	1	15	[0, 0, 0]	n/a	FR1	1	R1425D
1667.144	0.846	1669168	WORD_OFF	n/a	n/a	BATH	1	15	[0, 0, 0]	n/a	FR1	1	R1425D
1667.99	1.637	1670021	WORD	n/a	wordpools/wordpool_EN.txt	BALL	2	15	[0, 0, 0]	n/a	FR1	1	R1425D
1669.627	1.102	1671639	WORD_OFF	n/a	n/a	BALL	2	15	[0, 0, 0]	n/a	FR1	1	R1425D
1670.729	1.632	1672753	WORD	n/a	wordpools/wordpool_EN.txt	SMILE	3	15	[0, 0, 0]	n/a	FR1	1	R1425D
1672.361	1.022	1674372	WORD_OFF	n/a	n/a	SMILE	3	15	[0, 0, 0]	n/a	FR1	1	R1425D
1673.383	1.63	1675416	WORD	n/a	wordpools/wordpool_EN.txt	SNAKE	4	15	[0, 0, 0]	n/a	FR1	1	R1425D
1675.013	0.994	1677035	WORD_OFF	n/a	n/a	SNAKE	4	15	[0, 0, 0]	n/a	FR1	1	R1425D
1676.007	1.622	1678027	WORD	n/a	wordpools/wordpool_EN.txt	PEARL	5	15	[0, 0, 0]	n/a	FR1	1	R1425D
1677.629	0.762	1679645	WORD_OFF	n/a	n/a	PEARL	5	15	[0, 0, 0]	n/a	FR1	1	R1425D
1678.391	1.639	1680428	WORD	n/a	wordpools/wordpool_EN.txt	FOOD	6	15	[0, 0, 0]	n/a	FR1	1	R1425D
1680.03	0.968	1682047	WORD_OFF	n/a	n/a	FOOD	6	15	[0, 0, 0]	n/a	FR1	1	R1425D
1680.998	1.632	1683021	WORD	n/a	wordpools/wordpool_EN.txt	BEAR	7	15	[0, 0, 0]	n/a	FR1	1	R1425D
1682.63	1.11	1684640	WORD_OFF	n/a	n/a	BEAR	7	15	[0, 0, 0]	n/a	FR1	1	R1425D
1683.74	1.624	1685754	WORD	n/a	wordpools/wordpool_EN.txt	STREET	8	15	[0, 0, 0]	n/a	FR1	1	R1425D
1685.364	0.89	1687372	WORD_OFF	n/a	n/a	STREET	8	15	[0, 0, 0]	n/a	FR1	1	R1425D
1686.254	1.627	1688277	WORD	n/a	wordpools/wordpool_EN.txt	OAK	9	15	[0, 0, 0]	n/a	FR1	1	R1425D
1687.881	1.134	1689896	WORD_OFF	n/a	n/a	OAK	9	15	[0, 0, 0]	n/a	FR1	1	R1425D
1689.015	1.633	1691044	WORD	n/a	wordpools/wordpool_EN.txt	FILM	10	15	[0, 0, 0]	n/a	FR1	1	R1425D
1690.648	1.111	1692663	WORD_OFF	n/a	n/a	FILM	10	15	[0, 0, 0]	n/a	FR1	1	R1425D
1691.759	1.623	1693777	WORD	n/a	wordpools/wordpool_EN.txt	VAN	11	15	[0, 0, 0]	n/a	FR1	1	R1425D
1693.382	0.955	1695395	WORD_OFF	n/a	n/a	VAN	11	15	[0, 0, 0]	n/a	FR1	1	R1425D
1694.337	1.628	1696370	WORD	n/a	wordpools/wordpool_EN.txt	CLIFF	12	15	[0, 0, 0]	n/a	FR1	1	R1425D
1695.965	0.001	1697988	WORD_OFF	n/a	n/a	CLIFF	12	15	[0, 0, 0]	n/a	FR1	1	R1425D
1695.966	0.0	1697997	START	n/a	n/a	n/a	-999	15	[-999, -999, -999]	n/a	FR1	1	R1425D
1695.966	0.0	1698006	ENCODING_END	n/a	n/a	n/a	-999	15	[0, 0, 0]	n/a	FR1	1	R1425D
1695.966	0.016	1698006	DISTRACT_START	n/a	n/a	n/a	-999	15	[0, 0, 0]	n/a	FR1	1	R1425D
1695.982	4.584	1698013	PROB	4.584	n/a	n/a	-999	15	[5, 2, 4]	11	FR1	1	R1425D
1700.566	3.251	1702596	PROB	3.251	n/a	n/a	-999	15	[2, 2, 6]	10	FR1	1	R1425D
1703.817	3.534	1705847	PROB	3.534	n/a	n/a	-999	15	[6, 9, 1]	16	FR1	1	R1425D
1707.351	4.651	1709381	PROB	4.651	n/a	n/a	-999	15	[2, 2, 5]	9	FR1	1	R1425D
1712.002	3.034	1714032	PROB	3.034	n/a	n/a	-999	15	[2, 1, 6]	9	FR1	1	R1425D
1715.036	4.35	1717066	PROB	4.35	n/a	n/a	-999	15	[9, 8, 7]	24	FR1	1	R1425D
1719.386	0.0	1721396	DISTRACT_END	n/a	n/a	n/a	-999	15	[0, 0, 0]	n/a	FR1	1	R1425D
1719.373	2.348	1721402	STOP	n/a	n/a	n/a	-999	15	[-999, -999, -999]	n/a	FR1	1	R1425D
1721.721	1.796	1723745	REC_START	n/a	n/a	n/a	-999	15	[0, 0, 0]	n/a	FR1	1	R1425D
1723.517	0.553	1725546	REC_WORD	0.553	n/a	BEAR	7	15	[0, 0, 0]	n/a	FR1	1	R1425D
1724.07	2.959	1726099	REC_WORD	2.959	n/a	STREET	8	15	[0, 0, 0]	n/a	FR1	1	R1425D
1727.029	6.655	1729058	REC_WORD_VV	6.655	n/a	<>	-999	15	[0, 0, 0]	n/a	FR1	1	R1425D
1733.684	8.128	1735713	REC_WORD_VV	8.128	n/a	<>	-999	15	[0, 0, 0]	n/a	FR1	1	R1425D
1741.812	9.92	1743840	REC_WORD	9.92	n/a	BALL	2	15	[0, 0, 0]	n/a	FR1	1	R1425D
1751.732	7.046	1753766	REC_END	n/a	n/a	n/a	-999	15	[0, 0, 0]	n/a	FR1	1	R1425D
1758.778	10.428	1760815	COUNTDOWN_START	n/a	n/a	n/a	-999	16	[0, 0, 0]	n/a	FR1	1	R1425D
1769.206	1.057	1771222	COUNTDOWN_END	n/a	n/a	n/a	-999	16	[0, 0, 0]	n/a	FR1	1	R1425D
1770.263	0.82	1772284	ENCODING_START	n/a	n/a	n/a	-999	16	[0, 0, 0]	n/a	FR1	1	R1425D
1771.083	1.63	1773102	WORD	n/a	wordpools/wordpool_EN.txt	GEESE	1	16	[0, 0, 0]	n/a	FR1	1	R1425D
1772.713	0.964	1774720	WORD_OFF	n/a	n/a	GEESE	1	16	[0, 0, 0]	n/a	FR1	1	R1425D
1773.677	1.636	1775712	WORD	n/a	wordpools/wordpool_EN.txt	BRICK	2	16	[0, 0, 0]	n/a	FR1	1	R1425D
1775.313	0.781	1777331	WORD_OFF	n/a	n/a	BRICK	2	16	[0, 0, 0]	n/a	FR1	1	R1425D
1776.094	1.636	1778131	WORD	n/a	wordpools/wordpool_EN.txt	BROOM	3	16	[0, 0, 0]	n/a	FR1	1	R1425D
1777.73	0.838	1779732	WORD_OFF	n/a	n/a	BROOM	3	16	[0, 0, 0]	n/a	FR1	1	R1425D
1778.568	1.63	1780585	WORD	n/a	wordpools/wordpool_EN.txt	CLOUD	4	16	[0, 0, 0]	n/a	FR1	1	R1425D
1780.198	0.833	1782204	WORD_OFF	n/a	n/a	CLOUD	4	16	[0, 0, 0]	n/a	FR1	1	R1425D
1781.031	1.634	1783057	WORD	n/a	wordpools/wordpool_EN.txt	CAGE	5	16	[0, 0, 0]	n/a	FR1	1	R1425D
1782.665	0.879	1784675	WORD_OFF	n/a	n/a	CAGE	5	16	[0, 0, 0]	n/a	FR1	1	R1425D
1783.544	1.639	1785580	WORD	n/a	wordpools/wordpool_EN.txt	ROOM	6	16	[0, 0, 0]	n/a	FR1	1	R1425D
1785.183	0.769	1787199	WORD_OFF	n/a	n/a	ROOM	6	16	[0, 0, 0]	n/a	FR1	1	R1425D
1785.952	1.63	1787982	WORD	n/a	wordpools/wordpool_EN.txt	FACE	7	16	[0, 0, 0]	n/a	FR1	1	R1425D
1787.582	0.811	1789600	WORD_OFF	n/a	n/a	FACE	7	16	[0, 0, 0]	n/a	FR1	1	R1425D
1788.393	1.624	1790401	WORD	n/a	wordpools/wordpool_EN.txt	HOSE	8	16	[0, 0, 0]	n/a	FR1	1	R1425D
1790.017	0.809	1792019	WORD_OFF	n/a	n/a	HOSE	8	16	[0, 0, 0]	n/a	FR1	1	R1425D
1790.826	1.624	1792837	WORD	n/a	wordpools/wordpool_EN.txt	SWAMP	9	16	[0, 0, 0]	n/a	FR1	1	R1425D
1792.45	0.808	1794456	WORD_OFF	n/a	n/a	SWAMP	9	16	[0, 0, 0]	n/a	FR1	1	R1425D
1793.258	1.625	1795274	WORD	n/a	wordpools/wordpool_EN.txt	MOUTH	10	16	[0, 0, 0]	n/a	FR1	1	R1425D
1794.883	0.938	1796892	WORD_OFF	n/a	n/a	MOUTH	10	16	[0, 0, 0]	n/a	FR1	1	R1425D
1795.821	1.63	1797850	WORD	n/a	wordpools/wordpool_EN.txt	SEAT	11	16	[0, 0, 0]	n/a	FR1	1	R1425D
1797.451	1.029	1799468	WORD_OFF	n/a	n/a	SEAT	11	16	[0, 0, 0]	n/a	FR1	1	R1425D
1798.48	1.623	1800495	WORD	n/a	wordpools/wordpool_EN.txt	SHIELD	12	16	[0, 0, 0]	n/a	FR1	1	R1425D
1800.103	0.0	1802128	START	n/a	n/a	n/a	-999	16	[-999, -999, -999]	n/a	FR1	1	R1425D
1800.102	0.001	1802131	WORD_OFF	n/a	n/a	SHIELD	12	16	[0, 0, 0]	n/a	FR1	1	R1425D
1800.103	0.0	1802131	ENCODING_END	n/a	n/a	n/a	-999	16	[0, 0, 0]	n/a	FR1	1	R1425D
1800.103	0.016	1802131	DISTRACT_START	n/a	n/a	n/a	-999	16	[0, 0, 0]	n/a	FR1	1	R1425D
1800.119	4.366	1802144	PROB	4.366	n/a	n/a	-999	16	[6, 1, 7]	14	FR1	1	R1425D
1804.485	3.284	1806510	PROB	3.284	n/a	n/a	-999	16	[9, 8, 5]	22	FR1	1	R1425D
1807.769	3.285	1809794	PROB	3.285	n/a	n/a	-999	16	[2, 5, 5]	12	FR1	1	R1425D
1811.054	5.018	1813079	PROB	5.018	n/a	n/a	-999	16	[4, 1, 7]	12	FR1	1	R1425D
1816.072	3.199	1818096	PROB	3.199	n/a	n/a	-999	16	[2, 3, 3]	8	FR1	1	R1425D
1819.271	5.28	1821295	PROB	5.28	n/a	n/a	-999	16	[9, 6, 4]	19	FR1	1	R1425D
1824.551	0.021	1826575	STOP	n/a	n/a	n/a	-999	16	[-999, -999, -999]	n/a	FR1	1	R1425D
1824.572	2.185	1826583	DISTRACT_END	n/a	n/a	n/a	-999	16	[0, 0, 0]	n/a	FR1	1	R1425D
1826.757	1.627	1828776	REC_START	n/a	n/a	n/a	-999	16	[0, 0, 0]	n/a	FR1	1	R1425D
1828.384	0.594	1830408	REC_WORD	0.594	n/a	GEESE	1	16	[0, 0, 0]	n/a	FR1	1	R1425D
1828.978	0.869	1831002	REC_WORD	0.869	n/a	CAGE	5	16	[0, 0, 0]	n/a	FR1	1	R1425D
1829.847	0.759	1831871	REC_WORD	0.759	n/a	ROOM	6	16	[0, 0, 0]	n/a	FR1	1	R1425D
1830.606	1.078	1832630	REC_WORD	1.078	n/a	FACE	7	16	[0, 0, 0]	n/a	FR1	1	R1425D
1831.684	1.222	1833708	REC_WORD	1.222	n/a	MOUTH	10	16	[0, 0, 0]	n/a	FR1	1	R1425D
1832.906	5.118	1834929	REC_WORD	5.118	n/a	BRICK	2	16	[0, 0, 0]	n/a	FR1	1	R1425D
1838.024	18.746	1840047	REC_WORD	18.746	n/a	SHIELD	12	16	[0, 0, 0]	n/a	FR1	1	R1425D
1856.77	4.126	1858797	REC_END	n/a	n/a	n/a	-999	16	[0, 0, 0]	n/a	FR1	1	R1425D
1860.896	10.429	1862939	COUNTDOWN_START	n/a	n/a	n/a	-999	17	[0, 0, 0]	n/a	FR1	1	R1425D
1871.325	1.024	1873328	COUNTDOWN_END	n/a	n/a	n/a	-999	17	[0, 0, 0]	n/a	FR1	1	R1425D
1872.349	1.103	1874355	ENCODING_START	n/a	n/a	n/a	-999	17	[0, 0, 0]	n/a	FR1	1	R1425D
1873.452	1.631	1875469	WORD	n/a	wordpools/wordpool_EN.txt	CRANE	1	17	[0, 0, 0]	n/a	FR1	1	R1425D
1875.083	1.104	1877088	WORD_OFF	n/a	n/a	CRANE	1	17	[0, 0, 0]	n/a	FR1	1	R1425D
1876.187	1.628	1878201	WORD	n/a	wordpools/wordpool_EN.txt	NET	2	17	[0, 0, 0]	n/a	FR1	1	R1425D
1877.815	0.805	1879820	WORD_OFF	n/a	n/a	NET	2	17	[0, 0, 0]	n/a	FR1	1	R1425D
1878.62	1.629	1880638	WORD	n/a	wordpools/wordpool_EN.txt	HOOF	3	17	[0, 0, 0]	n/a	FR1	1	R1425D
1880.249	0.881	1882256	WORD_OFF	n/a	n/a	HOOF	3	17	[0, 0, 0]	n/a	FR1	1	R1425D
1881.13	1.62	1883144	WORD	n/a	wordpools/wordpool_EN.txt	CALF	4	17	[0, 0, 0]	n/a	FR1	1	R1425D
1882.75	0.92	1884763	WORD_OFF	n/a	n/a	CALF	4	17	[0, 0, 0]	n/a	FR1	1	R1425D
1883.67	1.63	1885685	WORD	n/a	wordpools/wordpool_EN.txt	MOLE	5	17	[0, 0, 0]	n/a	FR1	1	R1425D
1885.3	0.958	1887303	WORD_OFF	n/a	n/a	MOLE	5	17	[0, 0, 0]	n/a	FR1	1	R1425D
1886.258	1.626	1888278	WORD	n/a	wordpools/wordpool_EN.txt	BOOT	6	17	[0, 0, 0]	n/a	FR1	1	R1425D
1887.884	0.915	1889897	WORD_OFF	n/a	n/a	BOOT	6	17	[0, 0, 0]	n/a	FR1	1	R1425D
1888.799	1.635	1890819	WORD	n/a	wordpools/wordpool_EN.txt	TEETH	7	17	[0, 0, 0]	n/a	FR1	1	R1425D
1890.434	0.88	1892437	WORD_OFF	n/a	n/a	TEETH	7	17	[0, 0, 0]	n/a	FR1	1	R1425D
1891.314	1.638	1893342	WORD	n/a	wordpools/wordpool_EN.txt	GUARD	8	17	[0, 0, 0]	n/a	FR1	1	R1425D
1892.952	1.082	1894961	WORD_OFF	n/a	n/a	GUARD	8	17	[0, 0, 0]	n/a	FR1	1	R1425D
1894.034	1.635	1896057	WORD	n/a	wordpools/wordpool_EN.txt	PIE	9	17	[0, 0, 0]	n/a	FR1	1	R1425D
1895.669	0.854	1897676	WORD_OFF	n/a	n/a	PIE	9	17	[0, 0, 0]	n/a	FR1	1	R1425D
1896.523	1.614	1898546	WORD	n/a	wordpools/wordpool_EN.txt	CONE	10	17	[0, 0, 0]	n/a	FR1	1	R1425D
1898.137	1.007	1900147	WORD_OFF	n/a	n/a	CONE	10	17	[0, 0, 0]	n/a	FR1	1	R1425D
1899.144	1.626	1901157	WORD	n/a	wordpools/wordpool_EN.txt	HILL	11	17	[0, 0, 0]	n/a	FR1	1	R1425D
1900.77	0.953	1902775	WORD_OFF	n/a	n/a	HILL	11	17	[0, 0, 0]	n/a	FR1	1	R1425D
1901.723	1.63	1903732	WORD	n/a	wordpools/wordpool_EN.txt	SCHOOL	12	17	[0, 0, 0]	n/a	FR1	1	R1425D
1903.353	0.001	1905368	WORD_OFF	n/a	n/a	SCHOOL	12	17	[0, 0, 0]	n/a	FR1	1	R1425D
1903.354	0.001	1905368	ENCODING_END	n/a	n/a	n/a	-999	17	[0, 0, 0]	n/a	FR1	1	R1425D
1903.355	0.0	1905368	DISTRACT_START	n/a	n/a	n/a	-999	17	[0, 0, 0]	n/a	FR1	1	R1425D
1903.355	0.015	1905375	START	n/a	n/a	n/a	-999	17	[-999, -999, -999]	n/a	FR1	1	R1425D
1903.37	4.217	1905390	PROB	4.217	n/a	n/a	-999	17	[2, 6, 8]	16	FR1	1	R1425D
1907.587	5.201	1909607	PROB	5.201	n/a	n/a	-999	17	[3, 7, 7]	17	FR1	1	R1425D
1912.788	2.734	1914807	PROB	2.734	n/a	n/a	-999	17	[1, 8, 1]	10	FR1	1	R1425D
1915.522	3.718	1917541	PROB	3.718	n/a	n/a	-999	17	[6, 9, 9]	24	FR1	1	R1425D
1919.24	3.634	1921259	PROB	3.634	n/a	n/a	-999	17	[6, 9, 1]	16	FR1	1	R1425D
1922.874	5.235	1924893	PROB	5.235	n/a	n/a	-999	17	[2, 1, 3]	6	FR1	1	R1425D
1928.109	0.0	1930116	DISTRACT_END	n/a	n/a	n/a	-999	17	[0, 0, 0]	n/a	FR1	1	R1425D
1928.099	2.277	1930118	STOP	n/a	n/a	n/a	-999	17	[-999, -999, -999]	n/a	FR1	1	R1425D
1930.376	1.798	1932378	REC_START	n/a	n/a	n/a	-999	17	[0, 0, 0]	n/a	FR1	1	R1425D
1932.174	0.505	1934192	REC_WORD	0.505	n/a	PIE	9	17	[0, 0, 0]	n/a	FR1	1	R1425D
1932.679	1.435	1934697	REC_WORD	1.435	n/a	CRANE	1	17	[0, 0, 0]	n/a	FR1	1	R1425D
1934.114	0.929	1936132	REC_WORD	0.929	n/a	HILL	11	17	[0, 0, 0]	n/a	FR1	1	R1425D
1935.043	3.442	1937061	REC_WORD	3.442	n/a	SCHOOL	12	17	[0, 0, 0]	n/a	FR1	1	R1425D
1938.485	3.998	1940503	REC_WORD	3.998	n/a	CONE	10	17	[0, 0, 0]	n/a	FR1	1	R1425D
1942.483	9.073	1944501	REC_WORD_VV	9.073	n/a	<>	-999	17	[0, 0, 0]	n/a	FR1	1	R1425D
1951.556	1.317	1953573	REC_WORD	1.317	n/a	GUARD	8	17	[0, 0, 0]	n/a	FR1	1	R1425D
1952.873	7.516	1954890	REC_WORD	7.516	n/a	CALF	4	17	[0, 0, 0]	n/a	FR1	1	R1425D
1960.389	4.26	1962400	REC_END	n/a	n/a	n/a	-999	17	[0, 0, 0]	n/a	FR1	1	R1425D
1964.649	10.428	1966681	COUNTDOWN_START	n/a	n/a	n/a	-999	18	[0, 0, 0]	n/a	FR1	1	R1425D
1975.077	1.108	1977088	COUNTDOWN_END	n/a	n/a	n/a	-999	18	[0, 0, 0]	n/a	FR1	1	R1425D
1976.185	0.86	1978184	ENCODING_START	n/a	n/a	n/a	-999	18	[0, 0, 0]	n/a	FR1	1	R1425D
1977.045	1.622	1979055	WORD	n/a	wordpools/wordpool_EN.txt	PHONE	1	18	[0, 0, 0]	n/a	FR1	1	R1425D
1978.667	0.836	1980673	WORD_OFF	n/a	n/a	PHONE	1	18	[0, 0, 0]	n/a	FR1	1	R1425D
1979.503	1.632	1981508	WORD	n/a	wordpools/wordpool_EN.txt	GATE	2	18	[0, 0, 0]	n/a	FR1	1	R1425D
1981.135	1.018	1983127	WORD_OFF	n/a	n/a	GATE	2	18	[0, 0, 0]	n/a	FR1	1	R1425D
1982.153	1.632	1984171	WORD	n/a	wordpools/wordpool_EN.txt	MUD	3	18	[0, 0, 0]	n/a	FR1	1	R1425D
1983.785	0.766	1985790	WORD_OFF	n/a	n/a	MUD	3	18	[0, 0, 0]	n/a	FR1	1	R1425D
1984.551	1.619	1986573	WORD	n/a	wordpools/wordpool_EN.txt	BOX	4	18	[0, 0, 0]	n/a	FR1	1	R1425D
1986.17	0.952	1988174	WORD_OFF	n/a	n/a	BOX	4	18	[0, 0, 0]	n/a	FR1	1	R1425D
1987.122	1.631	1989131	WORD	n/a	wordpools/wordpool_EN.txt	ROPE	5	18	[0, 0, 0]	n/a	FR1	1	R1425D
1988.753	0.814	1990750	WORD_OFF	n/a	n/a	ROPE	5	18	[0, 0, 0]	n/a	FR1	1	R1425D
1989.567	1.62	1991585	WORD	n/a	wordpools/wordpool_EN.txt	SLIME	6	18	[0, 0, 0]	n/a	FR1	1	R1425D
1991.187	0.873	1993186	WORD_OFF	n/a	n/a	SLIME	6	18	[0, 0, 0]	n/a	FR1	1	R1425D
1992.06	1.627	1994074	WORD	n/a	wordpools/wordpool_EN.txt	BOY	7	18	[0, 0, 0]	n/a	FR1	1	R1425D
1993.687	1.025	1995692	WORD_OFF	n/a	n/a	BOY	7	18	[0, 0, 0]	n/a	FR1	1	R1425D
1994.712	1.625	1996719	WORD	n/a	wordpools/wordpool_EN.txt	STORE	8	18	[0, 0, 0]	n/a	FR1	1	R1425D
1996.337	0.759	1998338	WORD_OFF	n/a	n/a	STORE	8	18	[0, 0, 0]	n/a	FR1	1	R1425D
1997.096	1.625	1999103	WORD	n/a	wordpools/wordpool_EN.txt	SUN	9	18	[0, 0, 0]	n/a	FR1	1	R1425D
1998.721	1.058	2000722	WORD_OFF	n/a	n/a	SUN	9	18	[0, 0, 0]	n/a	FR1	1	R1425D
1999.779	1.626	2001784	WORD	n/a	wordpools/wordpool_EN.txt	BAG	10	18	[0, 0, 0]	n/a	FR1	1	R1425D
2001.405	0.92	2003402	WORD_OFF	n/a	n/a	BAG	10	18	[0, 0, 0]	n/a	FR1	1	R1425D
2002.325	1.63	2004342	WORD	n/a	wordpools/wordpool_EN.txt	OAR	11	18	[0, 0, 0]	n/a	FR1	1	R1425D
2003.955	0.788	2005960	WORD_OFF	n/a	n/a	OAR	11	18	[0, 0, 0]	n/a	FR1	1	R1425D
2004.743	1.629	2006761	WORD	n/a	wordpools/wordpool_EN.txt	DOLL	12	18	[0, 0, 0]	n/a	FR1	1	R1425D
2006.372	0.002	2008380	WORD_OFF	n/a	n/a	DOLL	12	18	[0, 0, 0]	n/a	FR1	1	R1425D
2006.374	0.0	2008389	START	n/a	n/a	n/a	-999	18	[-999, -999, -999]	n/a	FR1	1	R1425D
2006.373	0.0	2008397	ENCODING_END	n/a	n/a	n/a	-999	18	[0, 0, 0]	n/a	FR1	1	R1425D
2006.373	0.016	2008397	DISTRACT_START	n/a	n/a	n/a	-999	18	[0, 0, 0]	n/a	FR1	1	R1425D
2006.389	3.35	2008404	PROB	3.35	n/a	n/a	-999	18	[1, 7, 4]	12	FR1	1	R1425D
2009.739	2.568	2011753	PROB	2.568	n/a	n/a	-999	18	[3, 9, 9]	21	FR1	1	R1425D
2012.307	6.634	2014321	PROB	6.634	n/a	n/a	-999	18	[9, 3, 2]	14	FR1	1	R1425D
2018.941	4.484	2020955	PROB	4.484	n/a	n/a	-999	18	[7, 2, 4]	13	FR1	1	R1425D
2023.425	2.084	2025439	PROB	2.084	n/a	n/a	-999	18	[1, 1, 9]	11	FR1	1	R1425D
2025.509	3.315	2027523	PROB	3.315	n/a	n/a	-999	18	[4, 7, 5]	16	FR1	1	R1425D
2028.824	0.019	2030837	STOP	n/a	n/a	n/a	-999	18	[-999, -999, -999]	n/a	FR1	1	R1425D
2028.843	2.336	2030847	DISTRACT_END	n/a	n/a	n/a	-999	18	[0, 0, 0]	n/a	FR1	1	R1425D
2031.179	1.394	2033180	REC_START	n/a	n/a	n/a	-999	18	[0, 0, 0]	n/a	FR1	1	R1425D
2032.573	0.818	2034586	REC_WORD	0.818	n/a	SLIME	6	18	[0, 0, 0]	n/a	FR1	1	R1425D
2033.391	0.535	2035404	REC_WORD	0.535	n/a	BOX	4	18	[0, 0, 0]	n/a	FR1	1	R1425D
2033.926	0.894	2035939	REC_WORD	0.894	n/a	STORE	8	18	[0, 0, 0]	n/a	FR1	1	R1425D
2034.82	1.367	2036833	REC_WORD	1.367	n/a	BOY	7	18	[0, 0, 0]	n/a	FR1	1	R1425D
2036.187	25.003	2038200	REC_WORD	25.003	n/a	PHONE	1	18	[0, 0, 0]	n/a	FR1	1	R1425D
2061.19	3.194	2063200	REC_END	n/a	n/a	n/a	-999	18	[0, 0, 0]	n/a	FR1	1	R1425D
2064.384	10.429	2066420	COUNTDOWN_START	n/a	n/a	n/a	-999	19	[0, 0, 0]	n/a	FR1	1	R1425D
2074.813	1.123	2076810	COUNTDOWN_END	n/a	n/a	n/a	-999	19	[0, 0, 0]	n/a	FR1	1	R1425D
2075.936	1.066	2077941	ENCODING_START	n/a	n/a	n/a	-999	19	[0, 0, 0]	n/a	FR1	1	R1425D
2077.002	1.634	2079020	WORD	n/a	wordpools/wordpool_EN.txt	CHAIR	1	19	[0, 0, 0]	n/a	FR1	1	R1425D
2078.636	1.129	2080639	WORD_OFF	n/a	n/a	CHAIR	1	19	[0, 0, 0]	n/a	FR1	1	R1425D
2079.765	1.621	2081770	WORD	n/a	wordpools/wordpool_EN.txt	SEAL	2	19	[0, 0, 0]	n/a	FR1	1	R1425D
2081.386	1.115	2083389	WORD_OFF	n/a	n/a	SEAL	2	19	[0, 0, 0]	n/a	FR1	1	R1425D
2082.501	1.637	2084520	WORD	n/a	wordpools/wordpool_EN.txt	FRUIT	3	19	[0, 0, 0]	n/a	FR1	1	R1425D
2084.138	1.078	2086138	WORD_OFF	n/a	n/a	FRUIT	3	19	[0, 0, 0]	n/a	FR1	1	R1425D
2085.216	1.621	2087217	WORD	n/a	wordpools/wordpool_EN.txt	STRAW	4	19	[0, 0, 0]	n/a	FR1	1	R1425D
2086.837	0.792	2088836	WORD_OFF	n/a	n/a	STRAW	4	19	[0, 0, 0]	n/a	FR1	1	R1425D
2087.629	1.625	2089636	WORD	n/a	wordpools/wordpool_EN.txt	SPONGE	5	19	[0, 0, 0]	n/a	FR1	1	R1425D
2089.254	1.094	2091255	WORD_OFF	n/a	n/a	SPONGE	5	19	[0, 0, 0]	n/a	FR1	1	R1425D
2090.348	1.623	2092351	WORD	n/a	wordpools/wordpool_EN.txt	STAIR	6	19	[0, 0, 0]	n/a	FR1	1	R1425D
2091.971	0.767	2093970	WORD_OFF	n/a	n/a	STAIR	6	19	[0, 0, 0]	n/a	FR1	1	R1425D
2092.738	1.634	2094753	WORD	n/a	wordpools/wordpool_EN.txt	CHALK	7	19	[0, 0, 0]	n/a	FR1	1	R1425D
2094.372	0.878	2096372	WORD_OFF	n/a	n/a	CHALK	7	19	[0, 0, 0]	n/a	FR1	1	R1425D
2095.25	1.622	2097242	WORD	n/a	wordpools/wordpool_EN.txt	FOAM	8	19	[0, 0, 0]	n/a	FR1	1	R1425D
2096.872	0.905	2098860	WORD_OFF	n/a	n/a	FOAM	8	19	[0, 0, 0]	n/a	FR1	1	R1425D
2097.777	1.629	2099783	WORD	n/a	wordpools/wordpool_EN.txt	WEED	9	19	[0, 0, 0]	n/a	FR1	1	R1425D
2099.406	0.909	2101401	WORD_OFF	n/a	n/a	WEED	9	19	[0, 0, 0]	n/a	FR1	1	R1425D
2100.315	1.625	2102324	WORD	n/a	wordpools/wordpool_EN.txt	ARK	10	19	[0, 0, 0]	n/a	FR1	1	R1425D
2101.94	1.027	2103942	WORD_OFF	n/a	n/a	ARK	10	19	[0, 0, 0]	n/a	FR1	1	R1425D
2102.967	1.623	2104969	WORD	n/a	wordpools/wordpool_EN.txt	FLOOR	11	19	[0, 0, 0]	n/a	FR1	1	R1425D
2104.59	0.8	2106587	WORD_OFF	n/a	n/a	FLOOR	11	19	[0, 0, 0]	n/a	FR1	1	R1425D
2105.39	1.636	2107405	WORD	n/a	wordpools/wordpool_EN.txt	PEACH	12	19	[0, 0, 0]	n/a	FR1	1	R1425D
2107.026	0.0	2109035	START	n/a	n/a	n/a	-999	19	[-999, -999, -999]	n/a	FR1	1	R1425D
2107.025	0.001	2109041	WORD_OFF	n/a	n/a	PEACH	12	19	[0, 0, 0]	n/a	FR1	1	R1425D
2107.026	0.0	2109041	ENCODING_END	n/a	n/a	n/a	-999	19	[0, 0, 0]	n/a	FR1	1	R1425D
2107.026	0.016	2109041	DISTRACT_START	n/a	n/a	n/a	-999	19	[0, 0, 0]	n/a	FR1	1	R1425D
2107.042	5.266	2109051	PROB	5.266	n/a	n/a	-999	19	[6, 2, 9]	17	FR1	1	R1425D
2112.308	2.951	2114317	PROB	2.951	n/a	n/a	-999	19	[3, 4, 1]	8	FR1	1	R1425D
2115.259	2.3	2117268	PROB	2.3	n/a	n/a	-999	19	[2, 2, 3]	7	FR1	1	R1425D
2117.559	3.201	2119568	PROB	3.201	n/a	n/a	-999	19	[8, 4, 6]	18	FR1	1	R1425D
2120.76	3.434	2122769	PROB	3.434	n/a	n/a	-999	19	[1, 7, 9]	18	FR1	1	R1425D
2124.194	4.384	2126203	PROB	4.384	n/a	n/a	-999	19	[6, 5, 1]	12	FR1	1	R1425D
2128.578	0.0	2130569	DISTRACT_END	n/a	n/a	n/a	-999	19	[0, 0, 0]	n/a	FR1	1	R1425D
2128.571	2.292	2130579	STOP	n/a	n/a	n/a	-999	19	[-999, -999, -999]	n/a	FR1	1	R1425D
2130.863	1.549	2132867	REC_START	n/a	n/a	n/a	-999	19	[0, 0, 0]	n/a	FR1	1	R1425D
2132.412	0.412	2134420	REC_WORD	0.412	n/a	CHAIR	1	19	[0, 0, 0]	n/a	FR1	1	R1425D
2132.824	1.086	2134832	REC_WORD	1.086	n/a	STAIR	6	19	[0, 0, 0]	n/a	FR1	1	R1425D
2133.91	2.975	2135918	REC_WORD	2.975	n/a	CHALK	7	19	[0, 0, 0]	n/a	FR1	1	R1425D
2136.885	1.871	2138893	REC_WORD	1.871	n/a	WEED	9	19	[0, 0, 0]	n/a	FR1	1	R1425D
2138.756	6.117	2140764	REC_WORD	6.117	n/a	FRUIT	3	19	[0, 0, 0]	n/a	FR1	1	R1425D
2144.873	16.002	2146880	REC_WORD	16.002	n/a	SEAL	2	19	[0, 0, 0]	n/a	FR1	1	R1425D
2160.875	3.344	2162888	REC_END	n/a	n/a	n/a	-999	19	[0, 0, 0]	n/a	FR1	1	R1425D
2164.219	10.428	2166247	COUNTDOWN_START	n/a	n/a	n/a	-999	20	[0, 0, 0]	n/a	FR1	1	R1425D
2174.647	1.124	2176636	COUNTDOWN_END	n/a	n/a	n/a	-999	20	[0, 0, 0]	n/a	FR1	1	R1425D
2175.771	0.751	2177768	ENCODING_START	n/a	n/a	n/a	-999	20	[0, 0, 0]	n/a	FR1	1	R1425D
2176.522	1.633	2178533	WORD	n/a	wordpools/wordpool_EN.txt	EAR	1	20	[0, 0, 0]	n/a	FR1	1	R1425D
2178.155	0.859	2180152	WORD_OFF	n/a	n/a	EAR	1	20	[0, 0, 0]	n/a	FR1	1	R1425D
2179.014	1.624	2181005	WORD	n/a	wordpools/wordpool_EN.txt	STORM	2	20	[0, 0, 0]	n/a	FR1	1	R1425D
2180.638	1.07	2182623	WORD_OFF	n/a	n/a	STORM	2	20	[0, 0, 0]	n/a	FR1	1	R1425D
2181.708	1.63	2183702	WORD	n/a	wordpools/wordpool_EN.txt	CORN	3	20	[0, 0, 0]	n/a	FR1	1	R1425D
2183.338	1.135	2185321	WORD_OFF	n/a	n/a	CORN	3	20	[0, 0, 0]	n/a	FR1	1	R1425D
2184.473	1.633	2186469	WORD	n/a	wordpools/wordpool_EN.txt	CASH	4	20	[0, 0, 0]	n/a	FR1	1	R1425D
2186.106	1.036	2188088	WORD_OFF	n/a	n/a	CASH	4	20	[0, 0, 0]	n/a	FR1	1	R1425D
2187.142	1.631	2189150	WORD	n/a	wordpools/wordpool_EN.txt	GRASS	5	20	[0, 0, 0]	n/a	FR1	1	R1425D
2188.773	0.908	2190768	WORD_OFF	n/a	n/a	GRASS	5	20	[0, 0, 0]	n/a	FR1	1	R1425D
2189.681	1.625	2191673	WORD	n/a	wordpools/wordpool_EN.txt	POOL	6	20	[0, 0, 0]	n/a	FR1	1	R1425D
2191.306	0.879	2193292	WORD_OFF	n/a	n/a	POOL	6	20	[0, 0, 0]	n/a	FR1	1	R1425D
2192.185	1.622	2194179	WORD	n/a	wordpools/wordpool_EN.txt	CROW	7	20	[0, 0, 0]	n/a	FR1	1	R1425D
2193.807	0.787	2195798	WORD_OFF	n/a	n/a	CROW	7	20	[0, 0, 0]	n/a	FR1	1	R1425D
2194.594	1.63	2196598	WORD	n/a	wordpools/wordpool_EN.txt	APE	8	20	[0, 0, 0]	n/a	FR1	1	R1425D
2196.224	1.093	2198217	WORD_OFF	n/a	n/a	APE	8	20	[0, 0, 0]	n/a	FR1	1	R1425D
2197.317	1.624	2199313	WORD	n/a	wordpools/wordpool_EN.txt	SQUARE	9	20	[0, 0, 0]	n/a	FR1	1	R1425D
2198.941	1.123	2200932	WORD_OFF	n/a	n/a	SQUARE	9	20	[0, 0, 0]	n/a	FR1	1	R1425D
2200.064	1.628	2202063	WORD	n/a	wordpools/wordpool_EN.txt	BRIDGE	10	20	[0, 0, 0]	n/a	FR1	1	R1425D
2201.692	1.035	2203681	WORD_OFF	n/a	n/a	BRIDGE	10	20	[0, 0, 0]	n/a	FR1	1	R1425D
2202.727	1.632	2204726	WORD	n/a	wordpools/wordpool_EN.txt	BOAT	11	20	[0, 0, 0]	n/a	FR1	1	R1425D
2204.359	0.933	2206344	WORD_OFF	n/a	n/a	BOAT	11	20	[0, 0, 0]	n/a	FR1	1	R1425D
2205.292	1.635	2207301	WORD	n/a	wordpools/wordpool_EN.txt	CART	12	20	[0, 0, 0]	n/a	FR1	1	R1425D
2206.927	0.0	2208931	START	n/a	n/a	n/a	-999	20	[-999, -999, -999]	n/a	FR1	1	R1425D
2206.926	0.0	2208937	WORD_OFF	n/a	n/a	CART	12	20	[0, 0, 0]	n/a	FR1	1	R1425D
2206.926	0.001	2208937	ENCODING_END	n/a	n/a	n/a	-999	20	[0, 0, 0]	n/a	FR1	1	R1425D
2206.927	0.015	2208937	DISTRACT_START	n/a	n/a	n/a	-999	20	[0, 0, 0]	n/a	FR1	1	R1425D
2206.942	6.352	2208946	PROB	6.352	n/a	n/a	-999	20	[6, 8, 3]	17	FR1	1	R1425D
2213.294	3.367	2215298	PROB	3.367	n/a	n/a	-999	20	[7, 2, 9]	18	FR1	1	R1425D
2216.661	3.851	2218665	PROB	3.851	n/a	n/a	-999	20	[9, 3, 2]	14	FR1	1	R1425D
2220.512	4.15	2222516	PROB	4.15	n/a	n/a	-999	20	[9, 1, 4]	14	FR1	1	R1425D
2224.662	3.834	2226665	PROB	3.834	n/a	n/a	-999	20	[7, 4, 9]	20	FR1	1	R1425D
2228.496	0.0	2230483	DISTRACT_END	n/a	n/a	n/a	-999	20	[0, 0, 0]	n/a	FR1	1	R1425D
2228.487	2.26	2230490	STOP	n/a	n/a	n/a	-999	20	[-999, -999, -999]	n/a	FR1	1	R1425D
2230.747	0.903	2232745	REC_START	n/a	n/a	n/a	-999	20	[0, 0, 0]	n/a	FR1	1	R1425D
2231.65	0.495	2233653	REC_WORD	0.495	n/a	EAR	1	20	[0, 0, 0]	n/a	FR1	1	R1425D
2232.145	1.501	2234148	REC_WORD	1.501	n/a	CART	12	20	[0, 0, 0]	n/a	FR1	1	R1425D
2233.646	4.298	2235649	REC_WORD	4.298	n/a	STORM	2	20	[0, 0, 0]	n/a	FR1	1	R1425D
2237.944	22.816	2239947	REC_WORD_VV	22.816	n/a	<>	-999	20	[0, 0, 0]	n/a	FR1	1	R1425D
2260.76	4.094	2262766	REC_END	n/a	n/a	n/a	-999	20	[0, 0, 0]	n/a	FR1	1	R1425D
2264.854	10.428	2266874	COUNTDOWN_START	n/a	n/a	n/a	-999	21	[0, 0, 0]	n/a	FR1	1	R1425D
2275.282	1.191	2277281	COUNTDOWN_END	n/a	n/a	n/a	-999	21	[0, 0, 0]	n/a	FR1	1	R1425D
2276.473	0.989	2278464	ENCODING_START	n/a	n/a	n/a	-999	21	[0, 0, 0]	n/a	FR1	1	R1425D
2277.462	1.628	2279456	WORD	n/a	wordpools/wordpool_EN.txt	LIP	1	21	[0, 0, 0]	n/a	FR1	1	R1425D
2279.09	1.092	2281075	WORD_OFF	n/a	n/a	LIP	1	21	[0, 0, 0]	n/a	FR1	1	R1425D
2280.182	1.624	2282171	WORD	n/a	wordpools/wordpool_EN.txt	BOMB	2	21	[0, 0, 0]	n/a	FR1	1	R1425D
2281.806	0.921	2283790	WORD_OFF	n/a	n/a	BOMB	2	21	[0, 0, 0]	n/a	FR1	1	R1425D
2282.727	1.63	2284729	WORD	n/a	wordpools/wordpool_EN.txt	TEA	3	21	[0, 0, 0]	n/a	FR1	1	R1425D
2284.357	1.06	2286348	WORD_OFF	n/a	n/a	TEA	3	21	[0, 0, 0]	n/a	FR1	1	R1425D
2285.417	1.608	2287410	WORD	n/a	wordpools/wordpool_EN.txt	JUDGE	4	21	[0, 0, 0]	n/a	FR1	1	R1425D
2287.025	0.914	2289011	WORD_OFF	n/a	n/a	JUDGE	4	21	[0, 0, 0]	n/a	FR1	1	R1425D
2287.939	1.635	2289933	WORD	n/a	wordpools/wordpool_EN.txt	SHEET	5	21	[0, 0, 0]	n/a	FR1	1	R1425D
2289.574	0.783	2291552	WORD_OFF	n/a	n/a	SHEET	5	21	[0, 0, 0]	n/a	FR1	1	R1425D
2290.357	1.634	2292352	WORD	n/a	wordpools/wordpool_EN.txt	CROWN	6	21	[0, 0, 0]	n/a	FR1	1	R1425D
2291.991	0.976	2293971	WORD_OFF	n/a	n/a	CROWN	6	21	[0, 0, 0]	n/a	FR1	1	R1425D
2292.967	1.625	2294963	WORD	n/a	wordpools/wordpool_EN.txt	BUSH	7	21	[0, 0, 0]	n/a	FR1	1	R1425D
2294.592	0.99	2296581	WORD_OFF	n/a	n/a	BUSH	7	21	[0, 0, 0]	n/a	FR1	1	R1425D
2295.582	1.627	2297573	WORD	n/a	wordpools/wordpool_EN.txt	ROSE	8	21	[0, 0, 0]	n/a	FR1	1	R1425D
2297.209	0.766	2299192	WORD_OFF	n/a	n/a	ROSE	8	21	[0, 0, 0]	n/a	FR1	1	R1425D
2297.975	1.634	2299975	WORD	n/a	wordpools/wordpool_EN.txt	POLE	9	21	[0, 0, 0]	n/a	FR1	1	R1425D
2299.609	1.062	2301593	WORD_OFF	n/a	n/a	POLE	9	21	[0, 0, 0]	n/a	FR1	1	R1425D
2300.671	1.622	2302655	WORD	n/a	wordpools/wordpool_EN.txt	BREAD	10	21	[0, 0, 0]	n/a	FR1	1	R1425D
2302.293	0.788	2304274	WORD_OFF	n/a	n/a	BREAD	10	21	[0, 0, 0]	n/a	FR1	1	R1425D
2303.081	1.63	2305074	WORD	n/a	wordpools/wordpool_EN.txt	BED	11	21	[0, 0, 0]	n/a	FR1	1	R1425D
2304.711	0.968	2306693	WORD_OFF	n/a	n/a	BED	11	21	[0, 0, 0]	n/a	FR1	1	R1425D
2305.679	1.633	2307685	WORD	n/a	wordpools/wordpool_EN.txt	NAIL	12	21	[0, 0, 0]	n/a	FR1	1	R1425D
2307.312	0.0	2309311	START	n/a	n/a	n/a	-999	21	[-999, -999, -999]	n/a	FR1	1	R1425D
2307.311	0.0	2309321	WORD_OFF	n/a	n/a	NAIL	12	21	[0, 0, 0]	n/a	FR1	1	R1425D
2307.311	0.001	2309321	ENCODING_END	n/a	n/a	n/a	-999	21	[0, 0, 0]	n/a	FR1	1	R1425D
2307.312	0.016	2309321	DISTRACT_START	n/a	n/a	n/a	-999	21	[0, 0, 0]	n/a	FR1	1	R1425D
2307.328	8.702	2309327	PROB	8.702	n/a	n/a	-999	21	[7, 1, 8]	16	FR1	1	R1425D
2316.03	2.916	2318029	PROB	2.916	n/a	n/a	-999	21	[8, 4, 7]	19	FR1	1	R1425D
2318.946	3.251	2320945	PROB	3.251	n/a	n/a	-999	21	[1, 9, 3]	13	FR1	1	R1425D
2322.197	3.717	2324195	PROB	3.717	n/a	n/a	-999	21	[5, 2, 7]	14	FR1	1	R1425D
2325.914	2.784	2327912	PROB	2.784	n/a	n/a	-999	21	[7, 2, 4]	13	FR1	1	R1425D
2328.698	0.0	2330675	DISTRACT_END	n/a	n/a	n/a	-999	21	[0, 0, 0]	n/a	FR1	1	R1425D
2328.679	2.254	2330677	STOP	n/a	n/a	n/a	-999	21	[-999, -999, -999]	n/a	FR1	1	R1425D
2330.933	0.507	2332920	REC_START	n/a	n/a	n/a	-999	21	[0, 0, 0]	n/a	FR1	1	R1425D
2331.44	0.946	2333438	REC_WORD	0.946	n/a	SHEET	5	21	[0, 0, 0]	n/a	FR1	1	R1425D
2332.386	0.701	2334384	REC_WORD	0.701	n/a	BED	11	21	[0, 0, 0]	n/a	FR1	1	R1425D
2333.087	1.352	2335085	REC_WORD	1.352	n/a	LIP	1	21	[0, 0, 0]	n/a	FR1	1	R1425D
2334.439	1.525	2336437	REC_WORD	1.525	n/a	BOMB	2	21	[0, 0, 0]	n/a	FR1	1	R1425D
2335.964	11.986	2337962	REC_WORD	11.986	n/a	JUDGE	4	21	[0, 0, 0]	n/a	FR1	1	R1425D
2347.95	12.994	2349947	REC_WORD	12.994	n/a	NAIL	12	21	[0, 0, 0]	n/a	FR1	1	R1425D
2360.944	3.011	2362941	REC_END	n/a	n/a	n/a	-999	21	[0, 0, 0]	n/a	FR1	1	R1425D
2363.955	10.428	2365969	COUNTDOWN_START	n/a	n/a	n/a	-999	22	[0, 0, 0]	n/a	FR1	1	R1425D
2374.383	1.158	2376376	COUNTDOWN_END	n/a	n/a	n/a	-999	22	[0, 0, 0]	n/a	FR1	1	R1425D
2375.541	1.076	2377525	ENCODING_START	n/a	n/a	n/a	-999	22	[0, 0, 0]	n/a	FR1	1	R1425D
2376.617	1.624	2378604	WORD	n/a	wordpools/wordpool_EN.txt	FENCE	1	22	[0, 0, 0]	n/a	FR1	1	R1425D
2378.241	1.116	2380222	WORD_OFF	n/a	n/a	FENCE	1	22	[0, 0, 0]	n/a	FR1	1	R1425D
2379.357	1.634	2381354	WORD	n/a	wordpools/wordpool_EN.txt	SKI	2	22	[0, 0, 0]	n/a	FR1	1	R1425D
2380.991	0.831	2382972	WORD_OFF	n/a	n/a	SKI	2	22	[0, 0, 0]	n/a	FR1	1	R1425D
2381.822	1.636	2383825	WORD	n/a	wordpools/wordpool_EN.txt	CHIEF	3	22	[0, 0, 0]	n/a	FR1	1	R1425D
2383.458	1.032	2385444	WORD_OFF	n/a	n/a	CHIEF	3	22	[0, 0, 0]	n/a	FR1	1	R1425D
2384.49	1.62	2386488	WORD	n/a	wordpools/wordpool_EN.txt	MOUSE	4	22	[0, 0, 0]	n/a	FR1	1	R1425D
2386.11	0.888	2388089	WORD_OFF	n/a	n/a	MOUSE	4	22	[0, 0, 0]	n/a	FR1	1	R1425D
2386.998	1.628	2388994	WORD	n/a	wordpools/wordpool_EN.txt	LAKE	5	22	[0, 0, 0]	n/a	FR1	1	R1425D
2388.626	0.894	2390612	WORD_OFF	n/a	n/a	LAKE	5	22	[0, 0, 0]	n/a	FR1	1	R1425D
2389.52	1.624	2391500	WORD	n/a	wordpools/wordpool_EN.txt	LEG	6	22	[0, 0, 0]	n/a	FR1	1	R1425D
2391.144	1.073	2393118	WORD_OFF	n/a	n/a	LEG	6	22	[0, 0, 0]	n/a	FR1	1	R1425D
2392.217	1.626	2394197	WORD	n/a	wordpools/wordpool_EN.txt	BARN	7	22	[0, 0, 0]	n/a	FR1	1	R1425D
2393.843	0.999	2395816	WORD_OFF	n/a	n/a	BARN	7	22	[0, 0, 0]	n/a	FR1	1	R1425D
2394.842	1.635	2396843	WORD	n/a	wordpools/wordpool_EN.txt	RUG	8	22	[0, 0, 0]	n/a	FR1	1	R1425D
2396.477	0.91	2398461	WORD_OFF	n/a	n/a	RUG	8	22	[0, 0, 0]	n/a	FR1	1	R1425D
2397.387	1.625	2399366	WORD	n/a	wordpools/wordpool_EN.txt	FOG	9	22	[0, 0, 0]	n/a	FR1	1	R1425D
2399.012	0.94	2400985	WORD_OFF	n/a	n/a	FOG	9	22	[0, 0, 0]	n/a	FR1	1	R1425D
2399.952	1.626	2401942	WORD	n/a	wordpools/wordpool_EN.txt	ROAD	10	22	[0, 0, 0]	n/a	FR1	1	R1425D
2401.578	0.787	2403560	WORD_OFF	n/a	n/a	ROAD	10	22	[0, 0, 0]	n/a	FR1	1	R1425D
2402.365	1.63	2404361	WORD	n/a	wordpools/wordpool_EN.txt	COUCH	11	22	[0, 0, 0]	n/a	FR1	1	R1425D
2403.995	0.825	2405980	WORD_OFF	n/a	n/a	COUCH	11	22	[0, 0, 0]	n/a	FR1	1	R1425D
2404.82	1.626	2406815	WORD	n/a	wordpools/wordpool_EN.txt	SHIP	12	22	[0, 0, 0]	n/a	FR1	1	R1425D
2406.446	0.0	2408433	WORD_OFF	n/a	n/a	SHIP	12	22	[0, 0, 0]	n/a	FR1	1	R1425D
2406.446	0.001	2408433	ENCODING_END	n/a	n/a	n/a	-999	22	[0, 0, 0]	n/a	FR1	1	R1425D
2406.447	0.0	2408441	START	n/a	n/a	n/a	-999	22	[-999, -999, -999]	n/a	FR1	1	R1425D
2406.447	0.015	2408451	DISTRACT_START	n/a	n/a	n/a	-999	22	[0, 0, 0]	n/a	FR1	1	R1425D
2406.462	5.035	2408456	PROB	5.035	n/a	n/a	-999	22	[7, 1, 2]	10	FR1	1	R1425D
2411.497	3.618	2413491	PROB	3.618	n/a	n/a	-999	22	[7, 1, 8]	16	FR1	1	R1425D
2415.115	3.45	2417109	PROB	3.45	n/a	n/a	-999	22	[1, 9, 8]	18	FR1	1	R1425D
2418.565	3.451	2420558	PROB	3.451	n/a	n/a	-999	22	[4, 2, 9]	15	FR1	1	R1425D
2422.016	3.566	2424009	PROB	3.566	n/a	n/a	-999	22	[5, 8, 3]	16	FR1	1	R1425D
2425.582	3.315	2427575	PROB	3.315	n/a	n/a	-999	22	[5, 8, 6]	19	FR1	1	R1425D
2428.897	0.02	2430890	STOP	n/a	n/a	n/a	-999	22	[-999, -999, -999]	n/a	FR1	1	R1425D
2428.917	2.235	2430901	DISTRACT_END	n/a	n/a	n/a	-999	22	[0, 0, 0]	n/a	FR1	1	R1425D
2431.152	2.202	2433129	REC_START	n/a	n/a	n/a	-999	22	[0, 0, 0]	n/a	FR1	1	R1425D
2433.354	0.945	2435347	REC_WORD	0.945	n/a	LEG	6	22	[0, 0, 0]	n/a	FR1	1	R1425D
2434.299	2.941	2436292	REC_WORD	2.941	n/a	SHIP	12	22	[0, 0, 0]	n/a	FR1	1	R1425D
2437.24	3.031	2439232	REC_WORD	3.031	n/a	FENCE	1	22	[0, 0, 0]	n/a	FR1	1	R1425D
2440.271	0.995	2442263	REC_WORD	0.995	n/a	RUG	8	22	[0, 0, 0]	n/a	FR1	1	R1425D
2441.266	7.968	2443258	REC_WORD	7.968	n/a	FOG	9	22	[0, 0, 0]	n/a	FR1	1	R1425D
2449.234	6.76	2451226	REC_WORD	6.76	n/a	PAINT	-999	22	[0, 0, 0]	n/a	FR1	1	R1425D
2455.994	5.17	2457985	REC_WORD	5.17	n/a	ROAD	10	22	[0, 0, 0]	n/a	FR1	1	R1425D
2461.164	3.193	2463167	REC_END	n/a	n/a	n/a	-999	22	[0, 0, 0]	n/a	FR1	1	R1425D
2464.357	10.429	2466370	COUNTDOWN_START	n/a	n/a	n/a	-999	23	[0, 0, 0]	n/a	FR1	1	R1425D
2474.786	1.09	2476760	COUNTDOWN_END	n/a	n/a	n/a	-999	23	[0, 0, 0]	n/a	FR1	1	R1425D
2475.876	0.833	2477856	ENCODING_START	n/a	n/a	n/a	-999	23	[0, 0, 0]	n/a	FR1	1	R1425D
2476.709	1.633	2478691	WORD	n/a	wordpools/wordpool_EN.txt	FOOT	1	23	[0, 0, 0]	n/a	FR1	1	R1425D
2478.342	1.023	2480310	WORD_OFF	n/a	n/a	FOOT	1	23	[0, 0, 0]	n/a	FR1	1	R1425D
2479.365	1.628	2481354	WORD	n/a	wordpools/wordpool_EN.txt	MOTH	2	23	[0, 0, 0]	n/a	FR1	1	R1425D
2480.993	1.04	2482973	WORD_OFF	n/a	n/a	MOTH	2	23	[0, 0, 0]	n/a	FR1	1	R1425D
2482.033	1.627	2484017	WORD	n/a	wordpools/wordpool_EN.txt	TOY	3	23	[0, 0, 0]	n/a	FR1	1	R1425D
2483.66	0.836	2485635	WORD_OFF	n/a	n/a	TOY	3	23	[0, 0, 0]	n/a	FR1	1	R1425D
2484.496	1.632	2486488	WORD	n/a	wordpools/wordpool_EN.txt	BEE	4	23	[0, 0, 0]	n/a	FR1	1	R1425D
2486.128	0.885	2488107	WORD_OFF	n/a	n/a	BEE	4	23	[0, 0, 0]	n/a	FR1	1	R1425D
2487.013	1.631	2488994	WORD	n/a	wordpools/wordpool_EN.txt	ROOT	5	23	[0, 0, 0]	n/a	FR1	1	R1425D
2488.644	1.134	2490613	WORD_OFF	n/a	n/a	ROOT	5	23	[0, 0, 0]	n/a	FR1	1	R1425D
2489.778	1.633	2491761	WORD	n/a	wordpools/wordpool_EN.txt	SLUSH	6	23	[0, 0, 0]	n/a	FR1	1	R1425D
2491.411	1.015	2493380	WORD_OFF	n/a	n/a	SLUSH	6	23	[0, 0, 0]	n/a	FR1	1	R1425D
2492.426	1.637	2494424	WORD	n/a	wordpools/wordpool_EN.txt	GLOVE	7	23	[0, 0, 0]	n/a	FR1	1	R1425D
2494.063	1.064	2496043	WORD_OFF	n/a	n/a	GLOVE	7	23	[0, 0, 0]	n/a	FR1	1	R1425D
2495.127	1.635	2497122	WORD	n/a	wordpools/wordpool_EN.txt	STEAK	8	23	[0, 0, 0]	n/a	FR1	1	R1425D
2496.762	0.887	2498740	WORD_OFF	n/a	n/a	STEAK	8	23	[0, 0, 0]	n/a	FR1	1	R1425D
2497.649	1.631	2499628	WORD	n/a	wordpools/wordpool_EN.txt	SALT	9	23	[0, 0, 0]	n/a	FR1	1	R1425D
2499.28	0.892	2501246	WORD_OFF	n/a	n/a	SALT	9	23	[0, 0, 0]	n/a	FR1	1	R1425D
2500.172	1.625	2502151	WORD	n/a	wordpools/wordpool_EN.txt	SLEEVE	10	23	[0, 0, 0]	n/a	FR1	1	R1425D
2501.797	1.05	2503770	WORD_OFF	n/a	n/a	SLEEVE	10	23	[0, 0, 0]	n/a	FR1	1	R1425D
2502.847	1.633	2504831	WORD	n/a	wordpools/wordpool_EN.txt	DOG	11	23	[0, 0, 0]	n/a	FR1	1	R1425D
2504.48	1.031	2506450	WORD_OFF	n/a	n/a	DOG	11	23	[0, 0, 0]	n/a	FR1	1	R1425D
2505.511	1.638	2507512	WORD	n/a	wordpools/wordpool_EN.txt	STAR	12	23	[0, 0, 0]	n/a	FR1	1	R1425D
2507.149	0.0	2509130	WORD_OFF	n/a	n/a	STAR	12	23	[0, 0, 0]	n/a	FR1	1	R1425D
2507.149	0.0	2509138	START	n/a	n/a	n/a	-999	23	[-999, -999, -999]	n/a	FR1	1	R1425D
2507.149	0.0	2509148	ENCODING_END	n/a	n/a	n/a	-999	23	[0, 0, 0]	n/a	FR1	1	R1425D
2507.149	0.016	2509148	DISTRACT_START	n/a	n/a	n/a	-999	23	[0, 0, 0]	n/a	FR1	1	R1425D
2507.165	4.25	2509154	PROB	4.25	n/a	n/a	-999	23	[8, 4, 7]	19	FR1	1	R1425D
2511.415	3.602	2513404	PROB	3.602	n/a	n/a	-999	23	[3, 1, 3]	7	FR1	1	R1425D
2515.017	2.866	2517005	PROB	2.866	n/a	n/a	-999	23	[8, 1, 8]	17	FR1	1	R1425D
2517.883	3.067	2519871	PROB	3.067	n/a	n/a	-999	23	[2, 1, 9]	12	FR1	1	R1425D
2520.95	2.334	2522938	PROB	2.334	n/a	n/a	-999	23	[3, 5, 5]	13	FR1	1	R1425D
2523.284	3.35	2525272	PROB	3.35	n/a	n/a	-999	23	[4, 8, 2]	14	FR1	1	R1425D
2526.634	2.637	2528622	PROB	2.637	n/a	n/a	-999	23	[4, 6, 4]	14	FR1	1	R1425D
2529.271	0.014	2531259	STOP	n/a	n/a	n/a	-999	23	[-999, -999, -999]	n/a	FR1	1	R1425D
2529.285	2.168	2531267	DISTRACT_END	n/a	n/a	n/a	-999	23	[0, 0, 0]	n/a	FR1	1	R1425D
2531.453	3.031	2533425	REC_START	n/a	n/a	n/a	-999	23	[0, 0, 0]	n/a	FR1	1	R1425D
2534.484	0.509	2536471	REC_WORD	0.509	n/a	SALT	9	23	[0, 0, 0]	n/a	FR1	1	R1425D
2534.993	0.888	2536980	REC_WORD	0.888	n/a	STEAK	8	23	[0, 0, 0]	n/a	FR1	1	R1425D
2535.881	1.493	2537868	REC_WORD	1.493	n/a	SLEEVE	10	23	[0, 0, 0]	n/a	FR1	1	R1425D
2537.374	8.696	2539361	REC_WORD	8.696	n/a	FOOT	1	23	[0, 0, 0]	n/a	FR1	1	R1425D
2546.07	15.394	2548057	REC_WORD	15.394	n/a	DOG	11	23	[0, 0, 0]	n/a	FR1	1	R1425D
2561.464	3.095	2563446	REC_END	n/a	n/a	n/a	-999	23	[0, 0, 0]	n/a	FR1	1	R1425D
2564.559	10.428	2566562	COUNTDOWN_START	n/a	n/a	n/a	-999	24	[0, 0, 0]	n/a	FR1	1	R1425D
2574.987	1.192	2576969	COUNTDOWN_END	n/a	n/a	n/a	-999	24	[0, 0, 0]	n/a	FR1	1	R1425D
2576.179	0.873	2578152	ENCODING_START	n/a	n/a	n/a	-999	24	[0, 0, 0]	n/a	FR1	1	R1425D
2577.052	1.625	2579023	WORD	n/a	wordpools/wordpool_EN.txt	WAVE	1	24	[0, 0, 0]	n/a	FR1	1	R1425D
2578.677	0.762	2580641	WORD_OFF	n/a	n/a	WAVE	1	24	[0, 0, 0]	n/a	FR1	1	R1425D
2579.439	1.623	2581424	WORD	n/a	wordpools/wordpool_EN.txt	WORLD	2	24	[0, 0, 0]	n/a	FR1	1	R1425D
2581.062	0.961	2583025	WORD_OFF	n/a	n/a	WORLD	2	24	[0, 0, 0]	n/a	FR1	1	R1425D
2582.023	1.622	2584000	WORD	n/a	wordpools/wordpool_EN.txt	SUIT	3	24	[0, 0, 0]	n/a	FR1	1	R1425D
2583.645	1.078	2585618	WORD_OFF	n/a	n/a	SUIT	3	24	[0, 0, 0]	n/a	FR1	1	R1425D
2584.723	1.622	2586697	WORD	n/a	wordpools/wordpool_EN.txt	CUP	4	24	[0, 0, 0]	n/a	FR1	1	R1425D
2586.345	0.809	2588316	WORD_OFF	n/a	n/a	CUP	4	24	[0, 0, 0]	n/a	FR1	1	R1425D
2587.154	1.625	2589134	WORD	n/a	wordpools/wordpool_EN.txt	HEART	5	24	[0, 0, 0]	n/a	FR1	1	R1425D
2588.779	0.91	2590752	WORD_OFF	n/a	n/a	HEART	5	24	[0, 0, 0]	n/a	FR1	1	R1425D
2589.689	1.624	2591657	WORD	n/a	wordpools/wordpool_EN.txt	JET	6	24	[0, 0, 0]	n/a	FR1	1	R1425D
2591.313	0.876	2593276	WORD_OFF	n/a	n/a	JET	6	24	[0, 0, 0]	n/a	FR1	1	R1425D
2592.189	1.625	2594164	WORD	n/a	wordpools/wordpool_EN.txt	ICE	7	24	[0, 0, 0]	n/a	FR1	1	R1425D
2593.814	0.997	2595782	WORD_OFF	n/a	n/a	ICE	7	24	[0, 0, 0]	n/a	FR1	1	R1425D
2594.811	1.636	2596791	WORD	n/a	wordpools/wordpool_EN.txt	BEAK	8	24	[0, 0, 0]	n/a	FR1	1	R1425D
2596.447	1.021	2598410	WORD_OFF	n/a	n/a	BEAK	8	24	[0, 0, 0]	n/a	FR1	1	R1425D
2597.468	1.631	2599454	WORD	n/a	wordpools/wordpool_EN.txt	ROOF	9	24	[0, 0, 0]	n/a	FR1	1	R1425D
2599.099	0.907	2601073	WORD_OFF	n/a	n/a	ROOF	9	24	[0, 0, 0]	n/a	FR1	1	R1425D
2600.006	1.626	2601978	WORD	n/a	wordpools/wordpool_EN.txt	CHIN	10	24	[0, 0, 0]	n/a	FR1	1	R1425D
2601.632	0.773	2603596	WORD_OFF	n/a	n/a	CHIN	10	24	[0, 0, 0]	n/a	FR1	1	R1425D
2602.405	1.628	2604379	WORD	n/a	wordpools/wordpool_EN.txt	PIT	11	24	[0, 0, 0]	n/a	FR1	1	R1425D
2604.033	0.978	2605998	WORD_OFF	n/a	n/a	PIT	11	24	[0, 0, 0]	n/a	FR1	1	R1425D
2605.011	1.621	2606990	WORD	n/a	wordpools/wordpool_EN.txt	TANK	12	24	[0, 0, 0]	n/a	FR1	1	R1425D
2606.632	0.001	2608608	WORD_OFF	n/a	n/a	TANK	12	24	[0, 0, 0]	n/a	FR1	1	R1425D
2606.633	0.0	2608617	START	n/a	n/a	n/a	-999	24	[-999, -999, -999]	n/a	FR1	1	R1425D
2606.633	0.0	2608626	ENCODING_END	n/a	n/a	n/a	-999	24	[0, 0, 0]	n/a	FR1	1	R1425D
2606.633	0.016	2608626	DISTRACT_START	n/a	n/a	n/a	-999	24	[0, 0, 0]	n/a	FR1	1	R1425D
2606.649	4.502	2608633	PROB	4.502	n/a	n/a	-999	24	[5, 4, 9]	18	FR1	1	R1425D
2611.151	5.918	2613135	PROB	5.918	n/a	n/a	-999	24	[6, 9, 9]	24	FR1	1	R1425D
2617.069	3.133	2619052	PROB	3.133	n/a	n/a	-999	24	[4, 1, 4]	9	FR1	1	R1425D
2620.202	2.868	2622185	PROB	2.868	n/a	n/a	-999	24	[5, 2, 4]	11	FR1	1	R1425D
2623.07	5.817	2625053	PROB	5.817	n/a	n/a	-999	24	[9, 9, 8]	23	FR1	1	R1425D
2628.887	0.0	2630850	DISTRACT_END	n/a	n/a	n/a	-999	24	[0, 0, 0]	n/a	FR1	1	R1425D
2628.876	2.162	2630859	STOP	n/a	n/a	n/a	-999	24	[-999, -999, -999]	n/a	FR1	1	R1425D
2631.038	1.489	2633008	REC_START	n/a	n/a	n/a	-999	24	[0, 0, 0]	n/a	FR1	1	R1425D
2632.527	0.882	2634509	REC_WORD	0.882	n/a	WAVE	1	24	[0, 0, 0]	n/a	FR1	1	R1425D
2633.409	0.783	2635391	REC_WORD	0.783	n/a	PIT	11	24	[0, 0, 0]	n/a	FR1	1	R1425D
2634.192	1.319	2636174	REC_WORD	1.319	n/a	TANK	12	24	[0, 0, 0]	n/a	FR1	1	R1425D
2635.511	8.144	2637493	REC_WORD	8.144	n/a	CHIN	10	24	[0, 0, 0]	n/a	FR1	1	R1425D
2643.655	17.395	2645637	REC_WORD	17.395	n/a	BEAK	8	24	[0, 0, 0]	n/a	FR1	1	R1425D
2661.05	3.344	2663029	REC_END	n/a	n/a	n/a	-999	24	[0, 0, 0]	n/a	FR1	1	R1425D
2664.394	10.429	2666388	COUNTDOWN_START	n/a	n/a	n/a	-999	25	[0, 0, 0]	n/a	FR1	1	R1425D
2674.823	1.04	2676795	COUNTDOWN_END	n/a	n/a	n/a	-999	25	[0, 0, 0]	n/a	FR1	1	R1425D
2675.863	1.046	2677822	ENCODING_START	n/a	n/a	n/a	-999	25	[0, 0, 0]	n/a	FR1	1	R1425D
2676.909	1.637	2678901	WORD	n/a	wordpools/wordpool_EN.txt	RAT	1	25	[0, 0, 0]	n/a	FR1	1	R1425D
2678.546	0.789	2680502	WORD_OFF	n/a	n/a	RAT	1	25	[0, 0, 0]	n/a	FR1	1	R1425D
2679.335	1.628	2681303	WORD	n/a	wordpools/wordpool_EN.txt	JAR	2	25	[0, 0, 0]	n/a	FR1	1	R1425D
2680.963	0.81	2682921	WORD_OFF	n/a	n/a	JAR	2	25	[0, 0, 0]	n/a	FR1	1	R1425D
2681.773	1.624	2683739	WORD	n/a	wordpools/wordpool_EN.txt	WALL	3	25	[0, 0, 0]	n/a	FR1	1	R1425D
2683.397	0.869	2685358	WORD_OFF	n/a	n/a	WALL	3	25	[0, 0, 0]	n/a	FR1	1	R1425D
2684.266	1.631	2686245	WORD	n/a	wordpools/wordpool_EN.txt	FROG	4	25	[0, 0, 0]	n/a	FR1	1	R1425D
2685.897	1.044	2687864	WORD_OFF	n/a	n/a	FROG	4	25	[0, 0, 0]	n/a	FR1	1	R1425D
2686.941	1.623	2688908	WORD	n/a	wordpools/wordpool_EN.txt	DESK	5	25	[0, 0, 0]	n/a	FR1	1	R1425D
2688.564	0.78	2690527	WORD_OFF	n/a	n/a	DESK	5	25	[0, 0, 0]	n/a	FR1	1	R1425D
2689.344	1.621	2691310	WORD	n/a	wordpools/wordpool_EN.txt	MULE	6	25	[0, 0, 0]	n/a	FR1	1	R1425D
2690.965	0.901	2692928	WORD_OFF	n/a	n/a	MULE	6	25	[0, 0, 0]	n/a	FR1	1	R1425D
2691.866	1.632	2693851	WORD	n/a	wordpools/wordpool_EN.txt	TRUCK	7	25	[0, 0, 0]	n/a	FR1	1	R1425D
2693.498	0.805	2695469	WORD_OFF	n/a	n/a	TRUCK	7	25	[0, 0, 0]	n/a	FR1	1	R1425D
2694.303	1.629	2696270	WORD	n/a	wordpools/wordpool_EN.txt	WAND	8	25	[0, 0, 0]	n/a	FR1	1	R1425D
2695.932	1.044	2697888	WORD_OFF	n/a	n/a	WAND	8	25	[0, 0, 0]	n/a	FR1	1	R1425D
2696.976	1.623	2698950	WORD	n/a	wordpools/wordpool_EN.txt	HAND	9	25	[0, 0, 0]	n/a	FR1	1	R1425D
2698.599	1.103	2700568	WORD_OFF	n/a	n/a	HAND	9	25	[0, 0, 0]	n/a	FR1	1	R1425D
2699.702	1.631	2701682	WORD	n/a	wordpools/wordpool_EN.txt	STICK	10	25	[0, 0, 0]	n/a	FR1	1	R1425D
2701.333	0.921	2703301	WORD_OFF	n/a	n/a	STICK	10	25	[0, 0, 0]	n/a	FR1	1	R1425D
2702.254	1.63	2704223	WORD	n/a	wordpools/wordpool_EN.txt	HOUSE	11	25	[0, 0, 0]	n/a	FR1	1	R1425D
2703.884	0.896	2705842	WORD_OFF	n/a	n/a	HOUSE	11	25	[0, 0, 0]	n/a	FR1	1	R1425D
2704.78	1.622	2706747	WORD	n/a	wordpools/wordpool_EN.txt	WEB	12	25	[0, 0, 0]	n/a	FR1	1	R1425D
2706.402	0.0	2708381	START	n/a	n/a	n/a	-999	25	[-999, -999, -999]	n/a	FR1	1	R1425D
2706.401	0.0	2708383	WORD_OFF	n/a	n/a	WEB	12	25	[0, 0, 0]	n/a	FR1	1	R1425D
2706.401	0.001	2708383	ENCODING_END	n/a	n/a	n/a	-999	25	[0, 0, 0]	n/a	FR1	1	R1425D
2706.402	0.015	2708383	DISTRACT_START	n/a	n/a	n/a	-999	25	[0, 0, 0]	n/a	FR1	1	R1425D
2706.417	3.635	2708396	PROB	3.635	n/a	n/a	-999	25	[3, 4, 4]	11	FR1	1	R1425D
2710.052	3.75	2712030	PROB	3.75	n/a	n/a	-999	25	[2, 6, 9]	17	FR1	1	R1425D
2713.802	4.734	2715780	PROB	4.734	n/a	n/a	-999	25	[7, 6, 9]	22	FR1	1	R1425D
2718.536	3.718	2720514	PROB	3.718	n/a	n/a	-999	25	[4, 9, 7]	20	FR1	1	R1425D
2722.254	3.634	2724232	PROB	3.634	n/a	n/a	-999	25	[6, 1, 9]	16	FR1	1	R1425D
2725.888	3.929	2727866	PROB	3.929	n/a	n/a	-999	25	[6, 5, 2]	13	FR1	1	R1425D
2729.817	0.022	2731794	STOP	n/a	n/a	n/a	-999	25	[-999, -999, -999]	n/a	FR1	1	R1425D
2729.839	2.301	2731808	DISTRACT_END	n/a	n/a	n/a	-999	25	[0, 0, 0]	n/a	FR1	1	R1425D
2732.14	0.847	2734105	REC_START	n/a	n/a	n/a	-999	25	[0, 0, 0]	n/a	FR1	1	R1425D
2732.987	0.647	2734964	REC_WORD	0.647	n/a	WAND	8	25	[0, 0, 0]	n/a	FR1	1	R1425D
2733.634	0.552	2735611	REC_WORD	0.552	n/a	HAND	9	25	[0, 0, 0]	n/a	FR1	1	R1425D
2734.186	1.239	2736163	REC_WORD	1.239	n/a	STICK	10	25	[0, 0, 0]	n/a	FR1	1	R1425D
2735.425	0.67	2737402	REC_WORD	0.67	n/a	JAR	2	25	[0, 0, 0]	n/a	FR1	1	R1425D
2736.095	0.946	2738072	REC_WORD	0.946	n/a	FROG	4	25	[0, 0, 0]	n/a	FR1	1	R1425D
2737.041	3.257	2739018	REC_WORD	3.257	n/a	RAT	1	25	[0, 0, 0]	n/a	FR1	1	R1425D
2740.298	8.28	2742275	REC_WORD	8.28	n/a	WALL	3	25	[0, 0, 0]	n/a	FR1	1	R1425D
2748.578	13.576	2750554	REC_WORD	13.576	n/a	MULE	6	25	[0, 0, 0]	n/a	FR1	1	R1425D
2762.154	0.0	2764126	REC_END	n/a	n/a	n/a	-999	25	[0, 0, 0]	n/a	FR1	1	R1425D
