onset	duration	sample	trial_type	response_time	stim_file	item_name	serialpos	list	test	answer	experiment	session	subject
0.0	0.616	4873	INSTRUCT_START	n/a	n/a	n/a	-999	-999	[0, 0, 0]	n/a	FR1	2	R1387E
0.616	25.415	5491	INSTRUCT_END	n/a	n/a	n/a	-999	-999	[0, 0, 0]	n/a	FR1	2	R1387E
26.031	10.354	30910	COUNTDOWN_START	n/a	n/a	n/a	-999	-999	[0, 0, 0]	n/a	FR1	2	R1387E
36.385	0.001	41261	COUNTDOWN_END	n/a	n/a	n/a	-999	-999	[0, 0, 0]	n/a	FR1	2	R1387E
36.386	2.196	41261	ENCODING_START	n/a	n/a	n/a	-999	-1	[0, 0, 0]	n/a	FR1	2	R1387E
38.582	1.616	43461	WORD	n/a	n/a	RING	1	-1	[0, 0, 0]	n/a	FR1	2	R1387E
40.198	0.95	45071	WORD_OFF	n/a	n/a	RING	1	-1	[0, 0, 0]	n/a	FR1	2	R1387E
41.148	1.617	46020	WORD	n/a	n/a	COTTON	2	-1	[0, 0, 0]	n/a	FR1	2	R1387E
42.765	0.933	47644	WORD_OFF	n/a	n/a	COTTON	2	-1	[0, 0, 0]	n/a	FR1	2	R1387E
43.698	1.617	48564	WORD	n/a	n/a	TONGUE	3	-1	[0, 0, 0]	n/a	FR1	2	R1387E
45.315	1.0	50189	WORD_OFF	n/a	n/a	TONGUE	3	-1	[0, 0, 0]	n/a	FR1	2	R1387E
46.315	1.616	51181	WORD	n/a	n/a	WAGON	4	-1	[0, 0, 0]	n/a	FR1	2	R1387E
47.931	0.9	52806	WORD_OFF	n/a	n/a	WAGON	4	-1	[0, 0, 0]	n/a	FR1	2	R1387E
48.831	1.617	53706	WORD	n/a	n/a	FLOOD	5	-1	[0, 0, 0]	n/a	FR1	2	R1387E
50.448	0.783	55321	WORD_OFF	n/a	n/a	FLOOD	5	-1	[0, 0, 0]	n/a	FR1	2	R1387E
51.231	1.617	56098	WORD	n/a	n/a	BEAM	6	-1	[0, 0, 0]	n/a	FR1	2	R1387E
52.848	0.95	57722	WORD_OFF	n/a	n/a	BEAM	6	-1	[0, 0, 0]	n/a	FR1	2	R1387E
53.798	1.616	58671	WORD	n/a	n/a	BABY	7	-1	[0, 0, 0]	n/a	FR1	2	R1387E
55.414	0.917	60281	WORD_OFF	n/a	n/a	BABY	7	-1	[0, 0, 0]	n/a	FR1	2	R1387E
56.331	1.6	61202	WORD	n/a	n/a	CHEST	8	-1	[0, 0, 0]	n/a	FR1	2	R1387E
57.931	0.783	62797	WORD_OFF	n/a	n/a	CHEST	8	-1	[0, 0, 0]	n/a	FR1	2	R1387E
58.714	1.617	63588	WORD	n/a	n/a	RHINO	9	-1	[0, 0, 0]	n/a	FR1	2	R1387E
60.331	0.833	65198	WORD_OFF	n/a	n/a	RHINO	9	-1	[0, 0, 0]	n/a	FR1	2	R1387E
61.164	1.617	66032	WORD	n/a	n/a	WATCH	10	-1	[0, 0, 0]	n/a	FR1	2	R1387E
62.781	0.883	67657	WORD_OFF	n/a	n/a	WATCH	10	-1	[0, 0, 0]	n/a	FR1	2	R1387E
63.664	1.6	68548	WORD	n/a	n/a	CAMEL	11	-1	[0, 0, 0]	n/a	FR1	2	R1387E
65.264	0.95	70130	WORD_OFF	n/a	n/a	CAMEL	11	-1	[0, 0, 0]	n/a	FR1	2	R1387E
66.214	1.617	71093	WORD	n/a	n/a	IMAGE	12	-1	[0, 0, 0]	n/a	FR1	2	R1387E
67.831	0.001	72703	WORD_OFF	n/a	n/a	IMAGE	12	-1	[0, 0, 0]	n/a	FR1	2	R1387E
67.832	0.001	72703	ENCODING_END	n/a	n/a	n/a	-999	-1	[0, 0, 0]	n/a	FR1	2	R1387E
67.833	0.0	72703	DISTRACT_START	n/a	n/a	n/a	-999	-1	[0, 0, 0]	n/a	FR1	2	R1387E
67.832	0.001	72703	PROB	0.001	n/a	n/a	-999	-1	[4, 3, 7]	14	FR1	2	R1387E
67.833	4.332	72704	START	n/a	n/a	n/a	-999	-1	[-999, -999, -999]	n/a	FR1	2	R1387E
72.165	5.467	77036	PROB	5.467	n/a	n/a	-999	-1	[6, 1, 8]	15	FR1	2	R1387E
77.632	4.234	82503	PROB	4.234	n/a	n/a	-999	-1	[1, 3, 6]	10	FR1	2	R1387E
81.866	3.217	86737	PROB	3.217	n/a	n/a	-999	-1	[1, 6, 5]	12	FR1	2	R1387E
85.083	8.432	89953	PROB	8.432	n/a	n/a	-999	-1	[7, 4, 7]	18	FR1	2	R1387E
93.515	0.0	98380	DISTRACT_END	n/a	n/a	n/a	-999	-1	[0, 0, 0]	n/a	FR1	2	R1387E
93.515	1.634	98385	STOP	n/a	n/a	n/a	-999	-1	[-999, -999, -999]	n/a	FR1	2	R1387E
95.149	2.114	100016	REC_START	n/a	n/a	n/a	-999	-1	[0, 0, 0]	n/a	FR1	2	R1387E
97.263	0.985	102133	REC_WORD	0.985	n/a	RING	1	-1	[0, 0, 0]	n/a	FR1	2	R1387E
98.248	2.192	103118	REC_WORD	2.192	n/a	CAMEL	11	-1	[0, 0, 0]	n/a	FR1	2	R1387E
100.44	25.019	105310	REC_WORD	25.019	n/a	COTTON	2	-1	[0, 0, 0]	n/a	FR1	2	R1387E
125.459	10.106	130322	REC_END	n/a	n/a	n/a	-999	-1	[0, 0, 0]	n/a	FR1	2	R1387E
135.565	10.35	140432	COUNTDOWN_START	n/a	n/a	n/a	-999	1	[0, 0, 0]	n/a	FR1	2	R1387E
145.915	0.0	150783	COUNTDOWN_END	n/a	n/a	n/a	-999	1	[0, 0, 0]	n/a	FR1	2	R1387E
145.915	2.216	150783	ENCODING_START	n/a	n/a	n/a	-999	1	[0, 0, 0]	n/a	FR1	2	R1387E
148.131	1.617	152997	WORD	n/a	n/a	CORD	1	1	[0, 0, 0]	n/a	FR1	2	R1387E
149.748	0.95	154622	WORD_OFF	n/a	n/a	CORD	1	1	[0, 0, 0]	n/a	FR1	2	R1387E
150.698	1.616	155571	WORD	n/a	n/a	KITE	2	1	[0, 0, 0]	n/a	FR1	2	R1387E
152.314	0.984	157181	WORD_OFF	n/a	n/a	KITE	2	1	[0, 0, 0]	n/a	FR1	2	R1387E
153.298	1.6	158173	WORD	n/a	n/a	BLUSH	3	1	[0, 0, 0]	n/a	FR1	2	R1387E
154.898	0.767	159769	WORD_OFF	n/a	n/a	BLUSH	3	1	[0, 0, 0]	n/a	FR1	2	R1387E
155.665	1.599	160531	WORD	n/a	n/a	HAY	4	1	[0, 0, 0]	n/a	FR1	2	R1387E
157.264	0.984	162127	WORD_OFF	n/a	n/a	HAY	4	1	[0, 0, 0]	n/a	FR1	2	R1387E
158.248	1.616	163119	WORD	n/a	n/a	NURSE	5	1	[0, 0, 0]	n/a	FR1	2	R1387E
159.864	0.767	164729	WORD_OFF	n/a	n/a	NURSE	5	1	[0, 0, 0]	n/a	FR1	2	R1387E
160.631	1.616	165505	WORD	n/a	n/a	MEAT	6	1	[0, 0, 0]	n/a	FR1	2	R1387E
162.247	0.767	167115	WORD_OFF	n/a	n/a	MEAT	6	1	[0, 0, 0]	n/a	FR1	2	R1387E
163.014	1.6	167877	WORD	n/a	n/a	OIL	7	1	[0, 0, 0]	n/a	FR1	2	R1387E
164.614	0.917	169488	WORD_OFF	n/a	n/a	OIL	7	1	[0, 0, 0]	n/a	FR1	2	R1387E
165.531	1.616	170393	WORD	n/a	n/a	ROCK	8	1	[0, 0, 0]	n/a	FR1	2	R1387E
167.147	0.8	172018	WORD_OFF	n/a	n/a	ROCK	8	1	[0, 0, 0]	n/a	FR1	2	R1387E
167.947	1.617	172823	WORD	n/a	n/a	SALT	9	1	[0, 0, 0]	n/a	FR1	2	R1387E
169.564	0.95	174433	WORD_OFF	n/a	n/a	SALT	9	1	[0, 0, 0]	n/a	FR1	2	R1387E
170.514	1.601	175382	WORD	n/a	n/a	SHIELD	10	1	[0, 0, 0]	n/a	FR1	2	R1387E
172.115	0.999	176978	WORD_OFF	n/a	n/a	SHIELD	10	1	[0, 0, 0]	n/a	FR1	2	R1387E
173.114	1.601	177984	WORD	n/a	n/a	TAIL	11	1	[0, 0, 0]	n/a	FR1	2	R1387E
174.715	0.917	179580	WORD_OFF	n/a	n/a	TAIL	11	1	[0, 0, 0]	n/a	FR1	2	R1387E
175.632	1.6	180500	WORD	n/a	n/a	WAX	12	1	[0, 0, 0]	n/a	FR1	2	R1387E
177.232	0.002	182096	WORD_OFF	n/a	n/a	WAX	12	1	[0, 0, 0]	n/a	FR1	2	R1387E
177.234	0.0	182096	ENCODING_END	n/a	n/a	n/a	-999	1	[0, 0, 0]	n/a	FR1	2	R1387E
177.233	0.001	182100	PROB	0.001	n/a	n/a	-999	1	[4, 3, 8]	15	FR1	2	R1387E
177.234	0.0	182101	START	n/a	n/a	n/a	-999	1	[-999, -999, -999]	n/a	FR1	2	R1387E
177.234	4.832	182110	DISTRACT_START	n/a	n/a	n/a	-999	1	[0, 0, 0]	n/a	FR1	2	R1387E
182.066	2.316	186933	PROB	2.316	n/a	n/a	-999	1	[5, 5, 2]	12	FR1	2	R1387E
184.382	3.451	189249	PROB	3.451	n/a	n/a	-999	1	[8, 2, 6]	16	FR1	2	R1387E
187.833	10.815	192700	PROB	10.815	n/a	n/a	-999	1	[3, 5, 6]	14	FR1	2	R1387E
198.648	0.0	203515	STOP	n/a	n/a	n/a	-999	1	[-999, -999, -999]	n/a	FR1	2	R1387E
198.648	1.634	203517	DISTRACT_END	n/a	n/a	n/a	-999	1	[0, 0, 0]	n/a	FR1	2	R1387E
200.282	2.402	205153	REC_START	n/a	n/a	n/a	-999	1	[0, 0, 0]	n/a	FR1	2	R1387E
202.684	1.0	207550	REC_WORD	1.0	n/a	WAX	12	1	[0, 0, 0]	n/a	FR1	2	R1387E
203.684	14.26	208550	REC_WORD_VV	14.26	n/a	<>	-999	1	[0, 0, 0]	n/a	FR1	2	R1387E
217.944	1.427	222810	REC_WORD	1.427	n/a	KITE	2	1	[0, 0, 0]	n/a	FR1	2	R1387E
219.371	11.23	224237	REC_WORD	11.23	n/a	BLUSH	3	1	[0, 0, 0]	n/a	FR1	2	R1387E
230.601	2.013	235474	REC_END	n/a	n/a	n/a	-999	1	[0, 0, 0]	n/a	FR1	2	R1387E
232.614	10.352	237476	COUNTDOWN_START	n/a	n/a	n/a	-999	2	[0, 0, 0]	n/a	FR1	2	R1387E
242.966	0.0	247827	COUNTDOWN_END	n/a	n/a	n/a	-999	2	[0, 0, 0]	n/a	FR1	2	R1387E
242.966	2.249	247827	ENCODING_START	n/a	n/a	n/a	-999	2	[0, 0, 0]	n/a	FR1	2	R1387E
245.215	1.616	250084	WORD	n/a	n/a	PAINT	1	2	[0, 0, 0]	n/a	FR1	2	R1387E
246.831	0.783	251694	WORD_OFF	n/a	n/a	PAINT	1	2	[0, 0, 0]	n/a	FR1	2	R1387E
247.614	1.601	252485	WORD	n/a	n/a	MIST	2	2	[0, 0, 0]	n/a	FR1	2	R1387E
249.215	0.882	254081	WORD_OFF	n/a	n/a	MIST	2	2	[0, 0, 0]	n/a	FR1	2	R1387E
250.097	1.601	254958	WORD	n/a	n/a	SPARK	3	2	[0, 0, 0]	n/a	FR1	2	R1387E
251.698	0.966	256568	WORD_OFF	n/a	n/a	SPARK	3	2	[0, 0, 0]	n/a	FR1	2	R1387E
252.664	1.601	257531	WORD	n/a	n/a	MAIL	4	2	[0, 0, 0]	n/a	FR1	2	R1387E
254.265	0.95	259127	WORD_OFF	n/a	n/a	MAIL	4	2	[0, 0, 0]	n/a	FR1	2	R1387E
255.215	1.6	260076	WORD	n/a	n/a	PLATE	5	2	[0, 0, 0]	n/a	FR1	2	R1387E
256.815	0.783	261686	WORD_OFF	n/a	n/a	PLATE	5	2	[0, 0, 0]	n/a	FR1	2	R1387E
257.598	1.6	262462	WORD	n/a	n/a	CREAM	6	2	[0, 0, 0]	n/a	FR1	2	R1387E
259.198	1.0	264058	WORD_OFF	n/a	n/a	CREAM	6	2	[0, 0, 0]	n/a	FR1	2	R1387E
260.198	1.617	265065	WORD	n/a	n/a	AISLE	7	2	[0, 0, 0]	n/a	FR1	2	R1387E
261.815	0.8	266675	WORD_OFF	n/a	n/a	AISLE	7	2	[0, 0, 0]	n/a	FR1	2	R1387E
262.615	1.616	267480	WORD	n/a	n/a	MAZE	8	2	[0, 0, 0]	n/a	FR1	2	R1387E
264.231	0.983	269090	WORD_OFF	n/a	n/a	MAZE	8	2	[0, 0, 0]	n/a	FR1	2	R1387E
265.214	1.601	270082	WORD	n/a	n/a	SCHOOL	9	2	[0, 0, 0]	n/a	FR1	2	R1387E
266.815	0.95	271678	WORD_OFF	n/a	n/a	SCHOOL	9	2	[0, 0, 0]	n/a	FR1	2	R1387E
267.765	1.616	272627	WORD	n/a	n/a	SEA	10	2	[0, 0, 0]	n/a	FR1	2	R1387E
269.381	0.834	274251	WORD_OFF	n/a	n/a	SEA	10	2	[0, 0, 0]	n/a	FR1	2	R1387E
270.215	1.616	275085	WORD	n/a	n/a	MAT	11	2	[0, 0, 0]	n/a	FR1	2	R1387E
271.831	0.801	276695	WORD_OFF	n/a	n/a	MAT	11	2	[0, 0, 0]	n/a	FR1	2	R1387E
272.632	1.616	277500	WORD	n/a	n/a	JAR	12	2	[0, 0, 0]	n/a	FR1	2	R1387E
274.248	0.002	279111	WORD_OFF	n/a	n/a	JAR	12	2	[0, 0, 0]	n/a	FR1	2	R1387E
274.25	0.0	279111	ENCODING_END	n/a	n/a	n/a	-999	2	[0, 0, 0]	n/a	FR1	2	R1387E
274.25	0.0	279111	DISTRACT_START	n/a	n/a	n/a	-999	2	[0, 0, 0]	n/a	FR1	2	R1387E
274.248	0.002	279112	PROB	0.002	n/a	n/a	-999	2	[4, 3, 1]	8	FR1	2	R1387E
274.25	4.066	279114	START	n/a	n/a	n/a	-999	2	[-999, -999, -999]	n/a	FR1	2	R1387E
278.316	4.933	283180	PROB	4.933	n/a	n/a	-999	2	[3, 7, 3]	13	FR1	2	R1387E
283.249	8.2	288113	PROB	8.2	n/a	n/a	-999	2	[4, 4, 3]	11	FR1	2	R1387E
291.449	6.502	296312	PROB	6.502	n/a	n/a	-999	2	[1, 6, 6]	13	FR1	2	R1387E
297.951	0.0	302814	STOP	n/a	n/a	n/a	-999	2	[-999, -999, -999]	n/a	FR1	2	R1387E
297.951	1.614	302818	DISTRACT_END	n/a	n/a	n/a	-999	2	[0, 0, 0]	n/a	FR1	2	R1387E
299.565	5.316	304425	REC_START	n/a	n/a	n/a	-999	2	[0, 0, 0]	n/a	FR1	2	R1387E
304.881	24.987	309744	REC_WORD	24.987	n/a	AISLE	7	2	[0, 0, 0]	n/a	FR1	2	R1387E
329.868	2.397	334731	REC_END	n/a	n/a	n/a	-999	2	[0, 0, 0]	n/a	FR1	2	R1387E
332.265	10.351	337135	COUNTDOWN_START	n/a	n/a	n/a	-999	3	[0, 0, 0]	n/a	FR1	2	R1387E
342.616	0.0	347472	COUNTDOWN_END	n/a	n/a	n/a	-999	3	[0, 0, 0]	n/a	FR1	2	R1387E
342.616	1.848	347487	ENCODING_START	n/a	n/a	n/a	-999	3	[0, 0, 0]	n/a	FR1	2	R1387E
344.464	1.6	349327	WORD	n/a	n/a	LAND	1	3	[0, 0, 0]	n/a	FR1	2	R1387E
346.064	0.85	350923	WORD_OFF	n/a	n/a	LAND	1	3	[0, 0, 0]	n/a	FR1	2	R1387E
346.914	1.6	351771	WORD	n/a	n/a	DOG	2	3	[0, 0, 0]	n/a	FR1	2	R1387E
348.514	0.883	353381	WORD_OFF	n/a	n/a	DOG	2	3	[0, 0, 0]	n/a	FR1	2	R1387E
349.397	1.601	354258	WORD	n/a	n/a	BRICK	3	3	[0, 0, 0]	n/a	FR1	2	R1387E
350.998	0.849	355854	WORD_OFF	n/a	n/a	BRICK	3	3	[0, 0, 0]	n/a	FR1	2	R1387E
351.847	1.601	356702	WORD	n/a	n/a	STEEL	4	3	[0, 0, 0]	n/a	FR1	2	R1387E
353.448	0.85	358312	WORD_OFF	n/a	n/a	STEEL	4	3	[0, 0, 0]	n/a	FR1	2	R1387E
354.298	1.6	359161	WORD	n/a	n/a	TOAD	5	3	[0, 0, 0]	n/a	FR1	2	R1387E
355.898	0.967	360757	WORD_OFF	n/a	n/a	TOAD	5	3	[0, 0, 0]	n/a	FR1	2	R1387E
356.865	1.6	361720	WORD	n/a	n/a	CHILD	6	3	[0, 0, 0]	n/a	FR1	2	R1387E
358.465	0.966	363330	WORD_OFF	n/a	n/a	CHILD	6	3	[0, 0, 0]	n/a	FR1	2	R1387E
359.431	1.617	364293	WORD	n/a	n/a	PIN	7	3	[0, 0, 0]	n/a	FR1	2	R1387E
361.048	0.816	365903	WORD_OFF	n/a	n/a	PIN	7	3	[0, 0, 0]	n/a	FR1	2	R1387E
361.864	1.601	366723	WORD	n/a	n/a	BOWL	8	3	[0, 0, 0]	n/a	FR1	2	R1387E
363.465	1.0	368333	WORD_OFF	n/a	n/a	BOWL	8	3	[0, 0, 0]	n/a	FR1	2	R1387E
364.465	1.617	369325	WORD	n/a	n/a	CHALK	9	3	[0, 0, 0]	n/a	FR1	2	R1387E
366.082	1.0	370950	WORD_OFF	n/a	n/a	CHALK	9	3	[0, 0, 0]	n/a	FR1	2	R1387E
367.082	1.6	371942	WORD	n/a	n/a	PEARL	10	3	[0, 0, 0]	n/a	FR1	2	R1387E
368.682	0.849	373537	WORD_OFF	n/a	n/a	PEARL	10	3	[0, 0, 0]	n/a	FR1	2	R1387E
369.531	1.601	374386	WORD	n/a	n/a	RAT	11	3	[0, 0, 0]	n/a	FR1	2	R1387E
371.132	0.933	375996	WORD_OFF	n/a	n/a	RAT	11	3	[0, 0, 0]	n/a	FR1	2	R1387E
372.065	1.617	376930	WORD	n/a	n/a	DRAIN	12	3	[0, 0, 0]	n/a	FR1	2	R1387E
373.682	0.001	378541	WORD_OFF	n/a	n/a	DRAIN	12	3	[0, 0, 0]	n/a	FR1	2	R1387E
373.683	0.0	378541	ENCODING_END	n/a	n/a	n/a	-999	3	[0, 0, 0]	n/a	FR1	2	R1387E
373.683	0.0	378541	DISTRACT_START	n/a	n/a	n/a	-999	3	[0, 0, 0]	n/a	FR1	2	R1387E
373.682	0.001	378543	PROB	0.001	n/a	n/a	-999	3	[1, 2, 6]	9	FR1	2	R1387E
373.683	6.883	378544	START	n/a	n/a	n/a	-999	3	[-999, -999, -999]	n/a	FR1	2	R1387E
380.566	9.969	385426	PROB	9.969	n/a	n/a	-999	3	[3, 6, 8]	17	FR1	2	R1387E
390.535	3.713	395395	PROB	3.713	n/a	n/a	-999	3	[2, 4, 6]	12	FR1	2	R1387E
394.248	0.0	399108	STOP	n/a	n/a	n/a	-999	3	[-999, -999, -999]	n/a	FR1	2	R1387E
394.248	1.85	399114	DISTRACT_END	n/a	n/a	n/a	-999	3	[0, 0, 0]	n/a	FR1	2	R1387E
396.098	7.253	400965	REC_START	n/a	n/a	n/a	-999	3	[0, 0, 0]	n/a	FR1	2	R1387E
403.351	2.267	408211	REC_WORD	2.267	n/a	DOG	2	3	[0, 0, 0]	n/a	FR1	2	R1387E
405.618	2.909	410477	REC_WORD	2.909	n/a	STEEL	4	3	[0, 0, 0]	n/a	FR1	2	R1387E
408.527	17.888	413386	REC_WORD	17.888	n/a	RAT	11	3	[0, 0, 0]	n/a	FR1	2	R1387E
426.415	2.034	431272	REC_END	n/a	n/a	n/a	-999	3	[0, 0, 0]	n/a	FR1	2	R1387E
428.449	10.35	433316	COUNTDOWN_START	n/a	n/a	n/a	-999	4	[0, 0, 0]	n/a	FR1	2	R1387E
438.799	0.0	443653	COUNTDOWN_END	n/a	n/a	n/a	-999	4	[0, 0, 0]	n/a	FR1	2	R1387E
438.799	1.983	443668	ENCODING_START	n/a	n/a	n/a	-999	4	[0, 0, 0]	n/a	FR1	2	R1387E
440.782	1.616	445637	WORD	n/a	n/a	SEAL	1	4	[0, 0, 0]	n/a	FR1	2	R1387E
442.398	0.817	447262	WORD_OFF	n/a	n/a	SEAL	1	4	[0, 0, 0]	n/a	FR1	2	R1387E
443.215	1.6	448081	WORD	n/a	n/a	NECK	2	4	[0, 0, 0]	n/a	FR1	2	R1387E
444.815	0.9	449677	WORD_OFF	n/a	n/a	NECK	2	4	[0, 0, 0]	n/a	FR1	2	R1387E
445.715	1.616	450568	WORD	n/a	n/a	FACE	3	4	[0, 0, 0]	n/a	FR1	2	R1387E
447.331	0.816	452193	WORD_OFF	n/a	n/a	FACE	3	4	[0, 0, 0]	n/a	FR1	2	R1387E
448.147	1.601	453012	WORD	n/a	n/a	POOL	4	4	[0, 0, 0]	n/a	FR1	2	R1387E
449.748	0.783	454608	WORD_OFF	n/a	n/a	POOL	4	4	[0, 0, 0]	n/a	FR1	2	R1387E
450.531	1.6	455385	WORD	n/a	n/a	EEL	5	4	[0, 0, 0]	n/a	FR1	2	R1387E
452.131	0.783	456995	WORD_OFF	n/a	n/a	EEL	5	4	[0, 0, 0]	n/a	FR1	2	R1387E
452.914	1.603	457771	WORD	n/a	n/a	CAVE	6	4	[0, 0, 0]	n/a	FR1	2	R1387E
454.517	0.864	459381	WORD_OFF	n/a	n/a	CAVE	6	4	[0, 0, 0]	n/a	FR1	2	R1387E
455.381	1.601	460244	WORD	n/a	n/a	SHED	7	4	[0, 0, 0]	n/a	FR1	2	R1387E
456.982	0.833	461840	WORD_OFF	n/a	n/a	SHED	7	4	[0, 0, 0]	n/a	FR1	2	R1387E
457.815	1.617	462674	WORD	n/a	n/a	CAPE	8	4	[0, 0, 0]	n/a	FR1	2	R1387E
459.432	0.85	464284	WORD_OFF	n/a	n/a	CAPE	8	4	[0, 0, 0]	n/a	FR1	2	R1387E
460.282	1.616	465146	WORD	n/a	n/a	DEER	9	4	[0, 0, 0]	n/a	FR1	2	R1387E
461.898	0.767	466757	WORD_OFF	n/a	n/a	DEER	9	4	[0, 0, 0]	n/a	FR1	2	R1387E
462.665	1.6	467519	WORD	n/a	n/a	GLOBE	10	4	[0, 0, 0]	n/a	FR1	2	R1387E
464.265	0.9	469129	WORD_OFF	n/a	n/a	GLOBE	10	4	[0, 0, 0]	n/a	FR1	2	R1387E
465.165	1.617	470020	WORD	n/a	n/a	LENS	11	4	[0, 0, 0]	n/a	FR1	2	R1387E
466.782	0.983	471645	WORD_OFF	n/a	n/a	LENS	11	4	[0, 0, 0]	n/a	FR1	2	R1387E
467.765	1.617	472622	WORD	n/a	n/a	STAR	12	4	[0, 0, 0]	n/a	FR1	2	R1387E
469.382	0.0	474234	WORD_OFF	n/a	n/a	STAR	12	4	[0, 0, 0]	n/a	FR1	2	R1387E
469.382	0.001	474239	PROB	0.001	n/a	n/a	-999	4	[6, 5, 3]	14	FR1	2	R1387E
469.383	0.0	474240	START	n/a	n/a	n/a	-999	4	[-999, -999, -999]	n/a	FR1	2	R1387E
469.383	0.0	474247	ENCODING_END	n/a	n/a	n/a	-999	4	[0, 0, 0]	n/a	FR1	2	R1387E
469.383	7.966	474247	DISTRACT_START	n/a	n/a	n/a	-999	4	[0, 0, 0]	n/a	FR1	2	R1387E
477.349	6.05	482206	PROB	6.05	n/a	n/a	-999	4	[4, 8, 7]	19	FR1	2	R1387E
483.399	5.116	488256	PROB	5.116	n/a	n/a	-999	4	[1, 3, 6]	10	FR1	2	R1387E
488.515	4.167	493372	PROB	4.167	n/a	n/a	-999	4	[3, 5, 2]	10	FR1	2	R1387E
492.682	0.0	497537	DISTRACT_END	n/a	n/a	n/a	-999	4	[0, 0, 0]	n/a	FR1	2	R1387E
492.682	1.683	497538	STOP	n/a	n/a	n/a	-999	4	[-999, -999, -999]	n/a	FR1	2	R1387E
494.365	11.86	499216	REC_START	n/a	n/a	n/a	-999	4	[0, 0, 0]	n/a	FR1	2	R1387E
506.225	18.454	511081	REC_WORD	18.454	n/a	SEAL	1	4	[0, 0, 0]	n/a	FR1	2	R1387E
524.679	3.819	529537	REC_END	n/a	n/a	n/a	-999	4	[0, 0, 0]	n/a	FR1	2	R1387E
528.498	10.35	533350	COUNTDOWN_START	n/a	n/a	n/a	-999	5	[0, 0, 0]	n/a	FR1	2	R1387E
538.848	0.0	543701	COUNTDOWN_END	n/a	n/a	n/a	-999	5	[0, 0, 0]	n/a	FR1	2	R1387E
538.848	2.216	543701	ENCODING_START	n/a	n/a	n/a	-999	5	[0, 0, 0]	n/a	FR1	2	R1387E
541.064	1.6	545915	WORD	n/a	n/a	BADGE	1	5	[0, 0, 0]	n/a	FR1	2	R1387E
542.664	0.901	547525	WORD_OFF	n/a	n/a	BADGE	1	5	[0, 0, 0]	n/a	FR1	2	R1387E
543.565	1.6	548417	WORD	n/a	n/a	YARD	2	5	[0, 0, 0]	n/a	FR1	2	R1387E
545.165	0.8	550013	WORD_OFF	n/a	n/a	YARD	2	5	[0, 0, 0]	n/a	FR1	2	R1387E
545.965	1.601	550818	WORD	n/a	n/a	LIMB	3	5	[0, 0, 0]	n/a	FR1	2	R1387E
547.566	0.949	552428	WORD_OFF	n/a	n/a	LIMB	3	5	[0, 0, 0]	n/a	FR1	2	R1387E
548.515	1.616	553377	WORD	n/a	n/a	SMILE	4	5	[0, 0, 0]	n/a	FR1	2	R1387E
550.131	1.001	554987	WORD_OFF	n/a	n/a	SMILE	4	5	[0, 0, 0]	n/a	FR1	2	R1387E
551.132	1.616	555993	WORD	n/a	n/a	SOUP	5	5	[0, 0, 0]	n/a	FR1	2	R1387E
552.748	0.9	557604	WORD_OFF	n/a	n/a	SOUP	5	5	[0, 0, 0]	n/a	FR1	2	R1387E
553.648	1.6	558509	WORD	n/a	n/a	TOY	6	5	[0, 0, 0]	n/a	FR1	2	R1387E
555.248	0.867	560105	WORD_OFF	n/a	n/a	TOY	6	5	[0, 0, 0]	n/a	FR1	2	R1387E
556.115	1.6	560968	WORD	n/a	n/a	MOUSE	7	5	[0, 0, 0]	n/a	FR1	2	R1387E
557.715	0.9	562564	WORD_OFF	n/a	n/a	MOUSE	7	5	[0, 0, 0]	n/a	FR1	2	R1387E
558.615	1.617	563469	WORD	n/a	n/a	TOOTH	8	5	[0, 0, 0]	n/a	FR1	2	R1387E
560.232	0.833	565080	WORD_OFF	n/a	n/a	TOOTH	8	5	[0, 0, 0]	n/a	FR1	2	R1387E
561.065	1.6	565913	WORD	n/a	n/a	DART	9	5	[0, 0, 0]	n/a	FR1	2	R1387E
562.665	0.767	567524	WORD_OFF	n/a	n/a	DART	9	5	[0, 0, 0]	n/a	FR1	2	R1387E
563.432	1.616	568286	WORD	n/a	n/a	MULE	10	5	[0, 0, 0]	n/a	FR1	2	R1387E
565.048	0.85	569910	WORD_OFF	n/a	n/a	MULE	10	5	[0, 0, 0]	n/a	FR1	2	R1387E
565.898	1.6	570758	WORD	n/a	n/a	TRAY	11	5	[0, 0, 0]	n/a	FR1	2	R1387E
567.498	0.917	572354	WORD_OFF	n/a	n/a	TRAY	11	5	[0, 0, 0]	n/a	FR1	2	R1387E
568.415	1.6	573274	WORD	n/a	n/a	LIP	12	5	[0, 0, 0]	n/a	FR1	2	R1387E
570.015	0.0	574869	PROB	0.0	n/a	n/a	-999	5	[3, 5, 5]	13	FR1	2	R1387E
570.015	0.001	574870	WORD_OFF	n/a	n/a	LIP	12	5	[0, 0, 0]	n/a	FR1	2	R1387E
570.016	0.0	574870	ENCODING_END	n/a	n/a	n/a	-999	5	[0, 0, 0]	n/a	FR1	2	R1387E
570.016	0.0	574870	DISTRACT_START	n/a	n/a	n/a	-999	5	[0, 0, 0]	n/a	FR1	2	R1387E
570.016	3.416	574870	START	n/a	n/a	n/a	-999	5	[-999, -999, -999]	n/a	FR1	2	R1387E
573.432	4.55	578286	PROB	4.55	n/a	n/a	-999	5	[4, 3, 3]	10	FR1	2	R1387E
577.982	6.716	582836	PROB	6.716	n/a	n/a	-999	5	[8, 7, 4]	19	FR1	2	R1387E
584.698	3.217	589551	PROB	3.217	n/a	n/a	-999	5	[5, 8, 5]	18	FR1	2	R1387E
587.915	4.067	592768	PROB	4.067	n/a	n/a	-999	5	[1, 2, 3]	6	FR1	2	R1387E
591.982	0.0	596835	STOP	n/a	n/a	n/a	-999	5	[-999, -999, -999]	n/a	FR1	2	R1387E
591.982	1.732	596838	DISTRACT_END	n/a	n/a	n/a	-999	5	[0, 0, 0]	n/a	FR1	2	R1387E
593.714	29.999	598574	REC_START	n/a	n/a	n/a	-999	5	[0, 0, 0]	n/a	FR1	2	R1387E
623.713	0.304	628565	REC_WORD_VV	0.304	n/a	<>	-999	5	[0, 0, 0]	n/a	FR1	2	R1387E
624.017	2.348	628866	REC_END	n/a	n/a	n/a	-999	5	[0, 0, 0]	n/a	FR1	2	R1387E
626.365	10.35	631213	COUNTDOWN_START	n/a	n/a	n/a	-999	6	[0, 0, 0]	n/a	FR1	2	R1387E
636.715	0.0	641564	COUNTDOWN_END	n/a	n/a	n/a	-999	6	[0, 0, 0]	n/a	FR1	2	R1387E
636.715	2.166	641564	ENCODING_START	n/a	n/a	n/a	-999	6	[0, 0, 0]	n/a	FR1	2	R1387E
638.881	1.6	643735	WORD	n/a	n/a	PAGE	1	6	[0, 0, 0]	n/a	FR1	2	R1387E
640.481	0.983	645331	WORD_OFF	n/a	n/a	PAGE	1	6	[0, 0, 0]	n/a	FR1	2	R1387E
641.464	1.601	646323	WORD	n/a	n/a	PURSE	2	6	[0, 0, 0]	n/a	FR1	2	R1387E
643.065	0.766	647919	WORD_OFF	n/a	n/a	PURSE	2	6	[0, 0, 0]	n/a	FR1	2	R1387E
643.831	1.601	648681	WORD	n/a	n/a	MOSS	3	6	[0, 0, 0]	n/a	FR1	2	R1387E
645.432	0.833	650291	WORD_OFF	n/a	n/a	MOSS	3	6	[0, 0, 0]	n/a	FR1	2	R1387E
646.265	1.617	651110	WORD	n/a	n/a	CAMP	4	6	[0, 0, 0]	n/a	FR1	2	R1387E
647.882	0.916	652735	WORD_OFF	n/a	n/a	CAMP	4	6	[0, 0, 0]	n/a	FR1	2	R1387E
648.798	1.6	653655	WORD	n/a	n/a	TEETH	5	6	[0, 0, 0]	n/a	FR1	2	R1387E
650.398	0.767	655251	WORD_OFF	n/a	n/a	TEETH	5	6	[0, 0, 0]	n/a	FR1	2	R1387E
651.165	1.6	656013	WORD	n/a	n/a	FUR	6	6	[0, 0, 0]	n/a	FR1	2	R1387E
652.765	0.8	657623	WORD_OFF	n/a	n/a	FUR	6	6	[0, 0, 0]	n/a	FR1	2	R1387E
653.565	1.6	658414	WORD	n/a	n/a	PEA	7	6	[0, 0, 0]	n/a	FR1	2	R1387E
655.165	0.967	660010	WORD_OFF	n/a	n/a	PEA	7	6	[0, 0, 0]	n/a	FR1	2	R1387E
656.132	1.616	660987	WORD	n/a	n/a	MOOSE	8	6	[0, 0, 0]	n/a	FR1	2	R1387E
657.748	0.836	662597	WORD_OFF	n/a	n/a	MOOSE	8	6	[0, 0, 0]	n/a	FR1	2	R1387E
658.584	1.614	663431	WORD	n/a	n/a	CUBE	9	6	[0, 0, 0]	n/a	FR1	2	R1387E
660.198	0.766	665056	WORD_OFF	n/a	n/a	CUBE	9	6	[0, 0, 0]	n/a	FR1	2	R1387E
660.964	1.601	665818	WORD	n/a	n/a	BENCH	10	6	[0, 0, 0]	n/a	FR1	2	R1387E
662.565	0.933	667414	WORD_OFF	n/a	n/a	BENCH	10	6	[0, 0, 0]	n/a	FR1	2	R1387E
663.498	1.617	668348	WORD	n/a	n/a	THROAT	11	6	[0, 0, 0]	n/a	FR1	2	R1387E
665.115	0.9	669973	WORD_OFF	n/a	n/a	THROAT	11	6	[0, 0, 0]	n/a	FR1	2	R1387E
666.015	1.6	670864	WORD	n/a	n/a	CONE	12	6	[0, 0, 0]	n/a	FR1	2	R1387E
667.615	0.001	672460	WORD_OFF	n/a	n/a	CONE	12	6	[0, 0, 0]	n/a	FR1	2	R1387E
667.616	0.0	672467	PROB	0.0	n/a	n/a	-999	6	[6, 7, 8]	23	FR1	2	R1387E
667.616	0.0	672467	START	n/a	n/a	n/a	-999	6	[-999, -999, -999]	n/a	FR1	2	R1387E
667.616	0.0	672474	ENCODING_END	n/a	n/a	n/a	-999	6	[0, 0, 0]	n/a	FR1	2	R1387E
667.616	13.666	672474	DISTRACT_START	n/a	n/a	n/a	-999	6	[0, 0, 0]	n/a	FR1	2	R1387E
681.282	14.499	686132	PROB	14.499	n/a	n/a	-999	6	[8, 8, 7]	23	FR1	2	R1387E
695.781	0.0	700631	STOP	n/a	n/a	n/a	-999	6	[-999, -999, -999]	n/a	FR1	2	R1387E
695.781	1.534	700638	DISTRACT_END	n/a	n/a	n/a	-999	6	[0, 0, 0]	n/a	FR1	2	R1387E
697.315	13.251	702159	REC_START	n/a	n/a	n/a	-999	6	[0, 0, 0]	n/a	FR1	2	R1387E
710.566	5.659	715415	REC_WORD	5.659	n/a	EAT	-999	6	[0, 0, 0]	n/a	FR1	2	R1387E
716.225	1.965	721074	REC_WORD	1.965	n/a	PURSE	2	6	[0, 0, 0]	n/a	FR1	2	R1387E
718.19	1.0	723039	REC_WORD	1.0	n/a	BADGE	-999	6	[0, 0, 0]	n/a	FR1	2	R1387E
719.19	8.431	724039	REC_WORD_VV	8.431	n/a	<>	-999	6	[0, 0, 0]	n/a	FR1	2	R1387E
727.621	2.993	732465	REC_END	n/a	n/a	n/a	-999	6	[0, 0, 0]	n/a	FR1	2	R1387E
730.614	10.351	735473	COUNTDOWN_START	n/a	n/a	n/a	-999	7	[0, 0, 0]	n/a	FR1	2	R1387E
740.965	0.0	745810	COUNTDOWN_END	n/a	n/a	n/a	-999	7	[0, 0, 0]	n/a	FR1	2	R1387E
740.965	2.116	745810	ENCODING_START	n/a	n/a	n/a	-999	7	[0, 0, 0]	n/a	FR1	2	R1387E
743.081	1.601	747924	WORD	n/a	n/a	STORM	1	7	[0, 0, 0]	n/a	FR1	2	R1387E
744.682	0.966	749534	WORD_OFF	n/a	n/a	STORM	1	7	[0, 0, 0]	n/a	FR1	2	R1387E
745.648	1.6	750497	WORD	n/a	n/a	BROOM	2	7	[0, 0, 0]	n/a	FR1	2	R1387E
747.248	0.784	752093	WORD_OFF	n/a	n/a	BROOM	2	7	[0, 0, 0]	n/a	FR1	2	R1387E
748.032	1.6	752884	WORD	n/a	n/a	NIGHT	3	7	[0, 0, 0]	n/a	FR1	2	R1387E
749.632	0.85	754480	WORD_OFF	n/a	n/a	NIGHT	3	7	[0, 0, 0]	n/a	FR1	2	R1387E
750.482	1.6	755328	WORD	n/a	n/a	DITCH	4	7	[0, 0, 0]	n/a	FR1	2	R1387E
752.082	0.9	756924	WORD_OFF	n/a	n/a	DITCH	4	7	[0, 0, 0]	n/a	FR1	2	R1387E
752.982	1.6	757829	WORD	n/a	n/a	CHIN	5	7	[0, 0, 0]	n/a	FR1	2	R1387E
754.582	0.816	759425	WORD_OFF	n/a	n/a	CHIN	5	7	[0, 0, 0]	n/a	FR1	2	R1387E
755.398	1.6	760245	WORD	n/a	n/a	FOX	6	7	[0, 0, 0]	n/a	FR1	2	R1387E
756.998	0.917	761840	WORD_OFF	n/a	n/a	FOX	6	7	[0, 0, 0]	n/a	FR1	2	R1387E
757.915	1.6	762761	WORD	n/a	n/a	SMOKE	7	7	[0, 0, 0]	n/a	FR1	2	R1387E
759.515	0.767	764356	WORD_OFF	n/a	n/a	SMOKE	7	7	[0, 0, 0]	n/a	FR1	2	R1387E
760.282	1.616	765133	WORD	n/a	n/a	PASTE	8	7	[0, 0, 0]	n/a	FR1	2	R1387E
761.898	0.95	766743	WORD_OFF	n/a	n/a	PASTE	8	7	[0, 0, 0]	n/a	FR1	2	R1387E
762.848	1.6	767692	WORD	n/a	n/a	WOOD	9	7	[0, 0, 0]	n/a	FR1	2	R1387E
764.448	0.95	769302	WORD_OFF	n/a	n/a	WOOD	9	7	[0, 0, 0]	n/a	FR1	2	R1387E
765.398	1.6	770251	WORD	n/a	n/a	OWL	10	7	[0, 0, 0]	n/a	FR1	2	R1387E
766.998	0.834	771847	WORD_OFF	n/a	n/a	OWL	10	7	[0, 0, 0]	n/a	FR1	2	R1387E
767.832	1.616	772681	WORD	n/a	n/a	SNAIL	11	7	[0, 0, 0]	n/a	FR1	2	R1387E
769.448	0.9	774291	WORD_OFF	n/a	n/a	SNAIL	11	7	[0, 0, 0]	n/a	FR1	2	R1387E
770.348	1.6	775196	WORD	n/a	n/a	BONE	12	7	[0, 0, 0]	n/a	FR1	2	R1387E
771.948	0.002	776792	WORD_OFF	n/a	n/a	BONE	12	7	[0, 0, 0]	n/a	FR1	2	R1387E
771.95	0.0	776792	ENCODING_END	n/a	n/a	n/a	-999	7	[0, 0, 0]	n/a	FR1	2	R1387E
771.949	0.001	776796	PROB	0.001	n/a	n/a	-999	7	[3, 6, 5]	14	FR1	2	R1387E
771.95	0.0	776797	START	n/a	n/a	n/a	-999	7	[-999, -999, -999]	n/a	FR1	2	R1387E
771.95	6.531	776807	DISTRACT_START	n/a	n/a	n/a	-999	7	[0, 0, 0]	n/a	FR1	2	R1387E
778.481	4.783	783328	PROB	4.783	n/a	n/a	-999	7	[4, 5, 8]	17	FR1	2	R1387E
783.264	6.785	788111	PROB	6.785	n/a	n/a	-999	7	[6, 8, 3]	17	FR1	2	R1387E
790.049	5.166	794895	PROB	5.166	n/a	n/a	-999	7	[2, 4, 2]	8	FR1	2	R1387E
795.215	0.0	800061	STOP	n/a	n/a	n/a	-999	7	[-999, -999, -999]	n/a	FR1	2	R1387E
795.215	1.616	800068	DISTRACT_END	n/a	n/a	n/a	-999	7	[0, 0, 0]	n/a	FR1	2	R1387E
796.831	2.091	801675	REC_START	n/a	n/a	n/a	-999	7	[0, 0, 0]	n/a	FR1	2	R1387E
798.922	0.877	803768	REC_WORD	0.877	n/a	FOX	6	7	[0, 0, 0]	n/a	FR1	2	R1387E
799.799	1.0	804645	REC_WORD	1.0	n/a	SNAIL	11	7	[0, 0, 0]	n/a	FR1	2	R1387E
800.799	26.332	805645	REC_WORD_VV	26.332	n/a	<>	-999	7	[0, 0, 0]	n/a	FR1	2	R1387E
827.131	3.084	831982	REC_END	n/a	n/a	n/a	-999	7	[0, 0, 0]	n/a	FR1	2	R1387E
830.215	10.351	835061	COUNTDOWN_START	n/a	n/a	n/a	-999	8	[0, 0, 0]	n/a	FR1	2	R1387E
840.566	0.0	845413	COUNTDOWN_END	n/a	n/a	n/a	-999	8	[0, 0, 0]	n/a	FR1	2	R1387E
840.566	2.149	845413	ENCODING_START	n/a	n/a	n/a	-999	8	[0, 0, 0]	n/a	FR1	2	R1387E
842.715	1.6	847555	WORD	n/a	n/a	NET	1	8	[0, 0, 0]	n/a	FR1	2	R1387E
844.315	0.917	849165	WORD_OFF	n/a	n/a	NET	1	8	[0, 0, 0]	n/a	FR1	2	R1387E
845.232	1.6	850071	WORD	n/a	n/a	NEST	2	8	[0, 0, 0]	n/a	FR1	2	R1387E
846.832	0.832	851681	WORD_OFF	n/a	n/a	NEST	2	8	[0, 0, 0]	n/a	FR1	2	R1387E
847.664	1.601	852515	WORD	n/a	n/a	THREAD	3	8	[0, 0, 0]	n/a	FR1	2	R1387E
849.265	0.767	854111	WORD_OFF	n/a	n/a	THREAD	3	8	[0, 0, 0]	n/a	FR1	2	R1387E
850.032	1.6	854873	WORD	n/a	n/a	STEW	4	8	[0, 0, 0]	n/a	FR1	2	R1387E
851.632	0.95	856483	WORD_OFF	n/a	n/a	STEW	4	8	[0, 0, 0]	n/a	FR1	2	R1387E
852.582	1.616	857432	WORD	n/a	n/a	CLOWN	5	8	[0, 0, 0]	n/a	FR1	2	R1387E
854.198	0.85	859042	WORD_OFF	n/a	n/a	CLOWN	5	8	[0, 0, 0]	n/a	FR1	2	R1387E
855.048	1.617	859890	WORD	n/a	n/a	BEAK	6	8	[0, 0, 0]	n/a	FR1	2	R1387E
856.665	0.883	861515	WORD_OFF	n/a	n/a	BEAK	6	8	[0, 0, 0]	n/a	FR1	2	R1387E
857.548	1.601	862392	WORD	n/a	n/a	BRUSH	7	8	[0, 0, 0]	n/a	FR1	2	R1387E
859.149	0.983	863988	WORD_OFF	n/a	n/a	BRUSH	7	8	[0, 0, 0]	n/a	FR1	2	R1387E
860.132	1.6	864980	WORD	n/a	n/a	TIN	8	8	[0, 0, 0]	n/a	FR1	2	R1387E
861.732	0.766	866575	WORD_OFF	n/a	n/a	TIN	8	8	[0, 0, 0]	n/a	FR1	2	R1387E
862.498	1.6	867337	WORD	n/a	n/a	PET	9	8	[0, 0, 0]	n/a	FR1	2	R1387E
864.098	0.884	868948	WORD_OFF	n/a	n/a	PET	9	8	[0, 0, 0]	n/a	FR1	2	R1387E
864.982	1.6	869825	WORD	n/a	n/a	CHAIN	10	8	[0, 0, 0]	n/a	FR1	2	R1387E
866.582	0.832	871420	WORD_OFF	n/a	n/a	CHAIN	10	8	[0, 0, 0]	n/a	FR1	2	R1387E
867.414	1.601	872254	WORD	n/a	n/a	MAP	11	8	[0, 0, 0]	n/a	FR1	2	R1387E
869.015	1.0	873864	WORD_OFF	n/a	n/a	MAP	11	8	[0, 0, 0]	n/a	FR1	2	R1387E
870.015	1.601	874856	WORD	n/a	n/a	LOCK	12	8	[0, 0, 0]	n/a	FR1	2	R1387E
871.616	0.0	876460	PROB	0.0	n/a	n/a	-999	8	[1, 7, 7]	15	FR1	2	R1387E
871.616	0.0	876460	START	n/a	n/a	n/a	-999	8	[-999, -999, -999]	n/a	FR1	2	R1387E
871.615	0.001	876467	WORD_OFF	n/a	n/a	LOCK	12	8	[0, 0, 0]	n/a	FR1	2	R1387E
871.616	0.0	876467	ENCODING_END	n/a	n/a	n/a	-999	8	[0, 0, 0]	n/a	FR1	2	R1387E
871.616	4.383	876467	DISTRACT_START	n/a	n/a	n/a	-999	8	[0, 0, 0]	n/a	FR1	2	R1387E
875.999	4.433	880842	PROB	4.433	n/a	n/a	-999	8	[6, 8, 3]	17	FR1	2	R1387E
880.432	5.317	885275	PROB	5.317	n/a	n/a	-999	8	[1, 3, 6]	10	FR1	2	R1387E
885.749	8.265	890592	PROB	8.265	n/a	n/a	-999	8	[4, 1, 7]	12	FR1	2	R1387E
894.014	0.0	898851	DISTRACT_END	n/a	n/a	n/a	-999	8	[0, 0, 0]	n/a	FR1	2	R1387E
894.014	1.85	898857	STOP	n/a	n/a	n/a	-999	8	[-999, -999, -999]	n/a	FR1	2	R1387E
895.864	1.486	900703	REC_START	n/a	n/a	n/a	-999	8	[0, 0, 0]	n/a	FR1	2	R1387E
897.35	0.977	902193	REC_WORD	0.977	n/a	NET	1	8	[0, 0, 0]	n/a	FR1	2	R1387E
898.327	8.76	903170	REC_WORD	8.76	n/a	NEST	2	8	[0, 0, 0]	n/a	FR1	2	R1387E
907.087	1.0	911929	REC_WORD	1.0	n/a	FUR	-999	8	[0, 0, 0]	n/a	FR1	2	R1387E
908.087	18.064	912929	REC_WORD_VV	18.064	n/a	<>	-999	8	[0, 0, 0]	n/a	FR1	2	R1387E
926.151	4.563	930995	REC_END	n/a	n/a	n/a	-999	8	[0, 0, 0]	n/a	FR1	2	R1387E
930.714	10.352	935555	COUNTDOWN_START	n/a	n/a	n/a	-999	9	[0, 0, 0]	n/a	FR1	2	R1387E
941.066	0.0	945907	COUNTDOWN_END	n/a	n/a	n/a	-999	9	[0, 0, 0]	n/a	FR1	2	R1387E
941.066	1.999	945907	ENCODING_START	n/a	n/a	n/a	-999	9	[0, 0, 0]	n/a	FR1	2	R1387E
943.065	1.6	947905	WORD	n/a	n/a	HEEL	1	9	[0, 0, 0]	n/a	FR1	2	R1387E
944.665	0.833	949501	WORD_OFF	n/a	n/a	HEEL	1	9	[0, 0, 0]	n/a	FR1	2	R1387E
945.498	1.6	950335	WORD	n/a	n/a	STRING	2	9	[0, 0, 0]	n/a	FR1	2	R1387E
947.098	0.884	951945	WORD_OFF	n/a	n/a	STRING	2	9	[0, 0, 0]	n/a	FR1	2	R1387E
947.982	1.6	952822	WORD	n/a	n/a	CRANE	3	9	[0, 0, 0]	n/a	FR1	2	R1387E
949.582	0.866	954418	WORD_OFF	n/a	n/a	CRANE	3	9	[0, 0, 0]	n/a	FR1	2	R1387E
950.448	1.6	955295	WORD	n/a	n/a	COURT	4	9	[0, 0, 0]	n/a	FR1	2	R1387E
952.048	0.9	956890	WORD_OFF	n/a	n/a	COURT	4	9	[0, 0, 0]	n/a	FR1	2	R1387E
952.948	1.617	957796	WORD	n/a	n/a	HOSE	5	9	[0, 0, 0]	n/a	FR1	2	R1387E
954.565	1.0	959406	WORD_OFF	n/a	n/a	HOSE	5	9	[0, 0, 0]	n/a	FR1	2	R1387E
955.565	1.6	960413	WORD	n/a	n/a	CLIFF	6	9	[0, 0, 0]	n/a	FR1	2	R1387E
957.165	0.85	962009	WORD_OFF	n/a	n/a	CLIFF	6	9	[0, 0, 0]	n/a	FR1	2	R1387E
958.015	1.6	962857	WORD	n/a	n/a	BRANCH	7	9	[0, 0, 0]	n/a	FR1	2	R1387E
959.615	0.85	964453	WORD_OFF	n/a	n/a	BRANCH	7	9	[0, 0, 0]	n/a	FR1	2	R1387E
960.465	1.6	965301	WORD	n/a	n/a	FLAG	8	9	[0, 0, 0]	n/a	FR1	2	R1387E
962.065	0.9	966911	WORD_OFF	n/a	n/a	FLAG	8	9	[0, 0, 0]	n/a	FR1	2	R1387E
962.965	1.6	967802	WORD	n/a	n/a	CHEEK	9	9	[0, 0, 0]	n/a	FR1	2	R1387E
964.565	0.8	969413	WORD_OFF	n/a	n/a	CHEEK	9	9	[0, 0, 0]	n/a	FR1	2	R1387E
965.365	1.6	970203	WORD	n/a	n/a	ELF	10	9	[0, 0, 0]	n/a	FR1	2	R1387E
966.965	0.899	971799	WORD_OFF	n/a	n/a	ELF	10	9	[0, 0, 0]	n/a	FR1	2	R1387E
967.864	1.6	972705	WORD	n/a	n/a	POLE	11	9	[0, 0, 0]	n/a	FR1	2	R1387E
969.464	0.951	974301	WORD_OFF	n/a	n/a	POLE	11	9	[0, 0, 0]	n/a	FR1	2	R1387E
970.415	1.6	975250	WORD	n/a	n/a	SOAP	12	9	[0, 0, 0]	n/a	FR1	2	R1387E
972.015	0.001	976855	PROB	0.001	n/a	n/a	-999	9	[2, 1, 7]	10	FR1	2	R1387E
972.016	0.0	976856	START	n/a	n/a	n/a	-999	9	[-999, -999, -999]	n/a	FR1	2	R1387E
972.015	0.001	976860	WORD_OFF	n/a	n/a	SOAP	12	9	[0, 0, 0]	n/a	FR1	2	R1387E
972.016	0.0	976860	ENCODING_END	n/a	n/a	n/a	-999	9	[0, 0, 0]	n/a	FR1	2	R1387E
972.016	4.199	976860	DISTRACT_START	n/a	n/a	n/a	-999	9	[0, 0, 0]	n/a	FR1	2	R1387E
976.215	3.05	981055	PROB	3.05	n/a	n/a	-999	9	[2, 2, 2]	6	FR1	2	R1387E
979.265	3.584	984105	PROB	3.584	n/a	n/a	-999	9	[2, 6, 8]	16	FR1	2	R1387E
982.849	2.849	987689	PROB	2.849	n/a	n/a	-999	9	[1, 5, 1]	7	FR1	2	R1387E
985.698	5.134	990538	PROB	5.134	n/a	n/a	-999	9	[2, 8, 1]	11	FR1	2	R1387E
990.832	4.332	995671	PROB	4.332	n/a	n/a	-999	9	[2, 8, 3]	13	FR1	2	R1387E
995.164	0.0	1000003	STOP	n/a	n/a	n/a	-999	9	[-999, -999, -999]	n/a	FR1	2	R1387E
995.164	1.683	1000006	DISTRACT_END	n/a	n/a	n/a	-999	9	[0, 0, 0]	n/a	FR1	2	R1387E
996.847	13.6	1001685	REC_START	n/a	n/a	n/a	-999	9	[0, 0, 0]	n/a	FR1	2	R1387E
1010.447	16.702	1015286	REC_WORD	16.702	n/a	CLIFF	6	9	[0, 0, 0]	n/a	FR1	2	R1387E
1027.149	5.6	1031992	REC_END	n/a	n/a	n/a	-999	9	[0, 0, 0]	n/a	FR1	2	R1387E
1032.749	10.35	1037587	COUNTDOWN_START	n/a	n/a	n/a	-999	10	[0, 0, 0]	n/a	FR1	2	R1387E
1043.099	0.0	1047939	COUNTDOWN_END	n/a	n/a	n/a	-999	10	[0, 0, 0]	n/a	FR1	2	R1387E
1043.099	1.966	1047939	ENCODING_START	n/a	n/a	n/a	-999	10	[0, 0, 0]	n/a	FR1	2	R1387E
1045.065	1.6	1049908	WORD	n/a	n/a	TENT	1	10	[0, 0, 0]	n/a	FR1	2	R1387E
1046.665	0.783	1051504	WORD_OFF	n/a	n/a	TENT	1	10	[0, 0, 0]	n/a	FR1	2	R1387E
1047.448	1.6	1052280	WORD	n/a	n/a	POND	2	10	[0, 0, 0]	n/a	FR1	2	R1387E
1049.048	0.783	1053891	WORD_OFF	n/a	n/a	POND	2	10	[0, 0, 0]	n/a	FR1	2	R1387E
1049.831	1.617	1054667	WORD	n/a	n/a	GOLD	3	10	[0, 0, 0]	n/a	FR1	2	R1387E
1051.448	0.883	1056292	WORD_OFF	n/a	n/a	GOLD	3	10	[0, 0, 0]	n/a	FR1	2	R1387E
1052.331	1.601	1057169	WORD	n/a	n/a	TIE	4	10	[0, 0, 0]	n/a	FR1	2	R1387E
1053.932	0.982	1058764	WORD_OFF	n/a	n/a	TIE	4	10	[0, 0, 0]	n/a	FR1	2	R1387E
1054.914	1.601	1059756	WORD	n/a	n/a	GLOVE	5	10	[0, 0, 0]	n/a	FR1	2	R1387E
1056.515	0.817	1061352	WORD_OFF	n/a	n/a	GLOVE	5	10	[0, 0, 0]	n/a	FR1	2	R1387E
1057.332	1.616	1062172	WORD	n/a	n/a	VEST	6	10	[0, 0, 0]	n/a	FR1	2	R1387E
1058.948	0.984	1063782	WORD_OFF	n/a	n/a	VEST	6	10	[0, 0, 0]	n/a	FR1	2	R1387E
1059.932	1.616	1064774	WORD	n/a	n/a	CLAY	7	10	[0, 0, 0]	n/a	FR1	2	R1387E
1061.548	0.767	1066384	WORD_OFF	n/a	n/a	CLAY	7	10	[0, 0, 0]	n/a	FR1	2	R1387E
1062.315	1.6	1067160	WORD	n/a	n/a	GUN	8	10	[0, 0, 0]	n/a	FR1	2	R1387E
1063.915	1.0	1068756	WORD_OFF	n/a	n/a	GUN	8	10	[0, 0, 0]	n/a	FR1	2	R1387E
1064.915	1.6	1069748	WORD	n/a	n/a	SEAT	9	10	[0, 0, 0]	n/a	FR1	2	R1387E
1066.515	0.933	1071359	WORD_OFF	n/a	n/a	SEAT	9	10	[0, 0, 0]	n/a	FR1	2	R1387E
1067.448	1.617	1072293	WORD	n/a	n/a	SHEET	10	10	[0, 0, 0]	n/a	FR1	2	R1387E
1069.065	0.766	1073903	WORD_OFF	n/a	n/a	SHEET	10	10	[0, 0, 0]	n/a	FR1	2	R1387E
1069.831	1.617	1074665	WORD	n/a	n/a	HOOK	11	10	[0, 0, 0]	n/a	FR1	2	R1387E
1071.448	0.917	1076290	WORD_OFF	n/a	n/a	HOOK	11	10	[0, 0, 0]	n/a	FR1	2	R1387E
1072.365	1.617	1077196	WORD	n/a	n/a	GOWN	12	10	[0, 0, 0]	n/a	FR1	2	R1387E
1073.982	0.0	1078819	PROB	0.0	n/a	n/a	-999	10	[7, 7, 5]	19	FR1	2	R1387E
1073.982	0.001	1078820	WORD_OFF	n/a	n/a	GOWN	12	10	[0, 0, 0]	n/a	FR1	2	R1387E
1073.983	0.0	1078820	ENCODING_END	n/a	n/a	n/a	-999	10	[0, 0, 0]	n/a	FR1	2	R1387E
1073.983	0.0	1078820	DISTRACT_START	n/a	n/a	n/a	-999	10	[0, 0, 0]	n/a	FR1	2	R1387E
1073.983	6.098	1078820	START	n/a	n/a	n/a	-999	10	[-999, -999, -999]	n/a	FR1	2	R1387E
1080.081	8.983	1084917	PROB	8.983	n/a	n/a	-999	10	[8, 4, 2]	14	FR1	2	R1387E
1089.064	11.118	1093900	PROB	11.118	n/a	n/a	-999	10	[6, 7, 5]	18	FR1	2	R1387E
1100.182	0.0	1105015	DISTRACT_END	n/a	n/a	n/a	-999	10	[0, 0, 0]	n/a	FR1	2	R1387E
1100.182	1.567	1105018	STOP	n/a	n/a	n/a	-999	10	[-999, -999, -999]	n/a	FR1	2	R1387E
1101.749	15.451	1106578	REC_START	n/a	n/a	n/a	-999	10	[0, 0, 0]	n/a	FR1	2	R1387E
1117.2	1.0	1122035	REC_WORD	1.0	n/a	BRANCH	-999	10	[0, 0, 0]	n/a	FR1	2	R1387E
1118.2	13.854	1123035	REC_WORD_VV	13.854	n/a	<>	-999	10	[0, 0, 0]	n/a	FR1	2	R1387E
1132.054	3.195	1136885	REC_END	n/a	n/a	n/a	-999	10	[0, 0, 0]	n/a	FR1	2	R1387E
1135.249	10.35	1140080	COUNTDOWN_START	n/a	n/a	n/a	-999	11	[0, 0, 0]	n/a	FR1	2	R1387E
1145.599	0.0	1150431	COUNTDOWN_END	n/a	n/a	n/a	-999	11	[0, 0, 0]	n/a	FR1	2	R1387E
1145.599	2.049	1150431	ENCODING_START	n/a	n/a	n/a	-999	11	[0, 0, 0]	n/a	FR1	2	R1387E
1147.648	1.6	1152487	WORD	n/a	n/a	STREET	1	11	[0, 0, 0]	n/a	FR1	2	R1387E
1149.248	0.8	1154083	WORD_OFF	n/a	n/a	STREET	1	11	[0, 0, 0]	n/a	FR1	2	R1387E
1150.048	1.616	1154888	WORD	n/a	n/a	WAND	2	11	[0, 0, 0]	n/a	FR1	2	R1387E
1151.664	0.867	1156498	WORD_OFF	n/a	n/a	WAND	2	11	[0, 0, 0]	n/a	FR1	2	R1387E
1152.531	1.601	1157360	WORD	n/a	n/a	FORT	3	11	[0, 0, 0]	n/a	FR1	2	R1387E
1154.132	0.916	1158971	WORD_OFF	n/a	n/a	FORT	3	11	[0, 0, 0]	n/a	FR1	2	R1387E
1155.048	1.616	1159876	WORD	n/a	n/a	ASH	4	11	[0, 0, 0]	n/a	FR1	2	R1387E
1156.664	1.001	1161501	WORD_OFF	n/a	n/a	ASH	4	11	[0, 0, 0]	n/a	FR1	2	R1387E
1157.665	1.616	1162493	WORD	n/a	n/a	FROST	5	11	[0, 0, 0]	n/a	FR1	2	R1387E
1159.281	0.8	1164118	WORD_OFF	n/a	n/a	FROST	5	11	[0, 0, 0]	n/a	FR1	2	R1387E
1160.081	1.617	1164923	WORD	n/a	n/a	DOCK	6	11	[0, 0, 0]	n/a	FR1	2	R1387E
1161.698	0.833	1166533	WORD_OFF	n/a	n/a	DOCK	6	11	[0, 0, 0]	n/a	FR1	2	R1387E
1162.531	1.6	1167367	WORD	n/a	n/a	POT	7	11	[0, 0, 0]	n/a	FR1	2	R1387E
1164.131	0.867	1168963	WORD_OFF	n/a	n/a	POT	7	11	[0, 0, 0]	n/a	FR1	2	R1387E
1164.998	1.616	1169825	WORD	n/a	n/a	PORK	8	11	[0, 0, 0]	n/a	FR1	2	R1387E
1166.614	0.95	1171450	WORD_OFF	n/a	n/a	PORK	8	11	[0, 0, 0]	n/a	FR1	2	R1387E
1167.564	1.601	1172399	WORD	n/a	n/a	BEEF	9	11	[0, 0, 0]	n/a	FR1	2	R1387E
1169.165	0.816	1173994	WORD_OFF	n/a	n/a	BEEF	9	11	[0, 0, 0]	n/a	FR1	2	R1387E
1169.981	1.6	1174814	WORD	n/a	n/a	BRIDGE	10	11	[0, 0, 0]	n/a	FR1	2	R1387E
1171.581	0.8	1176410	WORD_OFF	n/a	n/a	BRIDGE	10	11	[0, 0, 0]	n/a	FR1	2	R1387E
1172.381	1.6	1177215	WORD	n/a	n/a	SLIME	11	11	[0, 0, 0]	n/a	FR1	2	R1387E
1173.981	0.783	1178811	WORD_OFF	n/a	n/a	SLIME	11	11	[0, 0, 0]	n/a	FR1	2	R1387E
1174.764	1.6	1179601	WORD	n/a	n/a	SEED	12	11	[0, 0, 0]	n/a	FR1	2	R1387E
1176.364	0.002	1181197	WORD_OFF	n/a	n/a	SEED	12	11	[0, 0, 0]	n/a	FR1	2	R1387E
1176.366	0.001	1181197	ENCODING_END	n/a	n/a	n/a	-999	11	[0, 0, 0]	n/a	FR1	2	R1387E
1176.367	0.0	1181197	DISTRACT_START	n/a	n/a	n/a	-999	11	[0, 0, 0]	n/a	FR1	2	R1387E
1176.365	0.002	1181198	PROB	0.002	n/a	n/a	-999	11	[1, 1, 2]	4	FR1	2	R1387E
1176.367	3.448	1181200	START	n/a	n/a	n/a	-999	11	[-999, -999, -999]	n/a	FR1	2	R1387E
1179.815	5.633	1184648	PROB	5.633	n/a	n/a	-999	11	[5, 7, 3]	15	FR1	2	R1387E
1185.448	14.584	1190281	PROB	14.584	n/a	n/a	-999	11	[8, 6, 6]	18	FR1	2	R1387E
1200.032	0.0	1204861	DISTRACT_END	n/a	n/a	n/a	-999	11	[0, 0, 0]	n/a	FR1	2	R1387E
1200.032	1.55	1204864	STOP	n/a	n/a	n/a	-999	11	[-999, -999, -999]	n/a	FR1	2	R1387E
1201.582	3.192	1206411	REC_START	n/a	n/a	n/a	-999	11	[0, 0, 0]	n/a	FR1	2	R1387E
1204.774	1.475	1209606	REC_WORD	1.475	n/a	BEEF	9	11	[0, 0, 0]	n/a	FR1	2	R1387E
1206.249	1.361	1211081	REC_WORD	1.361	n/a	BRIDGE	10	11	[0, 0, 0]	n/a	FR1	2	R1387E
1207.61	1.0	1212442	REC_WORD	1.0	n/a	SLIME	11	11	[0, 0, 0]	n/a	FR1	2	R1387E
1208.61	23.288	1213442	REC_WORD_VV	23.288	n/a	<>	-999	11	[0, 0, 0]	n/a	FR1	2	R1387E
1231.898	2.766	1236732	REC_END	n/a	n/a	n/a	-999	11	[0, 0, 0]	n/a	FR1	2	R1387E
1234.664	10.352	1239495	COUNTDOWN_START	n/a	n/a	n/a	-999	12	[0, 0, 0]	n/a	FR1	2	R1387E
1245.016	0.0	1249846	COUNTDOWN_END	n/a	n/a	n/a	-999	12	[0, 0, 0]	n/a	FR1	2	R1387E
1245.016	2.216	1249846	ENCODING_START	n/a	n/a	n/a	-999	12	[0, 0, 0]	n/a	FR1	2	R1387E
1247.232	1.616	1252060	WORD	n/a	n/a	BIRD	1	12	[0, 0, 0]	n/a	FR1	2	R1387E
1248.848	0.767	1253685	WORD_OFF	n/a	n/a	BIRD	1	12	[0, 0, 0]	n/a	FR1	2	R1387E
1249.615	1.615	1254447	WORD	n/a	n/a	MINK	2	12	[0, 0, 0]	n/a	FR1	2	R1387E
1251.23	0.801	1256057	WORD_OFF	n/a	n/a	MINK	2	12	[0, 0, 0]	n/a	FR1	2	R1387E
1252.031	1.6	1256862	WORD	n/a	n/a	SUIT	3	12	[0, 0, 0]	n/a	FR1	2	R1387E
1253.631	0.934	1258458	WORD_OFF	n/a	n/a	SUIT	3	12	[0, 0, 0]	n/a	FR1	2	R1387E
1254.565	1.6	1259393	WORD	n/a	n/a	PHONE	4	12	[0, 0, 0]	n/a	FR1	2	R1387E
1256.165	0.783	1261003	WORD_OFF	n/a	n/a	PHONE	4	12	[0, 0, 0]	n/a	FR1	2	R1387E
1256.948	1.6	1261779	WORD	n/a	n/a	BOLT	5	12	[0, 0, 0]	n/a	FR1	2	R1387E
1258.548	0.866	1263375	WORD_OFF	n/a	n/a	BOLT	5	12	[0, 0, 0]	n/a	FR1	2	R1387E
1259.414	1.6	1264252	WORD	n/a	n/a	BOOK	6	12	[0, 0, 0]	n/a	FR1	2	R1387E
1261.014	0.85	1265848	WORD_OFF	n/a	n/a	BOOK	6	12	[0, 0, 0]	n/a	FR1	2	R1387E
1261.864	1.6	1266696	WORD	n/a	n/a	THUMB	7	12	[0, 0, 0]	n/a	FR1	2	R1387E
1263.464	0.867	1268292	WORD_OFF	n/a	n/a	THUMB	7	12	[0, 0, 0]	n/a	FR1	2	R1387E
1264.331	1.6	1269169	WORD	n/a	n/a	PALM	8	12	[0, 0, 0]	n/a	FR1	2	R1387E
1265.931	0.783	1270765	WORD_OFF	n/a	n/a	PALM	8	12	[0, 0, 0]	n/a	FR1	2	R1387E
1266.714	1.6	1271541	WORD	n/a	n/a	HOUSE	9	12	[0, 0, 0]	n/a	FR1	2	R1387E
1268.314	1.0	1273151	WORD_OFF	n/a	n/a	HOUSE	9	12	[0, 0, 0]	n/a	FR1	2	R1387E
1269.314	1.6	1274143	WORD	n/a	n/a	COKE	10	12	[0, 0, 0]	n/a	FR1	2	R1387E
1270.914	0.767	1275739	WORD_OFF	n/a	n/a	COKE	10	12	[0, 0, 0]	n/a	FR1	2	R1387E
1271.681	1.616	1276515	WORD	n/a	n/a	FLAME	11	12	[0, 0, 0]	n/a	FR1	2	R1387E
1273.297	0.784	1278126	WORD_OFF	n/a	n/a	FLAME	11	12	[0, 0, 0]	n/a	FR1	2	R1387E
1274.081	1.6	1278916	WORD	n/a	n/a	STOOL	12	12	[0, 0, 0]	n/a	FR1	2	R1387E
1275.681	0.0	1280511	PROB	0.0	n/a	n/a	-999	12	[5, 2, 8]	15	FR1	2	R1387E
1275.681	0.001	1280512	WORD_OFF	n/a	n/a	STOOL	12	12	[0, 0, 0]	n/a	FR1	2	R1387E
1275.682	0.0	1280512	ENCODING_END	n/a	n/a	n/a	-999	12	[0, 0, 0]	n/a	FR1	2	R1387E
1275.682	0.0	1280512	DISTRACT_START	n/a	n/a	n/a	-999	12	[0, 0, 0]	n/a	FR1	2	R1387E
1275.682	4.599	1280512	START	n/a	n/a	n/a	-999	12	[-999, -999, -999]	n/a	FR1	2	R1387E
1280.281	5.534	1285111	PROB	5.534	n/a	n/a	-999	12	[5, 1, 2]	8	FR1	2	R1387E
1285.815	3.752	1290644	PROB	3.752	n/a	n/a	-999	12	[5, 2, 1]	8	FR1	2	R1387E
1289.567	8.831	1294396	PROB	8.831	n/a	n/a	-999	12	[6, 7, 8]	21	FR1	2	R1387E
1298.398	0.0	1303227	STOP	n/a	n/a	n/a	-999	12	[-999, -999, -999]	n/a	FR1	2	R1387E
1298.398	1.55	1303228	DISTRACT_END	n/a	n/a	n/a	-999	12	[0, 0, 0]	n/a	FR1	2	R1387E
1299.948	13.039	1304777	REC_START	n/a	n/a	n/a	-999	12	[0, 0, 0]	n/a	FR1	2	R1387E
1312.987	17.23	1317816	REC_WORD	17.23	n/a	BRICK	-999	12	[0, 0, 0]	n/a	FR1	2	R1387E
1330.217	0.0	1335040	REC_END	n/a	n/a	n/a	-999	12	[0, 0, 0]	n/a	FR1	2	R1387E
