onset	duration	sample	trial_type	response_time	stim_file	item_name	serialpos	list	test	answer	experiment	session	subject
0.0	214.495	178	INSTRUCT_START	n/a	n/a	n/a	-999	-999	[0, 0, 0]	n/a	FR1	2	R1315T
214.495	7.417	214664	INSTRUCT_END	n/a	n/a	n/a	-999	-999	[0, 0, 0]	n/a	FR1	2	R1315T
221.912	10.354	222080	MIC TEST_START	n/a	n/a	n/a	-999	-999	[0, 0, 0]	n/a	FR1	2	R1315T
232.266	0.02	232434	MIC TEST_END	n/a	n/a	n/a	-999	-999	[0, 0, 0]	n/a	FR1	2	R1315T
232.286	0.001	232454	TRIAL_START	n/a	n/a	n/a	-999	-1	[0, 0, 0]	n/a	FR1	2	R1315T
232.287	0.0	232455	TRIAL	n/a	n/a	n/a	-999	-1	[0, 0, 0]	n/a	FR1	2	R1315T
232.287	21.132	232455	WAITING_START	n/a	n/a	n/a	-999	-1	[0, 0, 0]	n/a	FR1	2	R1315T
253.419	0.0	253586	COUNTDOWN_START	n/a	n/a	n/a	-999	-1	[0, 0, 0]	n/a	FR1	2	R1315T
253.419	10.429	253586	WAITING_END	n/a	n/a	n/a	-999	-1	[0, 0, 0]	n/a	FR1	2	R1315T
263.848	0.0	264014	COUNTDOWN_END	n/a	n/a	n/a	-999	-1	[0, 0, 0]	n/a	FR1	2	R1315T
263.848	1.205	264014	ORIENT_START	n/a	n/a	n/a	-999	-1	[0, 0, 0]	n/a	FR1	2	R1315T
265.053	0.001	265219	ORIENT_END	n/a	n/a	n/a	-999	-1	[0, 0, 0]	n/a	FR1	2	R1315T
265.054	0.861	265220	ENCODING_START	n/a	n/a	n/a	-999	-1	[0, 0, 0]	n/a	FR1	2	R1315T
265.915	1.639	266081	WORD	n/a	n/a	COTTON	1	-1	[0, 0, 0]	n/a	FR1	2	R1315T
267.554	0.966	267720	WORD_OFF	n/a	n/a	COTTON	1	-1	[0, 0, 0]	n/a	FR1	2	R1315T
268.52	1.634	268686	WORD	n/a	n/a	TONGUE	2	-1	[0, 0, 0]	n/a	FR1	2	R1315T
270.154	0.801	270320	WORD_OFF	n/a	n/a	TONGUE	2	-1	[0, 0, 0]	n/a	FR1	2	R1315T
270.955	1.633	271121	WORD	n/a	n/a	RING	3	-1	[0, 0, 0]	n/a	FR1	2	R1315T
272.588	0.88	272754	WORD_OFF	n/a	n/a	RING	3	-1	[0, 0, 0]	n/a	FR1	2	R1315T
273.468	1.637	273634	WORD	n/a	n/a	BABY	4	-1	[0, 0, 0]	n/a	FR1	2	R1315T
275.105	1.124	275271	WORD_OFF	n/a	n/a	BABY	4	-1	[0, 0, 0]	n/a	FR1	2	R1315T
276.229	1.627	276395	WORD	n/a	n/a	BEAM	5	-1	[0, 0, 0]	n/a	FR1	2	R1315T
277.856	0.836	278022	WORD_OFF	n/a	n/a	BEAM	5	-1	[0, 0, 0]	n/a	FR1	2	R1315T
278.692	1.632	278858	WORD	n/a	n/a	RHINO	6	-1	[0, 0, 0]	n/a	FR1	2	R1315T
280.324	1.132	280490	WORD_OFF	n/a	n/a	RHINO	6	-1	[0, 0, 0]	n/a	FR1	2	R1315T
281.456	1.634	281622	WORD	n/a	n/a	CHEST	7	-1	[0, 0, 0]	n/a	FR1	2	R1315T
283.09	1.101	283256	WORD_OFF	n/a	n/a	CHEST	7	-1	[0, 0, 0]	n/a	FR1	2	R1315T
284.191	1.633	284356	WORD	n/a	n/a	FLOOD	8	-1	[0, 0, 0]	n/a	FR1	2	R1315T
285.824	1.005	285989	WORD_OFF	n/a	n/a	FLOOD	8	-1	[0, 0, 0]	n/a	FR1	2	R1315T
286.829	1.613	286994	WORD	n/a	n/a	CAMEL	9	-1	[0, 0, 0]	n/a	FR1	2	R1315T
288.442	0.757	288607	WORD_OFF	n/a	n/a	CAMEL	9	-1	[0, 0, 0]	n/a	FR1	2	R1315T
289.199	1.626	289364	WORD	n/a	n/a	WATCH	10	-1	[0, 0, 0]	n/a	FR1	2	R1315T
290.825	0.997	290990	WORD_OFF	n/a	n/a	WATCH	10	-1	[0, 0, 0]	n/a	FR1	2	R1315T
291.822	1.621	291987	WORD	n/a	n/a	WAGON	11	-1	[0, 0, 0]	n/a	FR1	2	R1315T
293.443	1.111	293608	WORD_OFF	n/a	n/a	WAGON	11	-1	[0, 0, 0]	n/a	FR1	2	R1315T
294.554	1.622	294719	WORD	n/a	n/a	IMAGE	12	-1	[0, 0, 0]	n/a	FR1	2	R1315T
296.176	0.0	296341	WORD_OFF	n/a	n/a	IMAGE	12	-1	[0, 0, 0]	n/a	FR1	2	R1315T
296.176	0.001	296341	ENCODING_END	n/a	n/a	n/a	-999	-1	[0, 0, 0]	n/a	FR1	2	R1315T
296.177	0.0	296342	DISTRACT_START	n/a	n/a	n/a	-999	-1	[0, 0, 0]	n/a	FR1	2	R1315T
296.177	0.015	296342	START	n/a	n/a	n/a	-999	-1	[-999, -999, -999]	n/a	FR1	2	R1315T
296.192	3.302	296357	PROB	3.302	n/a	n/a	-999	-1	[3, 3, 6]	12	FR1	2	R1315T
299.494	2.583	299659	PROB	2.583	n/a	n/a	-999	-1	[3, 3, 3]	9	FR1	2	R1315T
302.077	2.15	302242	PROB	2.15	n/a	n/a	-999	-1	[3, 3, 7]	13	FR1	2	R1315T
304.227	2.967	304392	PROB	2.967	n/a	n/a	-999	-1	[3, 7, 6]	16	FR1	2	R1315T
307.194	2.517	307358	PROB	2.517	n/a	n/a	-999	-1	[2, 4, 8]	14	FR1	2	R1315T
309.711	4.334	309875	PROB	4.334	n/a	n/a	-999	-1	[4, 7, 2]	14	FR1	2	R1315T
314.045	4.294	314209	PROB	4.294	n/a	n/a	-999	-1	[8, 7, 6]	21	FR1	2	R1315T
318.339	0.008	318503	STOP	n/a	n/a	n/a	-999	-1	[-999, -999, -999]	n/a	FR1	2	R1315T
318.347	0.681	318511	DISTRACT_END	n/a	n/a	n/a	-999	-1	[0, 0, 0]	n/a	FR1	2	R1315T
319.028	1.702	319192	RETRIEVAL_ORIENT_START	n/a	n/a	n/a	-999	-1	[0, 0, 0]	n/a	FR1	2	R1315T
320.73	0.0	320894	RETRIEVAL_ORIENT_END	n/a	n/a	n/a	-999	-1	[0, 0, 0]	n/a	FR1	2	R1315T
320.73	1.325	320894	REC_START	n/a	n/a	n/a	-999	-1	[0, 0, 0]	n/a	FR1	2	R1315T
322.055	1.306	322219	REC_WORD	1.306	n/a	COTTON	1	-1	[0, 0, 0]	n/a	FR1	2	R1315T
323.361	2.927	323525	REC_WORD	2.927	n/a	TONGUE	2	-1	[0, 0, 0]	n/a	FR1	2	R1315T
326.288	1.907	326452	REC_WORD	1.907	n/a	RING	3	-1	[0, 0, 0]	n/a	FR1	2	R1315T
328.195	22.55	328358	REC_WORD	22.55	n/a	WATCH	10	-1	[0, 0, 0]	n/a	FR1	2	R1315T
350.745	0.0	350907	REC_END	n/a	n/a	n/a	-999	-1	[0, 0, 0]	n/a	FR1	2	R1315T
350.745	2.609	350907	PRACTICE_POST_INSTRUCT_START	n/a	n/a	n/a	-999	-1	[0, 0, 0]	n/a	FR1	2	R1315T
353.354	0.001	353516	PRACTICE_POST_INSTRUCT_END	n/a	n/a	n/a	-999	-1	[0, 0, 0]	n/a	FR1	2	R1315T
353.355	0.019	353517	TRIAL_END	n/a	n/a	n/a	-999	-1	[0, 0, 0]	n/a	FR1	2	R1315T
353.374	0.0	353536	TRIAL	n/a	n/a	n/a	-999	1	[0, 0, 0]	n/a	FR1	2	R1315T
353.374	0.0	353536	WAITING_START	n/a	n/a	n/a	-999	1	[0, 0, 0]	n/a	FR1	2	R1315T
353.374	1.163	353536	TRIAL_START	n/a	n/a	n/a	-999	1	[0, 0, 0]	n/a	FR1	2	R1315T
354.537	0.001	354699	WAITING_END	n/a	n/a	n/a	-999	1	[0, 0, 0]	n/a	FR1	2	R1315T
354.538	10.431	354700	COUNTDOWN_START	n/a	n/a	n/a	-999	1	[0, 0, 0]	n/a	FR1	2	R1315T
364.969	0.0	365131	COUNTDOWN_END	n/a	n/a	n/a	-999	1	[0, 0, 0]	n/a	FR1	2	R1315T
364.969	1.053	365131	ORIENT_START	n/a	n/a	n/a	-999	1	[0, 0, 0]	n/a	FR1	2	R1315T
366.022	0.0	366184	ORIENT_END	n/a	n/a	n/a	-999	1	[0, 0, 0]	n/a	FR1	2	R1315T
366.022	0.928	366184	ENCODING_START	n/a	n/a	n/a	-999	1	[0, 0, 0]	n/a	FR1	2	R1315T
366.95	1.639	367112	WORD	n/a	wordpools/wordpool_EN.txt	WEED	1	1	[0, 0, 0]	n/a	FR1	2	R1315T
368.589	0.895	368751	WORD_OFF	n/a	n/a	WEED	1	1	[0, 0, 0]	n/a	FR1	2	R1315T
369.484	1.622	369646	WORD	n/a	wordpools/wordpool_EN.txt	GATE	2	1	[0, 0, 0]	n/a	FR1	2	R1315T
371.106	0.95	371268	WORD_OFF	n/a	n/a	GATE	2	1	[0, 0, 0]	n/a	FR1	2	R1315T
372.056	1.634	372218	WORD	n/a	wordpools/wordpool_EN.txt	FLOOR	3	1	[0, 0, 0]	n/a	FR1	2	R1315T
373.69	1.073	373851	WORD_OFF	n/a	n/a	FLOOR	3	1	[0, 0, 0]	n/a	FR1	2	R1315T
374.763	1.628	374924	WORD	n/a	wordpools/wordpool_EN.txt	RAIN	4	1	[0, 0, 0]	n/a	FR1	2	R1315T
376.391	1.08	376552	WORD_OFF	n/a	n/a	RAIN	4	1	[0, 0, 0]	n/a	FR1	2	R1315T
377.471	1.636	377632	WORD	n/a	wordpools/wordpool_EN.txt	ROSE	5	1	[0, 0, 0]	n/a	FR1	2	R1315T
379.107	0.978	379268	WORD_OFF	n/a	n/a	ROSE	5	1	[0, 0, 0]	n/a	FR1	2	R1315T
380.085	1.623	380246	WORD	n/a	wordpools/wordpool_EN.txt	LAND	6	1	[0, 0, 0]	n/a	FR1	2	R1315T
381.708	1.012	381869	WORD_OFF	n/a	n/a	LAND	6	1	[0, 0, 0]	n/a	FR1	2	R1315T
382.72	1.623	382881	WORD	n/a	wordpools/wordpool_EN.txt	FENCE	7	1	[0, 0, 0]	n/a	FR1	2	R1315T
384.343	1.019	384504	WORD_OFF	n/a	n/a	FENCE	7	1	[0, 0, 0]	n/a	FR1	2	R1315T
385.362	1.63	385523	WORD	n/a	wordpools/wordpool_EN.txt	TOOTH	8	1	[0, 0, 0]	n/a	FR1	2	R1315T
386.992	0.882	387153	WORD_OFF	n/a	n/a	TOOTH	8	1	[0, 0, 0]	n/a	FR1	2	R1315T
387.874	1.619	388035	WORD	n/a	wordpools/wordpool_EN.txt	WORM	9	1	[0, 0, 0]	n/a	FR1	2	R1315T
389.493	0.831	389654	WORD_OFF	n/a	n/a	WORM	9	1	[0, 0, 0]	n/a	FR1	2	R1315T
390.324	1.636	390485	WORD	n/a	wordpools/wordpool_EN.txt	GOAT	10	1	[0, 0, 0]	n/a	FR1	2	R1315T
391.96	1.11	392121	WORD_OFF	n/a	n/a	GOAT	10	1	[0, 0, 0]	n/a	FR1	2	R1315T
393.07	1.624	393231	WORD	n/a	wordpools/wordpool_EN.txt	SKY	11	1	[0, 0, 0]	n/a	FR1	2	R1315T
394.694	0.969	394854	WORD_OFF	n/a	n/a	SKY	11	1	[0, 0, 0]	n/a	FR1	2	R1315T
395.663	1.615	395823	WORD	n/a	wordpools/wordpool_EN.txt	WHEEL	12	1	[0, 0, 0]	n/a	FR1	2	R1315T
397.278	0.0	397438	WORD_OFF	n/a	n/a	WHEEL	12	1	[0, 0, 0]	n/a	FR1	2	R1315T
397.278	0.001	397438	ENCODING_END	n/a	n/a	n/a	-999	1	[0, 0, 0]	n/a	FR1	2	R1315T
397.279	0.0	397439	DISTRACT_START	n/a	n/a	n/a	-999	1	[0, 0, 0]	n/a	FR1	2	R1315T
397.279	0.016	397439	START	n/a	n/a	n/a	-999	1	[-999, -999, -999]	n/a	FR1	2	R1315T
397.295	5.7	397455	PROB	5.7	n/a	n/a	-999	1	[4, 5, 3]	12	FR1	2	R1315T
402.995	2.501	403155	PROB	2.501	n/a	n/a	-999	1	[7, 2, 2]	11	FR1	2	R1315T
405.496	2.884	405656	PROB	2.884	n/a	n/a	-999	1	[6, 4, 8]	18	FR1	2	R1315T
408.38	4.051	408540	PROB	4.051	n/a	n/a	-999	1	[3, 6, 5]	14	FR1	2	R1315T
412.431	3.283	412591	PROB	3.283	n/a	n/a	-999	1	[3, 1, 1]	5	FR1	2	R1315T
415.714	3.857	415874	PROB	3.857	n/a	n/a	-999	1	[5, 8, 5]	18	FR1	2	R1315T
419.571	0.01	419730	STOP	n/a	n/a	n/a	-999	1	[-999, -999, -999]	n/a	FR1	2	R1315T
419.581	0.664	419740	DISTRACT_END	n/a	n/a	n/a	-999	1	[0, 0, 0]	n/a	FR1	2	R1315T
420.245	1.686	420404	RETRIEVAL_ORIENT_START	n/a	n/a	n/a	-999	1	[0, 0, 0]	n/a	FR1	2	R1315T
421.931	0.001	422090	RETRIEVAL_ORIENT_END	n/a	n/a	n/a	-999	1	[0, 0, 0]	n/a	FR1	2	R1315T
421.932	1.479	422091	REC_START	n/a	n/a	n/a	-999	1	[0, 0, 0]	n/a	FR1	2	R1315T
423.411	0.89	423570	REC_WORD	0.89	n/a	RAIN	4	1	[0, 0, 0]	n/a	FR1	2	R1315T
424.301	2.133	424460	REC_WORD	2.133	n/a	SKY	11	1	[0, 0, 0]	n/a	FR1	2	R1315T
426.434	5.071	426593	REC_WORD	5.071	n/a	FLOOD	-999	1	[0, 0, 0]	n/a	FR1	2	R1315T
431.505	1.126	431664	REC_WORD	1.126	n/a	TOOTH	8	1	[0, 0, 0]	n/a	FR1	2	R1315T
432.631	1.952	432790	REC_WORD	1.952	n/a	WEED	1	1	[0, 0, 0]	n/a	FR1	2	R1315T
434.583	17.361	434742	REC_WORD	17.361	n/a	GATE	2	1	[0, 0, 0]	n/a	FR1	2	R1315T
451.944	0.0	452102	REC_END	n/a	n/a	n/a	-999	1	[0, 0, 0]	n/a	FR1	2	R1315T
451.944	0.017	452102	TRIAL_END	n/a	n/a	n/a	-999	1	[0, 0, 0]	n/a	FR1	2	R1315T
451.961	0.0	452119	WAITING_START	n/a	n/a	n/a	-999	2	[0, 0, 0]	n/a	FR1	2	R1315T
451.961	0.0	452119	TRIAL_START	n/a	n/a	n/a	-999	2	[0, 0, 0]	n/a	FR1	2	R1315T
451.961	1.494	452119	TRIAL	n/a	n/a	n/a	-999	2	[0, 0, 0]	n/a	FR1	2	R1315T
453.455	0.0	453613	WAITING_END	n/a	n/a	n/a	-999	2	[0, 0, 0]	n/a	FR1	2	R1315T
453.455	10.429	453613	COUNTDOWN_START	n/a	n/a	n/a	-999	2	[0, 0, 0]	n/a	FR1	2	R1315T
463.884	0.0	464041	COUNTDOWN_END	n/a	n/a	n/a	-999	2	[0, 0, 0]	n/a	FR1	2	R1315T
463.884	1.039	464041	ORIENT_START	n/a	n/a	n/a	-999	2	[0, 0, 0]	n/a	FR1	2	R1315T
464.923	0.0	465080	ORIENT_END	n/a	n/a	n/a	-999	2	[0, 0, 0]	n/a	FR1	2	R1315T
464.923	0.809	465080	ENCODING_START	n/a	n/a	n/a	-999	2	[0, 0, 0]	n/a	FR1	2	R1315T
465.732	1.626	465889	WORD	n/a	wordpools/wordpool_EN.txt	BRUSH	1	2	[0, 0, 0]	n/a	FR1	2	R1315T
467.358	1.095	467515	WORD_OFF	n/a	n/a	BRUSH	1	2	[0, 0, 0]	n/a	FR1	2	R1315T
468.453	1.621	468610	WORD	n/a	wordpools/wordpool_EN.txt	HOOF	2	2	[0, 0, 0]	n/a	FR1	2	R1315T
470.074	0.837	470231	WORD_OFF	n/a	n/a	HOOF	2	2	[0, 0, 0]	n/a	FR1	2	R1315T
470.911	1.631	471068	WORD	n/a	wordpools/wordpool_EN.txt	BRICK	3	2	[0, 0, 0]	n/a	FR1	2	R1315T
472.542	0.867	472699	WORD_OFF	n/a	n/a	BRICK	3	2	[0, 0, 0]	n/a	FR1	2	R1315T
473.409	1.632	473566	WORD	n/a	wordpools/wordpool_EN.txt	FOG	4	2	[0, 0, 0]	n/a	FR1	2	R1315T
475.041	0.757	475198	WORD_OFF	n/a	n/a	FOG	4	2	[0, 0, 0]	n/a	FR1	2	R1315T
475.798	1.611	475955	WORD	n/a	wordpools/wordpool_EN.txt	STAIR	5	2	[0, 0, 0]	n/a	FR1	2	R1315T
477.409	0.848	477566	WORD_OFF	n/a	n/a	STAIR	5	2	[0, 0, 0]	n/a	FR1	2	R1315T
478.257	1.635	478414	WORD	n/a	wordpools/wordpool_EN.txt	CHAIR	6	2	[0, 0, 0]	n/a	FR1	2	R1315T
479.892	0.804	480049	WORD_OFF	n/a	n/a	CHAIR	6	2	[0, 0, 0]	n/a	FR1	2	R1315T
480.696	1.631	480853	WORD	n/a	wordpools/wordpool_EN.txt	OWL	7	2	[0, 0, 0]	n/a	FR1	2	R1315T
482.327	1.044	482484	WORD_OFF	n/a	n/a	OWL	7	2	[0, 0, 0]	n/a	FR1	2	R1315T
483.371	1.622	483527	WORD	n/a	wordpools/wordpool_EN.txt	CHIN	8	2	[0, 0, 0]	n/a	FR1	2	R1315T
484.993	1.083	485149	WORD_OFF	n/a	n/a	CHIN	8	2	[0, 0, 0]	n/a	FR1	2	R1315T
486.076	1.635	486232	WORD	n/a	wordpools/wordpool_EN.txt	PARK	9	2	[0, 0, 0]	n/a	FR1	2	R1315T
487.711	1.077	487867	WORD_OFF	n/a	n/a	PARK	9	2	[0, 0, 0]	n/a	FR1	2	R1315T
488.788	1.624	488944	WORD	n/a	wordpools/wordpool_EN.txt	PALM	10	2	[0, 0, 0]	n/a	FR1	2	R1315T
490.412	0.762	490568	WORD_OFF	n/a	n/a	PALM	10	2	[0, 0, 0]	n/a	FR1	2	R1315T
491.174	1.637	491330	WORD	n/a	wordpools/wordpool_EN.txt	SLIME	11	2	[0, 0, 0]	n/a	FR1	2	R1315T
492.811	0.938	492967	WORD_OFF	n/a	n/a	SLIME	11	2	[0, 0, 0]	n/a	FR1	2	R1315T
493.749	1.63	493905	WORD	n/a	wordpools/wordpool_EN.txt	ROCK	12	2	[0, 0, 0]	n/a	FR1	2	R1315T
495.379	0.001	495535	WORD_OFF	n/a	n/a	ROCK	12	2	[0, 0, 0]	n/a	FR1	2	R1315T
495.38	0.0	495536	ENCODING_END	n/a	n/a	n/a	-999	2	[0, 0, 0]	n/a	FR1	2	R1315T
495.38	0.0	495536	DISTRACT_START	n/a	n/a	n/a	-999	2	[0, 0, 0]	n/a	FR1	2	R1315T
495.38	0.016	495536	START	n/a	n/a	n/a	-999	2	[-999, -999, -999]	n/a	FR1	2	R1315T
495.396	3.383	495552	PROB	3.383	n/a	n/a	-999	2	[2, 1, 7]	10	FR1	2	R1315T
498.779	1.95	498935	PROB	1.95	n/a	n/a	-999	2	[1, 5, 5]	11	FR1	2	R1315T
500.729	2.184	500885	PROB	2.184	n/a	n/a	-999	2	[2, 6, 6]	14	FR1	2	R1315T
502.913	2.834	503069	PROB	2.834	n/a	n/a	-999	2	[1, 1, 8]	10	FR1	2	R1315T
505.747	2.417	505902	PROB	2.417	n/a	n/a	-999	2	[7, 5, 3]	15	FR1	2	R1315T
508.164	1.967	508319	PROB	1.967	n/a	n/a	-999	2	[9, 1, 3]	13	FR1	2	R1315T
510.131	1.984	510286	PROB	1.984	n/a	n/a	-999	2	[2, 5, 5]	12	FR1	2	R1315T
512.115	2.733	512270	PROB	2.733	n/a	n/a	-999	2	[5, 9, 5]	19	FR1	2	R1315T
514.848	8.528	515003	PROB	8.528	n/a	n/a	-999	2	[4, 9, 7]	19	FR1	2	R1315T
523.376	0.009	523531	STOP	n/a	n/a	n/a	-999	2	[-999, -999, -999]	n/a	FR1	2	R1315T
523.385	0.603	523540	DISTRACT_END	n/a	n/a	n/a	-999	2	[0, 0, 0]	n/a	FR1	2	R1315T
523.988	1.629	524143	RETRIEVAL_ORIENT_START	n/a	n/a	n/a	-999	2	[0, 0, 0]	n/a	FR1	2	R1315T
525.617	0.0	525772	RETRIEVAL_ORIENT_END	n/a	n/a	n/a	-999	2	[0, 0, 0]	n/a	FR1	2	R1315T
525.617	1.932	525772	REC_START	n/a	n/a	n/a	-999	2	[0, 0, 0]	n/a	FR1	2	R1315T
527.549	1.063	527703	REC_WORD	1.063	n/a	CHAIR	6	2	[0, 0, 0]	n/a	FR1	2	R1315T
528.612	20.309	528766	REC_WORD	20.309	n/a	OWL	7	2	[0, 0, 0]	n/a	FR1	2	R1315T
548.921	6.709	549075	REC_WORD	6.709	n/a	CHIN	8	2	[0, 0, 0]	n/a	FR1	2	R1315T
555.63	0.0	555783	REC_END	n/a	n/a	n/a	-999	2	[0, 0, 0]	n/a	FR1	2	R1315T
555.63	0.014	555783	TRIAL_END	n/a	n/a	n/a	-999	2	[0, 0, 0]	n/a	FR1	2	R1315T
555.644	0.0	555797	TRIAL	n/a	n/a	n/a	-999	3	[0, 0, 0]	n/a	FR1	2	R1315T
555.644	0.001	555797	TRIAL_START	n/a	n/a	n/a	-999	3	[0, 0, 0]	n/a	FR1	2	R1315T
555.645	1.395	555798	WAITING_START	n/a	n/a	n/a	-999	3	[0, 0, 0]	n/a	FR1	2	R1315T
557.04	0.0	557193	WAITING_END	n/a	n/a	n/a	-999	3	[0, 0, 0]	n/a	FR1	2	R1315T
557.04	10.428	557193	COUNTDOWN_START	n/a	n/a	n/a	-999	3	[0, 0, 0]	n/a	FR1	2	R1315T
567.468	0.001	567621	COUNTDOWN_END	n/a	n/a	n/a	-999	3	[0, 0, 0]	n/a	FR1	2	R1315T
567.469	1.189	567622	ORIENT_START	n/a	n/a	n/a	-999	3	[0, 0, 0]	n/a	FR1	2	R1315T
568.658	0.001	568811	ORIENT_END	n/a	n/a	n/a	-999	3	[0, 0, 0]	n/a	FR1	2	R1315T
568.659	1.0	568812	ENCODING_START	n/a	n/a	n/a	-999	3	[0, 0, 0]	n/a	FR1	2	R1315T
569.659	1.634	569812	WORD	n/a	wordpools/wordpool_EN.txt	DART	1	3	[0, 0, 0]	n/a	FR1	2	R1315T
571.293	0.773	571446	WORD_OFF	n/a	n/a	DART	1	3	[0, 0, 0]	n/a	FR1	2	R1315T
572.066	1.627	572218	WORD	n/a	wordpools/wordpool_EN.txt	GUARD	2	3	[0, 0, 0]	n/a	FR1	2	R1315T
573.693	1.031	573845	WORD_OFF	n/a	n/a	GUARD	2	3	[0, 0, 0]	n/a	FR1	2	R1315T
574.724	1.62	574876	WORD	n/a	wordpools/wordpool_EN.txt	LEAF	3	3	[0, 0, 0]	n/a	FR1	2	R1315T
576.344	0.771	576496	WORD_OFF	n/a	n/a	LEAF	3	3	[0, 0, 0]	n/a	FR1	2	R1315T
577.115	1.629	577267	WORD	n/a	wordpools/wordpool_EN.txt	SNOW	4	3	[0, 0, 0]	n/a	FR1	2	R1315T
578.744	1.013	578896	WORD_OFF	n/a	n/a	SNOW	4	3	[0, 0, 0]	n/a	FR1	2	R1315T
579.757	1.638	579909	WORD	n/a	wordpools/wordpool_EN.txt	PIPE	5	3	[0, 0, 0]	n/a	FR1	2	R1315T
581.395	1.08	581547	WORD_OFF	n/a	n/a	PIPE	5	3	[0, 0, 0]	n/a	FR1	2	R1315T
582.475	1.636	582627	WORD	n/a	wordpools/wordpool_EN.txt	DUCK	6	3	[0, 0, 0]	n/a	FR1	2	R1315T
584.111	1.088	584263	WORD_OFF	n/a	n/a	DUCK	6	3	[0, 0, 0]	n/a	FR1	2	R1315T
585.199	1.629	585351	WORD	n/a	wordpools/wordpool_EN.txt	COUCH	7	3	[0, 0, 0]	n/a	FR1	2	R1315T
586.828	0.939	586980	WORD_OFF	n/a	n/a	COUCH	7	3	[0, 0, 0]	n/a	FR1	2	R1315T
587.767	1.629	587919	WORD	n/a	wordpools/wordpool_EN.txt	BADGE	8	3	[0, 0, 0]	n/a	FR1	2	R1315T
589.396	0.921	589548	WORD_OFF	n/a	n/a	BADGE	8	3	[0, 0, 0]	n/a	FR1	2	R1315T
590.317	1.629	590469	WORD	n/a	wordpools/wordpool_EN.txt	MOLE	9	3	[0, 0, 0]	n/a	FR1	2	R1315T
591.946	0.994	592098	WORD_OFF	n/a	n/a	MOLE	9	3	[0, 0, 0]	n/a	FR1	2	R1315T
592.94	1.623	593092	WORD	n/a	wordpools/wordpool_EN.txt	HAND	10	3	[0, 0, 0]	n/a	FR1	2	R1315T
594.563	0.913	594714	WORD_OFF	n/a	n/a	HAND	10	3	[0, 0, 0]	n/a	FR1	2	R1315T
595.476	1.621	595627	WORD	n/a	wordpools/wordpool_EN.txt	SIGN	11	3	[0, 0, 0]	n/a	FR1	2	R1315T
597.097	0.897	597248	WORD_OFF	n/a	n/a	SIGN	11	3	[0, 0, 0]	n/a	FR1	2	R1315T
597.994	1.62	598145	WORD	n/a	wordpools/wordpool_EN.txt	VAN	12	3	[0, 0, 0]	n/a	FR1	2	R1315T
599.614	0.0	599765	WORD_OFF	n/a	n/a	VAN	12	3	[0, 0, 0]	n/a	FR1	2	R1315T
599.614	0.001	599765	ENCODING_END	n/a	n/a	n/a	-999	3	[0, 0, 0]	n/a	FR1	2	R1315T
599.615	0.0	599766	DISTRACT_START	n/a	n/a	n/a	-999	3	[0, 0, 0]	n/a	FR1	2	R1315T
599.615	0.015	599766	START	n/a	n/a	n/a	-999	3	[-999, -999, -999]	n/a	FR1	2	R1315T
599.63	3.568	599781	PROB	3.568	n/a	n/a	-999	3	[3, 1, 4]	8	FR1	2	R1315T
603.198	2.5	603349	PROB	2.5	n/a	n/a	-999	3	[6, 4, 2]	12	FR1	2	R1315T
605.698	3.117	605849	PROB	3.117	n/a	n/a	-999	3	[9, 2, 5]	16	FR1	2	R1315T
608.815	3.001	608966	PROB	3.001	n/a	n/a	-999	3	[8, 6, 6]	20	FR1	2	R1315T
611.816	7.719	611967	PROB	7.719	n/a	n/a	-999	3	[9, 7, 9]	24	FR1	2	R1315T
619.535	3.514	619685	PROB	3.514	n/a	n/a	-999	3	[8, 8, 1]	17	FR1	2	R1315T
623.049	0.019	623199	STOP	n/a	n/a	n/a	-999	3	[-999, -999, -999]	n/a	FR1	2	R1315T
623.068	0.51	623218	DISTRACT_END	n/a	n/a	n/a	-999	3	[0, 0, 0]	n/a	FR1	2	R1315T
623.578	1.557	623728	RETRIEVAL_ORIENT_START	n/a	n/a	n/a	-999	3	[0, 0, 0]	n/a	FR1	2	R1315T
625.135	0.001	625285	RETRIEVAL_ORIENT_END	n/a	n/a	n/a	-999	3	[0, 0, 0]	n/a	FR1	2	R1315T
625.136	12.347	625286	REC_START	n/a	n/a	n/a	-999	3	[0, 0, 0]	n/a	FR1	2	R1315T
637.483	11.913	637633	REC_WORD	11.913	n/a	PIPE	5	3	[0, 0, 0]	n/a	FR1	2	R1315T
649.396	5.752	649545	REC_WORD	5.752	n/a	DART	1	3	[0, 0, 0]	n/a	FR1	2	R1315T
655.148	0.0	655297	REC_END	n/a	n/a	n/a	-999	3	[0, 0, 0]	n/a	FR1	2	R1315T
655.148	0.014	655297	TRIAL_END	n/a	n/a	n/a	-999	3	[0, 0, 0]	n/a	FR1	2	R1315T
655.162	0.0	655311	TRIAL_START	n/a	n/a	n/a	-999	4	[0, 0, 0]	n/a	FR1	2	R1315T
655.162	0.001	655311	TRIAL	n/a	n/a	n/a	-999	4	[0, 0, 0]	n/a	FR1	2	R1315T
655.163	1.728	655312	WAITING_START	n/a	n/a	n/a	-999	4	[0, 0, 0]	n/a	FR1	2	R1315T
656.891	0.0	657040	WAITING_END	n/a	n/a	n/a	-999	4	[0, 0, 0]	n/a	FR1	2	R1315T
656.891	10.429	657040	COUNTDOWN_START	n/a	n/a	n/a	-999	4	[0, 0, 0]	n/a	FR1	2	R1315T
667.32	0.0	667468	COUNTDOWN_END	n/a	n/a	n/a	-999	4	[0, 0, 0]	n/a	FR1	2	R1315T
667.32	1.074	667468	ORIENT_START	n/a	n/a	n/a	-999	4	[0, 0, 0]	n/a	FR1	2	R1315T
668.394	0.001	668542	ORIENT_END	n/a	n/a	n/a	-999	4	[0, 0, 0]	n/a	FR1	2	R1315T
668.395	0.774	668543	ENCODING_START	n/a	n/a	n/a	-999	4	[0, 0, 0]	n/a	FR1	2	R1315T
669.169	1.625	669317	WORD	n/a	wordpools/wordpool_EN.txt	PANTS	1	4	[0, 0, 0]	n/a	FR1	2	R1315T
670.794	0.969	670942	WORD_OFF	n/a	n/a	PANTS	1	4	[0, 0, 0]	n/a	FR1	2	R1315T
671.763	1.615	671911	WORD	n/a	wordpools/wordpool_EN.txt	PEARL	2	4	[0, 0, 0]	n/a	FR1	2	R1315T
673.378	0.901	673526	WORD_OFF	n/a	n/a	PEARL	2	4	[0, 0, 0]	n/a	FR1	2	R1315T
674.279	1.632	674427	WORD	n/a	wordpools/wordpool_EN.txt	DRUM	3	4	[0, 0, 0]	n/a	FR1	2	R1315T
675.911	1.062	676059	WORD_OFF	n/a	n/a	DRUM	3	4	[0, 0, 0]	n/a	FR1	2	R1315T
676.973	1.622	677121	WORD	n/a	wordpools/wordpool_EN.txt	SMILE	4	4	[0, 0, 0]	n/a	FR1	2	R1315T
678.595	0.946	678743	WORD_OFF	n/a	n/a	SMILE	4	4	[0, 0, 0]	n/a	FR1	2	R1315T
679.541	1.621	679689	WORD	n/a	wordpools/wordpool_EN.txt	SCHOOL	5	4	[0, 0, 0]	n/a	FR1	2	R1315T
681.162	1.09	681310	WORD_OFF	n/a	n/a	SCHOOL	5	4	[0, 0, 0]	n/a	FR1	2	R1315T
682.252	1.627	682400	WORD	n/a	wordpools/wordpool_EN.txt	SHOE	6	4	[0, 0, 0]	n/a	FR1	2	R1315T
683.879	0.829	684026	WORD_OFF	n/a	n/a	SHOE	6	4	[0, 0, 0]	n/a	FR1	2	R1315T
684.708	1.623	684855	WORD	n/a	wordpools/wordpool_EN.txt	SINK	7	4	[0, 0, 0]	n/a	FR1	2	R1315T
686.331	0.842	686478	WORD_OFF	n/a	n/a	SINK	7	4	[0, 0, 0]	n/a	FR1	2	R1315T
687.173	1.624	687320	WORD	n/a	wordpools/wordpool_EN.txt	TRAIN	8	4	[0, 0, 0]	n/a	FR1	2	R1315T
688.797	0.863	688944	WORD_OFF	n/a	n/a	TRAIN	8	4	[0, 0, 0]	n/a	FR1	2	R1315T
689.66	1.638	689807	WORD	n/a	wordpools/wordpool_EN.txt	PURSE	9	4	[0, 0, 0]	n/a	FR1	2	R1315T
691.298	0.997	691445	WORD_OFF	n/a	n/a	PURSE	9	4	[0, 0, 0]	n/a	FR1	2	R1315T
692.295	1.619	692442	WORD	n/a	wordpools/wordpool_EN.txt	ICE	10	4	[0, 0, 0]	n/a	FR1	2	R1315T
693.914	0.898	694061	WORD_OFF	n/a	n/a	ICE	10	4	[0, 0, 0]	n/a	FR1	2	R1315T
694.812	1.637	694959	WORD	n/a	wordpools/wordpool_EN.txt	LEG	11	4	[0, 0, 0]	n/a	FR1	2	R1315T
696.449	1.0	696596	WORD_OFF	n/a	n/a	LEG	11	4	[0, 0, 0]	n/a	FR1	2	R1315T
697.449	1.633	697596	WORD	n/a	wordpools/wordpool_EN.txt	APE	12	4	[0, 0, 0]	n/a	FR1	2	R1315T
699.082	0.001	699229	WORD_OFF	n/a	n/a	APE	12	4	[0, 0, 0]	n/a	FR1	2	R1315T
699.083	0.0	699230	ENCODING_END	n/a	n/a	n/a	-999	4	[0, 0, 0]	n/a	FR1	2	R1315T
699.083	0.0	699230	DISTRACT_START	n/a	n/a	n/a	-999	4	[0, 0, 0]	n/a	FR1	2	R1315T
699.083	0.016	699230	START	n/a	n/a	n/a	-999	4	[-999, -999, -999]	n/a	FR1	2	R1315T
699.099	7.651	699246	PROB	7.651	n/a	n/a	-999	4	[8, 5, 7]	20	FR1	2	R1315T
706.75	2.851	706896	PROB	2.851	n/a	n/a	-999	4	[7, 8, 3]	18	FR1	2	R1315T
709.601	3.1	709747	PROB	3.1	n/a	n/a	-999	4	[1, 8, 3]	12	FR1	2	R1315T
712.701	4.735	712847	PROB	4.735	n/a	n/a	-999	4	[8, 1, 4]	13	FR1	2	R1315T
717.436	3.857	717582	PROB	3.857	n/a	n/a	-999	4	[3, 6, 1]	10	FR1	2	R1315T
721.293	0.011	721439	STOP	n/a	n/a	n/a	-999	4	[-999, -999, -999]	n/a	FR1	2	R1315T
721.304	0.64	721450	DISTRACT_END	n/a	n/a	n/a	-999	4	[0, 0, 0]	n/a	FR1	2	R1315T
721.944	1.659	722090	RETRIEVAL_ORIENT_START	n/a	n/a	n/a	-999	4	[0, 0, 0]	n/a	FR1	2	R1315T
723.603	0.001	723749	RETRIEVAL_ORIENT_END	n/a	n/a	n/a	-999	4	[0, 0, 0]	n/a	FR1	2	R1315T
723.604	9.712	723750	REC_START	n/a	n/a	n/a	-999	4	[0, 0, 0]	n/a	FR1	2	R1315T
733.316	20.301	733461	REC_WORD	20.301	n/a	LEG	11	4	[0, 0, 0]	n/a	FR1	2	R1315T
753.617	0.0	753761	REC_END	n/a	n/a	n/a	-999	4	[0, 0, 0]	n/a	FR1	2	R1315T
753.617	0.016	753761	TRIAL_END	n/a	n/a	n/a	-999	4	[0, 0, 0]	n/a	FR1	2	R1315T
753.633	0.0	753777	TRIAL_START	n/a	n/a	n/a	-999	5	[0, 0, 0]	n/a	FR1	2	R1315T
753.633	0.001	753777	TRIAL	n/a	n/a	n/a	-999	5	[0, 0, 0]	n/a	FR1	2	R1315T
753.634	1.175	753778	WAITING_START	n/a	n/a	n/a	-999	5	[0, 0, 0]	n/a	FR1	2	R1315T
754.809	0.0	754953	COUNTDOWN_START	n/a	n/a	n/a	-999	5	[0, 0, 0]	n/a	FR1	2	R1315T
754.809	10.428	754953	WAITING_END	n/a	n/a	n/a	-999	5	[0, 0, 0]	n/a	FR1	2	R1315T
765.237	0.0	765381	COUNTDOWN_END	n/a	n/a	n/a	-999	5	[0, 0, 0]	n/a	FR1	2	R1315T
765.237	1.142	765381	ORIENT_START	n/a	n/a	n/a	-999	5	[0, 0, 0]	n/a	FR1	2	R1315T
766.379	0.0	766523	ORIENT_END	n/a	n/a	n/a	-999	5	[0, 0, 0]	n/a	FR1	2	R1315T
766.379	0.798	766523	ENCODING_START	n/a	n/a	n/a	-999	5	[0, 0, 0]	n/a	FR1	2	R1315T
767.177	1.634	767321	WORD	n/a	wordpools/wordpool_EN.txt	SHIELD	1	5	[0, 0, 0]	n/a	FR1	2	R1315T
768.811	0.923	768955	WORD_OFF	n/a	n/a	SHIELD	1	5	[0, 0, 0]	n/a	FR1	2	R1315T
769.734	1.629	769878	WORD	n/a	wordpools/wordpool_EN.txt	BUSH	2	5	[0, 0, 0]	n/a	FR1	2	R1315T
771.363	0.901	771507	WORD_OFF	n/a	n/a	BUSH	2	5	[0, 0, 0]	n/a	FR1	2	R1315T
772.264	1.632	772407	WORD	n/a	wordpools/wordpool_EN.txt	BOMB	3	5	[0, 0, 0]	n/a	FR1	2	R1315T
773.896	0.849	774039	WORD_OFF	n/a	n/a	BOMB	3	5	[0, 0, 0]	n/a	FR1	2	R1315T
774.745	1.618	774888	WORD	n/a	wordpools/wordpool_EN.txt	FORT	4	5	[0, 0, 0]	n/a	FR1	2	R1315T
776.363	1.027	776506	WORD_OFF	n/a	n/a	FORT	4	5	[0, 0, 0]	n/a	FR1	2	R1315T
777.39	1.623	777533	WORD	n/a	wordpools/wordpool_EN.txt	DEER	5	5	[0, 0, 0]	n/a	FR1	2	R1315T
779.013	0.791	779156	WORD_OFF	n/a	n/a	DEER	5	5	[0, 0, 0]	n/a	FR1	2	R1315T
779.804	1.61	779947	WORD	n/a	wordpools/wordpool_EN.txt	GOLD	6	5	[0, 0, 0]	n/a	FR1	2	R1315T
781.414	1.066	781557	WORD_OFF	n/a	n/a	GOLD	6	5	[0, 0, 0]	n/a	FR1	2	R1315T
782.48	1.634	782623	WORD	n/a	wordpools/wordpool_EN.txt	MOUTH	7	5	[0, 0, 0]	n/a	FR1	2	R1315T
784.114	1.123	784257	WORD_OFF	n/a	n/a	MOUTH	7	5	[0, 0, 0]	n/a	FR1	2	R1315T
785.237	1.628	785380	WORD	n/a	wordpools/wordpool_EN.txt	TRAY	8	5	[0, 0, 0]	n/a	FR1	2	R1315T
786.865	0.902	787008	WORD_OFF	n/a	n/a	TRAY	8	5	[0, 0, 0]	n/a	FR1	2	R1315T
787.767	1.616	787910	WORD	n/a	wordpools/wordpool_EN.txt	SPRING	9	5	[0, 0, 0]	n/a	FR1	2	R1315T
789.383	0.826	789526	WORD_OFF	n/a	n/a	SPRING	9	5	[0, 0, 0]	n/a	FR1	2	R1315T
790.209	1.623	790352	WORD	n/a	wordpools/wordpool_EN.txt	HOSE	10	5	[0, 0, 0]	n/a	FR1	2	R1315T
791.832	1.009	791975	WORD_OFF	n/a	n/a	HOSE	10	5	[0, 0, 0]	n/a	FR1	2	R1315T
792.841	1.626	792984	WORD	n/a	wordpools/wordpool_EN.txt	BED	11	5	[0, 0, 0]	n/a	FR1	2	R1315T
794.467	0.798	794609	WORD_OFF	n/a	n/a	BED	11	5	[0, 0, 0]	n/a	FR1	2	R1315T
795.265	1.635	795407	WORD	n/a	wordpools/wordpool_EN.txt	CAPE	12	5	[0, 0, 0]	n/a	FR1	2	R1315T
796.9	0.0	797042	WORD_OFF	n/a	n/a	CAPE	12	5	[0, 0, 0]	n/a	FR1	2	R1315T
796.9	0.0	797042	ENCODING_END	n/a	n/a	n/a	-999	5	[0, 0, 0]	n/a	FR1	2	R1315T
796.9	0.001	797042	DISTRACT_START	n/a	n/a	n/a	-999	5	[0, 0, 0]	n/a	FR1	2	R1315T
796.901	0.015	797043	START	n/a	n/a	n/a	-999	5	[-999, -999, -999]	n/a	FR1	2	R1315T
796.916	3.634	797058	PROB	3.634	n/a	n/a	-999	5	[1, 2, 4]	7	FR1	2	R1315T
800.55	3.401	800692	PROB	3.401	n/a	n/a	-999	5	[1, 3, 2]	6	FR1	2	R1315T
803.951	2.401	804093	PROB	2.401	n/a	n/a	-999	5	[3, 1, 2]	6	FR1	2	R1315T
806.352	4.168	806494	PROB	4.168	n/a	n/a	-999	5	[7, 8, 9]	24	FR1	2	R1315T
810.52	2.8	810662	PROB	2.8	n/a	n/a	-999	5	[4, 5, 1]	10	FR1	2	R1315T
813.32	4.196	813462	PROB	4.196	n/a	n/a	-999	5	[2, 3, 5]	10	FR1	2	R1315T
817.516	0.022	817657	STOP	n/a	n/a	n/a	-999	5	[-999, -999, -999]	n/a	FR1	2	R1315T
817.538	0.534	817679	DISTRACT_END	n/a	n/a	n/a	-999	5	[0, 0, 0]	n/a	FR1	2	R1315T
818.072	1.648	818213	RETRIEVAL_ORIENT_START	n/a	n/a	n/a	-999	5	[0, 0, 0]	n/a	FR1	2	R1315T
819.72	0.001	819861	RETRIEVAL_ORIENT_END	n/a	n/a	n/a	-999	5	[0, 0, 0]	n/a	FR1	2	R1315T
819.721	1.263	819862	REC_START	n/a	n/a	n/a	-999	5	[0, 0, 0]	n/a	FR1	2	R1315T
820.984	28.748	821125	REC_WORD	28.748	n/a	BUSH	2	5	[0, 0, 0]	n/a	FR1	2	R1315T
849.732	0.0	849872	TRIAL_END	n/a	n/a	n/a	-999	5	[0, 0, 0]	n/a	FR1	2	R1315T
849.732	0.017	849872	REC_END	n/a	n/a	n/a	-999	5	[0, 0, 0]	n/a	FR1	2	R1315T
849.749	0.0	849889	TRIAL_START	n/a	n/a	n/a	-999	6	[0, 0, 0]	n/a	FR1	2	R1315T
849.749	0.001	849889	TRIAL	n/a	n/a	n/a	-999	6	[0, 0, 0]	n/a	FR1	2	R1315T
849.75	1.611	849890	WAITING_START	n/a	n/a	n/a	-999	6	[0, 0, 0]	n/a	FR1	2	R1315T
851.361	0.0	851501	WAITING_END	n/a	n/a	n/a	-999	6	[0, 0, 0]	n/a	FR1	2	R1315T
851.361	10.429	851501	COUNTDOWN_START	n/a	n/a	n/a	-999	6	[0, 0, 0]	n/a	FR1	2	R1315T
861.79	0.001	861929	COUNTDOWN_END	n/a	n/a	n/a	-999	6	[0, 0, 0]	n/a	FR1	2	R1315T
861.791	1.088	861930	ORIENT_START	n/a	n/a	n/a	-999	6	[0, 0, 0]	n/a	FR1	2	R1315T
862.879	0.0	863018	ORIENT_END	n/a	n/a	n/a	-999	6	[0, 0, 0]	n/a	FR1	2	R1315T
862.879	0.823	863018	ENCODING_START	n/a	n/a	n/a	-999	6	[0, 0, 0]	n/a	FR1	2	R1315T
863.702	1.628	863841	WORD	n/a	wordpools/wordpool_EN.txt	CAGE	1	6	[0, 0, 0]	n/a	FR1	2	R1315T
865.33	0.821	865469	WORD_OFF	n/a	n/a	CAGE	1	6	[0, 0, 0]	n/a	FR1	2	R1315T
866.151	1.628	866290	WORD	n/a	wordpools/wordpool_EN.txt	EAR	2	6	[0, 0, 0]	n/a	FR1	2	R1315T
867.779	0.859	867918	WORD_OFF	n/a	n/a	EAR	2	6	[0, 0, 0]	n/a	FR1	2	R1315T
868.638	1.625	868777	WORD	n/a	wordpools/wordpool_EN.txt	SPONGE	3	6	[0, 0, 0]	n/a	FR1	2	R1315T
870.263	0.775	870402	WORD_OFF	n/a	n/a	SPONGE	3	6	[0, 0, 0]	n/a	FR1	2	R1315T
871.038	1.626	871177	WORD	n/a	wordpools/wordpool_EN.txt	BENCH	4	6	[0, 0, 0]	n/a	FR1	2	R1315T
872.664	1.131	872803	WORD_OFF	n/a	n/a	BENCH	4	6	[0, 0, 0]	n/a	FR1	2	R1315T
873.795	1.637	873934	WORD	n/a	wordpools/wordpool_EN.txt	SOAP	5	6	[0, 0, 0]	n/a	FR1	2	R1315T
875.432	0.769	875571	WORD_OFF	n/a	n/a	SOAP	5	6	[0, 0, 0]	n/a	FR1	2	R1315T
876.201	1.63	876340	WORD	n/a	wordpools/wordpool_EN.txt	CLIFF	6	6	[0, 0, 0]	n/a	FR1	2	R1315T
877.831	1.063	877970	WORD_OFF	n/a	n/a	CLIFF	6	6	[0, 0, 0]	n/a	FR1	2	R1315T
878.894	1.622	879033	WORD	n/a	wordpools/wordpool_EN.txt	ROAD	7	6	[0, 0, 0]	n/a	FR1	2	R1315T
880.516	0.88	880655	WORD_OFF	n/a	n/a	ROAD	7	6	[0, 0, 0]	n/a	FR1	2	R1315T
881.396	1.636	881535	WORD	n/a	wordpools/wordpool_EN.txt	THREAD	8	6	[0, 0, 0]	n/a	FR1	2	R1315T
883.032	1.016	883170	WORD_OFF	n/a	n/a	THREAD	8	6	[0, 0, 0]	n/a	FR1	2	R1315T
884.048	1.635	884186	WORD	n/a	wordpools/wordpool_EN.txt	ROPE	9	6	[0, 0, 0]	n/a	FR1	2	R1315T
885.683	1.102	885821	WORD_OFF	n/a	n/a	ROPE	9	6	[0, 0, 0]	n/a	FR1	2	R1315T
886.785	1.632	886923	WORD	n/a	wordpools/wordpool_EN.txt	SEAL	10	6	[0, 0, 0]	n/a	FR1	2	R1315T
888.417	1.064	888555	WORD_OFF	n/a	n/a	SEAL	10	6	[0, 0, 0]	n/a	FR1	2	R1315T
889.481	1.636	889619	WORD	n/a	wordpools/wordpool_EN.txt	SAIL	11	6	[0, 0, 0]	n/a	FR1	2	R1315T
891.117	0.756	891255	WORD_OFF	n/a	n/a	SAIL	11	6	[0, 0, 0]	n/a	FR1	2	R1315T
891.873	1.629	892011	WORD	n/a	wordpools/wordpool_EN.txt	SKUNK	12	6	[0, 0, 0]	n/a	FR1	2	R1315T
893.502	0.0	893640	DISTRACT_START	n/a	n/a	n/a	-999	6	[0, 0, 0]	n/a	FR1	2	R1315T
893.502	0.0	893640	ENCODING_END	n/a	n/a	n/a	-999	6	[0, 0, 0]	n/a	FR1	2	R1315T
893.502	0.001	893640	WORD_OFF	n/a	n/a	SKUNK	12	6	[0, 0, 0]	n/a	FR1	2	R1315T
893.503	0.015	893641	START	n/a	n/a	n/a	-999	6	[-999, -999, -999]	n/a	FR1	2	R1315T
893.518	3.633	893656	PROB	3.633	n/a	n/a	-999	6	[5, 4, 3]	12	FR1	2	R1315T
897.151	2.268	897289	PROB	2.268	n/a	n/a	-999	6	[8, 3, 1]	12	FR1	2	R1315T
899.419	3.817	899557	PROB	3.817	n/a	n/a	-999	6	[7, 2, 5]	14	FR1	2	R1315T
903.236	5.252	903374	PROB	5.252	n/a	n/a	-999	6	[1, 5, 4]	10	FR1	2	R1315T
908.488	2.599	908625	PROB	2.599	n/a	n/a	-999	6	[2, 8, 2]	12	FR1	2	R1315T
911.087	3.591	911224	PROB	3.591	n/a	n/a	-999	6	[4, 8, 4]	16	FR1	2	R1315T
914.678	0.01	914815	STOP	n/a	n/a	n/a	-999	6	[-999, -999, -999]	n/a	FR1	2	R1315T
914.688	0.524	914825	DISTRACT_END	n/a	n/a	n/a	-999	6	[0, 0, 0]	n/a	FR1	2	R1315T
915.212	1.593	915349	RETRIEVAL_ORIENT_START	n/a	n/a	n/a	-999	6	[0, 0, 0]	n/a	FR1	2	R1315T
916.805	0.0	916942	RETRIEVAL_ORIENT_END	n/a	n/a	n/a	-999	6	[0, 0, 0]	n/a	FR1	2	R1315T
916.805	1.181	916942	REC_START	n/a	n/a	n/a	-999	6	[0, 0, 0]	n/a	FR1	2	R1315T
917.986	1.145	918123	REC_WORD	1.145	n/a	ROPE	9	6	[0, 0, 0]	n/a	FR1	2	R1315T
919.131	27.688	919268	REC_WORD	27.688	n/a	CAGE	1	6	[0, 0, 0]	n/a	FR1	2	R1315T
946.819	0.0	946955	REC_END	n/a	n/a	n/a	-999	6	[0, 0, 0]	n/a	FR1	2	R1315T
946.819	0.015	946955	TRIAL_END	n/a	n/a	n/a	-999	6	[0, 0, 0]	n/a	FR1	2	R1315T
946.834	0.0	946970	TRIAL_START	n/a	n/a	n/a	-999	7	[0, 0, 0]	n/a	FR1	2	R1315T
946.834	0.0	946970	TRIAL	n/a	n/a	n/a	-999	7	[0, 0, 0]	n/a	FR1	2	R1315T
946.834	1.594	946970	WAITING_START	n/a	n/a	n/a	-999	7	[0, 0, 0]	n/a	FR1	2	R1315T
948.428	0.001	948564	WAITING_END	n/a	n/a	n/a	-999	7	[0, 0, 0]	n/a	FR1	2	R1315T
948.429	10.428	948565	COUNTDOWN_START	n/a	n/a	n/a	-999	7	[0, 0, 0]	n/a	FR1	2	R1315T
958.857	0.001	958992	COUNTDOWN_END	n/a	n/a	n/a	-999	7	[0, 0, 0]	n/a	FR1	2	R1315T
958.858	1.022	958993	ORIENT_START	n/a	n/a	n/a	-999	7	[0, 0, 0]	n/a	FR1	2	R1315T
959.88	0.0	960015	ENCODING_START	n/a	n/a	n/a	-999	7	[0, 0, 0]	n/a	FR1	2	R1315T
959.88	0.865	960015	ORIENT_END	n/a	n/a	n/a	-999	7	[0, 0, 0]	n/a	FR1	2	R1315T
960.745	1.619	960880	WORD	n/a	wordpools/wordpool_EN.txt	SEA	1	7	[0, 0, 0]	n/a	FR1	2	R1315T
962.364	0.909	962499	WORD_OFF	n/a	n/a	SEA	1	7	[0, 0, 0]	n/a	FR1	2	R1315T
963.273	1.624	963408	WORD	n/a	wordpools/wordpool_EN.txt	SALT	2	7	[0, 0, 0]	n/a	FR1	2	R1315T
964.897	1.068	965032	WORD_OFF	n/a	n/a	SALT	2	7	[0, 0, 0]	n/a	FR1	2	R1315T
965.965	1.633	966100	WORD	n/a	wordpools/wordpool_EN.txt	WEB	3	7	[0, 0, 0]	n/a	FR1	2	R1315T
967.598	1.059	967733	WORD_OFF	n/a	n/a	WEB	3	7	[0, 0, 0]	n/a	FR1	2	R1315T
968.657	1.625	968792	WORD	n/a	wordpools/wordpool_EN.txt	TOAD	4	7	[0, 0, 0]	n/a	FR1	2	R1315T
970.282	1.031	970417	WORD_OFF	n/a	n/a	TOAD	4	7	[0, 0, 0]	n/a	FR1	2	R1315T
971.313	1.636	971447	WORD	n/a	wordpools/wordpool_EN.txt	CART	5	7	[0, 0, 0]	n/a	FR1	2	R1315T
972.949	1.038	973083	WORD_OFF	n/a	n/a	CART	5	7	[0, 0, 0]	n/a	FR1	2	R1315T
973.987	1.629	974121	WORD	n/a	wordpools/wordpool_EN.txt	TOE	6	7	[0, 0, 0]	n/a	FR1	2	R1315T
975.616	0.862	975750	WORD_OFF	n/a	n/a	TOE	6	7	[0, 0, 0]	n/a	FR1	2	R1315T
976.478	1.621	976612	WORD	n/a	wordpools/wordpool_EN.txt	ROOF	7	7	[0, 0, 0]	n/a	FR1	2	R1315T
978.099	1.069	978233	WORD_OFF	n/a	n/a	ROOF	7	7	[0, 0, 0]	n/a	FR1	2	R1315T
979.168	1.632	979302	WORD	n/a	wordpools/wordpool_EN.txt	DITCH	8	7	[0, 0, 0]	n/a	FR1	2	R1315T
980.8	0.939	980934	WORD_OFF	n/a	n/a	DITCH	8	7	[0, 0, 0]	n/a	FR1	2	R1315T
981.739	1.612	981873	WORD	n/a	wordpools/wordpool_EN.txt	DOCK	9	7	[0, 0, 0]	n/a	FR1	2	R1315T
983.351	0.832	983485	WORD_OFF	n/a	n/a	DOCK	9	7	[0, 0, 0]	n/a	FR1	2	R1315T
984.183	1.635	984317	WORD	n/a	wordpools/wordpool_EN.txt	TAIL	10	7	[0, 0, 0]	n/a	FR1	2	R1315T
985.818	1.046	985952	WORD_OFF	n/a	n/a	TAIL	10	7	[0, 0, 0]	n/a	FR1	2	R1315T
986.864	1.638	986998	WORD	n/a	wordpools/wordpool_EN.txt	PLATE	11	7	[0, 0, 0]	n/a	FR1	2	R1315T
988.502	1.102	988636	WORD_OFF	n/a	n/a	PLATE	11	7	[0, 0, 0]	n/a	FR1	2	R1315T
989.604	1.631	989738	WORD	n/a	wordpools/wordpool_EN.txt	SLUSH	12	7	[0, 0, 0]	n/a	FR1	2	R1315T
991.235	0.001	991369	WORD_OFF	n/a	n/a	SLUSH	12	7	[0, 0, 0]	n/a	FR1	2	R1315T
991.236	0.0	991370	ENCODING_END	n/a	n/a	n/a	-999	7	[0, 0, 0]	n/a	FR1	2	R1315T
991.236	0.0	991370	DISTRACT_START	n/a	n/a	n/a	-999	7	[0, 0, 0]	n/a	FR1	2	R1315T
991.236	0.016	991370	START	n/a	n/a	n/a	-999	7	[-999, -999, -999]	n/a	FR1	2	R1315T
991.252	4.118	991386	PROB	4.118	n/a	n/a	-999	7	[9, 9, 1]	19	FR1	2	R1315T
995.37	6.4	995503	PROB	6.4	n/a	n/a	-999	7	[4, 2, 7]	12	FR1	2	R1315T
1001.77	4.451	1001903	PROB	4.451	n/a	n/a	-999	7	[2, 4, 8]	14	FR1	2	R1315T
1006.221	1.9	1006354	PROB	1.9	n/a	n/a	-999	7	[8, 3, 2]	13	FR1	2	R1315T
1008.121	2.369	1008254	PROB	2.369	n/a	n/a	-999	7	[1, 9, 9]	19	FR1	2	R1315T
1010.49	2.417	1010623	PROB	2.417	n/a	n/a	-999	7	[9, 2, 9]	21	FR1	2	R1315T
1012.907	0.015	1013040	STOP	n/a	n/a	n/a	-999	7	[-999, -999, -999]	n/a	FR1	2	R1315T
1012.922	0.626	1013055	DISTRACT_END	n/a	n/a	n/a	-999	7	[0, 0, 0]	n/a	FR1	2	R1315T
1013.548	1.525	1013681	RETRIEVAL_ORIENT_START	n/a	n/a	n/a	-999	7	[0, 0, 0]	n/a	FR1	2	R1315T
1015.073	0.0	1015206	RETRIEVAL_ORIENT_END	n/a	n/a	n/a	-999	7	[0, 0, 0]	n/a	FR1	2	R1315T
1015.073	4.39	1015206	REC_START	n/a	n/a	n/a	-999	7	[0, 0, 0]	n/a	FR1	2	R1315T
1019.463	10.978	1019595	REC_WORD	10.978	n/a	DITCH	8	7	[0, 0, 0]	n/a	FR1	2	R1315T
1030.441	14.645	1030573	REC_WORD	14.645	n/a	WEB	3	7	[0, 0, 0]	n/a	FR1	2	R1315T
1045.086	0.0	1045217	TRIAL_END	n/a	n/a	n/a	-999	7	[0, 0, 0]	n/a	FR1	2	R1315T
1045.086	0.016	1045217	REC_END	n/a	n/a	n/a	-999	7	[0, 0, 0]	n/a	FR1	2	R1315T
1045.102	0.0	1045233	WAITING_START	n/a	n/a	n/a	-999	8	[0, 0, 0]	n/a	FR1	2	R1315T
1045.102	0.0	1045233	TRIAL	n/a	n/a	n/a	-999	8	[0, 0, 0]	n/a	FR1	2	R1315T
1045.102	1.66	1045233	TRIAL_START	n/a	n/a	n/a	-999	8	[0, 0, 0]	n/a	FR1	2	R1315T
1046.762	0.001	1046893	WAITING_END	n/a	n/a	n/a	-999	8	[0, 0, 0]	n/a	FR1	2	R1315T
1046.763	10.429	1046894	COUNTDOWN_START	n/a	n/a	n/a	-999	8	[0, 0, 0]	n/a	FR1	2	R1315T
1057.192	0.0	1057323	COUNTDOWN_END	n/a	n/a	n/a	-999	8	[0, 0, 0]	n/a	FR1	2	R1315T
1057.192	1.24	1057323	ORIENT_START	n/a	n/a	n/a	-999	8	[0, 0, 0]	n/a	FR1	2	R1315T
1058.432	0.0	1058563	ORIENT_END	n/a	n/a	n/a	-999	8	[0, 0, 0]	n/a	FR1	2	R1315T
1058.432	0.966	1058563	ENCODING_START	n/a	n/a	n/a	-999	8	[0, 0, 0]	n/a	FR1	2	R1315T
1059.398	1.633	1059529	WORD	n/a	wordpools/wordpool_EN.txt	BAG	1	8	[0, 0, 0]	n/a	FR1	2	R1315T
1061.031	0.89	1061161	WORD_OFF	n/a	n/a	BAG	1	8	[0, 0, 0]	n/a	FR1	2	R1315T
1061.921	1.628	1062051	WORD	n/a	wordpools/wordpool_EN.txt	MAZE	2	8	[0, 0, 0]	n/a	FR1	2	R1315T
1063.549	0.865	1063679	WORD_OFF	n/a	n/a	MAZE	2	8	[0, 0, 0]	n/a	FR1	2	R1315T
1064.414	1.635	1064544	WORD	n/a	wordpools/wordpool_EN.txt	ROOT	3	8	[0, 0, 0]	n/a	FR1	2	R1315T
1066.049	0.833	1066179	WORD_OFF	n/a	n/a	ROOT	3	8	[0, 0, 0]	n/a	FR1	2	R1315T
1066.882	1.618	1067012	WORD	n/a	wordpools/wordpool_EN.txt	CANE	4	8	[0, 0, 0]	n/a	FR1	2	R1315T
1068.5	1.146	1068630	WORD_OFF	n/a	n/a	CANE	4	8	[0, 0, 0]	n/a	FR1	2	R1315T
1069.646	1.638	1069776	WORD	n/a	wordpools/wordpool_EN.txt	SEAT	5	8	[0, 0, 0]	n/a	FR1	2	R1315T
1071.284	1.112	1071414	WORD_OFF	n/a	n/a	SEAT	5	8	[0, 0, 0]	n/a	FR1	2	R1315T
1072.396	1.621	1072526	WORD	n/a	wordpools/wordpool_EN.txt	SKI	6	8	[0, 0, 0]	n/a	FR1	2	R1315T
1074.017	0.834	1074147	WORD_OFF	n/a	n/a	SKI	6	8	[0, 0, 0]	n/a	FR1	2	R1315T
1074.851	1.634	1074981	WORD	n/a	wordpools/wordpool_EN.txt	BATH	7	8	[0, 0, 0]	n/a	FR1	2	R1315T
1076.485	0.884	1076615	WORD_OFF	n/a	n/a	BATH	7	8	[0, 0, 0]	n/a	FR1	2	R1315T
1077.369	1.632	1077499	WORD	n/a	wordpools/wordpool_EN.txt	FARM	8	8	[0, 0, 0]	n/a	FR1	2	R1315T
1079.001	1.1	1079131	WORD_OFF	n/a	n/a	FARM	8	8	[0, 0, 0]	n/a	FR1	2	R1315T
1080.101	1.634	1080231	WORD	n/a	wordpools/wordpool_EN.txt	CLOWN	9	8	[0, 0, 0]	n/a	FR1	2	R1315T
1081.735	1.013	1081865	WORD_OFF	n/a	n/a	CLOWN	9	8	[0, 0, 0]	n/a	FR1	2	R1315T
1082.748	1.622	1082877	WORD	n/a	wordpools/wordpool_EN.txt	SHIP	10	8	[0, 0, 0]	n/a	FR1	2	R1315T
1084.37	0.868	1084499	WORD_OFF	n/a	n/a	SHIP	10	8	[0, 0, 0]	n/a	FR1	2	R1315T
1085.238	1.631	1085367	WORD	n/a	wordpools/wordpool_EN.txt	JET	11	8	[0, 0, 0]	n/a	FR1	2	R1315T
1086.869	1.05	1086998	WORD_OFF	n/a	n/a	JET	11	8	[0, 0, 0]	n/a	FR1	2	R1315T
1087.919	1.634	1088048	WORD	n/a	wordpools/wordpool_EN.txt	JEEP	12	8	[0, 0, 0]	n/a	FR1	2	R1315T
1089.553	0.001	1089682	WORD_OFF	n/a	n/a	JEEP	12	8	[0, 0, 0]	n/a	FR1	2	R1315T
1089.554	0.0	1089683	ENCODING_END	n/a	n/a	n/a	-999	8	[0, 0, 0]	n/a	FR1	2	R1315T
1089.554	0.0	1089683	DISTRACT_START	n/a	n/a	n/a	-999	8	[0, 0, 0]	n/a	FR1	2	R1315T
1089.554	0.016	1089683	START	n/a	n/a	n/a	-999	8	[-999, -999, -999]	n/a	FR1	2	R1315T
1089.57	4.785	1089699	PROB	4.785	n/a	n/a	-999	8	[3, 1, 9]	14	FR1	2	R1315T
1094.355	6.084	1094484	PROB	6.084	n/a	n/a	-999	8	[5, 9, 5]	19	FR1	2	R1315T
1100.439	3.951	1100568	PROB	3.951	n/a	n/a	-999	8	[4, 4, 7]	17	FR1	2	R1315T
1104.39	11.701	1104518	PROB	11.701	n/a	n/a	-999	8	[4, 2, 4]	10	FR1	2	R1315T
1116.091	0.017	1116219	STOP	n/a	n/a	n/a	-999	8	[-999, -999, -999]	n/a	FR1	2	R1315T
1116.108	0.701	1116236	DISTRACT_END	n/a	n/a	n/a	-999	8	[0, 0, 0]	n/a	FR1	2	R1315T
1116.809	1.55	1116937	RETRIEVAL_ORIENT_START	n/a	n/a	n/a	-999	8	[0, 0, 0]	n/a	FR1	2	R1315T
1118.359	0.001	1118487	RETRIEVAL_ORIENT_END	n/a	n/a	n/a	-999	8	[0, 0, 0]	n/a	FR1	2	R1315T
1118.36	2.261	1118488	REC_START	n/a	n/a	n/a	-999	8	[0, 0, 0]	n/a	FR1	2	R1315T
1120.621	1.106	1120749	REC_WORD	1.106	n/a	JET	11	8	[0, 0, 0]	n/a	FR1	2	R1315T
1121.727	15.064	1121855	REC_WORD	15.064	n/a	JEEP	12	8	[0, 0, 0]	n/a	FR1	2	R1315T
1136.791	7.005	1136918	REC_WORD	7.005	n/a	SKY	-999	8	[0, 0, 0]	n/a	FR1	2	R1315T
1143.796	4.576	1143923	REC_WORD	4.576	n/a	ROOF	-999	8	[0, 0, 0]	n/a	FR1	2	R1315T
1148.372	0.0	1148499	REC_END	n/a	n/a	n/a	-999	8	[0, 0, 0]	n/a	FR1	2	R1315T
1148.372	0.015	1148499	TRIAL_END	n/a	n/a	n/a	-999	8	[0, 0, 0]	n/a	FR1	2	R1315T
1148.387	0.0	1148514	WAITING_START	n/a	n/a	n/a	-999	9	[0, 0, 0]	n/a	FR1	2	R1315T
1148.387	0.0	1148514	TRIAL	n/a	n/a	n/a	-999	9	[0, 0, 0]	n/a	FR1	2	R1315T
1148.387	1.844	1148514	TRIAL_START	n/a	n/a	n/a	-999	9	[0, 0, 0]	n/a	FR1	2	R1315T
1150.231	0.0	1150357	WAITING_END	n/a	n/a	n/a	-999	9	[0, 0, 0]	n/a	FR1	2	R1315T
1150.231	10.429	1150357	COUNTDOWN_START	n/a	n/a	n/a	-999	9	[0, 0, 0]	n/a	FR1	2	R1315T
1160.66	0.001	1160786	COUNTDOWN_END	n/a	n/a	n/a	-999	9	[0, 0, 0]	n/a	FR1	2	R1315T
1160.661	1.122	1160787	ORIENT_START	n/a	n/a	n/a	-999	9	[0, 0, 0]	n/a	FR1	2	R1315T
1161.783	0.0	1161909	ORIENT_END	n/a	n/a	n/a	-999	9	[0, 0, 0]	n/a	FR1	2	R1315T
1161.783	0.984	1161909	ENCODING_START	n/a	n/a	n/a	-999	9	[0, 0, 0]	n/a	FR1	2	R1315T
1162.767	1.634	1162893	WORD	n/a	wordpools/wordpool_EN.txt	BEACH	1	9	[0, 0, 0]	n/a	FR1	2	R1315T
1164.401	0.875	1164527	WORD_OFF	n/a	n/a	BEACH	1	9	[0, 0, 0]	n/a	FR1	2	R1315T
1165.276	1.624	1165402	WORD	n/a	wordpools/wordpool_EN.txt	SHARK	2	9	[0, 0, 0]	n/a	FR1	2	R1315T
1166.9	0.938	1167026	WORD_OFF	n/a	n/a	SHARK	2	9	[0, 0, 0]	n/a	FR1	2	R1315T
1167.838	1.631	1167964	WORD	n/a	wordpools/wordpool_EN.txt	NET	3	9	[0, 0, 0]	n/a	FR1	2	R1315T
1169.469	1.002	1169595	WORD_OFF	n/a	n/a	NET	3	9	[0, 0, 0]	n/a	FR1	2	R1315T
1170.471	1.631	1170597	WORD	n/a	wordpools/wordpool_EN.txt	SHEEP	4	9	[0, 0, 0]	n/a	FR1	2	R1315T
1172.102	1.027	1172227	WORD_OFF	n/a	n/a	SHEEP	4	9	[0, 0, 0]	n/a	FR1	2	R1315T
1173.129	1.623	1173254	WORD	n/a	wordpools/wordpool_EN.txt	GEESE	5	9	[0, 0, 0]	n/a	FR1	2	R1315T
1174.752	0.949	1174877	WORD_OFF	n/a	n/a	GEESE	5	9	[0, 0, 0]	n/a	FR1	2	R1315T
1175.701	1.636	1175826	WORD	n/a	wordpools/wordpool_EN.txt	TRUCK	6	9	[0, 0, 0]	n/a	FR1	2	R1315T
1177.337	0.876	1177462	WORD_OFF	n/a	n/a	TRUCK	6	9	[0, 0, 0]	n/a	FR1	2	R1315T
1178.213	1.623	1178338	WORD	n/a	wordpools/wordpool_EN.txt	TENT	7	9	[0, 0, 0]	n/a	FR1	2	R1315T
1179.836	0.971	1179961	WORD_OFF	n/a	n/a	TENT	7	9	[0, 0, 0]	n/a	FR1	2	R1315T
1180.807	1.631	1180932	WORD	n/a	wordpools/wordpool_EN.txt	BROOM	8	9	[0, 0, 0]	n/a	FR1	2	R1315T
1182.438	1.101	1182563	WORD_OFF	n/a	n/a	BROOM	8	9	[0, 0, 0]	n/a	FR1	2	R1315T
1183.539	1.632	1183664	WORD	n/a	wordpools/wordpool_EN.txt	BOX	9	9	[0, 0, 0]	n/a	FR1	2	R1315T
1185.171	1.029	1185296	WORD_OFF	n/a	n/a	BOX	9	9	[0, 0, 0]	n/a	FR1	2	R1315T
1186.2	1.638	1186325	WORD	n/a	wordpools/wordpool_EN.txt	SWAMP	10	9	[0, 0, 0]	n/a	FR1	2	R1315T
1187.838	1.067	1187963	WORD_OFF	n/a	n/a	SWAMP	10	9	[0, 0, 0]	n/a	FR1	2	R1315T
1188.905	1.634	1189030	WORD	n/a	wordpools/wordpool_EN.txt	JAR	11	9	[0, 0, 0]	n/a	FR1	2	R1315T
1190.539	1.078	1190664	WORD_OFF	n/a	n/a	JAR	11	9	[0, 0, 0]	n/a	FR1	2	R1315T
1191.617	1.605	1191742	WORD	n/a	wordpools/wordpool_EN.txt	RICE	12	9	[0, 0, 0]	n/a	FR1	2	R1315T
1193.222	0.0	1193346	WORD_OFF	n/a	n/a	RICE	12	9	[0, 0, 0]	n/a	FR1	2	R1315T
1193.222	0.0	1193346	ENCODING_END	n/a	n/a	n/a	-999	9	[0, 0, 0]	n/a	FR1	2	R1315T
1193.222	0.001	1193346	DISTRACT_START	n/a	n/a	n/a	-999	9	[0, 0, 0]	n/a	FR1	2	R1315T
1193.223	0.015	1193347	START	n/a	n/a	n/a	-999	9	[-999, -999, -999]	n/a	FR1	2	R1315T
1193.238	4.618	1193362	PROB	4.618	n/a	n/a	-999	9	[7, 3, 7]	17	FR1	2	R1315T
1197.856	2.451	1197980	PROB	2.451	n/a	n/a	-999	9	[4, 2, 8]	14	FR1	2	R1315T
1200.307	6.334	1200431	PROB	6.334	n/a	n/a	-999	9	[9, 5, 9]	23	FR1	2	R1315T
1206.641	7.279	1206765	PROB	7.279	n/a	n/a	-999	9	[5, 2, 6]	11	FR1	2	R1315T
1213.92	0.022	1214044	STOP	n/a	n/a	n/a	-999	9	[-999, -999, -999]	n/a	FR1	2	R1315T
1213.942	0.68	1214066	DISTRACT_END	n/a	n/a	n/a	-999	9	[0, 0, 0]	n/a	FR1	2	R1315T
1214.622	1.537	1214746	RETRIEVAL_ORIENT_START	n/a	n/a	n/a	-999	9	[0, 0, 0]	n/a	FR1	2	R1315T
1216.159	0.001	1216282	RETRIEVAL_ORIENT_END	n/a	n/a	n/a	-999	9	[0, 0, 0]	n/a	FR1	2	R1315T
1216.16	20.647	1216283	REC_START	n/a	n/a	n/a	-999	9	[0, 0, 0]	n/a	FR1	2	R1315T
1236.807	9.366	1236930	REC_WORD_VV	9.366	n/a	<>	-999	9	[0, 0, 0]	n/a	FR1	2	R1315T
1246.173	0.0	1246295	REC_END	n/a	n/a	n/a	-999	9	[0, 0, 0]	n/a	FR1	2	R1315T
1246.173	0.016	1246295	TRIAL_END	n/a	n/a	n/a	-999	9	[0, 0, 0]	n/a	FR1	2	R1315T
1246.189	0.001	1246311	TRIAL_START	n/a	n/a	n/a	-999	10	[0, 0, 0]	n/a	FR1	2	R1315T
1246.19	0.0	1246312	TRIAL	n/a	n/a	n/a	-999	10	[0, 0, 0]	n/a	FR1	2	R1315T
1246.19	1.542	1246312	WAITING_START	n/a	n/a	n/a	-999	10	[0, 0, 0]	n/a	FR1	2	R1315T
1247.732	0.0	1247854	COUNTDOWN_START	n/a	n/a	n/a	-999	10	[0, 0, 0]	n/a	FR1	2	R1315T
1247.732	10.429	1247854	WAITING_END	n/a	n/a	n/a	-999	10	[0, 0, 0]	n/a	FR1	2	R1315T
1258.161	0.001	1258283	COUNTDOWN_END	n/a	n/a	n/a	-999	10	[0, 0, 0]	n/a	FR1	2	R1315T
1258.162	1.223	1258284	ORIENT_START	n/a	n/a	n/a	-999	10	[0, 0, 0]	n/a	FR1	2	R1315T
1259.385	0.001	1259507	ORIENT_END	n/a	n/a	n/a	-999	10	[0, 0, 0]	n/a	FR1	2	R1315T
1259.386	1.122	1259508	ENCODING_START	n/a	n/a	n/a	-999	10	[0, 0, 0]	n/a	FR1	2	R1315T
1260.508	1.626	1260629	WORD	n/a	wordpools/wordpool_EN.txt	SQUARE	1	10	[0, 0, 0]	n/a	FR1	2	R1315T
1262.134	0.796	1262255	WORD_OFF	n/a	n/a	SQUARE	1	10	[0, 0, 0]	n/a	FR1	2	R1315T
1262.93	1.638	1263051	WORD	n/a	wordpools/wordpool_EN.txt	CORN	2	10	[0, 0, 0]	n/a	FR1	2	R1315T
1264.568	1.116	1264689	WORD_OFF	n/a	n/a	CORN	2	10	[0, 0, 0]	n/a	FR1	2	R1315T
1265.684	1.636	1265805	WORD	n/a	wordpools/wordpool_EN.txt	PEAR	3	10	[0, 0, 0]	n/a	FR1	2	R1315T
1267.32	1.053	1267441	WORD_OFF	n/a	n/a	PEAR	3	10	[0, 0, 0]	n/a	FR1	2	R1315T
1268.373	1.63	1268494	WORD	n/a	wordpools/wordpool_EN.txt	FORK	4	10	[0, 0, 0]	n/a	FR1	2	R1315T
1270.003	1.024	1270124	WORD_OFF	n/a	n/a	FORK	4	10	[0, 0, 0]	n/a	FR1	2	R1315T
1271.027	1.626	1271148	WORD	n/a	wordpools/wordpool_EN.txt	STREET	5	10	[0, 0, 0]	n/a	FR1	2	R1315T
1272.653	1.129	1272774	WORD_OFF	n/a	n/a	STREET	5	10	[0, 0, 0]	n/a	FR1	2	R1315T
1273.782	1.606	1273903	WORD	n/a	wordpools/wordpool_EN.txt	DIME	6	10	[0, 0, 0]	n/a	FR1	2	R1315T
1275.388	1.0	1275509	WORD_OFF	n/a	n/a	DIME	6	10	[0, 0, 0]	n/a	FR1	2	R1315T
1276.388	1.633	1276509	WORD	n/a	wordpools/wordpool_EN.txt	DESK	7	10	[0, 0, 0]	n/a	FR1	2	R1315T
1278.021	0.866	1278142	WORD_OFF	n/a	n/a	DESK	7	10	[0, 0, 0]	n/a	FR1	2	R1315T
1278.887	1.619	1279008	WORD	n/a	wordpools/wordpool_EN.txt	EGG	8	10	[0, 0, 0]	n/a	FR1	2	R1315T
1280.506	1.15	1280627	WORD_OFF	n/a	n/a	EGG	8	10	[0, 0, 0]	n/a	FR1	2	R1315T
1281.656	1.633	1281776	WORD	n/a	wordpools/wordpool_EN.txt	BEE	9	10	[0, 0, 0]	n/a	FR1	2	R1315T
1283.289	0.938	1283409	WORD_OFF	n/a	n/a	BEE	9	10	[0, 0, 0]	n/a	FR1	2	R1315T
1284.227	1.629	1284347	WORD	n/a	wordpools/wordpool_EN.txt	COW	10	10	[0, 0, 0]	n/a	FR1	2	R1315T
1285.856	0.774	1285976	WORD_OFF	n/a	n/a	COW	10	10	[0, 0, 0]	n/a	FR1	2	R1315T
1286.63	1.626	1286750	WORD	n/a	wordpools/wordpool_EN.txt	RAKE	11	10	[0, 0, 0]	n/a	FR1	2	R1315T
1288.256	0.961	1288376	WORD_OFF	n/a	n/a	RAKE	11	10	[0, 0, 0]	n/a	FR1	2	R1315T
1289.217	1.623	1289337	WORD	n/a	wordpools/wordpool_EN.txt	GLASS	12	10	[0, 0, 0]	n/a	FR1	2	R1315T
1290.84	0.0	1290960	WORD_OFF	n/a	n/a	GLASS	12	10	[0, 0, 0]	n/a	FR1	2	R1315T
1290.84	0.0	1290960	ENCODING_END	n/a	n/a	n/a	-999	10	[0, 0, 0]	n/a	FR1	2	R1315T
1290.84	0.001	1290960	DISTRACT_START	n/a	n/a	n/a	-999	10	[0, 0, 0]	n/a	FR1	2	R1315T
1290.841	0.015	1290961	START	n/a	n/a	n/a	-999	10	[-999, -999, -999]	n/a	FR1	2	R1315T
1290.856	4.118	1290976	PROB	4.118	n/a	n/a	-999	10	[2, 1, 1]	4	FR1	2	R1315T
1294.974	3.418	1295094	PROB	3.418	n/a	n/a	-999	10	[5, 5, 3]	13	FR1	2	R1315T
1298.392	3.466	1298512	PROB	3.466	n/a	n/a	-999	10	[4, 2, 9]	16	FR1	2	R1315T
1301.858	2.784	1301978	PROB	2.784	n/a	n/a	-999	10	[7, 1, 3]	11	FR1	2	R1315T
1304.642	3.635	1304761	PROB	3.635	n/a	n/a	-999	10	[2, 1, 6]	9	FR1	2	R1315T
1308.277	5.365	1308396	PROB	5.365	n/a	n/a	-999	10	[1, 6, 9]	16	FR1	2	R1315T
1313.642	0.019	1313761	STOP	n/a	n/a	n/a	-999	10	[-999, -999, -999]	n/a	FR1	2	R1315T
1313.661	0.617	1313780	DISTRACT_END	n/a	n/a	n/a	-999	10	[0, 0, 0]	n/a	FR1	2	R1315T
1314.278	1.633	1314397	RETRIEVAL_ORIENT_START	n/a	n/a	n/a	-999	10	[0, 0, 0]	n/a	FR1	2	R1315T
1315.911	0.0	1316030	RETRIEVAL_ORIENT_END	n/a	n/a	n/a	-999	10	[0, 0, 0]	n/a	FR1	2	R1315T
1315.911	1.177	1316030	REC_START	n/a	n/a	n/a	-999	10	[0, 0, 0]	n/a	FR1	2	R1315T
1317.088	1.424	1317207	REC_WORD	1.424	n/a	EGG	8	10	[0, 0, 0]	n/a	FR1	2	R1315T
1318.512	1.228	1318631	REC_WORD	1.228	n/a	COW	10	10	[0, 0, 0]	n/a	FR1	2	R1315T
1319.74	26.185	1319859	REC_WORD	26.185	n/a	BEE	9	10	[0, 0, 0]	n/a	FR1	2	R1315T
1345.925	0.001	1346043	REC_END	n/a	n/a	n/a	-999	10	[0, 0, 0]	n/a	FR1	2	R1315T
1345.926	0.016	1346044	TRIAL_END	n/a	n/a	n/a	-999	10	[0, 0, 0]	n/a	FR1	2	R1315T
1345.942	0.001	1346060	TRIAL_START	n/a	n/a	n/a	-999	11	[0, 0, 0]	n/a	FR1	2	R1315T
1345.943	0.0	1346061	TRIAL	n/a	n/a	n/a	-999	11	[0, 0, 0]	n/a	FR1	2	R1315T
1345.943	1.624	1346061	WAITING_START	n/a	n/a	n/a	-999	11	[0, 0, 0]	n/a	FR1	2	R1315T
1347.567	0.0	1347685	COUNTDOWN_START	n/a	n/a	n/a	-999	11	[0, 0, 0]	n/a	FR1	2	R1315T
1347.567	10.429	1347685	WAITING_END	n/a	n/a	n/a	-999	11	[0, 0, 0]	n/a	FR1	2	R1315T
1357.996	0.0	1358113	COUNTDOWN_END	n/a	n/a	n/a	-999	11	[0, 0, 0]	n/a	FR1	2	R1315T
1357.996	1.123	1358113	ORIENT_START	n/a	n/a	n/a	-999	11	[0, 0, 0]	n/a	FR1	2	R1315T
1359.119	0.0	1359236	ORIENT_END	n/a	n/a	n/a	-999	11	[0, 0, 0]	n/a	FR1	2	R1315T
1359.119	0.809	1359236	ENCODING_START	n/a	n/a	n/a	-999	11	[0, 0, 0]	n/a	FR1	2	R1315T
1359.928	1.625	1360045	WORD	n/a	wordpools/wordpool_EN.txt	WOLF	1	11	[0, 0, 0]	n/a	FR1	2	R1315T
1361.553	1.071	1361670	WORD_OFF	n/a	n/a	WOLF	1	11	[0, 0, 0]	n/a	FR1	2	R1315T
1362.624	1.629	1362741	WORD	n/a	wordpools/wordpool_EN.txt	DRESS	2	11	[0, 0, 0]	n/a	FR1	2	R1315T
1364.253	0.939	1364370	WORD_OFF	n/a	n/a	DRESS	2	11	[0, 0, 0]	n/a	FR1	2	R1315T
1365.192	1.628	1365309	WORD	n/a	wordpools/wordpool_EN.txt	CAR	3	11	[0, 0, 0]	n/a	FR1	2	R1315T
1366.82	0.907	1366937	WORD_OFF	n/a	n/a	CAR	3	11	[0, 0, 0]	n/a	FR1	2	R1315T
1367.727	1.611	1367844	WORD	n/a	wordpools/wordpool_EN.txt	TREE	4	11	[0, 0, 0]	n/a	FR1	2	R1315T
1369.338	1.111	1369455	WORD_OFF	n/a	n/a	TREE	4	11	[0, 0, 0]	n/a	FR1	2	R1315T
1370.449	1.622	1370565	WORD	n/a	wordpools/wordpool_EN.txt	TOOL	5	11	[0, 0, 0]	n/a	FR1	2	R1315T
1372.071	0.988	1372187	WORD_OFF	n/a	n/a	TOOL	5	11	[0, 0, 0]	n/a	FR1	2	R1315T
1373.059	1.629	1373175	WORD	n/a	wordpools/wordpool_EN.txt	PLANT	6	11	[0, 0, 0]	n/a	FR1	2	R1315T
1374.688	0.967	1374804	WORD_OFF	n/a	n/a	PLANT	6	11	[0, 0, 0]	n/a	FR1	2	R1315T
1375.655	1.635	1375771	WORD	n/a	wordpools/wordpool_EN.txt	FRUIT	7	11	[0, 0, 0]	n/a	FR1	2	R1315T
1377.29	0.979	1377406	WORD_OFF	n/a	n/a	FRUIT	7	11	[0, 0, 0]	n/a	FR1	2	R1315T
1378.269	1.62	1378385	WORD	n/a	wordpools/wordpool_EN.txt	PIT	8	11	[0, 0, 0]	n/a	FR1	2	R1315T
1379.889	1.106	1380005	WORD_OFF	n/a	n/a	PIT	8	11	[0, 0, 0]	n/a	FR1	2	R1315T
1380.995	1.628	1381111	WORD	n/a	wordpools/wordpool_EN.txt	MUD	9	11	[0, 0, 0]	n/a	FR1	2	R1315T
1382.623	0.931	1382739	WORD_OFF	n/a	n/a	MUD	9	11	[0, 0, 0]	n/a	FR1	2	R1315T
1383.554	1.636	1383670	WORD	n/a	wordpools/wordpool_EN.txt	SUN	10	11	[0, 0, 0]	n/a	FR1	2	R1315T
1385.19	0.766	1385306	WORD_OFF	n/a	n/a	SUN	10	11	[0, 0, 0]	n/a	FR1	2	R1315T
1385.956	1.635	1386072	WORD	n/a	wordpools/wordpool_EN.txt	BOARD	11	11	[0, 0, 0]	n/a	FR1	2	R1315T
1387.591	0.923	1387707	WORD_OFF	n/a	n/a	BOARD	11	11	[0, 0, 0]	n/a	FR1	2	R1315T
1388.514	1.627	1388630	WORD	n/a	wordpools/wordpool_EN.txt	FOOT	12	11	[0, 0, 0]	n/a	FR1	2	R1315T
1390.141	0.001	1390257	WORD_OFF	n/a	n/a	FOOT	12	11	[0, 0, 0]	n/a	FR1	2	R1315T
1390.142	0.0	1390258	ENCODING_END	n/a	n/a	n/a	-999	11	[0, 0, 0]	n/a	FR1	2	R1315T
1390.142	0.0	1390258	DISTRACT_START	n/a	n/a	n/a	-999	11	[0, 0, 0]	n/a	FR1	2	R1315T
1390.142	0.016	1390258	START	n/a	n/a	n/a	-999	11	[-999, -999, -999]	n/a	FR1	2	R1315T
1390.158	4.285	1390274	PROB	4.285	n/a	n/a	-999	11	[1, 9, 7]	17	FR1	2	R1315T
1394.443	3.1	1394558	PROB	3.1	n/a	n/a	-999	11	[7, 3, 4]	14	FR1	2	R1315T
1397.543	3.768	1397658	PROB	3.768	n/a	n/a	-999	11	[1, 8, 8]	17	FR1	2	R1315T
1401.311	3.766	1401426	PROB	3.766	n/a	n/a	-999	11	[1, 6, 3]	10	FR1	2	R1315T
1405.077	5.867	1405192	PROB	5.867	n/a	n/a	-999	11	[6, 5, 3]	17	FR1	2	R1315T
1410.944	0.018	1411059	STOP	n/a	n/a	n/a	-999	11	[-999, -999, -999]	n/a	FR1	2	R1315T
1410.962	0.511	1411077	DISTRACT_END	n/a	n/a	n/a	-999	11	[0, 0, 0]	n/a	FR1	2	R1315T
1411.473	1.589	1411588	RETRIEVAL_ORIENT_START	n/a	n/a	n/a	-999	11	[0, 0, 0]	n/a	FR1	2	R1315T
1413.062	0.0	1413177	RETRIEVAL_ORIENT_END	n/a	n/a	n/a	-999	11	[0, 0, 0]	n/a	FR1	2	R1315T
1413.062	0.719	1413177	REC_START	n/a	n/a	n/a	-999	11	[0, 0, 0]	n/a	FR1	2	R1315T
1413.781	2.184	1413896	REC_WORD	2.184	n/a	SUN	10	11	[0, 0, 0]	n/a	FR1	2	R1315T
1415.965	3.609	1416079	REC_WORD	3.609	n/a	FRUIT	7	11	[0, 0, 0]	n/a	FR1	2	R1315T
1419.574	1.04	1419688	REC_WORD	1.04	n/a	TREE	4	11	[0, 0, 0]	n/a	FR1	2	R1315T
1420.614	22.463	1420728	REC_WORD	22.463	n/a	PLANT	6	11	[0, 0, 0]	n/a	FR1	2	R1315T
1443.077	0.0	1443190	REC_END	n/a	n/a	n/a	-999	11	[0, 0, 0]	n/a	FR1	2	R1315T
1443.077	0.046	1443190	TRIAL_END	n/a	n/a	n/a	-999	11	[0, 0, 0]	n/a	FR1	2	R1315T
1443.123	0.0	1443236	TRIAL_START	n/a	n/a	n/a	-999	12	[0, 0, 0]	n/a	FR1	2	R1315T
1443.123	0.0	1443236	TRIAL	n/a	n/a	n/a	-999	12	[0, 0, 0]	n/a	FR1	2	R1315T
1443.123	0.911	1443236	WAITING_START	n/a	n/a	n/a	-999	12	[0, 0, 0]	n/a	FR1	2	R1315T
1444.034	0.001	1444147	WAITING_END	n/a	n/a	n/a	-999	12	[0, 0, 0]	n/a	FR1	2	R1315T
1444.035	10.429	1444148	COUNTDOWN_START	n/a	n/a	n/a	-999	12	[0, 0, 0]	n/a	FR1	2	R1315T
1454.464	0.001	1454577	COUNTDOWN_END	n/a	n/a	n/a	-999	12	[0, 0, 0]	n/a	FR1	2	R1315T
1454.465	1.171	1454578	ORIENT_START	n/a	n/a	n/a	-999	12	[0, 0, 0]	n/a	FR1	2	R1315T
1455.636	0.001	1455749	ORIENT_END	n/a	n/a	n/a	-999	12	[0, 0, 0]	n/a	FR1	2	R1315T
1455.637	0.963	1455750	ENCODING_START	n/a	n/a	n/a	-999	12	[0, 0, 0]	n/a	FR1	2	R1315T
1456.6	1.637	1456713	WORD	n/a	wordpools/wordpool_EN.txt	MOOSE	1	12	[0, 0, 0]	n/a	FR1	2	R1315T
1458.237	0.798	1458350	WORD_OFF	n/a	n/a	MOOSE	1	12	[0, 0, 0]	n/a	FR1	2	R1315T
1459.035	1.636	1459147	WORD	n/a	wordpools/wordpool_EN.txt	PIN	2	12	[0, 0, 0]	n/a	FR1	2	R1315T
1460.671	1.065	1460783	WORD_OFF	n/a	n/a	PIN	2	12	[0, 0, 0]	n/a	FR1	2	R1315T
1461.736	1.636	1461848	WORD	n/a	wordpools/wordpool_EN.txt	BREAD	3	12	[0, 0, 0]	n/a	FR1	2	R1315T
1463.372	1.062	1463484	WORD_OFF	n/a	n/a	BREAD	3	12	[0, 0, 0]	n/a	FR1	2	R1315T
1464.434	1.621	1464546	WORD	n/a	wordpools/wordpool_EN.txt	LAMB	4	12	[0, 0, 0]	n/a	FR1	2	R1315T
1466.055	1.149	1466167	WORD_OFF	n/a	n/a	LAMB	4	12	[0, 0, 0]	n/a	FR1	2	R1315T
1467.204	1.635	1467316	WORD	n/a	wordpools/wordpool_EN.txt	WOOD	5	12	[0, 0, 0]	n/a	FR1	2	R1315T
1468.839	0.932	1468951	WORD_OFF	n/a	n/a	WOOD	5	12	[0, 0, 0]	n/a	FR1	2	R1315T
1469.771	1.636	1469883	WORD	n/a	wordpools/wordpool_EN.txt	SHELL	6	12	[0, 0, 0]	n/a	FR1	2	R1315T
1471.407	0.999	1471519	WORD_OFF	n/a	n/a	SHELL	6	12	[0, 0, 0]	n/a	FR1	2	R1315T
1472.406	1.634	1472518	WORD	n/a	wordpools/wordpool_EN.txt	PIE	7	12	[0, 0, 0]	n/a	FR1	2	R1315T
1474.04	1.026	1474152	WORD_OFF	n/a	n/a	PIE	7	12	[0, 0, 0]	n/a	FR1	2	R1315T
1475.066	1.624	1475178	WORD	n/a	wordpools/wordpool_EN.txt	PHONE	8	12	[0, 0, 0]	n/a	FR1	2	R1315T
1476.69	0.854	1476802	WORD_OFF	n/a	n/a	PHONE	8	12	[0, 0, 0]	n/a	FR1	2	R1315T
1477.544	1.63	1477656	WORD	n/a	wordpools/wordpool_EN.txt	TANK	9	12	[0, 0, 0]	n/a	FR1	2	R1315T
1479.174	0.91	1479286	WORD_OFF	n/a	n/a	TANK	9	12	[0, 0, 0]	n/a	FR1	2	R1315T
1480.084	1.624	1480196	WORD	n/a	wordpools/wordpool_EN.txt	NEST	10	12	[0, 0, 0]	n/a	FR1	2	R1315T
1481.708	1.135	1481819	WORD_OFF	n/a	n/a	NEST	10	12	[0, 0, 0]	n/a	FR1	2	R1315T
1482.843	1.633	1482954	WORD	n/a	wordpools/wordpool_EN.txt	COIN	11	12	[0, 0, 0]	n/a	FR1	2	R1315T
1484.476	1.064	1484587	WORD_OFF	n/a	n/a	COIN	11	12	[0, 0, 0]	n/a	FR1	2	R1315T
1485.54	1.635	1485651	WORD	n/a	wordpools/wordpool_EN.txt	HEART	12	12	[0, 0, 0]	n/a	FR1	2	R1315T
1487.175	0.001	1487286	WORD_OFF	n/a	n/a	HEART	12	12	[0, 0, 0]	n/a	FR1	2	R1315T
1487.176	0.0	1487287	ENCODING_END	n/a	n/a	n/a	-999	12	[0, 0, 0]	n/a	FR1	2	R1315T
1487.176	0.0	1487287	DISTRACT_START	n/a	n/a	n/a	-999	12	[0, 0, 0]	n/a	FR1	2	R1315T
1487.176	0.016	1487287	START	n/a	n/a	n/a	-999	12	[-999, -999, -999]	n/a	FR1	2	R1315T
1487.192	3.767	1487303	PROB	3.767	n/a	n/a	-999	12	[3, 5, 9]	17	FR1	2	R1315T
1490.959	7.285	1491070	PROB	7.285	n/a	n/a	-999	12	[9, 4, 9]	21	FR1	2	R1315T
1498.244	6.001	1498355	PROB	6.001	n/a	n/a	-999	12	[3, 6, 2]	11	FR1	2	R1315T
1504.245	4.056	1504355	PROB	4.056	n/a	n/a	-999	12	[6, 4, 8]	18	FR1	2	R1315T
1508.301	0.013	1508411	STOP	n/a	n/a	n/a	-999	12	[-999, -999, -999]	n/a	FR1	2	R1315T
1508.314	0.696	1508424	DISTRACT_END	n/a	n/a	n/a	-999	12	[0, 0, 0]	n/a	FR1	2	R1315T
1509.01	1.553	1509120	RETRIEVAL_ORIENT_START	n/a	n/a	n/a	-999	12	[0, 0, 0]	n/a	FR1	2	R1315T
1510.563	0.0	1510673	RETRIEVAL_ORIENT_END	n/a	n/a	n/a	-999	12	[0, 0, 0]	n/a	FR1	2	R1315T
1510.563	2.832	1510673	REC_START	n/a	n/a	n/a	-999	12	[0, 0, 0]	n/a	FR1	2	R1315T
1513.395	3.222	1513505	REC_WORD	3.222	n/a	PIN	2	12	[0, 0, 0]	n/a	FR1	2	R1315T
1516.617	2.944	1516727	REC_WORD	2.944	n/a	WOOD	5	12	[0, 0, 0]	n/a	FR1	2	R1315T
1519.561	21.016	1519671	REC_WORD	21.016	n/a	PHONE	8	12	[0, 0, 0]	n/a	FR1	2	R1315T
1540.577	0.0	1540686	REC_END	n/a	n/a	n/a	-999	12	[0, 0, 0]	n/a	FR1	2	R1315T
1540.577	0.014	1540686	TRIAL_END	n/a	n/a	n/a	-999	12	[0, 0, 0]	n/a	FR1	2	R1315T
1540.591	0.0	1540700	TRIAL_START	n/a	n/a	n/a	-999	13	[0, 0, 0]	n/a	FR1	2	R1315T
1540.591	0.0	1540700	TRIAL	n/a	n/a	n/a	-999	13	[0, 0, 0]	n/a	FR1	2	R1315T
1540.591	0.895	1540700	WAITING_START	n/a	n/a	n/a	-999	13	[0, 0, 0]	n/a	FR1	2	R1315T
1541.486	0.001	1541595	WAITING_END	n/a	n/a	n/a	-999	13	[0, 0, 0]	n/a	FR1	2	R1315T
1541.487	10.428	1541596	COUNTDOWN_START	n/a	n/a	n/a	-999	13	[0, 0, 0]	n/a	FR1	2	R1315T
1551.915	0.0	1552023	ORIENT_START	n/a	n/a	n/a	-999	13	[0, 0, 0]	n/a	FR1	2	R1315T
1551.915	1.239	1552023	COUNTDOWN_END	n/a	n/a	n/a	-999	13	[0, 0, 0]	n/a	FR1	2	R1315T
1553.154	0.001	1553262	ORIENT_END	n/a	n/a	n/a	-999	13	[0, 0, 0]	n/a	FR1	2	R1315T
1553.155	0.766	1553263	ENCODING_START	n/a	n/a	n/a	-999	13	[0, 0, 0]	n/a	FR1	2	R1315T
1553.921	1.618	1554029	WORD	n/a	wordpools/wordpool_EN.txt	ROOM	1	13	[0, 0, 0]	n/a	FR1	2	R1315T
1555.539	1.146	1555647	WORD_OFF	n/a	n/a	ROOM	1	13	[0, 0, 0]	n/a	FR1	2	R1315T
1556.685	1.621	1556793	WORD	n/a	wordpools/wordpool_EN.txt	BOOT	2	13	[0, 0, 0]	n/a	FR1	2	R1315T
1558.306	0.875	1558414	WORD_OFF	n/a	n/a	BOOT	2	13	[0, 0, 0]	n/a	FR1	2	R1315T
1559.181	1.624	1559289	WORD	n/a	wordpools/wordpool_EN.txt	CRANE	3	13	[0, 0, 0]	n/a	FR1	2	R1315T
1560.805	0.853	1560913	WORD_OFF	n/a	n/a	CRANE	3	13	[0, 0, 0]	n/a	FR1	2	R1315T
1561.658	1.632	1561766	WORD	n/a	wordpools/wordpool_EN.txt	STRAW	4	13	[0, 0, 0]	n/a	FR1	2	R1315T
1563.29	0.834	1563398	WORD_OFF	n/a	n/a	STRAW	4	13	[0, 0, 0]	n/a	FR1	2	R1315T
1564.124	1.633	1564232	WORD	n/a	wordpools/wordpool_EN.txt	FUR	5	13	[0, 0, 0]	n/a	FR1	2	R1315T
1565.757	1.104	1565865	WORD_OFF	n/a	n/a	FUR	5	13	[0, 0, 0]	n/a	FR1	2	R1315T
1566.861	1.63	1566969	WORD	n/a	wordpools/wordpool_EN.txt	STICK	6	13	[0, 0, 0]	n/a	FR1	2	R1315T
1568.491	0.947	1568599	WORD_OFF	n/a	n/a	STICK	6	13	[0, 0, 0]	n/a	FR1	2	R1315T
1569.438	1.636	1569546	WORD	n/a	wordpools/wordpool_EN.txt	MOTH	7	13	[0, 0, 0]	n/a	FR1	2	R1315T
1571.074	0.919	1571181	WORD_OFF	n/a	n/a	MOTH	7	13	[0, 0, 0]	n/a	FR1	2	R1315T
1571.993	1.632	1572100	WORD	n/a	wordpools/wordpool_EN.txt	HOLE	8	13	[0, 0, 0]	n/a	FR1	2	R1315T
1573.625	0.782	1573732	WORD_OFF	n/a	n/a	HOLE	8	13	[0, 0, 0]	n/a	FR1	2	R1315T
1574.407	1.635	1574514	WORD	n/a	wordpools/wordpool_EN.txt	RIB	9	13	[0, 0, 0]	n/a	FR1	2	R1315T
1576.042	1.135	1576149	WORD_OFF	n/a	n/a	RIB	9	13	[0, 0, 0]	n/a	FR1	2	R1315T
1577.177	1.632	1577284	WORD	n/a	wordpools/wordpool_EN.txt	MILK	10	13	[0, 0, 0]	n/a	FR1	2	R1315T
1578.809	0.873	1578916	WORD_OFF	n/a	n/a	MILK	10	13	[0, 0, 0]	n/a	FR1	2	R1315T
1579.682	1.628	1579789	WORD	n/a	wordpools/wordpool_EN.txt	CAKE	11	13	[0, 0, 0]	n/a	FR1	2	R1315T
1581.31	0.955	1581417	WORD_OFF	n/a	n/a	CAKE	11	13	[0, 0, 0]	n/a	FR1	2	R1315T
1582.265	1.628	1582372	WORD	n/a	wordpools/wordpool_EN.txt	BAT	12	13	[0, 0, 0]	n/a	FR1	2	R1315T
1583.893	0.001	1584000	WORD_OFF	n/a	n/a	BAT	12	13	[0, 0, 0]	n/a	FR1	2	R1315T
1583.894	0.0	1584001	ENCODING_END	n/a	n/a	n/a	-999	13	[0, 0, 0]	n/a	FR1	2	R1315T
1583.894	0.0	1584001	DISTRACT_START	n/a	n/a	n/a	-999	13	[0, 0, 0]	n/a	FR1	2	R1315T
1583.894	0.015	1584001	START	n/a	n/a	n/a	-999	13	[-999, -999, -999]	n/a	FR1	2	R1315T
1583.909	4.968	1584016	PROB	4.968	n/a	n/a	-999	13	[1, 4, 2]	7	FR1	2	R1315T
1588.877	5.569	1588984	PROB	5.569	n/a	n/a	-999	13	[2, 4, 9]	13	FR1	2	R1315T
1594.446	6.35	1594552	PROB	6.35	n/a	n/a	-999	13	[9, 7, 5]	22	FR1	2	R1315T
1600.796	4.082	1600902	PROB	4.082	n/a	n/a	-999	13	[4, 1, 5]	10	FR1	2	R1315T
1604.878	0.019	1604984	STOP	n/a	n/a	n/a	-999	13	[-999, -999, -999]	n/a	FR1	2	R1315T
1604.897	0.676	1605003	DISTRACT_END	n/a	n/a	n/a	-999	13	[0, 0, 0]	n/a	FR1	2	R1315T
1605.573	1.658	1605679	RETRIEVAL_ORIENT_START	n/a	n/a	n/a	-999	13	[0, 0, 0]	n/a	FR1	2	R1315T
1607.231	0.0	1607337	RETRIEVAL_ORIENT_END	n/a	n/a	n/a	-999	13	[0, 0, 0]	n/a	FR1	2	R1315T
1607.231	0.932	1607337	REC_START	n/a	n/a	n/a	-999	13	[0, 0, 0]	n/a	FR1	2	R1315T
1608.163	0.903	1608269	REC_WORD	0.903	n/a	HOLE	8	13	[0, 0, 0]	n/a	FR1	2	R1315T
1609.066	19.071	1609172	REC_WORD	19.071	n/a	MILK	10	13	[0, 0, 0]	n/a	FR1	2	R1315T
1628.137	9.106	1628242	REC_WORD	9.106	n/a	ROOM	1	13	[0, 0, 0]	n/a	FR1	2	R1315T
1637.243	0.0	1637347	REC_END	n/a	n/a	n/a	-999	13	[0, 0, 0]	n/a	FR1	2	R1315T
1637.243	0.015	1637347	TRIAL_END	n/a	n/a	n/a	-999	13	[0, 0, 0]	n/a	FR1	2	R1315T
1637.258	0.0	1637362	TRIAL_START	n/a	n/a	n/a	-999	14	[0, 0, 0]	n/a	FR1	2	R1315T
1637.258	0.0	1637362	TRIAL	n/a	n/a	n/a	-999	14	[0, 0, 0]	n/a	FR1	2	R1315T
1637.258	1.412	1637362	WAITING_START	n/a	n/a	n/a	-999	14	[0, 0, 0]	n/a	FR1	2	R1315T
1638.67	0.0	1638774	WAITING_END	n/a	n/a	n/a	-999	14	[0, 0, 0]	n/a	FR1	2	R1315T
1638.67	10.429	1638774	COUNTDOWN_START	n/a	n/a	n/a	-999	14	[0, 0, 0]	n/a	FR1	2	R1315T
1649.099	0.0	1649203	ORIENT_START	n/a	n/a	n/a	-999	14	[0, 0, 0]	n/a	FR1	2	R1315T
1649.099	1.241	1649203	COUNTDOWN_END	n/a	n/a	n/a	-999	14	[0, 0, 0]	n/a	FR1	2	R1315T
1650.34	0.0	1650444	ORIENT_END	n/a	n/a	n/a	-999	14	[0, 0, 0]	n/a	FR1	2	R1315T
1650.34	0.941	1650444	ENCODING_START	n/a	n/a	n/a	-999	14	[0, 0, 0]	n/a	FR1	2	R1315T
1651.281	1.625	1651385	WORD	n/a	wordpools/wordpool_EN.txt	SEED	1	14	[0, 0, 0]	n/a	FR1	2	R1315T
1652.906	1.137	1653010	WORD_OFF	n/a	n/a	SEED	1	14	[0, 0, 0]	n/a	FR1	2	R1315T
1654.043	1.63	1654147	WORD	n/a	wordpools/wordpool_EN.txt	STOVE	2	14	[0, 0, 0]	n/a	FR1	2	R1315T
1655.673	1.075	1655777	WORD_OFF	n/a	n/a	STOVE	2	14	[0, 0, 0]	n/a	FR1	2	R1315T
1656.748	1.626	1656852	WORD	n/a	wordpools/wordpool_EN.txt	TIE	3	14	[0, 0, 0]	n/a	FR1	2	R1315T
1658.374	1.124	1658478	WORD_OFF	n/a	n/a	TIE	3	14	[0, 0, 0]	n/a	FR1	2	R1315T
1659.498	1.626	1659601	WORD	n/a	wordpools/wordpool_EN.txt	GRASS	4	14	[0, 0, 0]	n/a	FR1	2	R1315T
1661.124	0.919	1661227	WORD_OFF	n/a	n/a	GRASS	4	14	[0, 0, 0]	n/a	FR1	2	R1315T
1662.043	1.631	1662146	WORD	n/a	wordpools/wordpool_EN.txt	BANK	5	14	[0, 0, 0]	n/a	FR1	2	R1315T
1663.674	1.115	1663777	WORD_OFF	n/a	n/a	BANK	5	14	[0, 0, 0]	n/a	FR1	2	R1315T
1664.789	1.637	1664892	WORD	n/a	wordpools/wordpool_EN.txt	CALF	6	14	[0, 0, 0]	n/a	FR1	2	R1315T
1666.426	0.875	1666529	WORD_OFF	n/a	n/a	CALF	6	14	[0, 0, 0]	n/a	FR1	2	R1315T
1667.301	1.624	1667404	WORD	n/a	wordpools/wordpool_EN.txt	CAT	7	14	[0, 0, 0]	n/a	FR1	2	R1315T
1668.925	0.892	1669028	WORD_OFF	n/a	n/a	CAT	7	14	[0, 0, 0]	n/a	FR1	2	R1315T
1669.817	1.609	1669920	WORD	n/a	wordpools/wordpool_EN.txt	BOAT	8	14	[0, 0, 0]	n/a	FR1	2	R1315T
1671.426	1.043	1671529	WORD_OFF	n/a	n/a	BOAT	8	14	[0, 0, 0]	n/a	FR1	2	R1315T
1672.469	1.624	1672572	WORD	n/a	wordpools/wordpool_EN.txt	HORN	9	14	[0, 0, 0]	n/a	FR1	2	R1315T
1674.093	0.82	1674196	WORD_OFF	n/a	n/a	HORN	9	14	[0, 0, 0]	n/a	FR1	2	R1315T
1674.913	1.631	1675016	WORD	n/a	wordpools/wordpool_EN.txt	STEAM	10	14	[0, 0, 0]	n/a	FR1	2	R1315T
1676.544	1.106	1676647	WORD_OFF	n/a	n/a	STEAM	10	14	[0, 0, 0]	n/a	FR1	2	R1315T
1677.65	1.628	1677753	WORD	n/a	wordpools/wordpool_EN.txt	CORD	11	14	[0, 0, 0]	n/a	FR1	2	R1315T
1679.278	1.12	1679381	WORD_OFF	n/a	n/a	CORD	11	14	[0, 0, 0]	n/a	FR1	2	R1315T
1680.398	1.629	1680501	WORD	n/a	wordpools/wordpool_EN.txt	SPARK	12	14	[0, 0, 0]	n/a	FR1	2	R1315T
1682.027	0.001	1682129	WORD_OFF	n/a	n/a	SPARK	12	14	[0, 0, 0]	n/a	FR1	2	R1315T
1682.028	0.0	1682130	DISTRACT_START	n/a	n/a	n/a	-999	14	[0, 0, 0]	n/a	FR1	2	R1315T
1682.028	0.0	1682130	ENCODING_END	n/a	n/a	n/a	-999	14	[0, 0, 0]	n/a	FR1	2	R1315T
1682.028	0.016	1682130	START	n/a	n/a	n/a	-999	14	[-999, -999, -999]	n/a	FR1	2	R1315T
1682.044	3.117	1682146	PROB	3.117	n/a	n/a	-999	14	[8, 7, 2]	17	FR1	2	R1315T
1685.161	2.784	1685263	PROB	2.784	n/a	n/a	-999	14	[1, 9, 4]	14	FR1	2	R1315T
1687.945	3.352	1688047	PROB	3.352	n/a	n/a	-999	14	[3, 3, 6]	12	FR1	2	R1315T
1691.297	5.067	1691399	PROB	5.067	n/a	n/a	-999	14	[8, 8, 4]	20	FR1	2	R1315T
1696.364	3.75	1696466	PROB	3.75	n/a	n/a	-999	14	[9, 8, 2]	19	FR1	2	R1315T
1700.114	2.447	1700216	PROB	2.447	n/a	n/a	-999	14	[2, 2, 8]	12	FR1	2	R1315T
1702.561	0.02	1702663	STOP	n/a	n/a	n/a	-999	14	[-999, -999, -999]	n/a	FR1	2	R1315T
1702.581	0.581	1702683	DISTRACT_END	n/a	n/a	n/a	-999	14	[0, 0, 0]	n/a	FR1	2	R1315T
1703.162	1.603	1703263	RETRIEVAL_ORIENT_START	n/a	n/a	n/a	-999	14	[0, 0, 0]	n/a	FR1	2	R1315T
1704.765	0.0	1704866	RETRIEVAL_ORIENT_END	n/a	n/a	n/a	-999	14	[0, 0, 0]	n/a	FR1	2	R1315T
1704.765	1.426	1704866	REC_START	n/a	n/a	n/a	-999	14	[0, 0, 0]	n/a	FR1	2	R1315T
1706.191	1.441	1706292	REC_WORD	1.441	n/a	TIE	3	14	[0, 0, 0]	n/a	FR1	2	R1315T
1707.632	1.104	1707733	REC_WORD	1.104	n/a	BANK	5	14	[0, 0, 0]	n/a	FR1	2	R1315T
1708.736	1.142	1708837	REC_WORD	1.142	n/a	CAT	7	14	[0, 0, 0]	n/a	FR1	2	R1315T
1709.878	1.151	1709979	REC_WORD	1.151	n/a	STEM	-999	14	[0, 0, 0]	n/a	FR1	2	R1315T
1711.029	23.749	1711130	REC_WORD	23.749	n/a	SEED	1	14	[0, 0, 0]	n/a	FR1	2	R1315T
1734.778	0.0	1734878	REC_END	n/a	n/a	n/a	-999	14	[0, 0, 0]	n/a	FR1	2	R1315T
1734.778	0.016	1734878	TRIAL_END	n/a	n/a	n/a	-999	14	[0, 0, 0]	n/a	FR1	2	R1315T
1734.794	0.001	1734894	TRIAL_START	n/a	n/a	n/a	-999	15	[0, 0, 0]	n/a	FR1	2	R1315T
1734.795	0.0	1734895	TRIAL	n/a	n/a	n/a	-999	15	[0, 0, 0]	n/a	FR1	2	R1315T
1734.795	1.459	1734895	WAITING_START	n/a	n/a	n/a	-999	15	[0, 0, 0]	n/a	FR1	2	R1315T
1736.254	0.0	1736354	WAITING_END	n/a	n/a	n/a	-999	15	[0, 0, 0]	n/a	FR1	2	R1315T
1736.254	10.429	1736354	COUNTDOWN_START	n/a	n/a	n/a	-999	15	[0, 0, 0]	n/a	FR1	2	R1315T
1746.683	0.001	1746783	COUNTDOWN_END	n/a	n/a	n/a	-999	15	[0, 0, 0]	n/a	FR1	2	R1315T
1746.684	1.022	1746784	ORIENT_START	n/a	n/a	n/a	-999	15	[0, 0, 0]	n/a	FR1	2	R1315T
1747.706	0.001	1747805	ORIENT_END	n/a	n/a	n/a	-999	15	[0, 0, 0]	n/a	FR1	2	R1315T
1747.707	0.949	1747806	ENCODING_START	n/a	n/a	n/a	-999	15	[0, 0, 0]	n/a	FR1	2	R1315T
1748.656	1.635	1748755	WORD	n/a	wordpools/wordpool_EN.txt	OAR	1	15	[0, 0, 0]	n/a	FR1	2	R1315T
1750.291	0.892	1750390	WORD_OFF	n/a	n/a	OAR	1	15	[0, 0, 0]	n/a	FR1	2	R1315T
1751.183	1.624	1751282	WORD	n/a	wordpools/wordpool_EN.txt	CHALK	2	15	[0, 0, 0]	n/a	FR1	2	R1315T
1752.807	1.108	1752906	WORD_OFF	n/a	n/a	CHALK	2	15	[0, 0, 0]	n/a	FR1	2	R1315T
1753.915	1.627	1754014	WORD	n/a	wordpools/wordpool_EN.txt	CLOCK	3	15	[0, 0, 0]	n/a	FR1	2	R1315T
1755.542	1.127	1755641	WORD_OFF	n/a	n/a	CLOCK	3	15	[0, 0, 0]	n/a	FR1	2	R1315T
1756.669	1.623	1756768	WORD	n/a	wordpools/wordpool_EN.txt	CAVE	4	15	[0, 0, 0]	n/a	FR1	2	R1315T
1758.292	0.781	1758391	WORD_OFF	n/a	n/a	CAVE	4	15	[0, 0, 0]	n/a	FR1	2	R1315T
1759.073	1.636	1759172	WORD	n/a	wordpools/wordpool_EN.txt	SNAIL	5	15	[0, 0, 0]	n/a	FR1	2	R1315T
1760.709	1.087	1760808	WORD_OFF	n/a	n/a	SNAIL	5	15	[0, 0, 0]	n/a	FR1	2	R1315T
1761.796	1.614	1761895	WORD	n/a	wordpools/wordpool_EN.txt	CUP	6	15	[0, 0, 0]	n/a	FR1	2	R1315T
1763.41	1.044	1763509	WORD_OFF	n/a	n/a	CUP	6	15	[0, 0, 0]	n/a	FR1	2	R1315T
1764.454	1.622	1764553	WORD	n/a	wordpools/wordpool_EN.txt	PLANE	7	15	[0, 0, 0]	n/a	FR1	2	R1315T
1766.076	1.041	1766175	WORD_OFF	n/a	n/a	PLANE	7	15	[0, 0, 0]	n/a	FR1	2	R1315T
1767.117	1.626	1767216	WORD	n/a	wordpools/wordpool_EN.txt	BARN	8	15	[0, 0, 0]	n/a	FR1	2	R1315T
1768.743	1.085	1768842	WORD_OFF	n/a	n/a	BARN	8	15	[0, 0, 0]	n/a	FR1	2	R1315T
1769.828	1.617	1769926	WORD	n/a	wordpools/wordpool_EN.txt	THUMB	9	15	[0, 0, 0]	n/a	FR1	2	R1315T
1771.445	1.031	1771543	WORD_OFF	n/a	n/a	THUMB	9	15	[0, 0, 0]	n/a	FR1	2	R1315T
1772.476	1.635	1772574	WORD	n/a	wordpools/wordpool_EN.txt	PET	10	15	[0, 0, 0]	n/a	FR1	2	R1315T
1774.111	0.982	1774209	WORD_OFF	n/a	n/a	PET	10	15	[0, 0, 0]	n/a	FR1	2	R1315T
1775.093	1.635	1775191	WORD	n/a	wordpools/wordpool_EN.txt	CROW	11	15	[0, 0, 0]	n/a	FR1	2	R1315T
1776.728	1.129	1776826	WORD_OFF	n/a	n/a	CROW	11	15	[0, 0, 0]	n/a	FR1	2	R1315T
1777.857	1.606	1777955	WORD	n/a	wordpools/wordpool_EN.txt	MUG	12	15	[0, 0, 0]	n/a	FR1	2	R1315T
1779.463	0.0	1779561	ENCODING_END	n/a	n/a	n/a	-999	15	[0, 0, 0]	n/a	FR1	2	R1315T
1779.463	0.001	1779561	WORD_OFF	n/a	n/a	MUG	12	15	[0, 0, 0]	n/a	FR1	2	R1315T
1779.464	0.0	1779562	DISTRACT_START	n/a	n/a	n/a	-999	15	[0, 0, 0]	n/a	FR1	2	R1315T
1779.464	0.015	1779562	START	n/a	n/a	n/a	-999	15	[-999, -999, -999]	n/a	FR1	2	R1315T
1779.479	3.1	1779577	PROB	3.1	n/a	n/a	-999	15	[5, 4, 1]	19	FR1	2	R1315T
1782.579	7.886	1782677	PROB	7.886	n/a	n/a	-999	15	[7, 7, 7]	22	FR1	2	R1315T
1790.465	3.299	1790563	PROB	3.299	n/a	n/a	-999	15	[6, 4, 8]	18	FR1	2	R1315T
1793.764	4.968	1793861	PROB	4.968	n/a	n/a	-999	15	[8, 1, 4]	13	FR1	2	R1315T
1798.732	2.747	1798829	PROB	2.747	n/a	n/a	-999	15	[7, 2, 3]	12	FR1	2	R1315T
1801.479	0.021	1801576	STOP	n/a	n/a	n/a	-999	15	[-999, -999, -999]	n/a	FR1	2	R1315T
1801.5	0.605	1801597	DISTRACT_END	n/a	n/a	n/a	-999	15	[0, 0, 0]	n/a	FR1	2	R1315T
1802.105	1.695	1802202	RETRIEVAL_ORIENT_START	n/a	n/a	n/a	-999	15	[0, 0, 0]	n/a	FR1	2	R1315T
1803.8	0.0	1803897	RETRIEVAL_ORIENT_END	n/a	n/a	n/a	-999	15	[0, 0, 0]	n/a	FR1	2	R1315T
1803.8	1.49	1803897	REC_START	n/a	n/a	n/a	-999	15	[0, 0, 0]	n/a	FR1	2	R1315T
1805.29	3.858	1805387	REC_WORD	3.858	n/a	PET	10	15	[0, 0, 0]	n/a	FR1	2	R1315T
1809.148	24.09	1809245	REC_WORD	24.09	n/a	THUMB	9	15	[0, 0, 0]	n/a	FR1	2	R1315T
1833.238	0.573	1833334	REC_WORD	0.573	n/a	MUG	12	15	[0, 0, 0]	n/a	FR1	2	R1315T
1833.811	0.001	1833907	REC_END	n/a	n/a	n/a	-999	15	[0, 0, 0]	n/a	FR1	2	R1315T
1833.812	0.014	1833908	TRIAL_END	n/a	n/a	n/a	-999	15	[0, 0, 0]	n/a	FR1	2	R1315T
1833.826	0.0	1833922	TRIAL_START	n/a	n/a	n/a	-999	16	[0, 0, 0]	n/a	FR1	2	R1315T
1833.826	0.0	1833922	TRIAL	n/a	n/a	n/a	-999	16	[0, 0, 0]	n/a	FR1	2	R1315T
1833.826	1.013	1833922	WAITING_START	n/a	n/a	n/a	-999	16	[0, 0, 0]	n/a	FR1	2	R1315T
1834.839	0.0	1834935	WAITING_END	n/a	n/a	n/a	-999	16	[0, 0, 0]	n/a	FR1	2	R1315T
1834.839	10.428	1834935	COUNTDOWN_START	n/a	n/a	n/a	-999	16	[0, 0, 0]	n/a	FR1	2	R1315T
1845.267	0.0	1845362	ORIENT_START	n/a	n/a	n/a	-999	16	[0, 0, 0]	n/a	FR1	2	R1315T
1845.267	1.025	1845362	COUNTDOWN_END	n/a	n/a	n/a	-999	16	[0, 0, 0]	n/a	FR1	2	R1315T
1846.292	0.0	1846387	ORIENT_END	n/a	n/a	n/a	-999	16	[0, 0, 0]	n/a	FR1	2	R1315T
1846.292	1.112	1846387	ENCODING_START	n/a	n/a	n/a	-999	16	[0, 0, 0]	n/a	FR1	2	R1315T
1847.404	1.637	1847499	WORD	n/a	wordpools/wordpool_EN.txt	CLOUD	1	16	[0, 0, 0]	n/a	FR1	2	R1315T
1849.041	0.836	1849136	WORD_OFF	n/a	n/a	CLOUD	1	16	[0, 0, 0]	n/a	FR1	2	R1315T
1849.877	1.616	1849972	WORD	n/a	wordpools/wordpool_EN.txt	MOUSE	2	16	[0, 0, 0]	n/a	FR1	2	R1315T
1851.493	0.992	1851588	WORD_OFF	n/a	n/a	MOUSE	2	16	[0, 0, 0]	n/a	FR1	2	R1315T
1852.485	1.624	1852580	WORD	n/a	wordpools/wordpool_EN.txt	BOY	3	16	[0, 0, 0]	n/a	FR1	2	R1315T
1854.109	0.851	1854204	WORD_OFF	n/a	n/a	BOY	3	16	[0, 0, 0]	n/a	FR1	2	R1315T
1854.96	1.633	1855055	WORD	n/a	wordpools/wordpool_EN.txt	CLAY	4	16	[0, 0, 0]	n/a	FR1	2	R1315T
1856.593	0.878	1856688	WORD_OFF	n/a	n/a	CLAY	4	16	[0, 0, 0]	n/a	FR1	2	R1315T
1857.471	1.622	1857566	WORD	n/a	wordpools/wordpool_EN.txt	JAIL	5	16	[0, 0, 0]	n/a	FR1	2	R1315T
1859.093	1.029	1859187	WORD_OFF	n/a	n/a	JAIL	5	16	[0, 0, 0]	n/a	FR1	2	R1315T
1860.122	1.622	1860216	WORD	n/a	wordpools/wordpool_EN.txt	MULE	6	16	[0, 0, 0]	n/a	FR1	2	R1315T
1861.744	0.973	1861838	WORD_OFF	n/a	n/a	MULE	6	16	[0, 0, 0]	n/a	FR1	2	R1315T
1862.717	1.611	1862811	WORD	n/a	wordpools/wordpool_EN.txt	HOUSE	7	16	[0, 0, 0]	n/a	FR1	2	R1315T
1864.328	0.766	1864422	WORD_OFF	n/a	n/a	HOUSE	7	16	[0, 0, 0]	n/a	FR1	2	R1315T
1865.094	1.634	1865188	WORD	n/a	wordpools/wordpool_EN.txt	STOOL	8	16	[0, 0, 0]	n/a	FR1	2	R1315T
1866.728	1.043	1866822	WORD_OFF	n/a	n/a	STOOL	8	16	[0, 0, 0]	n/a	FR1	2	R1315T
1867.771	1.625	1867865	WORD	n/a	wordpools/wordpool_EN.txt	OAK	9	16	[0, 0, 0]	n/a	FR1	2	R1315T
1869.396	0.829	1869490	WORD_OFF	n/a	n/a	OAK	9	16	[0, 0, 0]	n/a	FR1	2	R1315T
1870.225	1.62	1870319	WORD	n/a	wordpools/wordpool_EN.txt	WING	10	16	[0, 0, 0]	n/a	FR1	2	R1315T
1871.845	0.842	1871939	WORD_OFF	n/a	n/a	WING	10	16	[0, 0, 0]	n/a	FR1	2	R1315T
1872.687	1.61	1872781	WORD	n/a	wordpools/wordpool_EN.txt	SMOKE	11	16	[0, 0, 0]	n/a	FR1	2	R1315T
1874.297	1.108	1874391	WORD_OFF	n/a	n/a	SMOKE	11	16	[0, 0, 0]	n/a	FR1	2	R1315T
1875.405	1.625	1875499	WORD	n/a	wordpools/wordpool_EN.txt	BOWL	12	16	[0, 0, 0]	n/a	FR1	2	R1315T
1877.03	0.0	1877124	DISTRACT_START	n/a	n/a	n/a	-999	16	[0, 0, 0]	n/a	FR1	2	R1315T
1877.03	0.0	1877124	WORD_OFF	n/a	n/a	BOWL	12	16	[0, 0, 0]	n/a	FR1	2	R1315T
1877.03	0.001	1877124	ENCODING_END	n/a	n/a	n/a	-999	16	[0, 0, 0]	n/a	FR1	2	R1315T
1877.031	0.015	1877125	START	n/a	n/a	n/a	-999	16	[-999, -999, -999]	n/a	FR1	2	R1315T
1877.046	2.517	1877140	PROB	2.517	n/a	n/a	-999	16	[6, 2, 6]	14	FR1	2	R1315T
1879.563	3.634	1879657	PROB	3.634	n/a	n/a	-999	16	[7, 2, 2]	11	FR1	2	R1315T
1883.197	6.401	1883290	PROB	6.401	n/a	n/a	-999	16	[6, 9, 2]	17	FR1	2	R1315T
1889.598	4.702	1889691	PROB	4.702	n/a	n/a	-999	16	[4, 6, 5]	15	FR1	2	R1315T
1894.3	5.295	1894393	PROB	5.295	n/a	n/a	-999	16	[1, 5, 9]	15	FR1	2	R1315T
1899.595	0.022	1899688	STOP	n/a	n/a	n/a	-999	16	[-999, -999, -999]	n/a	FR1	2	R1315T
1899.617	0.506	1899710	DISTRACT_END	n/a	n/a	n/a	-999	16	[0, 0, 0]	n/a	FR1	2	R1315T
1900.123	1.628	1900216	RETRIEVAL_ORIENT_START	n/a	n/a	n/a	-999	16	[0, 0, 0]	n/a	FR1	2	R1315T
1901.751	0.0	1901844	RETRIEVAL_ORIENT_END	n/a	n/a	n/a	-999	16	[0, 0, 0]	n/a	FR1	2	R1315T
1901.751	20.238	1901844	REC_START	n/a	n/a	n/a	-999	16	[0, 0, 0]	n/a	FR1	2	R1315T
1921.989	9.775	1922081	REC_WORD_VV	9.775	n/a	<>	-999	16	[0, 0, 0]	n/a	FR1	2	R1315T
1931.764	0.001	1931855	REC_END	n/a	n/a	n/a	-999	16	[0, 0, 0]	n/a	FR1	2	R1315T
1931.765	0.014	1931856	TRIAL_END	n/a	n/a	n/a	-999	16	[0, 0, 0]	n/a	FR1	2	R1315T
1931.779	0.0	1931870	TRIAL_START	n/a	n/a	n/a	-999	17	[0, 0, 0]	n/a	FR1	2	R1315T
1931.779	0.0	1931870	TRIAL	n/a	n/a	n/a	-999	17	[0, 0, 0]	n/a	FR1	2	R1315T
1931.779	1.361	1931870	WAITING_START	n/a	n/a	n/a	-999	17	[0, 0, 0]	n/a	FR1	2	R1315T
1933.14	0.0	1933231	WAITING_END	n/a	n/a	n/a	-999	17	[0, 0, 0]	n/a	FR1	2	R1315T
1933.14	10.429	1933231	COUNTDOWN_START	n/a	n/a	n/a	-999	17	[0, 0, 0]	n/a	FR1	2	R1315T
1943.569	0.001	1943660	COUNTDOWN_END	n/a	n/a	n/a	-999	17	[0, 0, 0]	n/a	FR1	2	R1315T
1943.57	1.072	1943661	ORIENT_START	n/a	n/a	n/a	-999	17	[0, 0, 0]	n/a	FR1	2	R1315T
1944.642	0.0	1944733	ENCODING_START	n/a	n/a	n/a	-999	17	[0, 0, 0]	n/a	FR1	2	R1315T
1944.642	0.754	1944733	ORIENT_END	n/a	n/a	n/a	-999	17	[0, 0, 0]	n/a	FR1	2	R1315T
1945.396	1.63	1945487	WORD	n/a	wordpools/wordpool_EN.txt	CROWN	1	17	[0, 0, 0]	n/a	FR1	2	R1315T
1947.026	0.974	1947116	WORD_OFF	n/a	n/a	CROWN	1	17	[0, 0, 0]	n/a	FR1	2	R1315T
1948.0	1.626	1948090	WORD	n/a	wordpools/wordpool_EN.txt	FILM	2	17	[0, 0, 0]	n/a	FR1	2	R1315T
1949.626	0.955	1949716	WORD_OFF	n/a	n/a	FILM	2	17	[0, 0, 0]	n/a	FR1	2	R1315T
1950.581	1.629	1950671	WORD	n/a	wordpools/wordpool_EN.txt	DOOR	3	17	[0, 0, 0]	n/a	FR1	2	R1315T
1952.21	1.052	1952300	WORD_OFF	n/a	n/a	DOOR	3	17	[0, 0, 0]	n/a	FR1	2	R1315T
1953.262	1.632	1953352	WORD	n/a	wordpools/wordpool_EN.txt	GLOVE	4	17	[0, 0, 0]	n/a	FR1	2	R1315T
1954.894	1.102	1954984	WORD_OFF	n/a	n/a	GLOVE	4	17	[0, 0, 0]	n/a	FR1	2	R1315T
1955.996	1.632	1956086	WORD	n/a	wordpools/wordpool_EN.txt	VASE	5	17	[0, 0, 0]	n/a	FR1	2	R1315T
1957.628	0.87	1957718	WORD_OFF	n/a	n/a	VASE	5	17	[0, 0, 0]	n/a	FR1	2	R1315T
1958.498	1.63	1958588	WORD	n/a	wordpools/wordpool_EN.txt	STORM	6	17	[0, 0, 0]	n/a	FR1	2	R1315T
1960.128	0.931	1960218	WORD_OFF	n/a	n/a	STORM	6	17	[0, 0, 0]	n/a	FR1	2	R1315T
1961.059	1.636	1961149	WORD	n/a	wordpools/wordpool_EN.txt	RUG	7	17	[0, 0, 0]	n/a	FR1	2	R1315T
1962.695	1.034	1962785	WORD_OFF	n/a	n/a	RUG	7	17	[0, 0, 0]	n/a	FR1	2	R1315T
1963.729	1.617	1963819	WORD	n/a	wordpools/wordpool_EN.txt	FLAME	8	17	[0, 0, 0]	n/a	FR1	2	R1315T
1965.346	1.125	1965436	WORD_OFF	n/a	n/a	FLAME	8	17	[0, 0, 0]	n/a	FR1	2	R1315T
1966.471	1.625	1966561	WORD	n/a	wordpools/wordpool_EN.txt	WORLD	9	17	[0, 0, 0]	n/a	FR1	2	R1315T
1968.096	1.03	1968186	WORD_OFF	n/a	n/a	WORLD	9	17	[0, 0, 0]	n/a	FR1	2	R1315T
1969.126	1.637	1969216	WORD	n/a	wordpools/wordpool_EN.txt	LAKE	10	17	[0, 0, 0]	n/a	FR1	2	R1315T
1970.763	1.135	1970852	WORD_OFF	n/a	n/a	LAKE	10	17	[0, 0, 0]	n/a	FR1	2	R1315T
1971.898	1.634	1971987	WORD	n/a	wordpools/wordpool_EN.txt	HAWK	11	17	[0, 0, 0]	n/a	FR1	2	R1315T
1973.532	0.918	1973621	WORD_OFF	n/a	n/a	HAWK	11	17	[0, 0, 0]	n/a	FR1	2	R1315T
1974.45	1.631	1974539	WORD	n/a	wordpools/wordpool_EN.txt	FUDGE	12	17	[0, 0, 0]	n/a	FR1	2	R1315T
1976.081	0.0	1976170	WORD_OFF	n/a	n/a	FUDGE	12	17	[0, 0, 0]	n/a	FR1	2	R1315T
1976.081	0.001	1976170	ENCODING_END	n/a	n/a	n/a	-999	17	[0, 0, 0]	n/a	FR1	2	R1315T
1976.082	0.0	1976171	DISTRACT_START	n/a	n/a	n/a	-999	17	[0, 0, 0]	n/a	FR1	2	R1315T
1976.082	0.015	1976171	START	n/a	n/a	n/a	-999	17	[-999, -999, -999]	n/a	FR1	2	R1315T
1976.097	5.552	1976186	PROB	5.552	n/a	n/a	-999	17	[5, 7, 4]	17	FR1	2	R1315T
1981.649	7.167	1981738	PROB	7.167	n/a	n/a	-999	17	[3, 5, 6]	14	FR1	2	R1315T
1988.816	5.536	1988905	PROB	5.536	n/a	n/a	-999	17	[1, 1, 4]	6	FR1	2	R1315T
1994.352	4.568	1994440	PROB	4.568	n/a	n/a	-999	17	[8, 5, 3]	16	FR1	2	R1315T
1998.92	0.015	1999008	STOP	n/a	n/a	n/a	-999	17	[-999, -999, -999]	n/a	FR1	2	R1315T
1998.935	0.599	1999023	DISTRACT_END	n/a	n/a	n/a	-999	17	[0, 0, 0]	n/a	FR1	2	R1315T
1999.534	1.585	1999622	RETRIEVAL_ORIENT_START	n/a	n/a	n/a	-999	17	[0, 0, 0]	n/a	FR1	2	R1315T
2001.119	0.0	2001207	RETRIEVAL_ORIENT_END	n/a	n/a	n/a	-999	17	[0, 0, 0]	n/a	FR1	2	R1315T
2001.119	2.069	2001207	REC_START	n/a	n/a	n/a	-999	17	[0, 0, 0]	n/a	FR1	2	R1315T
2003.188	1.049	2003276	REC_WORD	1.049	n/a	LAKE	10	17	[0, 0, 0]	n/a	FR1	2	R1315T
2004.237	6.096	2004325	REC_WORD	6.096	n/a	WORLD	9	17	[0, 0, 0]	n/a	FR1	2	R1315T
2010.333	20.802	2010421	REC_WORD	20.802	n/a	RUG	7	17	[0, 0, 0]	n/a	FR1	2	R1315T
2031.135	0.001	2031222	REC_END	n/a	n/a	n/a	-999	17	[0, 0, 0]	n/a	FR1	2	R1315T
2031.136	0.017	2031223	TRIAL_END	n/a	n/a	n/a	-999	17	[0, 0, 0]	n/a	FR1	2	R1315T
2031.153	0.0	2031240	TRIAL_START	n/a	n/a	n/a	-999	18	[0, 0, 0]	n/a	FR1	2	R1315T
2031.153	0.0	2031240	TRIAL	n/a	n/a	n/a	-999	18	[0, 0, 0]	n/a	FR1	2	R1315T
2031.153	1.389	2031240	WAITING_START	n/a	n/a	n/a	-999	18	[0, 0, 0]	n/a	FR1	2	R1315T
2032.542	0.001	2032629	WAITING_END	n/a	n/a	n/a	-999	18	[0, 0, 0]	n/a	FR1	2	R1315T
2032.543	10.429	2032630	COUNTDOWN_START	n/a	n/a	n/a	-999	18	[0, 0, 0]	n/a	FR1	2	R1315T
2042.972	0.0	2043058	COUNTDOWN_END	n/a	n/a	n/a	-999	18	[0, 0, 0]	n/a	FR1	2	R1315T
2042.972	1.071	2043058	ORIENT_START	n/a	n/a	n/a	-999	18	[0, 0, 0]	n/a	FR1	2	R1315T
2044.043	0.001	2044129	ORIENT_END	n/a	n/a	n/a	-999	18	[0, 0, 0]	n/a	FR1	2	R1315T
2044.044	0.84	2044130	ENCODING_START	n/a	n/a	n/a	-999	18	[0, 0, 0]	n/a	FR1	2	R1315T
2044.884	1.627	2044970	WORD	n/a	wordpools/wordpool_EN.txt	VEST	1	18	[0, 0, 0]	n/a	FR1	2	R1315T
2046.511	0.915	2046597	WORD_OFF	n/a	n/a	VEST	1	18	[0, 0, 0]	n/a	FR1	2	R1315T
2047.426	1.635	2047512	WORD	n/a	wordpools/wordpool_EN.txt	SOCK	2	18	[0, 0, 0]	n/a	FR1	2	R1315T
2049.061	1.08	2049147	WORD_OFF	n/a	n/a	SOCK	2	18	[0, 0, 0]	n/a	FR1	2	R1315T
2050.141	1.637	2050227	WORD	n/a	wordpools/wordpool_EN.txt	BRANCH	3	18	[0, 0, 0]	n/a	FR1	2	R1315T
2051.778	0.864	2051864	WORD_OFF	n/a	n/a	BRANCH	3	18	[0, 0, 0]	n/a	FR1	2	R1315T
2052.642	1.638	2052728	WORD	n/a	wordpools/wordpool_EN.txt	BAND	4	18	[0, 0, 0]	n/a	FR1	2	R1315T
2054.28	1.0	2054366	WORD_OFF	n/a	n/a	BAND	4	18	[0, 0, 0]	n/a	FR1	2	R1315T
2055.28	1.632	2055366	WORD	n/a	wordpools/wordpool_EN.txt	DOG	5	18	[0, 0, 0]	n/a	FR1	2	R1315T
2056.912	0.997	2056998	WORD_OFF	n/a	n/a	DOG	5	18	[0, 0, 0]	n/a	FR1	2	R1315T
2057.909	1.621	2057995	WORD	n/a	wordpools/wordpool_EN.txt	NOSE	6	18	[0, 0, 0]	n/a	FR1	2	R1315T
2059.53	0.976	2059615	WORD_OFF	n/a	n/a	NOSE	6	18	[0, 0, 0]	n/a	FR1	2	R1315T
2060.506	1.624	2060591	WORD	n/a	wordpools/wordpool_EN.txt	LIP	7	18	[0, 0, 0]	n/a	FR1	2	R1315T
2062.13	0.871	2062215	WORD_OFF	n/a	n/a	LIP	7	18	[0, 0, 0]	n/a	FR1	2	R1315T
2063.001	1.629	2063086	WORD	n/a	wordpools/wordpool_EN.txt	POND	8	18	[0, 0, 0]	n/a	FR1	2	R1315T
2064.63	0.934	2064715	WORD_OFF	n/a	n/a	POND	8	18	[0, 0, 0]	n/a	FR1	2	R1315T
2065.564	1.617	2065649	WORD	n/a	wordpools/wordpool_EN.txt	HEN	9	18	[0, 0, 0]	n/a	FR1	2	R1315T
2067.181	1.15	2067266	WORD_OFF	n/a	n/a	HEN	9	18	[0, 0, 0]	n/a	FR1	2	R1315T
2068.331	1.634	2068416	WORD	n/a	wordpools/wordpool_EN.txt	JUDGE	10	18	[0, 0, 0]	n/a	FR1	2	R1315T
2069.965	1.021	2070050	WORD_OFF	n/a	n/a	JUDGE	10	18	[0, 0, 0]	n/a	FR1	2	R1315T
2070.986	1.629	2071071	WORD	n/a	wordpools/wordpool_EN.txt	STONE	11	18	[0, 0, 0]	n/a	FR1	2	R1315T
2072.615	0.938	2072700	WORD_OFF	n/a	n/a	STONE	11	18	[0, 0, 0]	n/a	FR1	2	R1315T
2073.553	1.629	2073638	WORD	n/a	wordpools/wordpool_EN.txt	FROG	12	18	[0, 0, 0]	n/a	FR1	2	R1315T
2075.182	0.001	2075267	WORD_OFF	n/a	n/a	FROG	12	18	[0, 0, 0]	n/a	FR1	2	R1315T
2075.183	0.0	2075268	ENCODING_END	n/a	n/a	n/a	-999	18	[0, 0, 0]	n/a	FR1	2	R1315T
2075.183	0.0	2075268	DISTRACT_START	n/a	n/a	n/a	-999	18	[0, 0, 0]	n/a	FR1	2	R1315T
2075.183	0.016	2075268	START	n/a	n/a	n/a	-999	18	[-999, -999, -999]	n/a	FR1	2	R1315T
2075.199	7.618	2075284	PROB	7.618	n/a	n/a	-999	18	[9, 4, 7]	22	FR1	2	R1315T
2082.817	2.485	2082901	PROB	2.485	n/a	n/a	-999	18	[2, 2, 3]	7	FR1	2	R1315T
2085.302	2.549	2085386	PROB	2.549	n/a	n/a	-999	18	[8, 2, 5]	15	FR1	2	R1315T
2087.851	4.234	2087935	PROB	4.234	n/a	n/a	-999	18	[8, 5, 1]	17	FR1	2	R1315T
2092.085	7.712	2092169	PROB	7.712	n/a	n/a	-999	18	[6, 7, 6]	19	FR1	2	R1315T
2099.797	0.007	2099881	STOP	n/a	n/a	n/a	-999	18	[-999, -999, -999]	n/a	FR1	2	R1315T
2099.804	0.67	2099888	DISTRACT_END	n/a	n/a	n/a	-999	18	[0, 0, 0]	n/a	FR1	2	R1315T
2100.474	1.597	2100558	RETRIEVAL_ORIENT_START	n/a	n/a	n/a	-999	18	[0, 0, 0]	n/a	FR1	2	R1315T
2102.071	0.0	2102155	RETRIEVAL_ORIENT_END	n/a	n/a	n/a	-999	18	[0, 0, 0]	n/a	FR1	2	R1315T
2102.071	3.001	2102155	REC_START	n/a	n/a	n/a	-999	18	[0, 0, 0]	n/a	FR1	2	R1315T
2105.072	12.902	2105155	REC_WORD	12.902	n/a	STONE	11	18	[0, 0, 0]	n/a	FR1	2	R1315T
2117.974	3.447	2118057	REC_WORD	3.447	n/a	SOCK	2	18	[0, 0, 0]	n/a	FR1	2	R1315T
2121.421	0.87	2121504	REC_WORD	0.87	n/a	LIP	7	18	[0, 0, 0]	n/a	FR1	2	R1315T
2122.291	9.793	2122374	REC_WORD	9.793	n/a	NOSE	6	18	[0, 0, 0]	n/a	FR1	2	R1315T
2132.084	0.001	2132166	REC_END	n/a	n/a	n/a	-999	18	[0, 0, 0]	n/a	FR1	2	R1315T
2132.085	0.014	2132167	TRIAL_END	n/a	n/a	n/a	-999	18	[0, 0, 0]	n/a	FR1	2	R1315T
2132.099	0.0	2132181	TRIAL_START	n/a	n/a	n/a	-999	19	[0, 0, 0]	n/a	FR1	2	R1315T
2132.099	0.0	2132181	TRIAL	n/a	n/a	n/a	-999	19	[0, 0, 0]	n/a	FR1	2	R1315T
2132.099	0.911	2132181	WAITING_START	n/a	n/a	n/a	-999	19	[0, 0, 0]	n/a	FR1	2	R1315T
2133.01	0.0	2133092	WAITING_END	n/a	n/a	n/a	-999	19	[0, 0, 0]	n/a	FR1	2	R1315T
2133.01	10.428	2133092	COUNTDOWN_START	n/a	n/a	n/a	-999	19	[0, 0, 0]	n/a	FR1	2	R1315T
2143.438	0.001	2143520	COUNTDOWN_END	n/a	n/a	n/a	-999	19	[0, 0, 0]	n/a	FR1	2	R1315T
2143.439	1.107	2143521	ORIENT_START	n/a	n/a	n/a	-999	19	[0, 0, 0]	n/a	FR1	2	R1315T
2144.546	0.0	2144628	ENCODING_START	n/a	n/a	n/a	-999	19	[0, 0, 0]	n/a	FR1	2	R1315T
2144.546	1.073	2144628	ORIENT_END	n/a	n/a	n/a	-999	19	[0, 0, 0]	n/a	FR1	2	R1315T
2145.619	1.626	2145701	WORD	n/a	wordpools/wordpool_EN.txt	BLUSH	1	19	[0, 0, 0]	n/a	FR1	2	R1315T
2147.245	0.913	2147326	WORD_OFF	n/a	n/a	BLUSH	1	19	[0, 0, 0]	n/a	FR1	2	R1315T
2148.158	1.638	2148239	WORD	n/a	wordpools/wordpool_EN.txt	HORSE	2	19	[0, 0, 0]	n/a	FR1	2	R1315T
2149.796	0.852	2149877	WORD_OFF	n/a	n/a	HORSE	2	19	[0, 0, 0]	n/a	FR1	2	R1315T
2150.648	1.633	2150729	WORD	n/a	wordpools/wordpool_EN.txt	MOON	3	19	[0, 0, 0]	n/a	FR1	2	R1315T
2152.281	0.88	2152362	WORD_OFF	n/a	n/a	MOON	3	19	[0, 0, 0]	n/a	FR1	2	R1315T
2153.161	1.636	2153242	WORD	n/a	wordpools/wordpool_EN.txt	PEACH	4	19	[0, 0, 0]	n/a	FR1	2	R1315T
2154.797	0.927	2154878	WORD_OFF	n/a	n/a	PEACH	4	19	[0, 0, 0]	n/a	FR1	2	R1315T
2155.724	1.624	2155805	WORD	n/a	wordpools/wordpool_EN.txt	PEA	5	19	[0, 0, 0]	n/a	FR1	2	R1315T
2157.348	1.124	2157429	WORD_OFF	n/a	n/a	PEA	5	19	[0, 0, 0]	n/a	FR1	2	R1315T
2158.472	1.626	2158553	WORD	n/a	wordpools/wordpool_EN.txt	BRIDGE	6	19	[0, 0, 0]	n/a	FR1	2	R1315T
2160.098	0.989	2160179	WORD_OFF	n/a	n/a	BRIDGE	6	19	[0, 0, 0]	n/a	FR1	2	R1315T
2161.087	1.628	2161168	WORD	n/a	wordpools/wordpool_EN.txt	WAND	7	19	[0, 0, 0]	n/a	FR1	2	R1315T
2162.715	1.078	2162796	WORD_OFF	n/a	n/a	WAND	7	19	[0, 0, 0]	n/a	FR1	2	R1315T
2163.793	1.607	2163874	WORD	n/a	wordpools/wordpool_EN.txt	KEY	8	19	[0, 0, 0]	n/a	FR1	2	R1315T
2165.4	1.099	2165481	WORD_OFF	n/a	n/a	KEY	8	19	[0, 0, 0]	n/a	FR1	2	R1315T
2166.499	1.634	2166580	WORD	n/a	wordpools/wordpool_EN.txt	TEA	9	19	[0, 0, 0]	n/a	FR1	2	R1315T
2168.133	0.88	2168214	WORD_OFF	n/a	n/a	TEA	9	19	[0, 0, 0]	n/a	FR1	2	R1315T
2169.013	1.637	2169093	WORD	n/a	wordpools/wordpool_EN.txt	TOY	10	19	[0, 0, 0]	n/a	FR1	2	R1315T
2170.65	0.92	2170730	WORD_OFF	n/a	n/a	TOY	10	19	[0, 0, 0]	n/a	FR1	2	R1315T
2171.57	1.63	2171650	WORD	n/a	wordpools/wordpool_EN.txt	JUICE	11	19	[0, 0, 0]	n/a	FR1	2	R1315T
2173.2	0.825	2173280	WORD_OFF	n/a	n/a	JUICE	11	19	[0, 0, 0]	n/a	FR1	2	R1315T
2174.025	1.626	2174105	WORD	n/a	wordpools/wordpool_EN.txt	YARD	12	19	[0, 0, 0]	n/a	FR1	2	R1315T
2175.651	0.0	2175731	WORD_OFF	n/a	n/a	YARD	12	19	[0, 0, 0]	n/a	FR1	2	R1315T
2175.651	0.0	2175731	ENCODING_END	n/a	n/a	n/a	-999	19	[0, 0, 0]	n/a	FR1	2	R1315T
2175.651	0.001	2175731	DISTRACT_START	n/a	n/a	n/a	-999	19	[0, 0, 0]	n/a	FR1	2	R1315T
2175.652	0.015	2175732	START	n/a	n/a	n/a	-999	19	[-999, -999, -999]	n/a	FR1	2	R1315T
2175.667	7.702	2175747	PROB	7.702	n/a	n/a	-999	19	[6, 2, 7]	18	FR1	2	R1315T
2183.369	4.134	2183449	PROB	4.134	n/a	n/a	-999	19	[7, 7, 8]	22	FR1	2	R1315T
2187.503	7.484	2187583	PROB	7.484	n/a	n/a	-999	19	[6, 8, 7]	21	FR1	2	R1315T
2194.987	3.961	2195066	PROB	3.961	n/a	n/a	-999	19	[9, 6, 3]	18	FR1	2	R1315T
2198.948	0.007	2199027	STOP	n/a	n/a	n/a	-999	19	[-999, -999, -999]	n/a	FR1	2	R1315T
2198.955	0.694	2199034	DISTRACT_END	n/a	n/a	n/a	-999	19	[0, 0, 0]	n/a	FR1	2	R1315T
2199.649	1.59	2199728	RETRIEVAL_ORIENT_START	n/a	n/a	n/a	-999	19	[0, 0, 0]	n/a	FR1	2	R1315T
2201.239	0.0	2201318	RETRIEVAL_ORIENT_END	n/a	n/a	n/a	-999	19	[0, 0, 0]	n/a	FR1	2	R1315T
2201.239	2.41	2201318	REC_START	n/a	n/a	n/a	-999	19	[0, 0, 0]	n/a	FR1	2	R1315T
2203.649	0.993	2203728	REC_WORD	0.993	n/a	PEA	5	19	[0, 0, 0]	n/a	FR1	2	R1315T
2204.642	5.433	2204721	REC_WORD	5.433	n/a	TOY	10	19	[0, 0, 0]	n/a	FR1	2	R1315T
2210.075	21.175	2210154	REC_WORD	21.175	n/a	MOON	3	19	[0, 0, 0]	n/a	FR1	2	R1315T
2231.25	0.0	2231328	REC_END	n/a	n/a	n/a	-999	19	[0, 0, 0]	n/a	FR1	2	R1315T
2231.25	0.017	2231328	TRIAL_END	n/a	n/a	n/a	-999	19	[0, 0, 0]	n/a	FR1	2	R1315T
2231.267	0.001	2231345	TRIAL_START	n/a	n/a	n/a	-999	20	[0, 0, 0]	n/a	FR1	2	R1315T
2231.268	0.0	2231346	TRIAL	n/a	n/a	n/a	-999	20	[0, 0, 0]	n/a	FR1	2	R1315T
2231.268	1.36	2231346	WAITING_START	n/a	n/a	n/a	-999	20	[0, 0, 0]	n/a	FR1	2	R1315T
2232.628	0.0	2232706	WAITING_END	n/a	n/a	n/a	-999	20	[0, 0, 0]	n/a	FR1	2	R1315T
2232.628	10.429	2232706	COUNTDOWN_START	n/a	n/a	n/a	-999	20	[0, 0, 0]	n/a	FR1	2	R1315T
2243.057	0.0	2243134	COUNTDOWN_END	n/a	n/a	n/a	-999	20	[0, 0, 0]	n/a	FR1	2	R1315T
2243.057	1.206	2243134	ORIENT_START	n/a	n/a	n/a	-999	20	[0, 0, 0]	n/a	FR1	2	R1315T
2244.263	0.0	2244340	ORIENT_END	n/a	n/a	n/a	-999	20	[0, 0, 0]	n/a	FR1	2	R1315T
2244.263	0.997	2244340	ENCODING_START	n/a	n/a	n/a	-999	20	[0, 0, 0]	n/a	FR1	2	R1315T
2245.26	1.637	2245337	WORD	n/a	wordpools/wordpool_EN.txt	LAMP	1	20	[0, 0, 0]	n/a	FR1	2	R1315T
2246.897	0.947	2246974	WORD_OFF	n/a	n/a	LAMP	1	20	[0, 0, 0]	n/a	FR1	2	R1315T
2247.844	1.621	2247921	WORD	n/a	wordpools/wordpool_EN.txt	CLOTH	2	20	[0, 0, 0]	n/a	FR1	2	R1315T
2249.465	0.8	2249542	WORD_OFF	n/a	n/a	CLOTH	2	20	[0, 0, 0]	n/a	FR1	2	R1315T
2250.265	1.633	2250342	WORD	n/a	wordpools/wordpool_EN.txt	INK	3	20	[0, 0, 0]	n/a	FR1	2	R1315T
2251.898	0.774	2251975	WORD_OFF	n/a	n/a	INK	3	20	[0, 0, 0]	n/a	FR1	2	R1315T
2252.672	1.627	2252749	WORD	n/a	wordpools/wordpool_EN.txt	CHIEF	4	20	[0, 0, 0]	n/a	FR1	2	R1315T
2254.299	0.766	2254376	WORD_OFF	n/a	n/a	CHIEF	4	20	[0, 0, 0]	n/a	FR1	2	R1315T
2255.065	1.634	2255142	WORD	n/a	wordpools/wordpool_EN.txt	STORE	5	20	[0, 0, 0]	n/a	FR1	2	R1315T
2256.699	1.07	2256776	WORD_OFF	n/a	n/a	STORE	5	20	[0, 0, 0]	n/a	FR1	2	R1315T
2257.769	1.631	2257845	WORD	n/a	wordpools/wordpool_EN.txt	CONE	6	20	[0, 0, 0]	n/a	FR1	2	R1315T
2259.4	1.127	2259476	WORD_OFF	n/a	n/a	CONE	6	20	[0, 0, 0]	n/a	FR1	2	R1315T
2260.527	1.623	2260603	WORD	n/a	wordpools/wordpool_EN.txt	STRING	7	20	[0, 0, 0]	n/a	FR1	2	R1315T
2262.15	0.864	2262226	WORD_OFF	n/a	n/a	STRING	7	20	[0, 0, 0]	n/a	FR1	2	R1315T
2263.014	1.636	2263090	WORD	n/a	wordpools/wordpool_EN.txt	ELF	8	20	[0, 0, 0]	n/a	FR1	2	R1315T
2264.65	0.914	2264726	WORD_OFF	n/a	n/a	ELF	8	20	[0, 0, 0]	n/a	FR1	2	R1315T
2265.564	1.637	2265640	WORD	n/a	wordpools/wordpool_EN.txt	MAIL	9	20	[0, 0, 0]	n/a	FR1	2	R1315T
2267.201	0.778	2267277	WORD_OFF	n/a	n/a	MAIL	9	20	[0, 0, 0]	n/a	FR1	2	R1315T
2267.979	1.622	2268055	WORD	n/a	wordpools/wordpool_EN.txt	ARM	10	20	[0, 0, 0]	n/a	FR1	2	R1315T
2269.601	0.812	2269677	WORD_OFF	n/a	n/a	ARM	10	20	[0, 0, 0]	n/a	FR1	2	R1315T
2270.413	1.622	2270489	WORD	n/a	wordpools/wordpool_EN.txt	ANT	11	20	[0, 0, 0]	n/a	FR1	2	R1315T
2272.035	1.062	2272111	WORD_OFF	n/a	n/a	ANT	11	20	[0, 0, 0]	n/a	FR1	2	R1315T
2273.097	1.622	2273173	WORD	n/a	wordpools/wordpool_EN.txt	STEM	12	20	[0, 0, 0]	n/a	FR1	2	R1315T
2274.719	0.0	2274795	WORD_OFF	n/a	n/a	STEM	12	20	[0, 0, 0]	n/a	FR1	2	R1315T
2274.719	0.0	2274795	ENCODING_END	n/a	n/a	n/a	-999	20	[0, 0, 0]	n/a	FR1	2	R1315T
2274.719	0.0	2274795	DISTRACT_START	n/a	n/a	n/a	-999	20	[0, 0, 0]	n/a	FR1	2	R1315T
2274.719	0.016	2274795	START	n/a	n/a	n/a	-999	20	[-999, -999, -999]	n/a	FR1	2	R1315T
2274.735	2.785	2274811	PROB	2.785	n/a	n/a	-999	20	[5, 1, 1]	7	FR1	2	R1315T
2277.52	2.633	2277596	PROB	2.633	n/a	n/a	-999	20	[5, 5, 7]	17	FR1	2	R1315T
2280.153	2.683	2280228	PROB	2.683	n/a	n/a	-999	20	[4, 1, 3]	8	FR1	2	R1315T
2282.836	3.918	2282911	PROB	3.918	n/a	n/a	-999	20	[4, 9, 9]	22	FR1	2	R1315T
2286.754	3.702	2286829	PROB	3.702	n/a	n/a	-999	20	[6, 8, 8]	22	FR1	2	R1315T
2290.456	4.715	2290531	PROB	4.715	n/a	n/a	-999	20	[9, 6, 6]	21	FR1	2	R1315T
2295.171	0.018	2295246	STOP	n/a	n/a	n/a	-999	20	[-999, -999, -999]	n/a	FR1	2	R1315T
2295.189	0.517	2295264	DISTRACT_END	n/a	n/a	n/a	-999	20	[0, 0, 0]	n/a	FR1	2	R1315T
2295.706	1.668	2295781	RETRIEVAL_ORIENT_START	n/a	n/a	n/a	-999	20	[0, 0, 0]	n/a	FR1	2	R1315T
2297.374	0.0	2297449	RETRIEVAL_ORIENT_END	n/a	n/a	n/a	-999	20	[0, 0, 0]	n/a	FR1	2	R1315T
2297.374	1.131	2297449	REC_START	n/a	n/a	n/a	-999	20	[0, 0, 0]	n/a	FR1	2	R1315T
2298.505	1.151	2298580	REC_WORD	1.151	n/a	MAIL	9	20	[0, 0, 0]	n/a	FR1	2	R1315T
2299.656	27.729	2299731	REC_WORD	27.729	n/a	ANT	11	20	[0, 0, 0]	n/a	FR1	2	R1315T
2327.385	0.001	2327458	REC_END	n/a	n/a	n/a	-999	20	[0, 0, 0]	n/a	FR1	2	R1315T
2327.386	0.015	2327459	TRIAL_END	n/a	n/a	n/a	-999	20	[0, 0, 0]	n/a	FR1	2	R1315T
2327.401	0.001	2327474	TRIAL_START	n/a	n/a	n/a	-999	21	[0, 0, 0]	n/a	FR1	2	R1315T
2327.402	0.0	2327475	WAITING_START	n/a	n/a	n/a	-999	21	[0, 0, 0]	n/a	FR1	2	R1315T
2327.402	1.86	2327475	TRIAL	n/a	n/a	n/a	-999	21	[0, 0, 0]	n/a	FR1	2	R1315T
2329.262	0.0	2329335	WAITING_END	n/a	n/a	n/a	-999	21	[0, 0, 0]	n/a	FR1	2	R1315T
2329.262	10.429	2329335	COUNTDOWN_START	n/a	n/a	n/a	-999	21	[0, 0, 0]	n/a	FR1	2	R1315T
2339.691	0.001	2339764	COUNTDOWN_END	n/a	n/a	n/a	-999	21	[0, 0, 0]	n/a	FR1	2	R1315T
2339.692	1.155	2339765	ORIENT_START	n/a	n/a	n/a	-999	21	[0, 0, 0]	n/a	FR1	2	R1315T
2340.847	0.001	2340920	ORIENT_END	n/a	n/a	n/a	-999	21	[0, 0, 0]	n/a	FR1	2	R1315T
2340.848	0.783	2340921	ENCODING_START	n/a	n/a	n/a	-999	21	[0, 0, 0]	n/a	FR1	2	R1315T
2341.631	1.633	2341704	WORD	n/a	wordpools/wordpool_EN.txt	FLUTE	1	21	[0, 0, 0]	n/a	FR1	2	R1315T
2343.264	0.986	2343337	WORD_OFF	n/a	n/a	FLUTE	1	21	[0, 0, 0]	n/a	FR1	2	R1315T
2344.25	1.631	2344323	WORD	n/a	wordpools/wordpool_EN.txt	FAN	2	21	[0, 0, 0]	n/a	FR1	2	R1315T
2345.881	0.786	2345954	WORD_OFF	n/a	n/a	FAN	2	21	[0, 0, 0]	n/a	FR1	2	R1315T
2346.667	1.616	2346739	WORD	n/a	wordpools/wordpool_EN.txt	WALL	3	21	[0, 0, 0]	n/a	FR1	2	R1315T
2348.283	0.834	2348355	WORD_OFF	n/a	n/a	WALL	3	21	[0, 0, 0]	n/a	FR1	2	R1315T
2349.117	1.632	2349189	WORD	n/a	wordpools/wordpool_EN.txt	SWORD	4	21	[0, 0, 0]	n/a	FR1	2	R1315T
2350.749	0.801	2350821	WORD_OFF	n/a	n/a	SWORD	4	21	[0, 0, 0]	n/a	FR1	2	R1315T
2351.55	1.633	2351622	WORD	n/a	wordpools/wordpool_EN.txt	FLEA	5	21	[0, 0, 0]	n/a	FR1	2	R1315T
2353.183	1.008	2353255	WORD_OFF	n/a	n/a	FLEA	5	21	[0, 0, 0]	n/a	FR1	2	R1315T
2354.191	1.626	2354263	WORD	n/a	wordpools/wordpool_EN.txt	BLOOM	6	21	[0, 0, 0]	n/a	FR1	2	R1315T
2355.817	0.858	2355889	WORD_OFF	n/a	n/a	BLOOM	6	21	[0, 0, 0]	n/a	FR1	2	R1315T
2356.675	1.626	2356747	WORD	n/a	wordpools/wordpool_EN.txt	STEAK	7	21	[0, 0, 0]	n/a	FR1	2	R1315T
2358.301	0.951	2358373	WORD_OFF	n/a	n/a	STEAK	7	21	[0, 0, 0]	n/a	FR1	2	R1315T
2359.252	1.632	2359324	WORD	n/a	wordpools/wordpool_EN.txt	BOOK	8	21	[0, 0, 0]	n/a	FR1	2	R1315T
2360.884	0.993	2360956	WORD_OFF	n/a	n/a	BOOK	8	21	[0, 0, 0]	n/a	FR1	2	R1315T
2361.877	1.609	2361949	WORD	n/a	wordpools/wordpool_EN.txt	ZOO	9	21	[0, 0, 0]	n/a	FR1	2	R1315T
2363.486	0.781	2363558	WORD_OFF	n/a	n/a	ZOO	9	21	[0, 0, 0]	n/a	FR1	2	R1315T
2364.267	1.635	2364339	WORD	n/a	wordpools/wordpool_EN.txt	AXE	10	21	[0, 0, 0]	n/a	FR1	2	R1315T
2365.902	1.104	2365974	WORD_OFF	n/a	n/a	AXE	10	21	[0, 0, 0]	n/a	FR1	2	R1315T
2367.006	1.63	2367078	WORD	n/a	wordpools/wordpool_EN.txt	GRAPE	11	21	[0, 0, 0]	n/a	FR1	2	R1315T
2368.636	1.053	2368707	WORD_OFF	n/a	n/a	GRAPE	11	21	[0, 0, 0]	n/a	FR1	2	R1315T
2369.689	1.631	2369760	WORD	n/a	wordpools/wordpool_EN.txt	NAIL	12	21	[0, 0, 0]	n/a	FR1	2	R1315T
2371.32	0.001	2371391	WORD_OFF	n/a	n/a	NAIL	12	21	[0, 0, 0]	n/a	FR1	2	R1315T
2371.321	0.0	2371392	ENCODING_END	n/a	n/a	n/a	-999	21	[0, 0, 0]	n/a	FR1	2	R1315T
2371.321	0.0	2371392	DISTRACT_START	n/a	n/a	n/a	-999	21	[0, 0, 0]	n/a	FR1	2	R1315T
2371.321	0.016	2371392	START	n/a	n/a	n/a	-999	21	[-999, -999, -999]	n/a	FR1	2	R1315T
2371.337	4.134	2371408	PROB	4.134	n/a	n/a	-999	21	[5, 9, 3]	17	FR1	2	R1315T
2375.471	3.5	2375542	PROB	3.5	n/a	n/a	-999	21	[1, 4, 5]	10	FR1	2	R1315T
2378.971	3.634	2379042	PROB	3.634	n/a	n/a	-999	21	[2, 9, 4]	13	FR1	2	R1315T
2382.605	2.701	2382676	PROB	2.701	n/a	n/a	-999	21	[3, 7, 4]	14	FR1	2	R1315T
2385.306	3.866	2385377	PROB	3.866	n/a	n/a	-999	21	[2, 3, 5]	10	FR1	2	R1315T
2389.172	3.903	2389243	PROB	3.903	n/a	n/a	-999	21	[5, 5, 6]	16	FR1	2	R1315T
2393.075	0.015	2393145	STOP	n/a	n/a	n/a	-999	21	[-999, -999, -999]	n/a	FR1	2	R1315T
2393.09	0.675	2393160	DISTRACT_END	n/a	n/a	n/a	-999	21	[0, 0, 0]	n/a	FR1	2	R1315T
2393.765	1.66	2393835	RETRIEVAL_ORIENT_START	n/a	n/a	n/a	-999	21	[0, 0, 0]	n/a	FR1	2	R1315T
2395.425	0.0	2395495	REC_START	n/a	n/a	n/a	-999	21	[0, 0, 0]	n/a	FR1	2	R1315T
2395.425	4.627	2395495	RETRIEVAL_ORIENT_END	n/a	n/a	n/a	-999	21	[0, 0, 0]	n/a	FR1	2	R1315T
2400.052	25.386	2400122	REC_WORD	25.386	n/a	AXE	10	21	[0, 0, 0]	n/a	FR1	2	R1315T
2425.438	0.0	2425507	REC_END	n/a	n/a	n/a	-999	21	[0, 0, 0]	n/a	FR1	2	R1315T
2425.438	0.017	2425507	TRIAL_END	n/a	n/a	n/a	-999	21	[0, 0, 0]	n/a	FR1	2	R1315T
2425.455	0.0	2425524	TRIAL_START	n/a	n/a	n/a	-999	22	[0, 0, 0]	n/a	FR1	2	R1315T
2425.455	0.0	2425524	TRIAL	n/a	n/a	n/a	-999	22	[0, 0, 0]	n/a	FR1	2	R1315T
2425.455	1.641	2425524	WAITING_START	n/a	n/a	n/a	-999	22	[0, 0, 0]	n/a	FR1	2	R1315T
2427.096	0.001	2427165	WAITING_END	n/a	n/a	n/a	-999	22	[0, 0, 0]	n/a	FR1	2	R1315T
2427.097	10.429	2427166	COUNTDOWN_START	n/a	n/a	n/a	-999	22	[0, 0, 0]	n/a	FR1	2	R1315T
2437.526	0.0	2437594	COUNTDOWN_END	n/a	n/a	n/a	-999	22	[0, 0, 0]	n/a	FR1	2	R1315T
2437.526	1.122	2437594	ORIENT_START	n/a	n/a	n/a	-999	22	[0, 0, 0]	n/a	FR1	2	R1315T
2438.648	0.001	2438716	ORIENT_END	n/a	n/a	n/a	-999	22	[0, 0, 0]	n/a	FR1	2	R1315T
2438.649	1.107	2438717	ENCODING_START	n/a	n/a	n/a	-999	22	[0, 0, 0]	n/a	FR1	2	R1315T
2439.756	1.627	2439824	WORD	n/a	wordpools/wordpool_EN.txt	BEAN	1	22	[0, 0, 0]	n/a	FR1	2	R1315T
2441.383	0.92	2441451	WORD_OFF	n/a	n/a	BEAN	1	22	[0, 0, 0]	n/a	FR1	2	R1315T
2442.303	1.629	2442371	WORD	n/a	wordpools/wordpool_EN.txt	POLE	2	22	[0, 0, 0]	n/a	FR1	2	R1315T
2443.932	0.973	2444000	WORD_OFF	n/a	n/a	POLE	2	22	[0, 0, 0]	n/a	FR1	2	R1315T
2444.905	1.629	2444973	WORD	n/a	wordpools/wordpool_EN.txt	WHALE	3	22	[0, 0, 0]	n/a	FR1	2	R1315T
2446.534	0.8	2446602	WORD_OFF	n/a	n/a	WHALE	3	22	[0, 0, 0]	n/a	FR1	2	R1315T
2447.334	1.633	2447402	WORD	n/a	wordpools/wordpool_EN.txt	SNAKE	4	22	[0, 0, 0]	n/a	FR1	2	R1315T
2448.967	0.829	2449035	WORD_OFF	n/a	n/a	SNAKE	4	22	[0, 0, 0]	n/a	FR1	2	R1315T
2449.796	1.622	2449864	WORD	n/a	wordpools/wordpool_EN.txt	TRASH	5	22	[0, 0, 0]	n/a	FR1	2	R1315T
2451.418	0.788	2451486	WORD_OFF	n/a	n/a	TRASH	5	22	[0, 0, 0]	n/a	FR1	2	R1315T
2452.206	1.628	2452274	WORD	n/a	wordpools/wordpool_EN.txt	STAR	6	22	[0, 0, 0]	n/a	FR1	2	R1315T
2453.834	0.941	2453902	WORD_OFF	n/a	n/a	STAR	6	22	[0, 0, 0]	n/a	FR1	2	R1315T
2454.775	1.611	2454843	WORD	n/a	wordpools/wordpool_EN.txt	PRINCE	7	22	[0, 0, 0]	n/a	FR1	2	R1315T
2456.386	1.066	2456454	WORD_OFF	n/a	n/a	PRINCE	7	22	[0, 0, 0]	n/a	FR1	2	R1315T
2457.452	1.633	2457519	WORD	n/a	wordpools/wordpool_EN.txt	LOCK	8	22	[0, 0, 0]	n/a	FR1	2	R1315T
2459.085	1.056	2459152	WORD_OFF	n/a	n/a	LOCK	8	22	[0, 0, 0]	n/a	FR1	2	R1315T
2460.141	1.628	2460208	WORD	n/a	wordpools/wordpool_EN.txt	PIG	9	22	[0, 0, 0]	n/a	FR1	2	R1315T
2461.769	0.752	2461836	WORD_OFF	n/a	n/a	PIG	9	22	[0, 0, 0]	n/a	FR1	2	R1315T
2462.521	1.632	2462588	WORD	n/a	wordpools/wordpool_EN.txt	HOOK	10	22	[0, 0, 0]	n/a	FR1	2	R1315T
2464.153	0.769	2464220	WORD_OFF	n/a	n/a	HOOK	10	22	[0, 0, 0]	n/a	FR1	2	R1315T
2464.922	1.616	2464989	WORD	n/a	wordpools/wordpool_EN.txt	HILL	11	22	[0, 0, 0]	n/a	FR1	2	R1315T
2466.538	0.854	2466605	WORD_OFF	n/a	n/a	HILL	11	22	[0, 0, 0]	n/a	FR1	2	R1315T
2467.392	1.628	2467459	WORD	n/a	wordpools/wordpool_EN.txt	KITE	12	22	[0, 0, 0]	n/a	FR1	2	R1315T
2469.02	0.001	2469087	WORD_OFF	n/a	n/a	KITE	12	22	[0, 0, 0]	n/a	FR1	2	R1315T
2469.021	0.0	2469088	ENCODING_END	n/a	n/a	n/a	-999	22	[0, 0, 0]	n/a	FR1	2	R1315T
2469.021	0.0	2469088	DISTRACT_START	n/a	n/a	n/a	-999	22	[0, 0, 0]	n/a	FR1	2	R1315T
2469.021	0.016	2469088	START	n/a	n/a	n/a	-999	22	[-999, -999, -999]	n/a	FR1	2	R1315T
2469.037	5.385	2469104	PROB	5.385	n/a	n/a	-999	22	[8, 6, 1]	16	FR1	2	R1315T
2474.422	2.117	2474489	PROB	2.117	n/a	n/a	-999	22	[2, 3, 8]	13	FR1	2	R1315T
2476.539	4.4	2476606	PROB	4.4	n/a	n/a	-999	22	[4, 5, 2]	12	FR1	2	R1315T
2480.939	4.552	2481005	PROB	4.552	n/a	n/a	-999	22	[3, 7, 3]	13	FR1	2	R1315T
2485.491	7.554	2485557	PROB	7.554	n/a	n/a	-999	22	[2, 7, 5]	24	FR1	2	R1315T
2493.045	0.013	2493111	STOP	n/a	n/a	n/a	-999	22	[-999, -999, -999]	n/a	FR1	2	R1315T
2493.058	0.693	2493124	DISTRACT_END	n/a	n/a	n/a	-999	22	[0, 0, 0]	n/a	FR1	2	R1315T
2493.751	1.575	2493817	RETRIEVAL_ORIENT_START	n/a	n/a	n/a	-999	22	[0, 0, 0]	n/a	FR1	2	R1315T
2495.326	0.0	2495392	RETRIEVAL_ORIENT_END	n/a	n/a	n/a	-999	22	[0, 0, 0]	n/a	FR1	2	R1315T
2495.326	14.017	2495392	REC_START	n/a	n/a	n/a	-999	22	[0, 0, 0]	n/a	FR1	2	R1315T
2509.343	15.997	2509408	REC_WORD	15.997	n/a	CHEF	-999	22	[0, 0, 0]	n/a	FR1	2	R1315T
2525.34	0.001	2525404	REC_END	n/a	n/a	n/a	-999	22	[0, 0, 0]	n/a	FR1	2	R1315T
2525.341	0.014	2525405	TRIAL_END	n/a	n/a	n/a	-999	22	[0, 0, 0]	n/a	FR1	2	R1315T
2525.355	0.001	2525419	TRIAL_START	n/a	n/a	n/a	-999	23	[0, 0, 0]	n/a	FR1	2	R1315T
2525.356	0.0	2525420	TRIAL	n/a	n/a	n/a	-999	23	[0, 0, 0]	n/a	FR1	2	R1315T
2525.356	0.825	2525420	WAITING_START	n/a	n/a	n/a	-999	23	[0, 0, 0]	n/a	FR1	2	R1315T
2526.181	0.0	2526245	WAITING_END	n/a	n/a	n/a	-999	23	[0, 0, 0]	n/a	FR1	2	R1315T
2526.181	10.428	2526245	COUNTDOWN_START	n/a	n/a	n/a	-999	23	[0, 0, 0]	n/a	FR1	2	R1315T
2536.609	0.001	2536673	COUNTDOWN_END	n/a	n/a	n/a	-999	23	[0, 0, 0]	n/a	FR1	2	R1315T
2536.61	1.19	2536674	ORIENT_START	n/a	n/a	n/a	-999	23	[0, 0, 0]	n/a	FR1	2	R1315T
2537.8	0.0	2537864	ORIENT_END	n/a	n/a	n/a	-999	23	[0, 0, 0]	n/a	FR1	2	R1315T
2537.8	0.834	2537864	ENCODING_START	n/a	n/a	n/a	-999	23	[0, 0, 0]	n/a	FR1	2	R1315T
2538.634	1.633	2538698	WORD	n/a	wordpools/wordpool_EN.txt	FLAG	1	23	[0, 0, 0]	n/a	FR1	2	R1315T
2540.267	0.954	2540331	WORD_OFF	n/a	n/a	FLAG	1	23	[0, 0, 0]	n/a	FR1	2	R1315T
2541.221	1.629	2541285	WORD	n/a	wordpools/wordpool_EN.txt	WAVE	2	23	[0, 0, 0]	n/a	FR1	2	R1315T
2542.85	1.053	2542914	WORD_OFF	n/a	n/a	WAVE	2	23	[0, 0, 0]	n/a	FR1	2	R1315T
2543.903	1.632	2543967	WORD	n/a	wordpools/wordpool_EN.txt	FISH	3	23	[0, 0, 0]	n/a	FR1	2	R1315T
2545.535	0.983	2545599	WORD_OFF	n/a	n/a	FISH	3	23	[0, 0, 0]	n/a	FR1	2	R1315T
2546.518	1.633	2546581	WORD	n/a	wordpools/wordpool_EN.txt	SOUP	4	23	[0, 0, 0]	n/a	FR1	2	R1315T
2548.151	0.99	2548214	WORD_OFF	n/a	n/a	SOUP	4	23	[0, 0, 0]	n/a	FR1	2	R1315T
2549.141	1.628	2549204	WORD	n/a	wordpools/wordpool_EN.txt	CHEEK	5	23	[0, 0, 0]	n/a	FR1	2	R1315T
2550.769	1.031	2550832	WORD_OFF	n/a	n/a	CHEEK	5	23	[0, 0, 0]	n/a	FR1	2	R1315T
2551.8	1.637	2551863	WORD	n/a	wordpools/wordpool_EN.txt	ARK	6	23	[0, 0, 0]	n/a	FR1	2	R1315T
2553.437	0.834	2553500	WORD_OFF	n/a	n/a	ARK	6	23	[0, 0, 0]	n/a	FR1	2	R1315T
2554.271	1.632	2554334	WORD	n/a	wordpools/wordpool_EN.txt	SHIRT	7	23	[0, 0, 0]	n/a	FR1	2	R1315T
2555.903	0.877	2555966	WORD_OFF	n/a	n/a	SHIRT	7	23	[0, 0, 0]	n/a	FR1	2	R1315T
2556.78	1.624	2556843	WORD	n/a	wordpools/wordpool_EN.txt	BEAK	8	23	[0, 0, 0]	n/a	FR1	2	R1315T
2558.404	0.986	2558467	WORD_OFF	n/a	n/a	BEAK	8	23	[0, 0, 0]	n/a	FR1	2	R1315T
2559.39	1.63	2559453	WORD	n/a	wordpools/wordpool_EN.txt	LAWN	9	23	[0, 0, 0]	n/a	FR1	2	R1315T
2561.02	1.149	2561083	WORD_OFF	n/a	n/a	LAWN	9	23	[0, 0, 0]	n/a	FR1	2	R1315T
2562.169	1.635	2562232	WORD	n/a	wordpools/wordpool_EN.txt	BEAR	10	23	[0, 0, 0]	n/a	FR1	2	R1315T
2563.804	1.0	2563867	WORD_OFF	n/a	n/a	BEAR	10	23	[0, 0, 0]	n/a	FR1	2	R1315T
2564.804	1.618	2564867	WORD	n/a	wordpools/wordpool_EN.txt	POOL	11	23	[0, 0, 0]	n/a	FR1	2	R1315T
2566.422	1.018	2566485	WORD_OFF	n/a	n/a	POOL	11	23	[0, 0, 0]	n/a	FR1	2	R1315T
2567.44	1.632	2567503	WORD	n/a	wordpools/wordpool_EN.txt	CUBE	12	23	[0, 0, 0]	n/a	FR1	2	R1315T
2569.072	0.001	2569134	WORD_OFF	n/a	n/a	CUBE	12	23	[0, 0, 0]	n/a	FR1	2	R1315T
