onset	duration	sample	trial_type	response_time	stim_file	item_name	serialpos	list	test	answer	experiment	session	subject
0.0	56710.441	-1	INSTRUCT_START	n/a	n/a	n/a	-999	-999	[0, 0, 0]	n/a	FR1	0	R1290M
56710.441	513.797	307	INSTRUCT_START	n/a	n/a	n/a	-999	-999	[0, 0, 0]	n/a	FR1	0	R1290M
57224.238	3.901	514079	INSTRUCT_END	n/a	n/a	n/a	-999	-999	[0, 0, 0]	n/a	FR1	0	R1290M
57228.139	8.954	517980	MIC TEST_START	n/a	n/a	n/a	-999	-999	[0, 0, 0]	n/a	FR1	0	R1290M
57237.093	0.011	526934	MIC TEST_END	n/a	n/a	n/a	-999	-999	[0, 0, 0]	n/a	FR1	0	R1290M
57237.104	0.0	526945	TRIAL_START	n/a	n/a	n/a	-999	-1	[0, 0, 0]	n/a	FR1	0	R1290M
57237.104	0.0	526945	TRIAL	n/a	n/a	n/a	-999	-1	[0, 0, 0]	n/a	FR1	0	R1290M
57237.104	5.789	526945	WAITING_START	n/a	n/a	n/a	-999	-1	[0, 0, 0]	n/a	FR1	0	R1290M
57242.893	0.001	532733	WAITING_END	n/a	n/a	n/a	-999	-1	[0, 0, 0]	n/a	FR1	0	R1290M
57242.894	10.43	532734	COUNTDOWN_START	n/a	n/a	n/a	-999	-1	[0, 0, 0]	n/a	FR1	0	R1290M
57253.324	0.0	543164	COUNTDOWN_END	n/a	n/a	n/a	-999	-1	[0, 0, 0]	n/a	FR1	0	R1290M
57253.324	1.221	543164	ORIENT_START	n/a	n/a	n/a	-999	-1	[0, 0, 0]	n/a	FR1	0	R1290M
57254.545	0.001	544385	ORIENT_END	n/a	n/a	n/a	-999	-1	[0, 0, 0]	n/a	FR1	0	R1290M
57254.546	0.831	544386	ENCODING_START	n/a	n/a	n/a	-999	-1	[0, 0, 0]	n/a	FR1	0	R1290M
57255.377	1.634	545217	WORD	n/a	n/a	ATTIC	1	-1	[0, 0, 0]	n/a	FR1	0	R1290M
57257.011	1.146	546851	WORD_OFF	n/a	n/a	ATTIC	1	-1	[0, 0, 0]	n/a	FR1	0	R1290M
57258.157	1.622	547997	WORD	n/a	n/a	BEAM	2	-1	[0, 0, 0]	n/a	FR1	0	R1290M
57259.779	0.806	549619	WORD_OFF	n/a	n/a	BEAM	2	-1	[0, 0, 0]	n/a	FR1	0	R1290M
57260.585	1.627	550425	WORD	n/a	n/a	CAMEL	3	-1	[0, 0, 0]	n/a	FR1	0	R1290M
57262.212	0.814	552052	WORD_OFF	n/a	n/a	CAMEL	3	-1	[0, 0, 0]	n/a	FR1	0	R1290M
57263.026	1.638	552865	WORD	n/a	n/a	CHEST	4	-1	[0, 0, 0]	n/a	FR1	0	R1290M
57264.664	1.026	554503	WORD_OFF	n/a	n/a	CHEST	4	-1	[0, 0, 0]	n/a	FR1	0	R1290M
57265.69	1.623	555529	WORD	n/a	n/a	COTTON	5	-1	[0, 0, 0]	n/a	FR1	0	R1290M
57267.313	0.851	557152	WORD_OFF	n/a	n/a	COTTON	5	-1	[0, 0, 0]	n/a	FR1	0	R1290M
57268.164	1.634	558003	WORD	n/a	n/a	FLOOD	6	-1	[0, 0, 0]	n/a	FR1	0	R1290M
57269.798	0.874	559637	WORD_OFF	n/a	n/a	FLOOD	6	-1	[0, 0, 0]	n/a	FR1	0	R1290M
57270.672	1.625	560511	WORD	n/a	n/a	IRON	7	-1	[0, 0, 0]	n/a	FR1	0	R1290M
57272.297	1.042	562136	WORD_OFF	n/a	n/a	IRON	7	-1	[0, 0, 0]	n/a	FR1	0	R1290M
57273.339	1.627	563178	WORD	n/a	n/a	RHINO	8	-1	[0, 0, 0]	n/a	FR1	0	R1290M
57274.966	0.831	564805	WORD_OFF	n/a	n/a	RHINO	8	-1	[0, 0, 0]	n/a	FR1	0	R1290M
57275.797	1.636	565636	WORD	n/a	n/a	RING	9	-1	[0, 0, 0]	n/a	FR1	0	R1290M
57277.433	0.903	567272	WORD_OFF	n/a	n/a	RING	9	-1	[0, 0, 0]	n/a	FR1	0	R1290M
57278.336	1.631	568175	WORD	n/a	n/a	TONGUE	10	-1	[0, 0, 0]	n/a	FR1	0	R1290M
57279.967	0.902	569806	WORD_OFF	n/a	n/a	TONGUE	10	-1	[0, 0, 0]	n/a	FR1	0	R1290M
57280.869	1.632	570708	WORD	n/a	n/a	WAGON	11	-1	[0, 0, 0]	n/a	FR1	0	R1290M
57282.501	0.766	572340	WORD_OFF	n/a	n/a	WAGON	11	-1	[0, 0, 0]	n/a	FR1	0	R1290M
57283.267	1.617	573106	WORD	n/a	n/a	WATCH	12	-1	[0, 0, 0]	n/a	FR1	0	R1290M
57284.884	0.001	574722	WORD_OFF	n/a	n/a	WATCH	12	-1	[0, 0, 0]	n/a	FR1	0	R1290M
57284.885	0.0	574723	DISTRACT_START	n/a	n/a	n/a	-999	-1	[0, 0, 0]	n/a	FR1	0	R1290M
57284.885	0.001	574723	ENCODING_END	n/a	n/a	n/a	-999	-1	[0, 0, 0]	n/a	FR1	0	R1290M
57284.886	0.015	574724	START	n/a	n/a	n/a	-999	-1	[-999, -999, -999]	n/a	FR1	0	R1290M
57284.901	6.618	574739	PROB	6.618	n/a	n/a	-999	-1	[8, 2, 8]	18	FR1	0	R1290M
57291.519	8.885	581357	PROB	8.885	n/a	n/a	-999	-1	[9, 8, 9]	26	FR1	0	R1290M
57300.404	4.907	590242	PROB	4.907	n/a	n/a	-999	-1	[1, 4, 8]	13	FR1	0	R1290M
57305.311	0.01	595148	STOP	n/a	n/a	n/a	-999	-1	[-999, -999, -999]	n/a	FR1	0	R1290M
57305.321	0.58	595158	DISTRACT_END	n/a	n/a	n/a	-999	-1	[0, 0, 0]	n/a	FR1	0	R1290M
57305.901	1.588	595738	RETRIEVAL_ORIENT_START	n/a	n/a	n/a	-999	-1	[0, 0, 0]	n/a	FR1	0	R1290M
57307.489	0.0	597326	RETRIEVAL_ORIENT_END	n/a	n/a	n/a	-999	-1	[0, 0, 0]	n/a	FR1	0	R1290M
57307.489	5.066	597326	REC_START	n/a	n/a	n/a	-999	-1	[0, 0, 0]	n/a	FR1	0	R1290M
57312.555	1.648	602392	REC_WORD_VV	1.648	n/a	<>	-999	-1	[0, 0, 0]	n/a	FR1	0	R1290M
57314.203	0.791	604040	REC_WORD_VV	0.791	n/a	<>	-999	-1	[0, 0, 0]	n/a	FR1	0	R1290M
57314.994	0.562	604831	REC_WORD	0.562	n/a	BEAM	2	-1	[0, 0, 0]	n/a	FR1	0	R1290M
57315.556	0.978	605393	REC_WORD	0.978	n/a	CAMEL	3	-1	[0, 0, 0]	n/a	FR1	0	R1290M
57316.534	0.746	606371	REC_WORD	0.746	n/a	TONGUE	10	-1	[0, 0, 0]	n/a	FR1	0	R1290M
57317.28	1.643	607117	REC_WORD	1.643	n/a	CHEST	4	-1	[0, 0, 0]	n/a	FR1	0	R1290M
57318.923	3.16	608760	REC_WORD	3.16	n/a	WATCH	12	-1	[0, 0, 0]	n/a	FR1	0	R1290M
57322.083	1.677	611920	REC_WORD	1.677	n/a	RHINO	8	-1	[0, 0, 0]	n/a	FR1	0	R1290M
57323.76	3.284	613597	REC_WORD_VV	3.284	n/a	<>	-999	-1	[0, 0, 0]	n/a	FR1	0	R1290M
57327.044	7.865	616880	REC_WORD_VV	7.865	n/a	<>	-999	-1	[0, 0, 0]	n/a	FR1	0	R1290M
57334.909	2.594	624745	REC_WORD	2.594	n/a	LADDER	-999	-1	[0, 0, 0]	n/a	FR1	0	R1290M
57337.503	0.001	627339	REC_END	n/a	n/a	n/a	-999	-1	[0, 0, 0]	n/a	FR1	0	R1290M
57337.504	19.462	627340	PRACTICE_POST_INSTRUCT_START	n/a	n/a	n/a	-999	-1	[0, 0, 0]	n/a	FR1	0	R1290M
57356.966	0.001	646801	PRACTICE_POST_INSTRUCT_END	n/a	n/a	n/a	-999	-1	[0, 0, 0]	n/a	FR1	0	R1290M
57356.967	0.016	646802	TRIAL_END	n/a	n/a	n/a	-999	-1	[0, 0, 0]	n/a	FR1	0	R1290M
57356.983	0.001	646818	TRIAL_START	n/a	n/a	n/a	-999	1	[0, 0, 0]	n/a	FR1	0	R1290M
57356.984	0.0	646819	TRIAL	n/a	n/a	n/a	-999	1	[0, 0, 0]	n/a	FR1	0	R1290M
57356.984	5.649	646819	WAITING_START	n/a	n/a	n/a	-999	1	[0, 0, 0]	n/a	FR1	0	R1290M
57362.633	0.001	652468	WAITING_END	n/a	n/a	n/a	-999	1	[0, 0, 0]	n/a	FR1	0	R1290M
57362.634	10.43	652469	COUNTDOWN_START	n/a	n/a	n/a	-999	1	[0, 0, 0]	n/a	FR1	0	R1290M
57373.064	0.001	662898	COUNTDOWN_END	n/a	n/a	n/a	-999	1	[0, 0, 0]	n/a	FR1	0	R1290M
57373.065	1.053	662899	ORIENT_START	n/a	n/a	n/a	-999	1	[0, 0, 0]	n/a	FR1	0	R1290M
57374.118	0.001	663952	ORIENT_END	n/a	n/a	n/a	-999	1	[0, 0, 0]	n/a	FR1	0	R1290M
57374.119	1.007	663953	ENCODING_START	n/a	n/a	n/a	-999	1	[0, 0, 0]	n/a	FR1	0	R1290M
57375.126	1.61	664960	WORD	n/a	wordpools/wordpool_EN.txt	TREE	1	1	[0, 0, 0]	n/a	FR1	0	R1290M
57376.736	0.902	666570	WORD_OFF	n/a	n/a	TREE	1	1	[0, 0, 0]	n/a	FR1	0	R1290M
57377.638	1.631	667472	WORD	n/a	wordpools/wordpool_EN.txt	SHIRT	2	1	[0, 0, 0]	n/a	FR1	0	R1290M
57379.269	1.124	669103	WORD_OFF	n/a	n/a	SHIRT	2	1	[0, 0, 0]	n/a	FR1	0	R1290M
57380.393	1.626	670227	WORD	n/a	wordpools/wordpool_EN.txt	SEAT	3	1	[0, 0, 0]	n/a	FR1	0	R1290M
57382.019	0.825	671853	WORD_OFF	n/a	n/a	SEAT	3	1	[0, 0, 0]	n/a	FR1	0	R1290M
57382.844	1.627	672678	WORD	n/a	wordpools/wordpool_EN.txt	DESK	4	1	[0, 0, 0]	n/a	FR1	0	R1290M
57384.471	0.962	674305	WORD_OFF	n/a	n/a	DESK	4	1	[0, 0, 0]	n/a	FR1	0	R1290M
57385.433	1.637	675267	WORD	n/a	wordpools/wordpool_EN.txt	STICK	5	1	[0, 0, 0]	n/a	FR1	0	R1290M
57387.07	0.898	676904	WORD_OFF	n/a	n/a	STICK	5	1	[0, 0, 0]	n/a	FR1	0	R1290M
57387.968	1.637	677802	WORD	n/a	wordpools/wordpool_EN.txt	CHAIR	6	1	[0, 0, 0]	n/a	FR1	0	R1290M
57389.605	1.032	679438	WORD_OFF	n/a	n/a	CHAIR	6	1	[0, 0, 0]	n/a	FR1	0	R1290M
57390.637	1.634	680470	WORD	n/a	wordpools/wordpool_EN.txt	TRAY	7	1	[0, 0, 0]	n/a	FR1	0	R1290M
57392.271	0.848	682104	WORD_OFF	n/a	n/a	TRAY	7	1	[0, 0, 0]	n/a	FR1	0	R1290M
57393.119	1.637	682952	WORD	n/a	wordpools/wordpool_EN.txt	DEER	8	1	[0, 0, 0]	n/a	FR1	0	R1290M
57394.756	1.054	684589	WORD_OFF	n/a	n/a	DEER	8	1	[0, 0, 0]	n/a	FR1	0	R1290M
57395.81	1.63	685643	WORD	n/a	wordpools/wordpool_EN.txt	ICE	9	1	[0, 0, 0]	n/a	FR1	0	R1290M
57397.44	0.994	687273	WORD_OFF	n/a	n/a	ICE	9	1	[0, 0, 0]	n/a	FR1	0	R1290M
57398.434	1.622	688267	WORD	n/a	wordpools/wordpool_EN.txt	BUSH	10	1	[0, 0, 0]	n/a	FR1	0	R1290M
57400.056	0.992	689889	WORD_OFF	n/a	n/a	BUSH	10	1	[0, 0, 0]	n/a	FR1	0	R1290M
57401.048	1.626	690881	WORD	n/a	wordpools/wordpool_EN.txt	RIB	11	1	[0, 0, 0]	n/a	FR1	0	R1290M
57402.674	0.875	692507	WORD_OFF	n/a	n/a	RIB	11	1	[0, 0, 0]	n/a	FR1	0	R1290M
57403.549	1.625	693382	WORD	n/a	wordpools/wordpool_EN.txt	MOUSE	12	1	[0, 0, 0]	n/a	FR1	0	R1290M
57405.174	0.001	695007	WORD_OFF	n/a	n/a	MOUSE	12	1	[0, 0, 0]	n/a	FR1	0	R1290M
57405.175	0.0	695008	ENCODING_END	n/a	n/a	n/a	-999	1	[0, 0, 0]	n/a	FR1	0	R1290M
57405.175	0.001	695008	DISTRACT_START	n/a	n/a	n/a	-999	1	[0, 0, 0]	n/a	FR1	0	R1290M
57405.176	0.014	695009	START	n/a	n/a	n/a	-999	1	[-999, -999, -999]	n/a	FR1	0	R1290M
57405.19	12.069	695023	PROB	12.069	n/a	n/a	-999	1	[3, 5, 5]	13	FR1	0	R1290M
57417.259	7.169	707091	PROB	7.169	n/a	n/a	-999	1	[4, 4, 6]	14	FR1	0	R1290M
57424.428	11.589	714260	PROB	11.589	n/a	n/a	-999	1	[9, 2, 9]	20	FR1	0	R1290M
57436.017	0.012	725848	STOP	n/a	n/a	n/a	-999	1	[-999, -999, -999]	n/a	FR1	0	R1290M
57436.029	0.558	725860	DISTRACT_END	n/a	n/a	n/a	-999	1	[0, 0, 0]	n/a	FR1	0	R1290M
57436.587	1.71	726418	RETRIEVAL_ORIENT_START	n/a	n/a	n/a	-999	1	[0, 0, 0]	n/a	FR1	0	R1290M
57438.297	0.001	728128	RETRIEVAL_ORIENT_END	n/a	n/a	n/a	-999	1	[0, 0, 0]	n/a	FR1	0	R1290M
57438.298	5.588	728129	REC_START	n/a	n/a	n/a	-999	1	[0, 0, 0]	n/a	FR1	0	R1290M
57443.886	0.52	733717	REC_WORD_VV	0.52	n/a	<>	-999	1	[0, 0, 0]	n/a	FR1	0	R1290M
57444.406	0.774	734237	REC_WORD	0.774	n/a	TREE	1	1	[0, 0, 0]	n/a	FR1	0	R1290M
57445.18	0.322	735011	REC_WORD	0.322	n/a	CHEST	-999	1	[0, 0, 0]	n/a	FR1	0	R1290M
57445.502	0.828	735333	REC_WORD	0.828	n/a	STICK	5	1	[0, 0, 0]	n/a	FR1	0	R1290M
57446.33	1.418	736161	REC_WORD	1.418	n/a	BUSH	10	1	[0, 0, 0]	n/a	FR1	0	R1290M
57447.748	0.355	737579	REC_WORD_VV	0.355	n/a	<>	-999	1	[0, 0, 0]	n/a	FR1	0	R1290M
57448.103	0.93	737934	REC_WORD	0.93	n/a	ICE	9	1	[0, 0, 0]	n/a	FR1	0	R1290M
57449.033	6.363	738864	REC_WORD_VV	6.363	n/a	<>	-999	1	[0, 0, 0]	n/a	FR1	0	R1290M
57455.396	1.287	745226	REC_WORD_VV	1.287	n/a	<>	-999	1	[0, 0, 0]	n/a	FR1	0	R1290M
57456.683	1.619	746513	REC_WORD	1.619	n/a	SHIRT	2	1	[0, 0, 0]	n/a	FR1	0	R1290M
57458.302	0.821	748132	REC_WORD_VV	0.821	n/a	<>	-999	1	[0, 0, 0]	n/a	FR1	0	R1290M
57459.123	1.004	748953	REC_WORD_VV	1.004	n/a	<>	-999	1	[0, 0, 0]	n/a	FR1	0	R1290M
57460.127	0.313	749957	REC_WORD_VV	0.313	n/a	<>	-999	1	[0, 0, 0]	n/a	FR1	0	R1290M
57460.44	7.869	750270	REC_WORD	7.869	n/a	STICK	5	1	[0, 0, 0]	n/a	FR1	0	R1290M
57468.309	0.0	758139	REC_END	n/a	n/a	n/a	-999	1	[0, 0, 0]	n/a	FR1	0	R1290M
57468.309	0.017	758139	TRIAL_END	n/a	n/a	n/a	-999	1	[0, 0, 0]	n/a	FR1	0	R1290M
57468.326	0.001	758156	TRIAL_START	n/a	n/a	n/a	-999	2	[0, 0, 0]	n/a	FR1	0	R1290M
57468.327	0.001	758157	TRIAL	n/a	n/a	n/a	-999	2	[0, 0, 0]	n/a	FR1	0	R1290M
57468.328	11.96	758158	WAITING_START	n/a	n/a	n/a	-999	2	[0, 0, 0]	n/a	FR1	0	R1290M
57480.288	0.001	770117	WAITING_END	n/a	n/a	n/a	-999	2	[0, 0, 0]	n/a	FR1	0	R1290M
57480.289	10.429	770118	COUNTDOWN_START	n/a	n/a	n/a	-999	2	[0, 0, 0]	n/a	FR1	0	R1290M
57490.718	0.001	780547	COUNTDOWN_END	n/a	n/a	n/a	-999	2	[0, 0, 0]	n/a	FR1	0	R1290M
57490.719	1.189	780548	ORIENT_START	n/a	n/a	n/a	-999	2	[0, 0, 0]	n/a	FR1	0	R1290M
57491.908	0.001	781737	ORIENT_END	n/a	n/a	n/a	-999	2	[0, 0, 0]	n/a	FR1	0	R1290M
57491.909	0.78	781738	ENCODING_START	n/a	n/a	n/a	-999	2	[0, 0, 0]	n/a	FR1	0	R1290M
57492.689	1.635	782518	WORD	n/a	wordpools/wordpool_EN.txt	BRANCH	1	2	[0, 0, 0]	n/a	FR1	0	R1290M
57494.324	0.951	784153	WORD_OFF	n/a	n/a	BRANCH	1	2	[0, 0, 0]	n/a	FR1	0	R1290M
57495.275	1.634	785103	WORD	n/a	wordpools/wordpool_EN.txt	FRUIT	2	2	[0, 0, 0]	n/a	FR1	0	R1290M
57496.909	0.943	786737	WORD_OFF	n/a	n/a	FRUIT	2	2	[0, 0, 0]	n/a	FR1	0	R1290M
57497.852	1.624	787680	WORD	n/a	wordpools/wordpool_EN.txt	CLOWN	3	2	[0, 0, 0]	n/a	FR1	0	R1290M
57499.476	1.016	789304	WORD_OFF	n/a	n/a	CLOWN	3	2	[0, 0, 0]	n/a	FR1	0	R1290M
57500.492	1.634	790320	WORD	n/a	wordpools/wordpool_EN.txt	FLAME	4	2	[0, 0, 0]	n/a	FR1	0	R1290M
57502.126	1.058	791954	WORD_OFF	n/a	n/a	FLAME	4	2	[0, 0, 0]	n/a	FR1	0	R1290M
57503.184	1.626	793012	WORD	n/a	wordpools/wordpool_EN.txt	SHARK	5	2	[0, 0, 0]	n/a	FR1	0	R1290M
57504.81	0.827	794638	WORD_OFF	n/a	n/a	SHARK	5	2	[0, 0, 0]	n/a	FR1	0	R1290M
57505.637	1.623	795465	WORD	n/a	wordpools/wordpool_EN.txt	DRUM	6	2	[0, 0, 0]	n/a	FR1	0	R1290M
57507.26	0.785	797088	WORD_OFF	n/a	n/a	DRUM	6	2	[0, 0, 0]	n/a	FR1	0	R1290M
57508.045	1.616	797873	WORD	n/a	wordpools/wordpool_EN.txt	JUDGE	7	2	[0, 0, 0]	n/a	FR1	0	R1290M
57509.661	1.006	799489	WORD_OFF	n/a	n/a	JUDGE	7	2	[0, 0, 0]	n/a	FR1	0	R1290M
57510.667	1.627	800495	WORD	n/a	wordpools/wordpool_EN.txt	SCHOOL	8	2	[0, 0, 0]	n/a	FR1	0	R1290M
57512.294	1.002	802122	WORD_OFF	n/a	n/a	SCHOOL	8	2	[0, 0, 0]	n/a	FR1	0	R1290M
57513.296	1.633	803124	WORD	n/a	wordpools/wordpool_EN.txt	RICE	9	2	[0, 0, 0]	n/a	FR1	0	R1290M
57514.929	0.774	804757	WORD_OFF	n/a	n/a	RICE	9	2	[0, 0, 0]	n/a	FR1	0	R1290M
57515.703	1.626	805531	WORD	n/a	wordpools/wordpool_EN.txt	LAKE	10	2	[0, 0, 0]	n/a	FR1	0	R1290M
57517.329	0.908	807156	WORD_OFF	n/a	n/a	LAKE	10	2	[0, 0, 0]	n/a	FR1	0	R1290M
57518.237	1.61	808064	WORD	n/a	wordpools/wordpool_EN.txt	BEAK	11	2	[0, 0, 0]	n/a	FR1	0	R1290M
57519.847	1.101	809674	WORD_OFF	n/a	n/a	BEAK	11	2	[0, 0, 0]	n/a	FR1	0	R1290M
57520.948	1.633	810775	WORD	n/a	wordpools/wordpool_EN.txt	TOE	12	2	[0, 0, 0]	n/a	FR1	0	R1290M
57522.581	0.001	812408	WORD_OFF	n/a	n/a	TOE	12	2	[0, 0, 0]	n/a	FR1	0	R1290M
57522.582	0.0	812409	ENCODING_END	n/a	n/a	n/a	-999	2	[0, 0, 0]	n/a	FR1	0	R1290M
57522.582	0.001	812409	DISTRACT_START	n/a	n/a	n/a	-999	2	[0, 0, 0]	n/a	FR1	0	R1290M
57522.583	0.014	812410	START	n/a	n/a	n/a	-999	2	[-999, -999, -999]	n/a	FR1	0	R1290M
57522.597	7.018	812424	PROB	7.018	n/a	n/a	-999	2	[9, 9, 1]	19	FR1	0	R1290M
57529.615	8.352	819442	PROB	8.352	n/a	n/a	-999	2	[5, 9, 5]	19	FR1	0	R1290M
57537.967	11.016	827793	PROB	11.016	n/a	n/a	-999	2	[4, 6, 8]	18	FR1	0	R1290M
57548.983	0.018	838809	STOP	n/a	n/a	n/a	-999	2	[-999, -999, -999]	n/a	FR1	0	R1290M
57549.001	0.505	838827	DISTRACT_END	n/a	n/a	n/a	-999	2	[0, 0, 0]	n/a	FR1	0	R1290M
57549.506	1.579	839332	RETRIEVAL_ORIENT_START	n/a	n/a	n/a	-999	2	[0, 0, 0]	n/a	FR1	0	R1290M
57551.085	0.001	840911	RETRIEVAL_ORIENT_END	n/a	n/a	n/a	-999	2	[0, 0, 0]	n/a	FR1	0	R1290M
57551.086	0.839	840912	REC_START	n/a	n/a	n/a	-999	2	[0, 0, 0]	n/a	FR1	0	R1290M
57551.925	0.437	841751	REC_WORD_VV	0.437	n/a	<>	-999	2	[0, 0, 0]	n/a	FR1	0	R1290M
57552.362	0.545	842188	REC_WORD	0.545	n/a	BEAK	11	2	[0, 0, 0]	n/a	FR1	0	R1290M
57552.907	1.322	842733	REC_WORD	1.322	n/a	FLAME	4	2	[0, 0, 0]	n/a	FR1	0	R1290M
57554.229	1.362	844055	REC_WORD	1.362	n/a	JUDGE	7	2	[0, 0, 0]	n/a	FR1	0	R1290M
57555.591	2.287	845417	REC_WORD	2.287	n/a	SCHOOL	8	2	[0, 0, 0]	n/a	FR1	0	R1290M
57557.878	4.971	847704	REC_WORD_VV	4.971	n/a	<>	-999	2	[0, 0, 0]	n/a	FR1	0	R1290M
57562.849	6.862	852674	REC_WORD_VV	6.862	n/a	<>	-999	2	[0, 0, 0]	n/a	FR1	0	R1290M
57569.711	11.386	859536	REC_WORD_VV	11.386	n/a	<>	-999	2	[0, 0, 0]	n/a	FR1	0	R1290M
57581.097	0.001	870921	REC_END	n/a	n/a	n/a	-999	2	[0, 0, 0]	n/a	FR1	0	R1290M
57581.098	0.014	870922	TRIAL_END	n/a	n/a	n/a	-999	2	[0, 0, 0]	n/a	FR1	0	R1290M
57581.112	0.0	870936	TRIAL_START	n/a	n/a	n/a	-999	3	[0, 0, 0]	n/a	FR1	0	R1290M
57581.112	0.001	870936	TRIAL	n/a	n/a	n/a	-999	3	[0, 0, 0]	n/a	FR1	0	R1290M
57581.113	3.58	870937	WAITING_START	n/a	n/a	n/a	-999	3	[0, 0, 0]	n/a	FR1	0	R1290M
57584.693	0.001	874517	WAITING_END	n/a	n/a	n/a	-999	3	[0, 0, 0]	n/a	FR1	0	R1290M
57584.694	10.428	874518	COUNTDOWN_START	n/a	n/a	n/a	-999	3	[0, 0, 0]	n/a	FR1	0	R1290M
57595.122	0.001	884946	COUNTDOWN_END	n/a	n/a	n/a	-999	3	[0, 0, 0]	n/a	FR1	0	R1290M
57595.123	1.137	884947	ORIENT_START	n/a	n/a	n/a	-999	3	[0, 0, 0]	n/a	FR1	0	R1290M
57596.26	0.001	886084	ORIENT_END	n/a	n/a	n/a	-999	3	[0, 0, 0]	n/a	FR1	0	R1290M
57596.261	1.148	886085	ENCODING_START	n/a	n/a	n/a	-999	3	[0, 0, 0]	n/a	FR1	0	R1290M
57597.409	1.635	887233	WORD	n/a	wordpools/wordpool_EN.txt	EGG	1	3	[0, 0, 0]	n/a	FR1	0	R1290M
57599.044	1.09	888868	WORD_OFF	n/a	n/a	EGG	1	3	[0, 0, 0]	n/a	FR1	0	R1290M
57600.134	1.612	889958	WORD	n/a	wordpools/wordpool_EN.txt	RAIN	2	3	[0, 0, 0]	n/a	FR1	0	R1290M
57601.746	0.912	891569	WORD_OFF	n/a	n/a	RAIN	2	3	[0, 0, 0]	n/a	FR1	0	R1290M
57602.658	1.637	892481	WORD	n/a	wordpools/wordpool_EN.txt	PURSE	3	3	[0, 0, 0]	n/a	FR1	0	R1290M
57604.295	0.852	894118	WORD_OFF	n/a	n/a	PURSE	3	3	[0, 0, 0]	n/a	FR1	0	R1290M
57605.147	1.633	894970	WORD	n/a	wordpools/wordpool_EN.txt	DUCK	4	3	[0, 0, 0]	n/a	FR1	0	R1290M
57606.78	0.8	896603	WORD_OFF	n/a	n/a	DUCK	4	3	[0, 0, 0]	n/a	FR1	0	R1290M
57607.58	1.633	897403	WORD	n/a	wordpools/wordpool_EN.txt	WING	5	3	[0, 0, 0]	n/a	FR1	0	R1290M
57609.213	1.048	899036	WORD_OFF	n/a	n/a	WING	5	3	[0, 0, 0]	n/a	FR1	0	R1290M
57610.261	1.637	900084	WORD	n/a	wordpools/wordpool_EN.txt	DOG	6	3	[0, 0, 0]	n/a	FR1	0	R1290M
57611.898	0.851	901721	WORD_OFF	n/a	n/a	DOG	6	3	[0, 0, 0]	n/a	FR1	0	R1290M
57612.749	1.633	902572	WORD	n/a	wordpools/wordpool_EN.txt	STOVE	7	3	[0, 0, 0]	n/a	FR1	0	R1290M
57614.382	1.067	904205	WORD_OFF	n/a	n/a	STOVE	7	3	[0, 0, 0]	n/a	FR1	0	R1290M
57615.449	1.632	905272	WORD	n/a	wordpools/wordpool_EN.txt	MUG	8	3	[0, 0, 0]	n/a	FR1	0	R1290M
57617.081	0.873	906904	WORD_OFF	n/a	n/a	MUG	8	3	[0, 0, 0]	n/a	FR1	0	R1290M
57617.954	1.629	907777	WORD	n/a	wordpools/wordpool_EN.txt	CHALK	9	3	[0, 0, 0]	n/a	FR1	0	R1290M
57619.583	1.089	909406	WORD_OFF	n/a	n/a	CHALK	9	3	[0, 0, 0]	n/a	FR1	0	R1290M
57620.672	1.627	910495	WORD	n/a	wordpools/wordpool_EN.txt	CAKE	10	3	[0, 0, 0]	n/a	FR1	0	R1290M
57622.299	1.136	912121	WORD_OFF	n/a	n/a	CAKE	10	3	[0, 0, 0]	n/a	FR1	0	R1290M
57623.435	1.631	913257	WORD	n/a	wordpools/wordpool_EN.txt	DITCH	11	3	[0, 0, 0]	n/a	FR1	0	R1290M
57625.066	1.025	914888	WORD_OFF	n/a	n/a	DITCH	11	3	[0, 0, 0]	n/a	FR1	0	R1290M
57626.091	1.626	915913	WORD	n/a	wordpools/wordpool_EN.txt	STAIR	12	3	[0, 0, 0]	n/a	FR1	0	R1290M
57627.717	0.001	917539	WORD_OFF	n/a	n/a	STAIR	12	3	[0, 0, 0]	n/a	FR1	0	R1290M
57627.718	0.001	917540	ENCODING_END	n/a	n/a	n/a	-999	3	[0, 0, 0]	n/a	FR1	0	R1290M
57627.719	0.0	917541	DISTRACT_START	n/a	n/a	n/a	-999	3	[0, 0, 0]	n/a	FR1	0	R1290M
57627.719	0.015	917541	START	n/a	n/a	n/a	-999	3	[-999, -999, -999]	n/a	FR1	0	R1290M
57627.734	8.768	917556	PROB	8.768	n/a	n/a	-999	3	[1, 3, 9]	13	FR1	0	R1290M
57636.502	15.838	926324	PROB	15.838	n/a	n/a	-999	3	[1, 5, 7]	13	FR1	0	R1290M
57652.34	0.016	942161	STOP	n/a	n/a	n/a	-999	3	[-999, -999, -999]	n/a	FR1	0	R1290M
57652.356	0.537	942177	DISTRACT_END	n/a	n/a	n/a	-999	3	[0, 0, 0]	n/a	FR1	0	R1290M
57652.893	1.546	942714	RETRIEVAL_ORIENT_START	n/a	n/a	n/a	-999	3	[0, 0, 0]	n/a	FR1	0	R1290M
57654.439	0.001	944260	RETRIEVAL_ORIENT_END	n/a	n/a	n/a	-999	3	[0, 0, 0]	n/a	FR1	0	R1290M
57654.44	0.735	944261	REC_START	n/a	n/a	n/a	-999	3	[0, 0, 0]	n/a	FR1	0	R1290M
57655.175	0.588	944996	REC_WORD_VV	0.588	n/a	<>	-999	3	[0, 0, 0]	n/a	FR1	0	R1290M
57655.763	0.921	945584	REC_WORD	0.921	n/a	CAKE	10	3	[0, 0, 0]	n/a	FR1	0	R1290M
57656.684	1.862	946505	REC_WORD	1.862	n/a	CHALK	9	3	[0, 0, 0]	n/a	FR1	0	R1290M
57658.546	2.093	948367	REC_WORD	2.093	n/a	EGG	1	3	[0, 0, 0]	n/a	FR1	0	R1290M
57660.639	3.516	950460	REC_WORD	3.516	n/a	CHAIR	-999	3	[0, 0, 0]	n/a	FR1	0	R1290M
57664.155	9.493	953975	REC_WORD_VV	9.493	n/a	<>	-999	3	[0, 0, 0]	n/a	FR1	0	R1290M
57673.648	2.797	963468	REC_WORD	2.797	n/a	DUCK	4	3	[0, 0, 0]	n/a	FR1	0	R1290M
57676.445	2.755	966265	REC_WORD_VV	2.755	n/a	<>	-999	3	[0, 0, 0]	n/a	FR1	0	R1290M
57679.2	3.023	969020	REC_WORD	3.023	n/a	WING	5	3	[0, 0, 0]	n/a	FR1	0	R1290M
57682.223	2.229	972043	REC_WORD_VV	2.229	n/a	<>	-999	3	[0, 0, 0]	n/a	FR1	0	R1290M
57684.452	0.0	974272	REC_END	n/a	n/a	n/a	-999	3	[0, 0, 0]	n/a	FR1	0	R1290M
57684.452	0.014	974272	TRIAL_END	n/a	n/a	n/a	-999	3	[0, 0, 0]	n/a	FR1	0	R1290M
57684.466	0.001	974286	TRIAL_START	n/a	n/a	n/a	-999	4	[0, 0, 0]	n/a	FR1	0	R1290M
57684.467	0.0	974287	TRIAL	n/a	n/a	n/a	-999	4	[0, 0, 0]	n/a	FR1	0	R1290M
57684.467	10.914	974287	WAITING_START	n/a	n/a	n/a	-999	4	[0, 0, 0]	n/a	FR1	0	R1290M
57695.381	0.0	985200	WAITING_END	n/a	n/a	n/a	-999	4	[0, 0, 0]	n/a	FR1	0	R1290M
57695.381	10.429	985200	COUNTDOWN_START	n/a	n/a	n/a	-999	4	[0, 0, 0]	n/a	FR1	0	R1290M
57705.81	0.001	995629	COUNTDOWN_END	n/a	n/a	n/a	-999	4	[0, 0, 0]	n/a	FR1	0	R1290M
57705.811	1.171	995630	ORIENT_START	n/a	n/a	n/a	-999	4	[0, 0, 0]	n/a	FR1	0	R1290M
57706.982	0.001	996800	ORIENT_END	n/a	n/a	n/a	-999	4	[0, 0, 0]	n/a	FR1	0	R1290M
57706.983	0.972	996801	ENCODING_START	n/a	n/a	n/a	-999	4	[0, 0, 0]	n/a	FR1	0	R1290M
57707.955	1.628	997773	WORD	n/a	wordpools/wordpool_EN.txt	WHEEL	1	4	[0, 0, 0]	n/a	FR1	0	R1290M
57709.583	1.105	999401	WORD_OFF	n/a	n/a	WHEEL	1	4	[0, 0, 0]	n/a	FR1	0	R1290M
57710.688	1.628	1000506	WORD	n/a	wordpools/wordpool_EN.txt	BEAR	2	4	[0, 0, 0]	n/a	FR1	0	R1290M
57712.316	0.994	1002134	WORD_OFF	n/a	n/a	BEAR	2	4	[0, 0, 0]	n/a	FR1	0	R1290M
57713.31	1.607	1003128	WORD	n/a	wordpools/wordpool_EN.txt	PHONE	3	4	[0, 0, 0]	n/a	FR1	0	R1290M
57714.917	1.025	1004735	WORD_OFF	n/a	n/a	PHONE	3	4	[0, 0, 0]	n/a	FR1	0	R1290M
57715.942	1.626	1005760	WORD	n/a	wordpools/wordpool_EN.txt	SAIL	4	4	[0, 0, 0]	n/a	FR1	0	R1290M
57717.568	1.125	1007386	WORD_OFF	n/a	n/a	SAIL	4	4	[0, 0, 0]	n/a	FR1	0	R1290M
57718.693	1.625	1008511	WORD	n/a	wordpools/wordpool_EN.txt	THREAD	5	4	[0, 0, 0]	n/a	FR1	0	R1290M
57720.318	1.033	1010136	WORD_OFF	n/a	n/a	THREAD	5	4	[0, 0, 0]	n/a	FR1	0	R1290M
57721.351	1.634	1011169	WORD	n/a	wordpools/wordpool_EN.txt	BEAN	6	4	[0, 0, 0]	n/a	FR1	0	R1290M
57722.985	0.851	1012803	WORD_OFF	n/a	n/a	BEAN	6	4	[0, 0, 0]	n/a	FR1	0	R1290M
57723.836	1.634	1013654	WORD	n/a	wordpools/wordpool_EN.txt	WEB	7	4	[0, 0, 0]	n/a	FR1	0	R1290M
57725.47	1.021	1015288	WORD_OFF	n/a	n/a	WEB	7	4	[0, 0, 0]	n/a	FR1	0	R1290M
57726.491	1.628	1016309	WORD	n/a	wordpools/wordpool_EN.txt	TEETH	8	4	[0, 0, 0]	n/a	FR1	0	R1290M
57728.119	1.108	1017936	WORD_OFF	n/a	n/a	TEETH	8	4	[0, 0, 0]	n/a	FR1	0	R1290M
57729.227	1.627	1019044	WORD	n/a	wordpools/wordpool_EN.txt	LAMP	9	4	[0, 0, 0]	n/a	FR1	0	R1290M
57730.854	1.144	1020671	WORD_OFF	n/a	n/a	LAMP	9	4	[0, 0, 0]	n/a	FR1	0	R1290M
57731.998	1.606	1021815	WORD	n/a	wordpools/wordpool_EN.txt	CAPE	10	4	[0, 0, 0]	n/a	FR1	0	R1290M
57733.604	1.087	1023421	WORD_OFF	n/a	n/a	CAPE	10	4	[0, 0, 0]	n/a	FR1	0	R1290M
57734.691	1.63	1024508	WORD	n/a	wordpools/wordpool_EN.txt	WORM	11	4	[0, 0, 0]	n/a	FR1	0	R1290M
57736.321	0.951	1026138	WORD_OFF	n/a	n/a	WORM	11	4	[0, 0, 0]	n/a	FR1	0	R1290M
57737.272	1.634	1027089	WORD	n/a	wordpools/wordpool_EN.txt	BOAT	12	4	[0, 0, 0]	n/a	FR1	0	R1290M
57738.906	0.001	1028723	WORD_OFF	n/a	n/a	BOAT	12	4	[0, 0, 0]	n/a	FR1	0	R1290M
57738.907	0.0	1028724	ENCODING_END	n/a	n/a	n/a	-999	4	[0, 0, 0]	n/a	FR1	0	R1290M
57738.907	0.001	1028724	DISTRACT_START	n/a	n/a	n/a	-999	4	[0, 0, 0]	n/a	FR1	0	R1290M
57738.908	0.014	1028725	START	n/a	n/a	n/a	-999	4	[-999, -999, -999]	n/a	FR1	0	R1290M
57738.922	7.435	1028739	PROB	7.435	n/a	n/a	-999	4	[2, 6, 5]	13	FR1	0	R1290M
57746.357	7.601	1036174	PROB	7.601	n/a	n/a	-999	4	[2, 2, 7]	11	FR1	0	R1290M
57753.958	8.415	1043774	PROB	8.415	n/a	n/a	-999	4	[5, 6, 9]	20	FR1	0	R1290M
57762.373	0.02	1052189	STOP	n/a	n/a	n/a	-999	4	[-999, -999, -999]	n/a	FR1	0	R1290M
57762.393	0.647	1052209	DISTRACT_END	n/a	n/a	n/a	-999	4	[0, 0, 0]	n/a	FR1	0	R1290M
57763.04	1.604	1052856	RETRIEVAL_ORIENT_START	n/a	n/a	n/a	-999	4	[0, 0, 0]	n/a	FR1	0	R1290M
57764.644	0.001	1054460	RETRIEVAL_ORIENT_END	n/a	n/a	n/a	-999	4	[0, 0, 0]	n/a	FR1	0	R1290M
57764.645	3.367	1054461	REC_START	n/a	n/a	n/a	-999	4	[0, 0, 0]	n/a	FR1	0	R1290M
57768.012	0.871	1057828	REC_WORD	0.871	n/a	THREAD	5	4	[0, 0, 0]	n/a	FR1	0	R1290M
57768.883	1.823	1058699	REC_WORD	1.823	n/a	TEETH	8	4	[0, 0, 0]	n/a	FR1	0	R1290M
57770.706	6.533	1060521	REC_WORD	6.533	n/a	SAIL	4	4	[0, 0, 0]	n/a	FR1	0	R1290M
57777.239	17.415	1067054	REC_WORD_VV	17.415	n/a	<>	-999	4	[0, 0, 0]	n/a	FR1	0	R1290M
57794.654	0.001	1084468	REC_END	n/a	n/a	n/a	-999	4	[0, 0, 0]	n/a	FR1	0	R1290M
57794.655	0.014	1084469	TRIAL_END	n/a	n/a	n/a	-999	4	[0, 0, 0]	n/a	FR1	0	R1290M
57794.669	0.001	1084483	TRIAL_START	n/a	n/a	n/a	-999	5	[0, 0, 0]	n/a	FR1	0	R1290M
57794.67	0.0	1084484	WAITING_START	n/a	n/a	n/a	-999	5	[0, 0, 0]	n/a	FR1	0	R1290M
57794.67	4.097	1084484	TRIAL	n/a	n/a	n/a	-999	5	[0, 0, 0]	n/a	FR1	0	R1290M
57798.767	0.001	1088581	WAITING_END	n/a	n/a	n/a	-999	5	[0, 0, 0]	n/a	FR1	0	R1290M
57798.768	10.429	1088582	COUNTDOWN_START	n/a	n/a	n/a	-999	5	[0, 0, 0]	n/a	FR1	0	R1290M
57809.197	0.001	1099011	COUNTDOWN_END	n/a	n/a	n/a	-999	5	[0, 0, 0]	n/a	FR1	0	R1290M
57809.198	1.221	1099012	ORIENT_START	n/a	n/a	n/a	-999	5	[0, 0, 0]	n/a	FR1	0	R1290M
57810.419	0.001	1100233	ORIENT_END	n/a	n/a	n/a	-999	5	[0, 0, 0]	n/a	FR1	0	R1290M
57810.42	0.923	1100234	ENCODING_START	n/a	n/a	n/a	-999	5	[0, 0, 0]	n/a	FR1	0	R1290M
57811.343	1.627	1101157	WORD	n/a	wordpools/wordpool_EN.txt	FILM	1	5	[0, 0, 0]	n/a	FR1	0	R1290M
57812.97	0.949	1102783	WORD_OFF	n/a	n/a	FILM	1	5	[0, 0, 0]	n/a	FR1	0	R1290M
57813.919	1.635	1103732	WORD	n/a	wordpools/wordpool_EN.txt	SEAL	2	5	[0, 0, 0]	n/a	FR1	0	R1290M
57815.554	0.881	1105367	WORD_OFF	n/a	n/a	SEAL	2	5	[0, 0, 0]	n/a	FR1	0	R1290M
57816.435	1.635	1106248	WORD	n/a	wordpools/wordpool_EN.txt	SMOKE	3	5	[0, 0, 0]	n/a	FR1	0	R1290M
57818.07	0.831	1107883	WORD_OFF	n/a	n/a	SMOKE	3	5	[0, 0, 0]	n/a	FR1	0	R1290M
57818.901	1.637	1108714	WORD	n/a	wordpools/wordpool_EN.txt	NOSE	4	5	[0, 0, 0]	n/a	FR1	0	R1290M
57820.538	1.019	1110351	WORD_OFF	n/a	n/a	NOSE	4	5	[0, 0, 0]	n/a	FR1	0	R1290M
57821.557	1.631	1111370	WORD	n/a	wordpools/wordpool_EN.txt	FLUTE	5	5	[0, 0, 0]	n/a	FR1	0	R1290M
57823.188	1.013	1113001	WORD_OFF	n/a	n/a	FLUTE	5	5	[0, 0, 0]	n/a	FR1	0	R1290M
57824.201	1.621	1114014	WORD	n/a	wordpools/wordpool_EN.txt	STEAK	6	5	[0, 0, 0]	n/a	FR1	0	R1290M
57825.822	0.818	1115635	WORD_OFF	n/a	n/a	STEAK	6	5	[0, 0, 0]	n/a	FR1	0	R1290M
57826.64	1.632	1116453	WORD	n/a	wordpools/wordpool_EN.txt	DART	7	5	[0, 0, 0]	n/a	FR1	0	R1290M
57828.272	1.043	1118085	WORD_OFF	n/a	n/a	DART	7	5	[0, 0, 0]	n/a	FR1	0	R1290M
57829.315	1.608	1119128	WORD	n/a	wordpools/wordpool_EN.txt	ROOM	8	5	[0, 0, 0]	n/a	FR1	0	R1290M
57830.923	0.777	1120736	WORD_OFF	n/a	n/a	ROOM	8	5	[0, 0, 0]	n/a	FR1	0	R1290M
57831.7	1.623	1121513	WORD	n/a	wordpools/wordpool_EN.txt	JAIL	9	5	[0, 0, 0]	n/a	FR1	0	R1290M
57833.323	0.795	1123135	WORD_OFF	n/a	n/a	JAIL	9	5	[0, 0, 0]	n/a	FR1	0	R1290M
57834.118	1.623	1123930	WORD	n/a	wordpools/wordpool_EN.txt	FARM	10	5	[0, 0, 0]	n/a	FR1	0	R1290M
57835.741	0.766	1125553	WORD_OFF	n/a	n/a	FARM	10	5	[0, 0, 0]	n/a	FR1	0	R1290M
57836.507	1.633	1126319	WORD	n/a	wordpools/wordpool_EN.txt	TOAD	11	5	[0, 0, 0]	n/a	FR1	0	R1290M
57838.14	0.861	1127952	WORD_OFF	n/a	n/a	TOAD	11	5	[0, 0, 0]	n/a	FR1	0	R1290M
57839.001	1.607	1128813	WORD	n/a	wordpools/wordpool_EN.txt	BEE	12	5	[0, 0, 0]	n/a	FR1	0	R1290M
57840.608	0.001	1130420	WORD_OFF	n/a	n/a	BEE	12	5	[0, 0, 0]	n/a	FR1	0	R1290M
57840.609	0.001	1130421	ENCODING_END	n/a	n/a	n/a	-999	5	[0, 0, 0]	n/a	FR1	0	R1290M
57840.61	0.0	1130422	DISTRACT_START	n/a	n/a	n/a	-999	5	[0, 0, 0]	n/a	FR1	0	R1290M
57840.61	0.015	1130422	START	n/a	n/a	n/a	-999	5	[-999, -999, -999]	n/a	FR1	0	R1290M
57840.625	4.067	1130437	PROB	4.067	n/a	n/a	-999	5	[5, 4, 2]	11	FR1	0	R1290M
57844.692	2.801	1134504	PROB	2.801	n/a	n/a	-999	5	[8, 1, 4]	13	FR1	0	R1290M
57847.493	4.234	1137305	PROB	4.234	n/a	n/a	-999	5	[8, 4, 3]	15	FR1	0	R1290M
57851.727	4.934	1141539	PROB	4.934	n/a	n/a	-999	5	[4, 8, 1]	13	FR1	0	R1290M
57856.661	8.112	1146472	PROB	8.112	n/a	n/a	-999	5	[1, 6, 7]	14	FR1	0	R1290M
57864.773	0.007	1154584	STOP	n/a	n/a	n/a	-999	5	[-999, -999, -999]	n/a	FR1	0	R1290M
57864.78	0.571	1154591	DISTRACT_END	n/a	n/a	n/a	-999	5	[0, 0, 0]	n/a	FR1	0	R1290M
57865.351	1.712	1155162	RETRIEVAL_ORIENT_START	n/a	n/a	n/a	-999	5	[0, 0, 0]	n/a	FR1	0	R1290M
57867.063	0.0	1156874	RETRIEVAL_ORIENT_END	n/a	n/a	n/a	-999	5	[0, 0, 0]	n/a	FR1	0	R1290M
57867.063	0.064	1156874	REC_START	n/a	n/a	n/a	-999	5	[0, 0, 0]	n/a	FR1	0	R1290M
57867.127	0.59	1156938	REC_WORD	0.59	n/a	SEAL	2	5	[0, 0, 0]	n/a	FR1	0	R1290M
57867.717	1.426	1157528	REC_WORD	1.426	n/a	SMOKE	3	5	[0, 0, 0]	n/a	FR1	0	R1290M
57869.143	1.125	1158954	REC_WORD	1.125	n/a	FARM	10	5	[0, 0, 0]	n/a	FR1	0	R1290M
57870.268	2.149	1160079	REC_WORD	2.149	n/a	TOAD	11	5	[0, 0, 0]	n/a	FR1	0	R1290M
57872.417	0.779	1162228	REC_WORD_VV	0.779	n/a	<>	-999	5	[0, 0, 0]	n/a	FR1	0	R1290M
57873.196	2.414	1163007	REC_WORD	2.414	n/a	FLUTE	5	5	[0, 0, 0]	n/a	FR1	0	R1290M
57875.61	9.518	1165420	REC_WORD_VV	9.518	n/a	<>	-999	5	[0, 0, 0]	n/a	FR1	0	R1290M
57885.128	1.002	1174938	REC_WORD_VV	1.002	n/a	<>	-999	5	[0, 0, 0]	n/a	FR1	0	R1290M
57886.13	7.667	1175940	REC_WORD_VV	7.667	n/a	<>	-999	5	[0, 0, 0]	n/a	FR1	0	R1290M
57893.797	3.276	1183607	REC_WORD_VV	3.276	n/a	<>	-999	5	[0, 0, 0]	n/a	FR1	0	R1290M
57897.073	0.001	1186882	REC_END	n/a	n/a	n/a	-999	5	[0, 0, 0]	n/a	FR1	0	R1290M
57897.074	0.014	1186883	TRIAL_END	n/a	n/a	n/a	-999	5	[0, 0, 0]	n/a	FR1	0	R1290M
57897.088	0.0	1186897	TRIAL	n/a	n/a	n/a	-999	6	[0, 0, 0]	n/a	FR1	0	R1290M
57897.088	0.001	1186897	TRIAL_START	n/a	n/a	n/a	-999	6	[0, 0, 0]	n/a	FR1	0	R1290M
57897.089	8.931	1186898	WAITING_START	n/a	n/a	n/a	-999	6	[0, 0, 0]	n/a	FR1	0	R1290M
57906.02	0.001	1195829	WAITING_END	n/a	n/a	n/a	-999	6	[0, 0, 0]	n/a	FR1	0	R1290M
57906.021	10.43	1195830	COUNTDOWN_START	n/a	n/a	n/a	-999	6	[0, 0, 0]	n/a	FR1	0	R1290M
57916.451	0.001	1206260	COUNTDOWN_END	n/a	n/a	n/a	-999	6	[0, 0, 0]	n/a	FR1	0	R1290M
57916.452	1.055	1206261	ORIENT_START	n/a	n/a	n/a	-999	6	[0, 0, 0]	n/a	FR1	0	R1290M
57917.507	0.001	1207315	ORIENT_END	n/a	n/a	n/a	-999	6	[0, 0, 0]	n/a	FR1	0	R1290M
57917.508	1.08	1207316	ENCODING_START	n/a	n/a	n/a	-999	6	[0, 0, 0]	n/a	FR1	0	R1290M
57918.588	1.635	1208396	WORD	n/a	wordpools/wordpool_EN.txt	PIT	1	6	[0, 0, 0]	n/a	FR1	0	R1290M
57920.223	0.987	1210031	WORD_OFF	n/a	n/a	PIT	1	6	[0, 0, 0]	n/a	FR1	0	R1290M
57921.21	1.614	1211018	WORD	n/a	wordpools/wordpool_EN.txt	GLOVE	2	6	[0, 0, 0]	n/a	FR1	0	R1290M
57922.824	0.841	1212632	WORD_OFF	n/a	n/a	GLOVE	2	6	[0, 0, 0]	n/a	FR1	0	R1290M
57923.665	1.626	1213473	WORD	n/a	wordpools/wordpool_EN.txt	GUARD	3	6	[0, 0, 0]	n/a	FR1	0	R1290M
57925.291	0.912	1215099	WORD_OFF	n/a	n/a	GUARD	3	6	[0, 0, 0]	n/a	FR1	0	R1290M
57926.203	1.639	1216011	WORD	n/a	wordpools/wordpool_EN.txt	CASH	4	6	[0, 0, 0]	n/a	FR1	0	R1290M
57927.842	1.003	1217650	WORD_OFF	n/a	n/a	CASH	4	6	[0, 0, 0]	n/a	FR1	0	R1290M
57928.845	1.631	1218653	WORD	n/a	wordpools/wordpool_EN.txt	ROOT	5	6	[0, 0, 0]	n/a	FR1	0	R1290M
57930.476	1.12	1220284	WORD_OFF	n/a	n/a	ROOT	5	6	[0, 0, 0]	n/a	FR1	0	R1290M
57931.596	1.629	1221404	WORD	n/a	wordpools/wordpool_EN.txt	BOY	6	6	[0, 0, 0]	n/a	FR1	0	R1290M
57933.225	1.054	1223033	WORD_OFF	n/a	n/a	BOY	6	6	[0, 0, 0]	n/a	FR1	0	R1290M
57934.279	1.614	1224087	WORD	n/a	wordpools/wordpool_EN.txt	PEN	7	6	[0, 0, 0]	n/a	FR1	0	R1290M
57935.893	0.914	1225701	WORD_OFF	n/a	n/a	PEN	7	6	[0, 0, 0]	n/a	FR1	0	R1290M
57936.807	1.637	1226615	WORD	n/a	wordpools/wordpool_EN.txt	TOAST	8	6	[0, 0, 0]	n/a	FR1	0	R1290M
57938.444	1.117	1228251	WORD_OFF	n/a	n/a	TOAST	8	6	[0, 0, 0]	n/a	FR1	0	R1290M
57939.561	1.633	1229368	WORD	n/a	wordpools/wordpool_EN.txt	POND	9	6	[0, 0, 0]	n/a	FR1	0	R1290M
57941.194	0.786	1231001	WORD_OFF	n/a	n/a	POND	9	6	[0, 0, 0]	n/a	FR1	0	R1290M
57941.98	1.632	1231787	WORD	n/a	wordpools/wordpool_EN.txt	FLAG	10	6	[0, 0, 0]	n/a	FR1	0	R1290M
57943.612	1.117	1233419	WORD_OFF	n/a	n/a	FLAG	10	6	[0, 0, 0]	n/a	FR1	0	R1290M
57944.729	1.633	1234536	WORD	n/a	wordpools/wordpool_EN.txt	SALT	11	6	[0, 0, 0]	n/a	FR1	0	R1290M
57946.362	0.906	1236169	WORD_OFF	n/a	n/a	SALT	11	6	[0, 0, 0]	n/a	FR1	0	R1290M
57947.268	1.628	1237075	WORD	n/a	wordpools/wordpool_EN.txt	SUIT	12	6	[0, 0, 0]	n/a	FR1	0	R1290M
57948.896	0.001	1238703	WORD_OFF	n/a	n/a	SUIT	12	6	[0, 0, 0]	n/a	FR1	0	R1290M
57948.897	0.001	1238704	ENCODING_END	n/a	n/a	n/a	-999	6	[0, 0, 0]	n/a	FR1	0	R1290M
57948.898	0.0	1238705	DISTRACT_START	n/a	n/a	n/a	-999	6	[0, 0, 0]	n/a	FR1	0	R1290M
57948.898	0.015	1238705	START	n/a	n/a	n/a	-999	6	[-999, -999, -999]	n/a	FR1	0	R1290M
57948.913	10.384	1238720	PROB	10.384	n/a	n/a	-999	6	[2, 7, 6]	15	FR1	0	R1290M
57959.297	7.536	1249103	PROB	7.536	n/a	n/a	-999	6	[4, 1, 1]	6	FR1	0	R1290M
57966.833	12.245	1256639	PROB	12.245	n/a	n/a	-999	6	[4, 3, 5]	13	FR1	0	R1290M
57979.078	0.006	1268884	STOP	n/a	n/a	n/a	-999	6	[-999, -999, -999]	n/a	FR1	0	R1290M
57979.084	0.577	1268890	DISTRACT_END	n/a	n/a	n/a	-999	6	[0, 0, 0]	n/a	FR1	0	R1290M
57979.661	1.675	1269467	RETRIEVAL_ORIENT_START	n/a	n/a	n/a	-999	6	[0, 0, 0]	n/a	FR1	0	R1290M
57981.336	0.0	1271141	RETRIEVAL_ORIENT_END	n/a	n/a	n/a	-999	6	[0, 0, 0]	n/a	FR1	0	R1290M
57981.336	3.903	1271141	REC_START	n/a	n/a	n/a	-999	6	[0, 0, 0]	n/a	FR1	0	R1290M
57985.239	0.999	1275044	REC_WORD_VV	0.999	n/a	<>	-999	6	[0, 0, 0]	n/a	FR1	0	R1290M
57986.238	1.056	1276043	REC_WORD_VV	1.056	n/a	<>	-999	6	[0, 0, 0]	n/a	FR1	0	R1290M
57987.294	0.693	1277099	REC_WORD	0.693	n/a	GUARD	3	6	[0, 0, 0]	n/a	FR1	0	R1290M
57987.987	1.718	1277792	REC_WORD	1.718	n/a	GLOVE	2	6	[0, 0, 0]	n/a	FR1	0	R1290M
57989.705	0.89	1279510	REC_WORD	0.89	n/a	SALT	11	6	[0, 0, 0]	n/a	FR1	0	R1290M
57990.595	1.844	1280400	REC_WORD	1.844	n/a	BOY	6	6	[0, 0, 0]	n/a	FR1	0	R1290M
57992.439	2.504	1282244	REC_WORD	2.504	n/a	SUIT	12	6	[0, 0, 0]	n/a	FR1	0	R1290M
57994.943	3.874	1284748	REC_WORD_VV	3.874	n/a	<>	-999	6	[0, 0, 0]	n/a	FR1	0	R1290M
57998.817	3.525	1288622	REC_WORD	3.525	n/a	SUIT	12	6	[0, 0, 0]	n/a	FR1	0	R1290M
58002.342	4.272	1292146	REC_WORD_VV	4.272	n/a	<>	-999	6	[0, 0, 0]	n/a	FR1	0	R1290M
58006.614	2.72	1296418	REC_WORD	2.72	n/a	POND	9	6	[0, 0, 0]	n/a	FR1	0	R1290M
58009.334	2.014	1299138	REC_WORD_VV	2.014	n/a	<>	-999	6	[0, 0, 0]	n/a	FR1	0	R1290M
58011.348	0.001	1301152	REC_END	n/a	n/a	n/a	-999	6	[0, 0, 0]	n/a	FR1	0	R1290M
58011.349	0.014	1301153	TRIAL_END	n/a	n/a	n/a	-999	6	[0, 0, 0]	n/a	FR1	0	R1290M
58011.363	0.0	1301167	TRIAL_START	n/a	n/a	n/a	-999	7	[0, 0, 0]	n/a	FR1	0	R1290M
58011.363	0.0	1301167	TRIAL	n/a	n/a	n/a	-999	7	[0, 0, 0]	n/a	FR1	0	R1290M
58011.363	4.196	1301167	WAITING_START	n/a	n/a	n/a	-999	7	[0, 0, 0]	n/a	FR1	0	R1290M
58015.559	0.001	1305363	WAITING_END	n/a	n/a	n/a	-999	7	[0, 0, 0]	n/a	FR1	0	R1290M
58015.56	10.428	1305364	COUNTDOWN_START	n/a	n/a	n/a	-999	7	[0, 0, 0]	n/a	FR1	0	R1290M
58025.988	0.001	1315791	COUNTDOWN_END	n/a	n/a	n/a	-999	7	[0, 0, 0]	n/a	FR1	0	R1290M
58025.989	1.238	1315792	ORIENT_START	n/a	n/a	n/a	-999	7	[0, 0, 0]	n/a	FR1	0	R1290M
58027.227	0.001	1317030	ORIENT_END	n/a	n/a	n/a	-999	7	[0, 0, 0]	n/a	FR1	0	R1290M
58027.228	0.771	1317031	ENCODING_START	n/a	n/a	n/a	-999	7	[0, 0, 0]	n/a	FR1	0	R1290M
58027.999	1.612	1317802	WORD	n/a	wordpools/wordpool_EN.txt	MAZE	1	7	[0, 0, 0]	n/a	FR1	0	R1290M
58029.611	0.986	1319414	WORD_OFF	n/a	n/a	MAZE	1	7	[0, 0, 0]	n/a	FR1	0	R1290M
58030.597	1.631	1320400	WORD	n/a	wordpools/wordpool_EN.txt	BARN	2	7	[0, 0, 0]	n/a	FR1	0	R1290M
58032.228	0.93	1322031	WORD_OFF	n/a	n/a	BARN	2	7	[0, 0, 0]	n/a	FR1	0	R1290M
58033.158	1.621	1322961	WORD	n/a	wordpools/wordpool_EN.txt	HOSE	3	7	[0, 0, 0]	n/a	FR1	0	R1290M
58034.779	0.896	1324582	WORD_OFF	n/a	n/a	HOSE	3	7	[0, 0, 0]	n/a	FR1	0	R1290M
58035.675	1.621	1325478	WORD	n/a	wordpools/wordpool_EN.txt	SHELL	4	7	[0, 0, 0]	n/a	FR1	0	R1290M
58037.296	1.029	1327099	WORD_OFF	n/a	n/a	SHELL	4	7	[0, 0, 0]	n/a	FR1	0	R1290M
58038.325	1.622	1328128	WORD	n/a	wordpools/wordpool_EN.txt	FOG	5	7	[0, 0, 0]	n/a	FR1	0	R1290M
58039.947	1.013	1329750	WORD_OFF	n/a	n/a	FOG	5	7	[0, 0, 0]	n/a	FR1	0	R1290M
58040.96	1.621	1330763	WORD	n/a	wordpools/wordpool_EN.txt	HOOF	6	7	[0, 0, 0]	n/a	FR1	0	R1290M
58042.581	0.932	1332384	WORD_OFF	n/a	n/a	HOOF	6	7	[0, 0, 0]	n/a	FR1	0	R1290M
58043.513	1.634	1333315	WORD	n/a	wordpools/wordpool_EN.txt	FENCE	7	7	[0, 0, 0]	n/a	FR1	0	R1290M
58045.147	0.842	1334949	WORD_OFF	n/a	n/a	FENCE	7	7	[0, 0, 0]	n/a	FR1	0	R1290M
58045.989	1.626	1335791	WORD	n/a	wordpools/wordpool_EN.txt	BATH	8	7	[0, 0, 0]	n/a	FR1	0	R1290M
58047.615	0.864	1337417	WORD_OFF	n/a	n/a	BATH	8	7	[0, 0, 0]	n/a	FR1	0	R1290M
58048.479	1.636	1338281	WORD	n/a	wordpools/wordpool_EN.txt	APE	9	7	[0, 0, 0]	n/a	FR1	0	R1290M
58050.115	1.144	1339917	WORD_OFF	n/a	n/a	APE	9	7	[0, 0, 0]	n/a	FR1	0	R1290M
58051.259	1.607	1341061	WORD	n/a	wordpools/wordpool_EN.txt	HAT	10	7	[0, 0, 0]	n/a	FR1	0	R1290M
58052.866	0.759	1342668	WORD_OFF	n/a	n/a	HAT	10	7	[0, 0, 0]	n/a	FR1	0	R1290M
58053.625	1.624	1343427	WORD	n/a	wordpools/wordpool_EN.txt	DOLL	11	7	[0, 0, 0]	n/a	FR1	0	R1290M
58055.249	1.061	1345051	WORD_OFF	n/a	n/a	DOLL	11	7	[0, 0, 0]	n/a	FR1	0	R1290M
58056.31	1.624	1346112	WORD	n/a	wordpools/wordpool_EN.txt	HEN	12	7	[0, 0, 0]	n/a	FR1	0	R1290M
58057.934	0.001	1347736	WORD_OFF	n/a	n/a	HEN	12	7	[0, 0, 0]	n/a	FR1	0	R1290M
58057.935	0.0	1347737	ENCODING_END	n/a	n/a	n/a	-999	7	[0, 0, 0]	n/a	FR1	0	R1290M
58057.935	0.001	1347737	DISTRACT_START	n/a	n/a	n/a	-999	7	[0, 0, 0]	n/a	FR1	0	R1290M
58057.936	0.014	1347738	START	n/a	n/a	n/a	-999	7	[-999, -999, -999]	n/a	FR1	0	R1290M
58057.95	11.569	1347752	PROB	11.569	n/a	n/a	-999	7	[7, 9, 9]	25	FR1	0	R1290M
58069.519	5.018	1359320	PROB	5.018	n/a	n/a	-999	7	[4, 2, 5]	11	FR1	0	R1290M
58074.537	13.599	1364338	PROB	13.599	n/a	n/a	-999	7	[9, 4, 3]	16	FR1	0	R1290M
58088.136	0.019	1377936	STOP	n/a	n/a	n/a	-999	7	[-999, -999, -999]	n/a	FR1	0	R1290M
58088.155	0.603	1377955	DISTRACT_END	n/a	n/a	n/a	-999	7	[0, 0, 0]	n/a	FR1	0	R1290M
58088.758	1.665	1378558	RETRIEVAL_ORIENT_START	n/a	n/a	n/a	-999	7	[0, 0, 0]	n/a	FR1	0	R1290M
58090.423	0.001	1380223	RETRIEVAL_ORIENT_END	n/a	n/a	n/a	-999	7	[0, 0, 0]	n/a	FR1	0	R1290M
58090.424	1.117	1380224	REC_START	n/a	n/a	n/a	-999	7	[0, 0, 0]	n/a	FR1	0	R1290M
58091.541	0.292	1381341	REC_WORD_VV	0.292	n/a	<>	-999	7	[0, 0, 0]	n/a	FR1	0	R1290M
58091.833	0.898	1381633	REC_WORD	0.898	n/a	HOSE	3	7	[0, 0, 0]	n/a	FR1	0	R1290M
58092.731	0.771	1382531	REC_WORD	0.771	n/a	FARM	-999	7	[0, 0, 0]	n/a	FR1	0	R1290M
58093.502	2.514	1383302	REC_WORD	2.514	n/a	FOG	5	7	[0, 0, 0]	n/a	FR1	0	R1290M
58096.016	3.965	1385816	REC_WORD	3.965	n/a	HEN	12	7	[0, 0, 0]	n/a	FR1	0	R1290M
58099.981	0.294	1389781	REC_WORD_VV	0.294	n/a	<>	-999	7	[0, 0, 0]	n/a	FR1	0	R1290M
58100.275	6.625	1390075	REC_WORD	6.625	n/a	FENCE	7	7	[0, 0, 0]	n/a	FR1	0	R1290M
58106.9	13.535	1396699	REC_WORD	13.535	n/a	BATH	8	7	[0, 0, 0]	n/a	FR1	0	R1290M
58120.435	0.0	1410234	REC_END	n/a	n/a	n/a	-999	7	[0, 0, 0]	n/a	FR1	0	R1290M
58120.435	0.015	1410234	TRIAL_END	n/a	n/a	n/a	-999	7	[0, 0, 0]	n/a	FR1	0	R1290M
58120.45	0.0	1410249	TRIAL	n/a	n/a	n/a	-999	8	[0, 0, 0]	n/a	FR1	0	R1290M
58120.45	0.001	1410249	TRIAL_START	n/a	n/a	n/a	-999	8	[0, 0, 0]	n/a	FR1	0	R1290M
58120.451	13.064	1410250	WAITING_START	n/a	n/a	n/a	-999	8	[0, 0, 0]	n/a	FR1	0	R1290M
58133.515	0.001	1423313	WAITING_END	n/a	n/a	n/a	-999	8	[0, 0, 0]	n/a	FR1	0	R1290M
58133.516	10.429	1423314	COUNTDOWN_START	n/a	n/a	n/a	-999	8	[0, 0, 0]	n/a	FR1	0	R1290M
58143.945	0.001	1433743	COUNTDOWN_END	n/a	n/a	n/a	-999	8	[0, 0, 0]	n/a	FR1	0	R1290M
58143.946	1.12	1433744	ORIENT_START	n/a	n/a	n/a	-999	8	[0, 0, 0]	n/a	FR1	0	R1290M
58145.066	0.001	1434864	ORIENT_END	n/a	n/a	n/a	-999	8	[0, 0, 0]	n/a	FR1	0	R1290M
58145.067	0.798	1434865	ENCODING_START	n/a	n/a	n/a	-999	8	[0, 0, 0]	n/a	FR1	0	R1290M
58145.865	1.636	1435663	WORD	n/a	wordpools/wordpool_EN.txt	HEART	1	8	[0, 0, 0]	n/a	FR1	0	R1290M
58147.501	1.01	1437299	WORD_OFF	n/a	n/a	HEART	1	8	[0, 0, 0]	n/a	FR1	0	R1290M
58148.511	1.624	1438309	WORD	n/a	wordpools/wordpool_EN.txt	FUDGE	2	8	[0, 0, 0]	n/a	FR1	0	R1290M
58150.135	0.988	1439932	WORD_OFF	n/a	n/a	FUDGE	2	8	[0, 0, 0]	n/a	FR1	0	R1290M
58151.123	1.629	1440920	WORD	n/a	wordpools/wordpool_EN.txt	GEESE	3	8	[0, 0, 0]	n/a	FR1	0	R1290M
58152.752	1.079	1442549	WORD_OFF	n/a	n/a	GEESE	3	8	[0, 0, 0]	n/a	FR1	0	R1290M
58153.831	1.639	1443628	WORD	n/a	wordpools/wordpool_EN.txt	SPONGE	4	8	[0, 0, 0]	n/a	FR1	0	R1290M
58155.47	0.889	1445267	WORD_OFF	n/a	n/a	SPONGE	4	8	[0, 0, 0]	n/a	FR1	0	R1290M
58156.359	1.626	1446156	WORD	n/a	wordpools/wordpool_EN.txt	HAWK	5	8	[0, 0, 0]	n/a	FR1	0	R1290M
58157.985	0.93	1447782	WORD_OFF	n/a	n/a	HAWK	5	8	[0, 0, 0]	n/a	FR1	0	R1290M
58158.915	1.638	1448712	WORD	n/a	wordpools/wordpool_EN.txt	PEAR	6	8	[0, 0, 0]	n/a	FR1	0	R1290M
58160.553	1.024	1450350	WORD_OFF	n/a	n/a	PEAR	6	8	[0, 0, 0]	n/a	FR1	0	R1290M
58161.577	1.626	1451374	WORD	n/a	wordpools/wordpool_EN.txt	SOUP	7	8	[0, 0, 0]	n/a	FR1	0	R1290M
58163.203	0.862	1453000	WORD_OFF	n/a	n/a	SOUP	7	8	[0, 0, 0]	n/a	FR1	0	R1290M
58164.065	1.623	1453862	WORD	n/a	wordpools/wordpool_EN.txt	STORM	8	8	[0, 0, 0]	n/a	FR1	0	R1290M
58165.688	0.813	1455485	WORD_OFF	n/a	n/a	STORM	8	8	[0, 0, 0]	n/a	FR1	0	R1290M
58166.501	1.636	1456298	WORD	n/a	wordpools/wordpool_EN.txt	NEST	9	8	[0, 0, 0]	n/a	FR1	0	R1290M
58168.137	0.831	1457934	WORD_OFF	n/a	n/a	NEST	9	8	[0, 0, 0]	n/a	FR1	0	R1290M
58168.968	1.621	1458765	WORD	n/a	wordpools/wordpool_EN.txt	CANE	10	8	[0, 0, 0]	n/a	FR1	0	R1290M
58170.589	0.867	1460385	WORD_OFF	n/a	n/a	CANE	10	8	[0, 0, 0]	n/a	FR1	0	R1290M
58171.456	1.632	1461252	WORD	n/a	wordpools/wordpool_EN.txt	SHIELD	11	8	[0, 0, 0]	n/a	FR1	0	R1290M
58173.088	1.015	1462884	WORD_OFF	n/a	n/a	SHIELD	11	8	[0, 0, 0]	n/a	FR1	0	R1290M
58174.103	1.637	1463899	WORD	n/a	wordpools/wordpool_EN.txt	STOOL	12	8	[0, 0, 0]	n/a	FR1	0	R1290M
58175.74	0.001	1465536	WORD_OFF	n/a	n/a	STOOL	12	8	[0, 0, 0]	n/a	FR1	0	R1290M
58175.741	0.001	1465537	ENCODING_END	n/a	n/a	n/a	-999	8	[0, 0, 0]	n/a	FR1	0	R1290M
58175.742	0.0	1465538	DISTRACT_START	n/a	n/a	n/a	-999	8	[0, 0, 0]	n/a	FR1	0	R1290M
58175.742	0.014	1465538	START	n/a	n/a	n/a	-999	8	[-999, -999, -999]	n/a	FR1	0	R1290M
58175.756	9.786	1465552	PROB	9.786	n/a	n/a	-999	8	[5, 9, 9]	23	FR1	0	R1290M
58185.542	5.5	1475338	PROB	5.5	n/a	n/a	-999	8	[2, 8, 3]	13	FR1	0	R1290M
58191.042	8.526	1480838	PROB	8.526	n/a	n/a	-999	8	[7, 6, 4]	17	FR1	0	R1290M
58199.568	0.01	1489363	STOP	n/a	n/a	n/a	-999	8	[-999, -999, -999]	n/a	FR1	0	R1290M
58199.578	0.502	1489373	DISTRACT_END	n/a	n/a	n/a	-999	8	[0, 0, 0]	n/a	FR1	0	R1290M
58200.08	1.532	1489875	RETRIEVAL_ORIENT_START	n/a	n/a	n/a	-999	8	[0, 0, 0]	n/a	FR1	0	R1290M
58201.612	0.001	1491407	RETRIEVAL_ORIENT_END	n/a	n/a	n/a	-999	8	[0, 0, 0]	n/a	FR1	0	R1290M
58201.613	0.838	1491408	REC_START	n/a	n/a	n/a	-999	8	[0, 0, 0]	n/a	FR1	0	R1290M
58202.451	1.069	1492246	REC_WORD	1.069	n/a	HEART	1	8	[0, 0, 0]	n/a	FR1	0	R1290M
58203.52	1.109	1493315	REC_WORD	1.109	n/a	FUDGE	2	8	[0, 0, 0]	n/a	FR1	0	R1290M
58204.629	2.123	1494424	REC_WORD	2.123	n/a	PEAR	6	8	[0, 0, 0]	n/a	FR1	0	R1290M
58206.752	0.377	1496547	REC_WORD_VV	0.377	n/a	<>	-999	8	[0, 0, 0]	n/a	FR1	0	R1290M
58207.129	3.181	1496924	REC_WORD	3.181	n/a	STOOL	12	8	[0, 0, 0]	n/a	FR1	0	R1290M
58210.31	3.305	1500105	REC_WORD_VV	3.305	n/a	<>	-999	8	[0, 0, 0]	n/a	FR1	0	R1290M
58213.615	0.615	1503409	REC_WORD_VV	0.615	n/a	<>	-999	8	[0, 0, 0]	n/a	FR1	0	R1290M
58214.23	0.88	1504024	REC_WORD	0.88	n/a	STOOL	12	8	[0, 0, 0]	n/a	FR1	0	R1290M
58215.11	7.264	1504904	REC_WORD_VV	7.264	n/a	<>	-999	8	[0, 0, 0]	n/a	FR1	0	R1290M
58222.374	3.686	1512168	REC_WORD_VV	3.686	n/a	<>	-999	8	[0, 0, 0]	n/a	FR1	0	R1290M
58226.06	5.563	1515854	REC_WORD	5.563	n/a	STORM	8	8	[0, 0, 0]	n/a	FR1	0	R1290M
58231.623	0.001	1521417	REC_END	n/a	n/a	n/a	-999	8	[0, 0, 0]	n/a	FR1	0	R1290M
58231.624	0.013	1521418	TRIAL_END	n/a	n/a	n/a	-999	8	[0, 0, 0]	n/a	FR1	0	R1290M
58231.637	0.001	1521431	TRIAL_START	n/a	n/a	n/a	-999	9	[0, 0, 0]	n/a	FR1	0	R1290M
58231.638	0.0	1521432	TRIAL	n/a	n/a	n/a	-999	9	[0, 0, 0]	n/a	FR1	0	R1290M
58231.638	3.679	1521432	WAITING_START	n/a	n/a	n/a	-999	9	[0, 0, 0]	n/a	FR1	0	R1290M
58235.317	0.001	1525110	WAITING_END	n/a	n/a	n/a	-999	9	[0, 0, 0]	n/a	FR1	0	R1290M
58235.318	10.43	1525111	COUNTDOWN_START	n/a	n/a	n/a	-999	9	[0, 0, 0]	n/a	FR1	0	R1290M
58245.748	0.0	1535541	COUNTDOWN_END	n/a	n/a	n/a	-999	9	[0, 0, 0]	n/a	FR1	0	R1290M
58245.748	1.106	1535541	ORIENT_START	n/a	n/a	n/a	-999	9	[0, 0, 0]	n/a	FR1	0	R1290M
58246.854	0.0	1536647	ENCODING_START	n/a	n/a	n/a	-999	9	[0, 0, 0]	n/a	FR1	0	R1290M
58246.854	0.976	1536647	ORIENT_END	n/a	n/a	n/a	-999	9	[0, 0, 0]	n/a	FR1	0	R1290M
58247.83	1.624	1537623	WORD	n/a	wordpools/wordpool_EN.txt	ZOO	1	9	[0, 0, 0]	n/a	FR1	0	R1290M
58249.454	0.78	1539247	WORD_OFF	n/a	n/a	ZOO	1	9	[0, 0, 0]	n/a	FR1	0	R1290M
58250.234	1.637	1540027	WORD	n/a	wordpools/wordpool_EN.txt	WAVE	2	9	[0, 0, 0]	n/a	FR1	0	R1290M
58251.871	0.864	1541664	WORD_OFF	n/a	n/a	WAVE	2	9	[0, 0, 0]	n/a	FR1	0	R1290M
58252.735	1.637	1542528	WORD	n/a	wordpools/wordpool_EN.txt	JAR	3	9	[0, 0, 0]	n/a	FR1	0	R1290M
58254.372	0.933	1544165	WORD_OFF	n/a	n/a	JAR	3	9	[0, 0, 0]	n/a	FR1	0	R1290M
58255.305	1.634	1545097	WORD	n/a	wordpools/wordpool_EN.txt	WHALE	4	9	[0, 0, 0]	n/a	FR1	0	R1290M
58256.939	0.758	1546731	WORD_OFF	n/a	n/a	WHALE	4	9	[0, 0, 0]	n/a	FR1	0	R1290M
58257.697	1.625	1547489	WORD	n/a	wordpools/wordpool_EN.txt	TOOL	5	9	[0, 0, 0]	n/a	FR1	0	R1290M
58259.322	1.076	1549114	WORD_OFF	n/a	n/a	TOOL	5	9	[0, 0, 0]	n/a	FR1	0	R1290M
58260.398	1.624	1550190	WORD	n/a	wordpools/wordpool_EN.txt	SLUSH	6	9	[0, 0, 0]	n/a	FR1	0	R1290M
58262.022	0.881	1551814	WORD_OFF	n/a	n/a	SLUSH	6	9	[0, 0, 0]	n/a	FR1	0	R1290M
58262.903	1.637	1552695	WORD	n/a	wordpools/wordpool_EN.txt	CART	7	9	[0, 0, 0]	n/a	FR1	0	R1290M
58264.54	0.97	1554332	WORD_OFF	n/a	n/a	CART	7	9	[0, 0, 0]	n/a	FR1	0	R1290M
58265.51	1.63	1555302	WORD	n/a	wordpools/wordpool_EN.txt	CAT	8	9	[0, 0, 0]	n/a	FR1	0	R1290M
58267.14	0.962	1556932	WORD_OFF	n/a	n/a	CAT	8	9	[0, 0, 0]	n/a	FR1	0	R1290M
58268.102	1.623	1557894	WORD	n/a	wordpools/wordpool_EN.txt	CUBE	9	9	[0, 0, 0]	n/a	FR1	0	R1290M
58269.725	0.781	1559517	WORD_OFF	n/a	n/a	CUBE	9	9	[0, 0, 0]	n/a	FR1	0	R1290M
58270.506	1.635	1560298	WORD	n/a	wordpools/wordpool_EN.txt	MAIL	10	9	[0, 0, 0]	n/a	FR1	0	R1290M
58272.141	0.807	1561933	WORD_OFF	n/a	n/a	MAIL	10	9	[0, 0, 0]	n/a	FR1	0	R1290M
58272.948	1.628	1562740	WORD	n/a	wordpools/wordpool_EN.txt	SHEEP	11	9	[0, 0, 0]	n/a	FR1	0	R1290M
58274.576	0.911	1564368	WORD_OFF	n/a	n/a	SHEEP	11	9	[0, 0, 0]	n/a	FR1	0	R1290M
58275.487	1.621	1565279	WORD	n/a	wordpools/wordpool_EN.txt	DOCK	12	9	[0, 0, 0]	n/a	FR1	0	R1290M
58277.108	0.001	1566899	WORD_OFF	n/a	n/a	DOCK	12	9	[0, 0, 0]	n/a	FR1	0	R1290M
58277.109	0.001	1566900	ENCODING_END	n/a	n/a	n/a	-999	9	[0, 0, 0]	n/a	FR1	0	R1290M
58277.11	0.0	1566901	DISTRACT_START	n/a	n/a	n/a	-999	9	[0, 0, 0]	n/a	FR1	0	R1290M
58277.11	0.015	1566901	START	n/a	n/a	n/a	-999	9	[-999, -999, -999]	n/a	FR1	0	R1290M
58277.125	4.769	1566916	PROB	4.769	n/a	n/a	-999	9	[1, 2, 8]	11	FR1	0	R1290M
58281.894	21.916	1571685	PROB	21.916	n/a	n/a	-999	9	[9, 5, 9]	24	FR1	0	R1290M
58303.81	0.021	1593600	STOP	n/a	n/a	n/a	-999	9	[-999, -999, -999]	n/a	FR1	0	R1290M
58303.831	0.666	1593621	DISTRACT_END	n/a	n/a	n/a	-999	9	[0, 0, 0]	n/a	FR1	0	R1290M
58304.497	1.534	1594287	RETRIEVAL_ORIENT_START	n/a	n/a	n/a	-999	9	[0, 0, 0]	n/a	FR1	0	R1290M
58306.031	0.001	1595821	RETRIEVAL_ORIENT_END	n/a	n/a	n/a	-999	9	[0, 0, 0]	n/a	FR1	0	R1290M
58306.032	3.26	1595822	REC_START	n/a	n/a	n/a	-999	9	[0, 0, 0]	n/a	FR1	0	R1290M
58309.292	1.285	1599082	REC_WORD_VV	1.285	n/a	<>	-999	9	[0, 0, 0]	n/a	FR1	0	R1290M
58310.577	2.468	1600367	REC_WORD	2.468	n/a	CUBE	9	9	[0, 0, 0]	n/a	FR1	0	R1290M
58313.045	1.257	1602835	REC_WORD	1.257	n/a	CART	7	9	[0, 0, 0]	n/a	FR1	0	R1290M
58314.302	1.719	1604092	REC_WORD	1.719	n/a	SLUSH	6	9	[0, 0, 0]	n/a	FR1	0	R1290M
58316.021	3.028	1605811	REC_WORD	3.028	n/a	WAVE	2	9	[0, 0, 0]	n/a	FR1	0	R1290M
58319.049	5.807	1608838	REC_WORD_VV	5.807	n/a	<>	-999	9	[0, 0, 0]	n/a	FR1	0	R1290M
58324.856	3.354	1614645	REC_WORD	3.354	n/a	TOOL	5	9	[0, 0, 0]	n/a	FR1	0	R1290M
58328.21	7.832	1617999	REC_WORD_VV	7.832	n/a	<>	-999	9	[0, 0, 0]	n/a	FR1	0	R1290M
58336.042	0.001	1625831	REC_END	n/a	n/a	n/a	-999	9	[0, 0, 0]	n/a	FR1	0	R1290M
58336.043	0.014	1625832	TRIAL_END	n/a	n/a	n/a	-999	9	[0, 0, 0]	n/a	FR1	0	R1290M
58336.057	0.001	1625846	TRIAL_START	n/a	n/a	n/a	-999	10	[0, 0, 0]	n/a	FR1	0	R1290M
58336.058	0.0	1625847	TRIAL	n/a	n/a	n/a	-999	10	[0, 0, 0]	n/a	FR1	0	R1290M
58336.058	4.647	1625847	WAITING_START	n/a	n/a	n/a	-999	10	[0, 0, 0]	n/a	FR1	0	R1290M
58340.705	0.001	1630493	WAITING_END	n/a	n/a	n/a	-999	10	[0, 0, 0]	n/a	FR1	0	R1290M
58340.706	10.43	1630494	COUNTDOWN_START	n/a	n/a	n/a	-999	10	[0, 0, 0]	n/a	FR1	0	R1290M
58351.136	0.001	1640924	COUNTDOWN_END	n/a	n/a	n/a	-999	10	[0, 0, 0]	n/a	FR1	0	R1290M
58351.137	1.204	1640925	ORIENT_START	n/a	n/a	n/a	-999	10	[0, 0, 0]	n/a	FR1	0	R1290M
58352.341	0.001	1642129	ORIENT_END	n/a	n/a	n/a	-999	10	[0, 0, 0]	n/a	FR1	0	R1290M
58352.342	0.818	1642130	ENCODING_START	n/a	n/a	n/a	-999	10	[0, 0, 0]	n/a	FR1	0	R1290M
58353.16	1.614	1642948	WORD	n/a	wordpools/wordpool_EN.txt	WORLD	1	10	[0, 0, 0]	n/a	FR1	0	R1290M
58354.774	0.893	1644562	WORD_OFF	n/a	n/a	WORLD	1	10	[0, 0, 0]	n/a	FR1	0	R1290M
58355.667	1.624	1645455	WORD	n/a	wordpools/wordpool_EN.txt	ELF	2	10	[0, 0, 0]	n/a	FR1	0	R1290M
58357.291	0.962	1647079	WORD_OFF	n/a	n/a	ELF	2	10	[0, 0, 0]	n/a	FR1	0	R1290M
58358.253	1.639	1648041	WORD	n/a	wordpools/wordpool_EN.txt	PEARL	3	10	[0, 0, 0]	n/a	FR1	0	R1290M
58359.892	1.135	1649680	WORD_OFF	n/a	n/a	PEARL	3	10	[0, 0, 0]	n/a	FR1	0	R1290M
58361.027	1.632	1650814	WORD	n/a	wordpools/wordpool_EN.txt	BEACH	4	10	[0, 0, 0]	n/a	FR1	0	R1290M
58362.659	1.101	1652446	WORD_OFF	n/a	n/a	BEACH	4	10	[0, 0, 0]	n/a	FR1	0	R1290M
58363.76	1.633	1653547	WORD	n/a	wordpools/wordpool_EN.txt	CORD	5	10	[0, 0, 0]	n/a	FR1	0	R1290M
58365.393	0.753	1655180	WORD_OFF	n/a	n/a	CORD	5	10	[0, 0, 0]	n/a	FR1	0	R1290M
58366.146	1.631	1655933	WORD	n/a	wordpools/wordpool_EN.txt	CROW	6	10	[0, 0, 0]	n/a	FR1	0	R1290M
58367.777	0.886	1657564	WORD_OFF	n/a	n/a	CROW	6	10	[0, 0, 0]	n/a	FR1	0	R1290M
58368.663	1.63	1658450	WORD	n/a	wordpools/wordpool_EN.txt	SHEET	7	10	[0, 0, 0]	n/a	FR1	0	R1290M
58370.293	0.81	1660080	WORD_OFF	n/a	n/a	SHEET	7	10	[0, 0, 0]	n/a	FR1	0	R1290M
58371.103	1.625	1660890	WORD	n/a	wordpools/wordpool_EN.txt	BENCH	8	10	[0, 0, 0]	n/a	FR1	0	R1290M
58372.728	1.0	1662515	WORD_OFF	n/a	n/a	BENCH	8	10	[0, 0, 0]	n/a	FR1	0	R1290M
58373.728	1.634	1663515	WORD	n/a	wordpools/wordpool_EN.txt	STEM	9	10	[0, 0, 0]	n/a	FR1	0	R1290M
58375.362	1.055	1665149	WORD_OFF	n/a	n/a	STEM	9	10	[0, 0, 0]	n/a	FR1	0	R1290M
58376.417	1.628	1666204	WORD	n/a	wordpools/wordpool_EN.txt	FOAM	10	10	[0, 0, 0]	n/a	FR1	0	R1290M
58378.045	1.04	1667832	WORD_OFF	n/a	n/a	FOAM	10	10	[0, 0, 0]	n/a	FR1	0	R1290M
58379.085	1.628	1668872	WORD	n/a	wordpools/wordpool_EN.txt	BED	11	10	[0, 0, 0]	n/a	FR1	0	R1290M
58380.713	0.936	1670500	WORD_OFF	n/a	n/a	BED	11	10	[0, 0, 0]	n/a	FR1	0	R1290M
58381.649	1.63	1671435	WORD	n/a	wordpools/wordpool_EN.txt	BRIDGE	12	10	[0, 0, 0]	n/a	FR1	0	R1290M
58383.279	0.001	1673065	WORD_OFF	n/a	n/a	BRIDGE	12	10	[0, 0, 0]	n/a	FR1	0	R1290M
58383.28	0.001	1673066	ENCODING_END	n/a	n/a	n/a	-999	10	[0, 0, 0]	n/a	FR1	0	R1290M
58383.281	0.0	1673067	DISTRACT_START	n/a	n/a	n/a	-999	10	[0, 0, 0]	n/a	FR1	0	R1290M
58383.281	0.015	1673067	START	n/a	n/a	n/a	-999	10	[-999, -999, -999]	n/a	FR1	0	R1290M
58383.296	8.602	1673082	PROB	8.602	n/a	n/a	-999	10	[7, 5, 9]	21	FR1	0	R1290M
58391.898	4.468	1681684	PROB	4.468	n/a	n/a	-999	10	[9, 9, 1]	19	FR1	0	R1290M
58396.366	4.3	1686152	PROB	4.3	n/a	n/a	-999	10	[1, 9, 7]	17	FR1	0	R1290M
58400.666	6.795	1690452	PROB	6.795	n/a	n/a	-999	10	[9, 4, 8]	21	FR1	0	R1290M
58407.461	0.007	1697246	STOP	n/a	n/a	n/a	-999	10	[-999, -999, -999]	n/a	FR1	0	R1290M
58407.468	0.507	1697253	DISTRACT_END	n/a	n/a	n/a	-999	10	[0, 0, 0]	n/a	FR1	0	R1290M
58407.975	1.56	1697760	RETRIEVAL_ORIENT_START	n/a	n/a	n/a	-999	10	[0, 0, 0]	n/a	FR1	0	R1290M
58409.535	0.001	1699320	RETRIEVAL_ORIENT_END	n/a	n/a	n/a	-999	10	[0, 0, 0]	n/a	FR1	0	R1290M
58409.536	1.002	1699321	REC_START	n/a	n/a	n/a	-999	10	[0, 0, 0]	n/a	FR1	0	R1290M
58410.538	0.338	1700323	REC_WORD_VV	0.338	n/a	<>	-999	10	[0, 0, 0]	n/a	FR1	0	R1290M
58410.876	1.347	1700661	REC_WORD	1.347	n/a	SHEET	7	10	[0, 0, 0]	n/a	FR1	0	R1290M
58412.223	3.109	1702008	REC_WORD	3.109	n/a	BED	11	10	[0, 0, 0]	n/a	FR1	0	R1290M
58415.332	1.986	1705117	REC_WORD	1.986	n/a	BRIDGE	12	10	[0, 0, 0]	n/a	FR1	0	R1290M
58417.318	1.007	1707103	REC_WORD_VV	1.007	n/a	<>	-999	10	[0, 0, 0]	n/a	FR1	0	R1290M
58418.325	2.936	1708110	REC_WORD	2.936	n/a	CORD	5	10	[0, 0, 0]	n/a	FR1	0	R1290M
58421.261	3.67	1711046	REC_WORD_VV	3.67	n/a	<>	-999	10	[0, 0, 0]	n/a	FR1	0	R1290M
58424.931	5.4	1714715	REC_WORD_VV	5.4	n/a	<>	-999	10	[0, 0, 0]	n/a	FR1	0	R1290M
58430.331	5.974	1720115	REC_WORD	5.974	n/a	SHELF	-999	10	[0, 0, 0]	n/a	FR1	0	R1290M
58436.305	3.24	1726089	REC_WORD_VV	3.24	n/a	<>	-999	10	[0, 0, 0]	n/a	FR1	0	R1290M
58439.545	0.001	1729329	REC_END	n/a	n/a	n/a	-999	10	[0, 0, 0]	n/a	FR1	0	R1290M
58439.546	0.013	1729330	TRIAL_END	n/a	n/a	n/a	-999	10	[0, 0, 0]	n/a	FR1	0	R1290M
58439.559	0.001	1729343	TRIAL_START	n/a	n/a	n/a	-999	11	[0, 0, 0]	n/a	FR1	0	R1290M
58439.56	0.0	1729344	TRIAL	n/a	n/a	n/a	-999	11	[0, 0, 0]	n/a	FR1	0	R1290M
58439.56	38.654	1729344	WAITING_START	n/a	n/a	n/a	-999	11	[0, 0, 0]	n/a	FR1	0	R1290M
58478.214	0.001	1767996	WAITING_END	n/a	n/a	n/a	-999	11	[0, 0, 0]	n/a	FR1	0	R1290M
58478.215	10.43	1767997	COUNTDOWN_START	n/a	n/a	n/a	-999	11	[0, 0, 0]	n/a	FR1	0	R1290M
58488.645	0.001	1778426	COUNTDOWN_END	n/a	n/a	n/a	-999	11	[0, 0, 0]	n/a	FR1	0	R1290M
58488.646	1.021	1778427	ORIENT_START	n/a	n/a	n/a	-999	11	[0, 0, 0]	n/a	FR1	0	R1290M
58489.667	0.001	1779448	ORIENT_END	n/a	n/a	n/a	-999	11	[0, 0, 0]	n/a	FR1	0	R1290M
58489.668	0.759	1779449	ENCODING_START	n/a	n/a	n/a	-999	11	[0, 0, 0]	n/a	FR1	0	R1290M
58490.427	1.623	1780208	WORD	n/a	wordpools/wordpool_EN.txt	ROCK	1	11	[0, 0, 0]	n/a	FR1	0	R1290M
58492.05	0.868	1781831	WORD_OFF	n/a	n/a	ROCK	1	11	[0, 0, 0]	n/a	FR1	0	R1290M
58492.918	1.634	1782699	WORD	n/a	wordpools/wordpool_EN.txt	PLANE	2	11	[0, 0, 0]	n/a	FR1	0	R1290M
58494.552	1.14	1784333	WORD_OFF	n/a	n/a	PLANE	2	11	[0, 0, 0]	n/a	FR1	0	R1290M
58495.692	1.626	1785473	WORD	n/a	wordpools/wordpool_EN.txt	PET	3	11	[0, 0, 0]	n/a	FR1	0	R1290M
58497.318	0.841	1787099	WORD_OFF	n/a	n/a	PET	3	11	[0, 0, 0]	n/a	FR1	0	R1290M
58498.159	1.627	1787940	WORD	n/a	wordpools/wordpool_EN.txt	TRAIN	4	11	[0, 0, 0]	n/a	FR1	0	R1290M
58499.786	0.922	1789567	WORD_OFF	n/a	n/a	TRAIN	4	11	[0, 0, 0]	n/a	FR1	0	R1290M
58500.708	1.628	1790489	WORD	n/a	wordpools/wordpool_EN.txt	SPOON	5	11	[0, 0, 0]	n/a	FR1	0	R1290M
58502.336	0.832	1792117	WORD_OFF	n/a	n/a	SPOON	5	11	[0, 0, 0]	n/a	FR1	0	R1290M
58503.168	1.619	1792949	WORD	n/a	wordpools/wordpool_EN.txt	TEA	6	11	[0, 0, 0]	n/a	FR1	0	R1290M
58504.787	1.144	1794568	WORD_OFF	n/a	n/a	TEA	6	11	[0, 0, 0]	n/a	FR1	0	R1290M
58505.931	1.623	1795712	WORD	n/a	wordpools/wordpool_EN.txt	BADGE	7	11	[0, 0, 0]	n/a	FR1	0	R1290M
58507.554	0.957	1797335	WORD_OFF	n/a	n/a	BADGE	7	11	[0, 0, 0]	n/a	FR1	0	R1290M
58508.511	1.626	1798291	WORD	n/a	wordpools/wordpool_EN.txt	BANK	8	11	[0, 0, 0]	n/a	FR1	0	R1290M
58510.137	0.845	1799917	WORD_OFF	n/a	n/a	BANK	8	11	[0, 0, 0]	n/a	FR1	0	R1290M
58510.982	1.623	1800762	WORD	n/a	wordpools/wordpool_EN.txt	HORN	9	11	[0, 0, 0]	n/a	FR1	0	R1290M
58512.605	0.845	1802385	WORD_OFF	n/a	n/a	HORN	9	11	[0, 0, 0]	n/a	FR1	0	R1290M
58513.45	1.638	1803230	WORD	n/a	wordpools/wordpool_EN.txt	STRING	10	11	[0, 0, 0]	n/a	FR1	0	R1290M
58515.088	1.143	1804868	WORD_OFF	n/a	n/a	STRING	10	11	[0, 0, 0]	n/a	FR1	0	R1290M
58516.231	1.625	1806011	WORD	n/a	wordpools/wordpool_EN.txt	KITE	11	11	[0, 0, 0]	n/a	FR1	0	R1290M
58517.856	1.117	1807636	WORD_OFF	n/a	n/a	KITE	11	11	[0, 0, 0]	n/a	FR1	0	R1290M
58518.973	1.634	1808753	WORD	n/a	wordpools/wordpool_EN.txt	BAG	12	11	[0, 0, 0]	n/a	FR1	0	R1290M
58520.607	0.001	1810387	WORD_OFF	n/a	n/a	BAG	12	11	[0, 0, 0]	n/a	FR1	0	R1290M
58520.608	0.0	1810388	ENCODING_END	n/a	n/a	n/a	-999	11	[0, 0, 0]	n/a	FR1	0	R1290M
58520.608	0.001	1810388	DISTRACT_START	n/a	n/a	n/a	-999	11	[0, 0, 0]	n/a	FR1	0	R1290M
58520.609	0.014	1810389	START	n/a	n/a	n/a	-999	11	[-999, -999, -999]	n/a	FR1	0	R1290M
58520.623	10.418	1810403	PROB	10.418	n/a	n/a	-999	11	[8, 5, 8]	21	FR1	0	R1290M
58531.041	3.835	1820820	PROB	3.835	n/a	n/a	-999	11	[6, 4, 7]	17	FR1	0	R1290M
58534.876	7.63	1824655	PROB	7.63	n/a	n/a	-999	11	[6, 5, 9]	20	FR1	0	R1290M
58542.506	0.021	1832285	STOP	n/a	n/a	n/a	-999	11	[-999, -999, -999]	n/a	FR1	0	R1290M
58542.527	0.548	1832306	DISTRACT_END	n/a	n/a	n/a	-999	11	[0, 0, 0]	n/a	FR1	0	R1290M
58543.075	1.619	1832854	RETRIEVAL_ORIENT_START	n/a	n/a	n/a	-999	11	[0, 0, 0]	n/a	FR1	0	R1290M
58544.694	0.001	1834473	RETRIEVAL_ORIENT_END	n/a	n/a	n/a	-999	11	[0, 0, 0]	n/a	FR1	0	R1290M
58544.695	0.953	1834474	REC_START	n/a	n/a	n/a	-999	11	[0, 0, 0]	n/a	FR1	0	R1290M
58545.648	0.608	1835427	REC_WORD	0.608	n/a	PET	3	11	[0, 0, 0]	n/a	FR1	0	R1290M
58546.256	1.199	1836035	REC_WORD	1.199	n/a	SPOON	5	11	[0, 0, 0]	n/a	FR1	0	R1290M
58547.455	2.512	1837234	REC_WORD	2.512	n/a	PLANE	2	11	[0, 0, 0]	n/a	FR1	0	R1290M
58549.967	1.997	1839745	REC_WORD	1.997	n/a	TRAIN	4	11	[0, 0, 0]	n/a	FR1	0	R1290M
58551.964	3.188	1841742	REC_WORD	3.188	n/a	KITE	11	11	[0, 0, 0]	n/a	FR1	0	R1290M
58555.152	7.725	1844930	REC_WORD_VV	7.725	n/a	<>	-999	11	[0, 0, 0]	n/a	FR1	0	R1290M
58562.877	5.512	1852655	REC_WORD_VV	5.512	n/a	<>	-999	11	[0, 0, 0]	n/a	FR1	0	R1290M
58568.389	6.315	1858167	REC_WORD_VV	6.315	n/a	<>	-999	11	[0, 0, 0]	n/a	FR1	0	R1290M
58574.704	0.001	1864481	REC_END	n/a	n/a	n/a	-999	11	[0, 0, 0]	n/a	FR1	0	R1290M
58574.705	0.015	1864482	TRIAL_END	n/a	n/a	n/a	-999	11	[0, 0, 0]	n/a	FR1	0	R1290M
58574.72	0.001	1864497	TRIAL_START	n/a	n/a	n/a	-999	12	[0, 0, 0]	n/a	FR1	0	R1290M
58574.721	0.0	1864498	WAITING_START	n/a	n/a	n/a	-999	12	[0, 0, 0]	n/a	FR1	0	R1290M
58574.721	10.915	1864498	TRIAL	n/a	n/a	n/a	-999	12	[0, 0, 0]	n/a	FR1	0	R1290M
58585.636	0.001	1875413	WAITING_END	n/a	n/a	n/a	-999	12	[0, 0, 0]	n/a	FR1	0	R1290M
58585.637	10.429	1875414	COUNTDOWN_START	n/a	n/a	n/a	-999	12	[0, 0, 0]	n/a	FR1	0	R1290M
58596.066	0.001	1885842	COUNTDOWN_END	n/a	n/a	n/a	-999	12	[0, 0, 0]	n/a	FR1	0	R1290M
58596.067	1.17	1885843	ORIENT_START	n/a	n/a	n/a	-999	12	[0, 0, 0]	n/a	FR1	0	R1290M
58597.237	0.001	1887013	ORIENT_END	n/a	n/a	n/a	-999	12	[0, 0, 0]	n/a	FR1	0	R1290M
58597.238	0.873	1887014	ENCODING_START	n/a	n/a	n/a	-999	12	[0, 0, 0]	n/a	FR1	0	R1290M
58598.111	1.627	1887887	WORD	n/a	wordpools/wordpool_EN.txt	VEST	1	12	[0, 0, 0]	n/a	FR1	0	R1290M
58599.738	1.069	1889514	WORD_OFF	n/a	n/a	VEST	1	12	[0, 0, 0]	n/a	FR1	0	R1290M
58600.807	1.632	1890583	WORD	n/a	wordpools/wordpool_EN.txt	PIPE	2	12	[0, 0, 0]	n/a	FR1	0	R1290M
58602.439	1.129	1892215	WORD_OFF	n/a	n/a	PIPE	2	12	[0, 0, 0]	n/a	FR1	0	R1290M
58603.568	1.637	1893344	WORD	n/a	wordpools/wordpool_EN.txt	STEAM	3	12	[0, 0, 0]	n/a	FR1	0	R1290M
58605.205	1.01	1894981	WORD_OFF	n/a	n/a	STEAM	3	12	[0, 0, 0]	n/a	FR1	0	R1290M
58606.215	1.608	1895991	WORD	n/a	wordpools/wordpool_EN.txt	SPRING	4	12	[0, 0, 0]	n/a	FR1	0	R1290M
58607.823	1.073	1897599	WORD_OFF	n/a	n/a	SPRING	4	12	[0, 0, 0]	n/a	FR1	0	R1290M
58608.896	1.628	1898672	WORD	n/a	wordpools/wordpool_EN.txt	SNAKE	5	12	[0, 0, 0]	n/a	FR1	0	R1290M
58610.524	0.973	1900300	WORD_OFF	n/a	n/a	SNAKE	5	12	[0, 0, 0]	n/a	FR1	0	R1290M
58611.497	1.627	1901273	WORD	n/a	wordpools/wordpool_EN.txt	MUD	6	12	[0, 0, 0]	n/a	FR1	0	R1290M
58613.124	0.763	1902900	WORD_OFF	n/a	n/a	MUD	6	12	[0, 0, 0]	n/a	FR1	0	R1290M
58613.887	1.638	1903662	WORD	n/a	wordpools/wordpool_EN.txt	FLOOR	7	12	[0, 0, 0]	n/a	FR1	0	R1290M
58615.525	0.794	1905300	WORD_OFF	n/a	n/a	FLOOR	7	12	[0, 0, 0]	n/a	FR1	0	R1290M
58616.319	1.64	1906094	WORD	n/a	wordpools/wordpool_EN.txt	SWORD	8	12	[0, 0, 0]	n/a	FR1	0	R1290M
58617.959	0.98	1907734	WORD_OFF	n/a	n/a	SWORD	8	12	[0, 0, 0]	n/a	FR1	0	R1290M
58618.939	1.637	1908714	WORD	n/a	wordpools/wordpool_EN.txt	PLANT	9	12	[0, 0, 0]	n/a	FR1	0	R1290M
58620.576	1.111	1910351	WORD_OFF	n/a	n/a	PLANT	9	12	[0, 0, 0]	n/a	FR1	0	R1290M
58621.687	1.622	1911462	WORD	n/a	wordpools/wordpool_EN.txt	FOX	10	12	[0, 0, 0]	n/a	FR1	0	R1290M
58623.309	0.82	1913084	WORD_OFF	n/a	n/a	FOX	10	12	[0, 0, 0]	n/a	FR1	0	R1290M
58624.129	1.614	1913904	WORD	n/a	wordpools/wordpool_EN.txt	RAT	11	12	[0, 0, 0]	n/a	FR1	0	R1290M
58625.743	0.892	1915518	WORD_OFF	n/a	n/a	RAT	11	12	[0, 0, 0]	n/a	FR1	0	R1290M
58626.635	1.625	1916410	WORD	n/a	wordpools/wordpool_EN.txt	ARM	12	12	[0, 0, 0]	n/a	FR1	0	R1290M
58628.26	0.001	1918035	WORD_OFF	n/a	n/a	ARM	12	12	[0, 0, 0]	n/a	FR1	0	R1290M
58628.261	0.0	1918036	ENCODING_END	n/a	n/a	n/a	-999	12	[0, 0, 0]	n/a	FR1	0	R1290M
58628.261	0.001	1918036	DISTRACT_START	n/a	n/a	n/a	-999	12	[0, 0, 0]	n/a	FR1	0	R1290M
58628.262	0.014	1918037	START	n/a	n/a	n/a	-999	12	[-999, -999, -999]	n/a	FR1	0	R1290M
58628.276	11.603	1918051	PROB	11.603	n/a	n/a	-999	12	[9, 6, 6]	21	FR1	0	R1290M
58639.879	7.552	1929653	PROB	7.552	n/a	n/a	-999	12	[5, 7, 1]	13	FR1	0	R1290M
58647.431	5.653	1937205	PROB	5.653	n/a	n/a	-999	12	[1, 2, 5]	8	FR1	0	R1290M
58653.084	0.014	1942858	STOP	n/a	n/a	n/a	-999	12	[-999, -999, -999]	n/a	FR1	0	R1290M
58653.098	0.593	1942872	DISTRACT_END	n/a	n/a	n/a	-999	12	[0, 0, 0]	n/a	FR1	0	R1290M
58653.691	1.675	1943465	RETRIEVAL_ORIENT_START	n/a	n/a	n/a	-999	12	[0, 0, 0]	n/a	FR1	0	R1290M
58655.366	0.0	1945140	RETRIEVAL_ORIENT_END	n/a	n/a	n/a	-999	12	[0, 0, 0]	n/a	FR1	0	R1290M
58655.366	0.893	1945140	REC_START	n/a	n/a	n/a	-999	12	[0, 0, 0]	n/a	FR1	0	R1290M
58656.259	0.953	1946032	REC_WORD	0.953	n/a	FOX	10	12	[0, 0, 0]	n/a	FR1	0	R1290M
58657.212	1.399	1946985	REC_WORD	1.399	n/a	SNAKE	5	12	[0, 0, 0]	n/a	FR1	0	R1290M
58658.611	1.462	1948384	REC_WORD	1.462	n/a	MUD	6	12	[0, 0, 0]	n/a	FR1	0	R1290M
58660.073	2.682	1949846	REC_WORD	2.682	n/a	FLOOR	7	12	[0, 0, 0]	n/a	FR1	0	R1290M
58662.755	3.115	1952528	REC_WORD	3.115	n/a	RAT	11	12	[0, 0, 0]	n/a	FR1	0	R1290M
58665.87	19.508	1955643	REC_WORD_VV	19.508	n/a	<>	-999	12	[0, 0, 0]	n/a	FR1	0	R1290M
58685.378	0.0	1975150	REC_END	n/a	n/a	n/a	-999	12	[0, 0, 0]	n/a	FR1	0	R1290M
58685.378	0.016	1975150	TRIAL_END	n/a	n/a	n/a	-999	12	[0, 0, 0]	n/a	FR1	0	R1290M
58685.394	0.001	1975166	TRIAL_START	n/a	n/a	n/a	-999	13	[0, 0, 0]	n/a	FR1	0	R1290M
58685.395	0.0	1975167	TRIAL	n/a	n/a	n/a	-999	13	[0, 0, 0]	n/a	FR1	0	R1290M
58685.395	3.361	1975167	WAITING_START	n/a	n/a	n/a	-999	13	[0, 0, 0]	n/a	FR1	0	R1290M
58688.756	0.001	1978528	WAITING_END	n/a	n/a	n/a	-999	13	[0, 0, 0]	n/a	FR1	0	R1290M
58688.757	10.429	1978529	COUNTDOWN_START	n/a	n/a	n/a	-999	13	[0, 0, 0]	n/a	FR1	0	R1290M
58699.186	0.001	1988957	COUNTDOWN_END	n/a	n/a	n/a	-999	13	[0, 0, 0]	n/a	FR1	0	R1290M
58699.187	1.188	1988958	ORIENT_START	n/a	n/a	n/a	-999	13	[0, 0, 0]	n/a	FR1	0	R1290M
58700.375	0.001	1990146	ORIENT_END	n/a	n/a	n/a	-999	13	[0, 0, 0]	n/a	FR1	0	R1290M
58700.376	1.102	1990147	ENCODING_START	n/a	n/a	n/a	-999	13	[0, 0, 0]	n/a	FR1	0	R1290M
58701.478	1.629	1991249	WORD	n/a	wordpools/wordpool_EN.txt	BOWL	1	13	[0, 0, 0]	n/a	FR1	0	R1290M
58703.107	1.145	1992878	WORD_OFF	n/a	n/a	BOWL	1	13	[0, 0, 0]	n/a	FR1	0	R1290M
58704.252	1.607	1994023	WORD	n/a	wordpools/wordpool_EN.txt	BALL	2	13	[0, 0, 0]	n/a	FR1	0	R1290M
58705.859	0.963	1995630	WORD_OFF	n/a	n/a	BALL	2	13	[0, 0, 0]	n/a	FR1	0	R1290M
58706.822	1.638	1996593	WORD	n/a	wordpools/wordpool_EN.txt	PANTS	3	13	[0, 0, 0]	n/a	FR1	0	R1290M
58708.46	0.868	1998231	WORD_OFF	n/a	n/a	PANTS	3	13	[0, 0, 0]	n/a	FR1	0	R1290M
58709.328	1.632	1999099	WORD	n/a	wordpools/wordpool_EN.txt	SINK	4	13	[0, 0, 0]	n/a	FR1	0	R1290M
58710.96	0.913	2000731	WORD_OFF	n/a	n/a	SINK	4	13	[0, 0, 0]	n/a	FR1	0	R1290M
58711.873	1.637	2001644	WORD	n/a	wordpools/wordpool_EN.txt	PASTE	5	13	[0, 0, 0]	n/a	FR1	0	R1290M
58713.51	0.861	2003281	WORD_OFF	n/a	n/a	PASTE	5	13	[0, 0, 0]	n/a	FR1	0	R1290M
58714.371	1.622	2004142	WORD	n/a	wordpools/wordpool_EN.txt	CHEEK	6	13	[0, 0, 0]	n/a	FR1	0	R1290M
58715.993	0.95	2005764	WORD_OFF	n/a	n/a	CHEEK	6	13	[0, 0, 0]	n/a	FR1	0	R1290M
58716.943	1.635	2006714	WORD	n/a	wordpools/wordpool_EN.txt	CONE	7	13	[0, 0, 0]	n/a	FR1	0	R1290M
58718.578	0.795	2008349	WORD_OFF	n/a	n/a	CONE	7	13	[0, 0, 0]	n/a	FR1	0	R1290M
58719.373	1.621	2009143	WORD	n/a	wordpools/wordpool_EN.txt	ROSE	8	13	[0, 0, 0]	n/a	FR1	0	R1290M
58720.994	0.828	2010764	WORD_OFF	n/a	n/a	ROSE	8	13	[0, 0, 0]	n/a	FR1	0	R1290M
58721.822	1.624	2011592	WORD	n/a	wordpools/wordpool_EN.txt	LOCK	9	13	[0, 0, 0]	n/a	FR1	0	R1290M
58723.446	0.786	2013216	WORD_OFF	n/a	n/a	LOCK	9	13	[0, 0, 0]	n/a	FR1	0	R1290M
58724.232	1.631	2014002	WORD	n/a	wordpools/wordpool_EN.txt	SMILE	10	13	[0, 0, 0]	n/a	FR1	0	R1290M
58725.863	1.025	2015633	WORD_OFF	n/a	n/a	SMILE	10	13	[0, 0, 0]	n/a	FR1	0	R1290M
58726.888	1.625	2016658	WORD	n/a	wordpools/wordpool_EN.txt	CLOCK	11	13	[0, 0, 0]	n/a	FR1	0	R1290M
58728.513	1.126	2018283	WORD_OFF	n/a	n/a	CLOCK	11	13	[0, 0, 0]	n/a	FR1	0	R1290M
58729.639	1.624	2019409	WORD	n/a	wordpools/wordpool_EN.txt	PIE	12	13	[0, 0, 0]	n/a	FR1	0	R1290M
58731.263	0.001	2021033	WORD_OFF	n/a	n/a	PIE	12	13	[0, 0, 0]	n/a	FR1	0	R1290M
58731.264	0.001	2021034	ENCODING_END	n/a	n/a	n/a	-999	13	[0, 0, 0]	n/a	FR1	0	R1290M
58731.265	0.0	2021035	DISTRACT_START	n/a	n/a	n/a	-999	13	[0, 0, 0]	n/a	FR1	0	R1290M
58731.265	0.014	2021035	START	n/a	n/a	n/a	-999	13	[-999, -999, -999]	n/a	FR1	0	R1290M
58731.279	5.785	2021049	PROB	5.785	n/a	n/a	-999	13	[7, 5, 8]	20	FR1	0	R1290M
58737.064	10.018	2026834	PROB	10.018	n/a	n/a	-999	13	[6, 3, 5]	14	FR1	0	R1290M
58747.082	4.717	2036851	PROB	4.717	n/a	n/a	-999	13	[4, 4, 9]	17	FR1	0	R1290M
58751.799	0.019	2041568	STOP	n/a	n/a	n/a	-999	13	[-999, -999, -999]	n/a	FR1	0	R1290M
58751.818	0.584	2041587	DISTRACT_END	n/a	n/a	n/a	-999	13	[0, 0, 0]	n/a	FR1	0	R1290M
58752.402	1.699	2042171	RETRIEVAL_ORIENT_START	n/a	n/a	n/a	-999	13	[0, 0, 0]	n/a	FR1	0	R1290M
58754.101	0.0	2043870	RETRIEVAL_ORIENT_END	n/a	n/a	n/a	-999	13	[0, 0, 0]	n/a	FR1	0	R1290M
58754.101	1.669	2043870	REC_START	n/a	n/a	n/a	-999	13	[0, 0, 0]	n/a	FR1	0	R1290M
58755.77	1.015	2045539	REC_WORD	1.015	n/a	CHEEK	6	13	[0, 0, 0]	n/a	FR1	0	R1290M
58756.785	3.543	2046554	REC_WORD	3.543	n/a	ROSE	8	13	[0, 0, 0]	n/a	FR1	0	R1290M
58760.328	12.427	2050097	REC_WORD	12.427	n/a	PANTS	3	13	[0, 0, 0]	n/a	FR1	0	R1290M
58772.755	11.357	2062523	REC_WORD_VV	11.357	n/a	<>	-999	13	[0, 0, 0]	n/a	FR1	0	R1290M
58784.112	0.0	2073879	REC_END	n/a	n/a	n/a	-999	13	[0, 0, 0]	n/a	FR1	0	R1290M
58784.112	0.016	2073879	TRIAL_END	n/a	n/a	n/a	-999	13	[0, 0, 0]	n/a	FR1	0	R1290M
58784.128	0.0	2073895	TRIAL	n/a	n/a	n/a	-999	14	[0, 0, 0]	n/a	FR1	0	R1290M
58784.128	0.001	2073895	TRIAL_START	n/a	n/a	n/a	-999	14	[0, 0, 0]	n/a	FR1	0	R1290M
58784.129	3.928	2073896	WAITING_START	n/a	n/a	n/a	-999	14	[0, 0, 0]	n/a	FR1	0	R1290M
58788.057	0.001	2077824	WAITING_END	n/a	n/a	n/a	-999	14	[0, 0, 0]	n/a	FR1	0	R1290M
58788.058	10.431	2077825	COUNTDOWN_START	n/a	n/a	n/a	-999	14	[0, 0, 0]	n/a	FR1	0	R1290M
58798.489	0.001	2088256	COUNTDOWN_END	n/a	n/a	n/a	-999	14	[0, 0, 0]	n/a	FR1	0	R1290M
58798.49	1.087	2088257	ORIENT_START	n/a	n/a	n/a	-999	14	[0, 0, 0]	n/a	FR1	0	R1290M
58799.577	0.001	2089344	ORIENT_END	n/a	n/a	n/a	-999	14	[0, 0, 0]	n/a	FR1	0	R1290M
58799.578	1.062	2089345	ENCODING_START	n/a	n/a	n/a	-999	14	[0, 0, 0]	n/a	FR1	0	R1290M
58800.64	1.637	2090407	WORD	n/a	wordpools/wordpool_EN.txt	GRAPE	1	14	[0, 0, 0]	n/a	FR1	0	R1290M
58802.277	0.781	2092044	WORD_OFF	n/a	n/a	GRAPE	1	14	[0, 0, 0]	n/a	FR1	0	R1290M
58803.058	1.637	2092825	WORD	n/a	wordpools/wordpool_EN.txt	HORSE	2	14	[0, 0, 0]	n/a	FR1	0	R1290M
58804.695	0.833	2094461	WORD_OFF	n/a	n/a	HORSE	2	14	[0, 0, 0]	n/a	FR1	0	R1290M
58805.528	1.633	2095294	WORD	n/a	wordpools/wordpool_EN.txt	CORN	3	14	[0, 0, 0]	n/a	FR1	0	R1290M
58807.161	0.836	2096927	WORD_OFF	n/a	n/a	CORN	3	14	[0, 0, 0]	n/a	FR1	0	R1290M
58807.997	1.632	2097763	WORD	n/a	wordpools/wordpool_EN.txt	SWAMP	4	14	[0, 0, 0]	n/a	FR1	0	R1290M
58809.629	0.993	2099395	WORD_OFF	n/a	n/a	SWAMP	4	14	[0, 0, 0]	n/a	FR1	0	R1290M
58810.622	1.623	2100388	WORD	n/a	wordpools/wordpool_EN.txt	JET	5	14	[0, 0, 0]	n/a	FR1	0	R1290M
58812.245	0.885	2102011	WORD_OFF	n/a	n/a	JET	5	14	[0, 0, 0]	n/a	FR1	0	R1290M
58813.13	1.633	2102896	WORD	n/a	wordpools/wordpool_EN.txt	EEL	6	14	[0, 0, 0]	n/a	FR1	0	R1290M
58814.763	1.113	2104529	WORD_OFF	n/a	n/a	EEL	6	14	[0, 0, 0]	n/a	FR1	0	R1290M
58815.876	1.621	2105642	WORD	n/a	wordpools/wordpool_EN.txt	SHIP	7	14	[0, 0, 0]	n/a	FR1	0	R1290M
58817.497	0.895	2107263	WORD_OFF	n/a	n/a	SHIP	7	14	[0, 0, 0]	n/a	FR1	0	R1290M
58818.392	1.638	2108158	WORD	n/a	wordpools/wordpool_EN.txt	PRINCE	8	14	[0, 0, 0]	n/a	FR1	0	R1290M
58820.03	0.81	2109796	WORD_OFF	n/a	n/a	PRINCE	8	14	[0, 0, 0]	n/a	FR1	0	R1290M
58820.84	1.625	2110606	WORD	n/a	wordpools/wordpool_EN.txt	TAIL	9	14	[0, 0, 0]	n/a	FR1	0	R1290M
58822.465	1.021	2112231	WORD_OFF	n/a	n/a	TAIL	9	14	[0, 0, 0]	n/a	FR1	0	R1290M
58823.486	1.629	2113252	WORD	n/a	wordpools/wordpool_EN.txt	FISH	10	14	[0, 0, 0]	n/a	FR1	0	R1290M
58825.115	0.854	2114880	WORD_OFF	n/a	n/a	FISH	10	14	[0, 0, 0]	n/a	FR1	0	R1290M
58825.969	1.63	2115734	WORD	n/a	wordpools/wordpool_EN.txt	SIGN	11	14	[0, 0, 0]	n/a	FR1	0	R1290M
58827.599	0.989	2117364	WORD_OFF	n/a	n/a	SIGN	11	14	[0, 0, 0]	n/a	FR1	0	R1290M
58828.588	1.627	2118353	WORD	n/a	wordpools/wordpool_EN.txt	CLOUD	12	14	[0, 0, 0]	n/a	FR1	0	R1290M
58830.215	0.001	2119980	WORD_OFF	n/a	n/a	CLOUD	12	14	[0, 0, 0]	n/a	FR1	0	R1290M
58830.216	0.001	2119981	ENCODING_END	n/a	n/a	n/a	-999	14	[0, 0, 0]	n/a	FR1	0	R1290M
58830.217	0.0	2119982	DISTRACT_START	n/a	n/a	n/a	-999	14	[0, 0, 0]	n/a	FR1	0	R1290M
58830.217	0.015	2119982	START	n/a	n/a	n/a	-999	14	[-999, -999, -999]	n/a	FR1	0	R1290M
58830.232	5.568	2119997	PROB	5.568	n/a	n/a	-999	14	[1, 4, 9]	14	FR1	0	R1290M
58835.8	5.918	2125565	PROB	5.918	n/a	n/a	-999	14	[6, 5, 6]	17	FR1	0	R1290M
58841.718	4.467	2131483	PROB	4.467	n/a	n/a	-999	14	[2, 5, 7]	14	FR1	0	R1290M
58846.185	4.858	2135949	PROB	4.858	n/a	n/a	-999	14	[8, 9, 4]	21	FR1	0	R1290M
58851.043	0.01	2140807	STOP	n/a	n/a	n/a	-999	14	[-999, -999, -999]	n/a	FR1	0	R1290M
58851.053	0.659	2140817	DISTRACT_END	n/a	n/a	n/a	-999	14	[0, 0, 0]	n/a	FR1	0	R1290M
58851.712	1.591	2141476	RETRIEVAL_ORIENT_START	n/a	n/a	n/a	-999	14	[0, 0, 0]	n/a	FR1	0	R1290M
58853.303	0.001	2143067	RETRIEVAL_ORIENT_END	n/a	n/a	n/a	-999	14	[0, 0, 0]	n/a	FR1	0	R1290M
58853.304	1.379	2143068	REC_START	n/a	n/a	n/a	-999	14	[0, 0, 0]	n/a	FR1	0	R1290M
58854.683	1.585	2144447	REC_WORD	1.585	n/a	HORSE	2	14	[0, 0, 0]	n/a	FR1	0	R1290M
58856.268	1.956	2146032	REC_WORD	1.956	n/a	GRAPE	1	14	[0, 0, 0]	n/a	FR1	0	R1290M
58858.224	1.433	2147988	REC_WORD	1.433	n/a	FISH	10	14	[0, 0, 0]	n/a	FR1	0	R1290M
58859.657	1.835	2149421	REC_WORD	1.835	n/a	TAIL	9	14	[0, 0, 0]	n/a	FR1	0	R1290M
58861.492	4.163	2151256	REC_WORD	4.163	n/a	PRINCE	8	14	[0, 0, 0]	n/a	FR1	0	R1290M
58865.655	8.239	2155419	REC_WORD_VV	8.239	n/a	<>	-999	14	[0, 0, 0]	n/a	FR1	0	R1290M
58873.894	7.598	2163657	REC_WORD_VV	7.598	n/a	<>	-999	14	[0, 0, 0]	n/a	FR1	0	R1290M
58881.492	1.461	2171255	REC_WORD	1.461	n/a	PLANE	-999	14	[0, 0, 0]	n/a	FR1	0	R1290M
58882.953	0.362	2172716	REC_WORD_VV	0.362	n/a	<>	-999	14	[0, 0, 0]	n/a	FR1	0	R1290M
58883.315	0.001	2173078	REC_END	n/a	n/a	n/a	-999	14	[0, 0, 0]	n/a	FR1	0	R1290M
58883.316	0.017	2173079	TRIAL_END	n/a	n/a	n/a	-999	14	[0, 0, 0]	n/a	FR1	0	R1290M
58883.333	0.0	2173096	TRIAL	n/a	n/a	n/a	-999	15	[0, 0, 0]	n/a	FR1	0	R1290M
58883.333	0.001	2173096	TRIAL_START	n/a	n/a	n/a	-999	15	[0, 0, 0]	n/a	FR1	0	R1290M
58883.334	21.38	2173097	WAITING_START	n/a	n/a	n/a	-999	15	[0, 0, 0]	n/a	FR1	0	R1290M
58904.714	0.001	2194476	WAITING_END	n/a	n/a	n/a	-999	15	[0, 0, 0]	n/a	FR1	0	R1290M
58904.715	10.43	2194477	COUNTDOWN_START	n/a	n/a	n/a	-999	15	[0, 0, 0]	n/a	FR1	0	R1290M
58915.145	0.0	2204906	COUNTDOWN_END	n/a	n/a	n/a	-999	15	[0, 0, 0]	n/a	FR1	0	R1290M
58915.145	1.087	2204906	ORIENT_START	n/a	n/a	n/a	-999	15	[0, 0, 0]	n/a	FR1	0	R1290M
58916.232	0.001	2205993	ORIENT_END	n/a	n/a	n/a	-999	15	[0, 0, 0]	n/a	FR1	0	R1290M
58916.233	1.084	2205994	ENCODING_START	n/a	n/a	n/a	-999	15	[0, 0, 0]	n/a	FR1	0	R1290M
58917.317	1.633	2207078	WORD	n/a	wordpools/wordpool_EN.txt	NAIL	1	15	[0, 0, 0]	n/a	FR1	0	R1290M
58918.95	1.131	2208711	WORD_OFF	n/a	n/a	NAIL	1	15	[0, 0, 0]	n/a	FR1	0	R1290M
58920.081	1.619	2209842	WORD	n/a	wordpools/wordpool_EN.txt	POOL	2	15	[0, 0, 0]	n/a	FR1	0	R1290M
58921.7	0.979	2211461	WORD_OFF	n/a	n/a	POOL	2	15	[0, 0, 0]	n/a	FR1	0	R1290M
58922.679	1.621	2212440	WORD	n/a	wordpools/wordpool_EN.txt	GLASS	3	15	[0, 0, 0]	n/a	FR1	0	R1290M
58924.3	0.94	2214061	WORD_OFF	n/a	n/a	GLASS	3	15	[0, 0, 0]	n/a	FR1	0	R1290M
58925.24	1.612	2215001	WORD	n/a	wordpools/wordpool_EN.txt	PEACH	4	15	[0, 0, 0]	n/a	FR1	0	R1290M
58926.852	1.099	2216613	WORD_OFF	n/a	n/a	PEACH	4	15	[0, 0, 0]	n/a	FR1	0	R1290M
58927.951	1.634	2217712	WORD	n/a	wordpools/wordpool_EN.txt	BLOOM	5	15	[0, 0, 0]	n/a	FR1	0	R1290M
58929.585	1.111	2219346	WORD_OFF	n/a	n/a	BLOOM	5	15	[0, 0, 0]	n/a	FR1	0	R1290M
58930.696	1.622	2220456	WORD	n/a	wordpools/wordpool_EN.txt	SNOW	6	15	[0, 0, 0]	n/a	FR1	0	R1290M
58932.318	0.951	2222078	WORD_OFF	n/a	n/a	SNOW	6	15	[0, 0, 0]	n/a	FR1	0	R1290M
58933.269	1.634	2223029	WORD	n/a	wordpools/wordpool_EN.txt	YARD	7	15	[0, 0, 0]	n/a	FR1	0	R1290M
58934.903	0.776	2224663	WORD_OFF	n/a	n/a	YARD	7	15	[0, 0, 0]	n/a	FR1	0	R1290M
58935.679	1.624	2225439	WORD	n/a	wordpools/wordpool_EN.txt	FACE	8	15	[0, 0, 0]	n/a	FR1	0	R1290M
58937.303	1.091	2227063	WORD_OFF	n/a	n/a	FACE	8	15	[0, 0, 0]	n/a	FR1	0	R1290M
58938.394	1.626	2228154	WORD	n/a	wordpools/wordpool_EN.txt	SKI	9	15	[0, 0, 0]	n/a	FR1	0	R1290M
58940.02	0.793	2229780	WORD_OFF	n/a	n/a	SKI	9	15	[0, 0, 0]	n/a	FR1	0	R1290M
58940.813	1.625	2230573	WORD	n/a	wordpools/wordpool_EN.txt	HOLE	10	15	[0, 0, 0]	n/a	FR1	0	R1290M
58942.438	0.89	2232198	WORD_OFF	n/a	n/a	HOLE	10	15	[0, 0, 0]	n/a	FR1	0	R1290M
58943.328	1.627	2233088	WORD	n/a	wordpools/wordpool_EN.txt	SHRIMP	11	15	[0, 0, 0]	n/a	FR1	0	R1290M
58944.955	0.802	2234715	WORD_OFF	n/a	n/a	SHRIMP	11	15	[0, 0, 0]	n/a	FR1	0	R1290M
58945.757	1.632	2235517	WORD	n/a	wordpools/wordpool_EN.txt	RAKE	12	15	[0, 0, 0]	n/a	FR1	0	R1290M
58947.389	0.001	2237149	WORD_OFF	n/a	n/a	RAKE	12	15	[0, 0, 0]	n/a	FR1	0	R1290M
58947.39	0.0	2237150	ENCODING_END	n/a	n/a	n/a	-999	15	[0, 0, 0]	n/a	FR1	0	R1290M
58947.39	0.001	2237150	DISTRACT_START	n/a	n/a	n/a	-999	15	[0, 0, 0]	n/a	FR1	0	R1290M
58947.391	0.014	2237151	START	n/a	n/a	n/a	-999	15	[-999, -999, -999]	n/a	FR1	0	R1290M
58947.405	6.168	2237165	PROB	6.168	n/a	n/a	-999	15	[4, 5, 7]	16	FR1	0	R1290M
58953.573	4.018	2243332	PROB	4.018	n/a	n/a	-999	15	[5, 5, 4]	14	FR1	0	R1290M
58957.591	4.666	2247350	PROB	4.666	n/a	n/a	-999	15	[8, 9, 1]	18	FR1	0	R1290M
58962.257	11.796	2252016	PROB	11.796	n/a	n/a	-999	15	[6, 4, 4]	14	FR1	0	R1290M
58974.053	0.006	2263811	STOP	n/a	n/a	n/a	-999	15	[-999, -999, -999]	n/a	FR1	0	R1290M
58974.059	0.696	2263817	DISTRACT_END	n/a	n/a	n/a	-999	15	[0, 0, 0]	n/a	FR1	0	R1290M
58974.755	1.59	2264513	RETRIEVAL_ORIENT_START	n/a	n/a	n/a	-999	15	[0, 0, 0]	n/a	FR1	0	R1290M
58976.345	0.0	2266103	RETRIEVAL_ORIENT_END	n/a	n/a	n/a	-999	15	[0, 0, 0]	n/a	FR1	0	R1290M
58976.345	2.141	2266103	REC_START	n/a	n/a	n/a	-999	15	[0, 0, 0]	n/a	FR1	0	R1290M
58978.486	1.529	2268244	REC_WORD	1.529	n/a	SNOW	6	15	[0, 0, 0]	n/a	FR1	0	R1290M
58980.015	1.506	2269773	REC_WORD	1.506	n/a	SKI	9	15	[0, 0, 0]	n/a	FR1	0	R1290M
58981.521	1.749	2271279	REC_WORD	1.749	n/a	HOLE	10	15	[0, 0, 0]	n/a	FR1	0	R1290M
58983.27	3.681	2273028	REC_WORD	3.681	n/a	PEACH	4	15	[0, 0, 0]	n/a	FR1	0	R1290M
58986.951	5.031	2276709	REC_WORD_VV	5.031	n/a	<>	-999	15	[0, 0, 0]	n/a	FR1	0	R1290M
58991.982	3.734	2281740	REC_WORD	3.734	n/a	FACE	8	15	[0, 0, 0]	n/a	FR1	0	R1290M
58995.716	9.839	2285473	REC_WORD_VV	9.839	n/a	<>	-999	15	[0, 0, 0]	n/a	FR1	0	R1290M
59005.555	0.801	2295312	REC_WORD_VV	0.801	n/a	<>	-999	15	[0, 0, 0]	n/a	FR1	0	R1290M
59006.356	0.001	2296113	REC_END	n/a	n/a	n/a	-999	15	[0, 0, 0]	n/a	FR1	0	R1290M
59006.357	0.014	2296114	TRIAL_END	n/a	n/a	n/a	-999	15	[0, 0, 0]	n/a	FR1	0	R1290M
59006.371	0.001	2296128	TRIAL_START	n/a	n/a	n/a	-999	16	[0, 0, 0]	n/a	FR1	0	R1290M
59006.372	0.0	2296129	WAITING_START	n/a	n/a	n/a	-999	16	[0, 0, 0]	n/a	FR1	0	R1290M
59006.372	4.146	2296129	TRIAL	n/a	n/a	n/a	-999	16	[0, 0, 0]	n/a	FR1	0	R1290M
59010.518	0.001	2300275	WAITING_END	n/a	n/a	n/a	-999	16	[0, 0, 0]	n/a	FR1	0	R1290M
59010.519	10.429	2300276	COUNTDOWN_START	n/a	n/a	n/a	-999	16	[0, 0, 0]	n/a	FR1	0	R1290M
59020.948	0.001	2310704	COUNTDOWN_END	n/a	n/a	n/a	-999	16	[0, 0, 0]	n/a	FR1	0	R1290M
59020.949	1.07	2310705	ORIENT_START	n/a	n/a	n/a	-999	16	[0, 0, 0]	n/a	FR1	0	R1290M
59022.019	0.001	2311775	ORIENT_END	n/a	n/a	n/a	-999	16	[0, 0, 0]	n/a	FR1	0	R1290M
59022.02	0.788	2311776	ENCODING_START	n/a	n/a	n/a	-999	16	[0, 0, 0]	n/a	FR1	0	R1290M
59022.808	1.629	2312564	WORD	n/a	wordpools/wordpool_EN.txt	BRICK	1	16	[0, 0, 0]	n/a	FR1	0	R1290M
59024.437	1.025	2314193	WORD_OFF	n/a	n/a	BRICK	1	16	[0, 0, 0]	n/a	FR1	0	R1290M
59025.462	1.625	2315218	WORD	n/a	wordpools/wordpool_EN.txt	COUCH	2	16	[0, 0, 0]	n/a	FR1	0	R1290M
59027.087	0.947	2316843	WORD_OFF	n/a	n/a	COUCH	2	16	[0, 0, 0]	n/a	FR1	0	R1290M
59028.034	1.621	2317790	WORD	n/a	wordpools/wordpool_EN.txt	FOOT	3	16	[0, 0, 0]	n/a	FR1	0	R1290M
59029.655	0.901	2319411	WORD_OFF	n/a	n/a	FOOT	3	16	[0, 0, 0]	n/a	FR1	0	R1290M
59030.556	1.632	2320312	WORD	n/a	wordpools/wordpool_EN.txt	LIP	4	16	[0, 0, 0]	n/a	FR1	0	R1290M
59032.188	1.145	2321944	WORD_OFF	n/a	n/a	LIP	4	16	[0, 0, 0]	n/a	FR1	0	R1290M
59033.333	1.606	2323089	WORD	n/a	wordpools/wordpool_EN.txt	POLE	5	16	[0, 0, 0]	n/a	FR1	0	R1290M
59034.939	0.913	2324695	WORD_OFF	n/a	n/a	POLE	5	16	[0, 0, 0]	n/a	FR1	0	R1290M
59035.852	1.638	2325607	WORD	n/a	wordpools/wordpool_EN.txt	PLATE	6	16	[0, 0, 0]	n/a	FR1	0	R1290M
59037.49	0.846	2327245	WORD_OFF	n/a	n/a	PLATE	6	16	[0, 0, 0]	n/a	FR1	0	R1290M
59038.336	1.638	2328091	WORD	n/a	wordpools/wordpool_EN.txt	STRAW	7	16	[0, 0, 0]	n/a	FR1	0	R1290M
59039.974	1.136	2329729	WORD_OFF	n/a	n/a	STRAW	7	16	[0, 0, 0]	n/a	FR1	0	R1290M
59041.11	1.631	2330865	WORD	n/a	wordpools/wordpool_EN.txt	CRANE	8	16	[0, 0, 0]	n/a	FR1	0	R1290M
59042.741	0.928	2332496	WORD_OFF	n/a	n/a	CRANE	8	16	[0, 0, 0]	n/a	FR1	0	R1290M
59043.669	1.621	2333424	WORD	n/a	wordpools/wordpool_EN.txt	TOY	9	16	[0, 0, 0]	n/a	FR1	0	R1290M
59045.29	0.883	2335045	WORD_OFF	n/a	n/a	TOY	9	16	[0, 0, 0]	n/a	FR1	0	R1290M
59046.173	1.635	2335928	WORD	n/a	wordpools/wordpool_EN.txt	SHOE	10	16	[0, 0, 0]	n/a	FR1	0	R1290M
59047.808	0.95	2337563	WORD_OFF	n/a	n/a	SHOE	10	16	[0, 0, 0]	n/a	FR1	0	R1290M
59048.758	1.634	2338513	WORD	n/a	wordpools/wordpool_EN.txt	GOLD	11	16	[0, 0, 0]	n/a	FR1	0	R1290M
59050.392	0.777	2340147	WORD_OFF	n/a	n/a	GOLD	11	16	[0, 0, 0]	n/a	FR1	0	R1290M
59051.169	1.624	2340924	WORD	n/a	wordpools/wordpool_EN.txt	FOOD	12	16	[0, 0, 0]	n/a	FR1	0	R1290M
59052.793	0.0	2342548	WORD_OFF	n/a	n/a	FOOD	12	16	[0, 0, 0]	n/a	FR1	0	R1290M
59052.793	0.001	2342548	ENCODING_END	n/a	n/a	n/a	-999	16	[0, 0, 0]	n/a	FR1	0	R1290M
59052.794	0.0	2342549	DISTRACT_START	n/a	n/a	n/a	-999	16	[0, 0, 0]	n/a	FR1	0	R1290M
59052.794	0.015	2342549	START	n/a	n/a	n/a	-999	16	[-999, -999, -999]	n/a	FR1	0	R1290M
59052.809	10.102	2342564	PROB	10.102	n/a	n/a	-999	16	[6, 7, 7]	20	FR1	0	R1290M
59062.911	2.917	2352665	PROB	2.917	n/a	n/a	-999	16	[5, 3, 9]	17	FR1	0	R1290M
59065.828	7.261	2355582	PROB	7.261	n/a	n/a	-999	16	[9, 7, 3]	18	FR1	0	R1290M
59073.089	0.006	2362843	STOP	n/a	n/a	n/a	-999	16	[-999, -999, -999]	n/a	FR1	0	R1290M
59073.095	0.663	2362849	DISTRACT_END	n/a	n/a	n/a	-999	16	[0, 0, 0]	n/a	FR1	0	R1290M
59073.758	1.706	2363512	RETRIEVAL_ORIENT_START	n/a	n/a	n/a	-999	16	[0, 0, 0]	n/a	FR1	0	R1290M
59075.464	0.0	2365218	RETRIEVAL_ORIENT_END	n/a	n/a	n/a	-999	16	[0, 0, 0]	n/a	FR1	0	R1290M
59075.464	1.105	2365218	REC_START	n/a	n/a	n/a	-999	16	[0, 0, 0]	n/a	FR1	0	R1290M
59076.569	2.125	2366323	REC_WORD_VV	2.125	n/a	<>	-999	16	[0, 0, 0]	n/a	FR1	0	R1290M
59078.694	0.765	2368447	REC_WORD	0.765	n/a	GOLD	11	16	[0, 0, 0]	n/a	FR1	0	R1290M
59079.459	3.979	2369212	REC_WORD	3.979	n/a	CRANE	8	16	[0, 0, 0]	n/a	FR1	0	R1290M
59083.438	7.19	2373191	REC_WORD	7.19	n/a	SHOE	10	16	[0, 0, 0]	n/a	FR1	0	R1290M
59090.628	11.748	2380381	REC_WORD_VV	11.748	n/a	<>	-999	16	[0, 0, 0]	n/a	FR1	0	R1290M
59102.376	3.1	2392128	REC_WORD	3.1	n/a	TOY	9	16	[0, 0, 0]	n/a	FR1	0	R1290M
59105.476	0.001	2395228	REC_END	n/a	n/a	n/a	-999	16	[0, 0, 0]	n/a	FR1	0	R1290M
59105.477	0.014	2395229	TRIAL_END	n/a	n/a	n/a	-999	16	[0, 0, 0]	n/a	FR1	0	R1290M
59105.491	0.0	2395243	TRIAL_START	n/a	n/a	n/a	-999	17	[0, 0, 0]	n/a	FR1	0	R1290M
59105.491	0.001	2395243	TRIAL	n/a	n/a	n/a	-999	17	[0, 0, 0]	n/a	FR1	0	R1290M
59105.492	3.744	2395244	WAITING_START	n/a	n/a	n/a	-999	17	[0, 0, 0]	n/a	FR1	0	R1290M
59109.236	0.001	2398988	WAITING_END	n/a	n/a	n/a	-999	17	[0, 0, 0]	n/a	FR1	0	R1290M
59109.237	10.428	2398989	COUNTDOWN_START	n/a	n/a	n/a	-999	17	[0, 0, 0]	n/a	FR1	0	R1290M
59119.665	0.001	2409416	COUNTDOWN_END	n/a	n/a	n/a	-999	17	[0, 0, 0]	n/a	FR1	0	R1290M
59119.666	1.107	2409417	ORIENT_START	n/a	n/a	n/a	-999	17	[0, 0, 0]	n/a	FR1	0	R1290M
59120.773	0.0	2410524	ORIENT_END	n/a	n/a	n/a	-999	17	[0, 0, 0]	n/a	FR1	0	R1290M
59120.773	0.927	2410524	ENCODING_START	n/a	n/a	n/a	-999	17	[0, 0, 0]	n/a	FR1	0	R1290M
59121.7	1.622	2411451	WORD	n/a	wordpools/wordpool_EN.txt	OAR	1	17	[0, 0, 0]	n/a	FR1	0	R1290M
59123.322	0.873	2413073	WORD_OFF	n/a	n/a	OAR	1	17	[0, 0, 0]	n/a	FR1	0	R1290M
59124.195	1.628	2413946	WORD	n/a	wordpools/wordpool_EN.txt	COIN	2	17	[0, 0, 0]	n/a	FR1	0	R1290M
59125.823	1.078	2415574	WORD_OFF	n/a	n/a	COIN	2	17	[0, 0, 0]	n/a	FR1	0	R1290M
59126.901	1.623	2416652	WORD	n/a	wordpools/wordpool_EN.txt	WOOD	3	17	[0, 0, 0]	n/a	FR1	0	R1290M
59128.524	0.951	2418275	WORD_OFF	n/a	n/a	WOOD	3	17	[0, 0, 0]	n/a	FR1	0	R1290M
59129.475	1.632	2419226	WORD	n/a	wordpools/wordpool_EN.txt	SKUNK	4	17	[0, 0, 0]	n/a	FR1	0	R1290M
59131.107	0.896	2420858	WORD_OFF	n/a	n/a	SKUNK	4	17	[0, 0, 0]	n/a	FR1	0	R1290M
59132.003	1.622	2421754	WORD	n/a	wordpools/wordpool_EN.txt	CUP	5	17	[0, 0, 0]	n/a	FR1	0	R1290M
59133.625	1.023	2423376	WORD_OFF	n/a	n/a	CUP	5	17	[0, 0, 0]	n/a	FR1	0	R1290M
59134.648	1.627	2424399	WORD	n/a	wordpools/wordpool_EN.txt	CLAY	6	17	[0, 0, 0]	n/a	FR1	0	R1290M
59136.275	1.021	2426026	WORD_OFF	n/a	n/a	CLAY	6	17	[0, 0, 0]	n/a	FR1	0	R1290M
59137.296	1.63	2427047	WORD	n/a	wordpools/wordpool_EN.txt	HOUSE	7	17	[0, 0, 0]	n/a	FR1	0	R1290M
59138.926	0.77	2428677	WORD_OFF	n/a	n/a	HOUSE	7	17	[0, 0, 0]	n/a	FR1	0	R1290M
59139.696	1.629	2429447	WORD	n/a	wordpools/wordpool_EN.txt	TANK	8	17	[0, 0, 0]	n/a	FR1	0	R1290M
59141.325	0.855	2431075	WORD_OFF	n/a	n/a	TANK	8	17	[0, 0, 0]	n/a	FR1	0	R1290M
59142.18	1.614	2431930	WORD	n/a	wordpools/wordpool_EN.txt	SUN	9	17	[0, 0, 0]	n/a	FR1	0	R1290M
59143.794	0.886	2433544	WORD_OFF	n/a	n/a	SUN	9	17	[0, 0, 0]	n/a	FR1	0	R1290M
59144.68	1.63	2434430	WORD	n/a	wordpools/wordpool_EN.txt	HILL	10	17	[0, 0, 0]	n/a	FR1	0	R1290M
59146.31	0.96	2436060	WORD_OFF	n/a	n/a	HILL	10	17	[0, 0, 0]	n/a	FR1	0	R1290M
59147.27	1.608	2437020	WORD	n/a	wordpools/wordpool_EN.txt	CALF	11	17	[0, 0, 0]	n/a	FR1	0	R1290M
59148.878	1.118	2438628	WORD_OFF	n/a	n/a	CALF	11	17	[0, 0, 0]	n/a	FR1	0	R1290M
59149.996	1.616	2439746	WORD	n/a	wordpools/wordpool_EN.txt	BOOK	12	17	[0, 0, 0]	n/a	FR1	0	R1290M
59151.612	0.001	2441362	WORD_OFF	n/a	n/a	BOOK	12	17	[0, 0, 0]	n/a	FR1	0	R1290M
59151.613	0.001	2441363	ENCODING_END	n/a	n/a	n/a	-999	17	[0, 0, 0]	n/a	FR1	0	R1290M
59151.614	0.0	2441364	DISTRACT_START	n/a	n/a	n/a	-999	17	[0, 0, 0]	n/a	FR1	0	R1290M
59151.614	0.014	2441364	START	n/a	n/a	n/a	-999	17	[-999, -999, -999]	n/a	FR1	0	R1290M
59151.628	17.22	2441378	PROB	17.22	n/a	n/a	-999	17	[6, 7, 9]	22	FR1	0	R1290M
59168.848	6.229	2458597	PROB	6.229	n/a	n/a	-999	17	[1, 8, 4]	13	FR1	0	R1290M
59175.077	0.022	2464826	STOP	n/a	n/a	n/a	-999	17	[-999, -999, -999]	n/a	FR1	0	R1290M
59175.099	0.597	2464848	DISTRACT_END	n/a	n/a	n/a	-999	17	[0, 0, 0]	n/a	FR1	0	R1290M
59175.696	1.586	2465445	RETRIEVAL_ORIENT_START	n/a	n/a	n/a	-999	17	[0, 0, 0]	n/a	FR1	0	R1290M
59177.282	0.001	2467031	RETRIEVAL_ORIENT_END	n/a	n/a	n/a	-999	17	[0, 0, 0]	n/a	FR1	0	R1290M
59177.283	1.702	2467032	REC_START	n/a	n/a	n/a	-999	17	[0, 0, 0]	n/a	FR1	0	R1290M
59178.985	1.776	2468734	REC_WORD	1.776	n/a	OAR	1	17	[0, 0, 0]	n/a	FR1	0	R1290M
59180.761	1.535	2470510	REC_WORD	1.535	n/a	COIN	2	17	[0, 0, 0]	n/a	FR1	0	R1290M
59182.296	2.097	2472045	REC_WORD	2.097	n/a	CLAY	6	17	[0, 0, 0]	n/a	FR1	0	R1290M
59184.393	2.902	2474141	REC_WORD	2.902	n/a	SKUNK	4	17	[0, 0, 0]	n/a	FR1	0	R1290M
59187.295	18.058	2477043	REC_WORD	18.058	n/a	HILL	10	17	[0, 0, 0]	n/a	FR1	0	R1290M
59205.353	1.94	2495100	REC_WORD	1.94	n/a	SKUNK	4	17	[0, 0, 0]	n/a	FR1	0	R1290M
59207.293	0.0	2497040	TRIAL_END	n/a	n/a	n/a	-999	17	[0, 0, 0]	n/a	FR1	0	R1290M
59207.293	0.014	2497040	REC_END	n/a	n/a	n/a	-999	17	[0, 0, 0]	n/a	FR1	0	R1290M
59207.307	0.001	2497054	TRIAL_START	n/a	n/a	n/a	-999	18	[0, 0, 0]	n/a	FR1	0	R1290M
59207.308	0.0	2497055	TRIAL	n/a	n/a	n/a	-999	18	[0, 0, 0]	n/a	FR1	0	R1290M
59207.308	3.731	2497055	WAITING_START	n/a	n/a	n/a	-999	18	[0, 0, 0]	n/a	FR1	0	R1290M
59211.039	0.001	2500786	WAITING_END	n/a	n/a	n/a	-999	18	[0, 0, 0]	n/a	FR1	0	R1290M
59211.04	10.428	2500787	COUNTDOWN_START	n/a	n/a	n/a	-999	18	[0, 0, 0]	n/a	FR1	0	R1290M
59221.468	0.001	2511215	COUNTDOWN_END	n/a	n/a	n/a	-999	18	[0, 0, 0]	n/a	FR1	0	R1290M
59221.469	1.173	2511216	ORIENT_START	n/a	n/a	n/a	-999	18	[0, 0, 0]	n/a	FR1	0	R1290M
59222.642	0.001	2512389	ORIENT_END	n/a	n/a	n/a	-999	18	[0, 0, 0]	n/a	FR1	0	R1290M
59222.643	1.006	2512390	ENCODING_START	n/a	n/a	n/a	-999	18	[0, 0, 0]	n/a	FR1	0	R1290M
59223.649	1.626	2513396	WORD	n/a	wordpools/wordpool_EN.txt	JEEP	1	18	[0, 0, 0]	n/a	FR1	0	R1290M
59225.275	1.01	2515021	WORD_OFF	n/a	n/a	JEEP	1	18	[0, 0, 0]	n/a	FR1	0	R1290M
59226.285	1.625	2516031	WORD	n/a	wordpools/wordpool_EN.txt	FLEA	2	18	[0, 0, 0]	n/a	FR1	0	R1290M
59227.91	1.099	2517656	WORD_OFF	n/a	n/a	FLEA	2	18	[0, 0, 0]	n/a	FR1	0	R1290M
59229.009	1.618	2518755	WORD	n/a	wordpools/wordpool_EN.txt	PIG	3	18	[0, 0, 0]	n/a	FR1	0	R1290M
59230.627	1.073	2520373	WORD_OFF	n/a	n/a	PIG	3	18	[0, 0, 0]	n/a	FR1	0	R1290M
59231.7	1.628	2521446	WORD	n/a	wordpools/wordpool_EN.txt	WAND	4	18	[0, 0, 0]	n/a	FR1	0	R1290M
59233.328	1.107	2523074	WORD_OFF	n/a	n/a	WAND	4	18	[0, 0, 0]	n/a	FR1	0	R1290M
59234.435	1.625	2524181	WORD	n/a	wordpools/wordpool_EN.txt	DOOR	5	18	[0, 0, 0]	n/a	FR1	0	R1290M
59236.06	0.983	2525806	WORD_OFF	n/a	n/a	DOOR	5	18	[0, 0, 0]	n/a	FR1	0	R1290M
59237.043	1.636	2526789	WORD	n/a	wordpools/wordpool_EN.txt	INK	6	18	[0, 0, 0]	n/a	FR1	0	R1290M
59238.679	0.817	2528425	WORD_OFF	n/a	n/a	INK	6	18	[0, 0, 0]	n/a	FR1	0	R1290M
59239.496	1.632	2529242	WORD	n/a	wordpools/wordpool_EN.txt	PARK	7	18	[0, 0, 0]	n/a	FR1	0	R1290M
59241.128	1.146	2530874	WORD_OFF	n/a	n/a	PARK	7	18	[0, 0, 0]	n/a	FR1	0	R1290M
59242.274	1.622	2532020	WORD	n/a	wordpools/wordpool_EN.txt	BOARD	8	18	[0, 0, 0]	n/a	FR1	0	R1290M
59243.896	0.807	2533642	WORD_OFF	n/a	n/a	BOARD	8	18	[0, 0, 0]	n/a	FR1	0	R1290M
59244.703	1.627	2534449	WORD	n/a	wordpools/wordpool_EN.txt	CAR	9	18	[0, 0, 0]	n/a	FR1	0	R1290M
59246.33	0.928	2536075	WORD_OFF	n/a	n/a	CAR	9	18	[0, 0, 0]	n/a	FR1	0	R1290M
59247.258	1.623	2537003	WORD	n/a	wordpools/wordpool_EN.txt	BROOM	10	18	[0, 0, 0]	n/a	FR1	0	R1290M
59248.881	0.783	2538626	WORD_OFF	n/a	n/a	BROOM	10	18	[0, 0, 0]	n/a	FR1	0	R1290M
59249.664	1.633	2539409	WORD	n/a	wordpools/wordpool_EN.txt	SKY	11	18	[0, 0, 0]	n/a	FR1	0	R1290M
59251.297	0.767	2541042	WORD_OFF	n/a	n/a	SKY	11	18	[0, 0, 0]	n/a	FR1	0	R1290M
59252.064	1.617	2541809	WORD	n/a	wordpools/wordpool_EN.txt	WEED	12	18	[0, 0, 0]	n/a	FR1	0	R1290M
59253.681	0.001	2543426	WORD_OFF	n/a	n/a	WEED	12	18	[0, 0, 0]	n/a	FR1	0	R1290M
59253.682	0.001	2543427	ENCODING_END	n/a	n/a	n/a	-999	18	[0, 0, 0]	n/a	FR1	0	R1290M
59253.683	0.0	2543428	DISTRACT_START	n/a	n/a	n/a	-999	18	[0, 0, 0]	n/a	FR1	0	R1290M
59253.683	0.015	2543428	START	n/a	n/a	n/a	-999	18	[-999, -999, -999]	n/a	FR1	0	R1290M
59253.698	3.967	2543443	PROB	3.967	n/a	n/a	-999	18	[3, 5, 3]	11	FR1	0	R1290M
59257.665	5.384	2547410	PROB	5.384	n/a	n/a	-999	18	[9, 3, 6]	18	FR1	0	R1290M
59263.049	6.385	2552794	PROB	6.385	n/a	n/a	-999	18	[9, 4, 5]	18	FR1	0	R1290M
59269.434	10.487	2559178	PROB	10.487	n/a	n/a	-999	18	[5, 1, 1]	11	FR1	0	R1290M
59279.921	0.016	2569665	STOP	n/a	n/a	n/a	-999	18	[-999, -999, -999]	n/a	FR1	0	R1290M
59279.937	0.553	2569681	DISTRACT_END	n/a	n/a	n/a	-999	18	[0, 0, 0]	n/a	FR1	0	R1290M
59280.49	1.646	2570234	RETRIEVAL_ORIENT_START	n/a	n/a	n/a	-999	18	[0, 0, 0]	n/a	FR1	0	R1290M
59282.136	0.001	2571880	RETRIEVAL_ORIENT_END	n/a	n/a	n/a	-999	18	[0, 0, 0]	n/a	FR1	0	R1290M
59282.137	2.181	2571881	REC_START	n/a	n/a	n/a	-999	18	[0, 0, 0]	n/a	FR1	0	R1290M
59284.318	1.28	2574062	REC_WORD	1.28	n/a	BROOM	10	18	[0, 0, 0]	n/a	FR1	0	R1290M
59285.598	1.66	2575342	REC_WORD	1.66	n/a	BRICK	-999	18	[0, 0, 0]	n/a	FR1	0	R1290M
59287.258	2.692	2577002	REC_WORD	2.692	n/a	JEEP	1	18	[0, 0, 0]	n/a	FR1	0	R1290M
59289.95	2.393	2579693	REC_WORD_VV	2.393	n/a	<>	-999	18	[0, 0, 0]	n/a	FR1	0	R1290M
59292.343	0.453	2582086	REC_WORD	0.453	n/a	JEEP	1	18	[0, 0, 0]	n/a	FR1	0	R1290M
59292.796	3.445	2582539	REC_WORD	3.445	n/a	INK	6	18	[0, 0, 0]	n/a	FR1	0	R1290M
59296.241	6.509	2585984	REC_WORD_VV	6.509	n/a	<>	-999	18	[0, 0, 0]	n/a	FR1	0	R1290M
59302.75	9.396	2592493	REC_WORD	9.396	n/a	LAKE	-999	18	[0, 0, 0]	n/a	FR1	0	R1290M
59312.146	0.001	2601888	REC_END	n/a	n/a	n/a	-999	18	[0, 0, 0]	n/a	FR1	0	R1290M
59312.147	0.013	2601889	TRIAL_END	n/a	n/a	n/a	-999	18	[0, 0, 0]	n/a	FR1	0	R1290M
59312.16	0.001	2601902	TRIAL_START	n/a	n/a	n/a	-999	19	[0, 0, 0]	n/a	FR1	0	R1290M
59312.161	0.0	2601903	TRIAL	n/a	n/a	n/a	-999	19	[0, 0, 0]	n/a	FR1	0	R1290M
59312.161	10.384	2601903	WAITING_START	n/a	n/a	n/a	-999	19	[0, 0, 0]	n/a	FR1	0	R1290M
59322.545	0.001	2612287	WAITING_END	n/a	n/a	n/a	-999	19	[0, 0, 0]	n/a	FR1	0	R1290M
59322.546	10.429	2612288	COUNTDOWN_START	n/a	n/a	n/a	-999	19	[0, 0, 0]	n/a	FR1	0	R1290M
59332.975	0.001	2622716	COUNTDOWN_END	n/a	n/a	n/a	-999	19	[0, 0, 0]	n/a	FR1	0	R1290M
59332.976	1.086	2622717	ORIENT_START	n/a	n/a	n/a	-999	19	[0, 0, 0]	n/a	FR1	0	R1290M
59334.062	0.001	2623803	ORIENT_END	n/a	n/a	n/a	-999	19	[0, 0, 0]	n/a	FR1	0	R1290M
59334.063	1.008	2623804	ENCODING_START	n/a	n/a	n/a	-999	19	[0, 0, 0]	n/a	FR1	0	R1290M
59335.071	1.626	2624812	WORD	n/a	wordpools/wordpool_EN.txt	STAR	1	19	[0, 0, 0]	n/a	FR1	0	R1290M
59336.697	1.139	2626438	WORD_OFF	n/a	n/a	STAR	1	19	[0, 0, 0]	n/a	FR1	0	R1290M
59337.836	1.629	2627577	WORD	n/a	wordpools/wordpool_EN.txt	WOLF	2	19	[0, 0, 0]	n/a	FR1	0	R1290M
59339.465	0.884	2629206	WORD_OFF	n/a	n/a	WOLF	2	19	[0, 0, 0]	n/a	FR1	0	R1290M
59340.349	1.632	2630090	WORD	n/a	wordpools/wordpool_EN.txt	LAWN	3	19	[0, 0, 0]	n/a	FR1	0	R1290M
59341.981	0.811	2631722	WORD_OFF	n/a	n/a	LAWN	3	19	[0, 0, 0]	n/a	FR1	0	R1290M
59342.792	1.624	2632533	WORD	n/a	wordpools/wordpool_EN.txt	BAT	4	19	[0, 0, 0]	n/a	FR1	0	R1290M
59344.416	0.821	2634157	WORD_OFF	n/a	n/a	BAT	4	19	[0, 0, 0]	n/a	FR1	0	R1290M
59345.237	1.629	2634978	WORD	n/a	wordpools/wordpool_EN.txt	VINE	5	19	[0, 0, 0]	n/a	FR1	0	R1290M
59346.866	0.887	2636607	WORD_OFF	n/a	n/a	VINE	5	19	[0, 0, 0]	n/a	FR1	0	R1290M
59347.753	1.63	2637494	WORD	n/a	wordpools/wordpool_EN.txt	MOON	6	19	[0, 0, 0]	n/a	FR1	0	R1290M
59349.383	1.09	2639124	WORD_OFF	n/a	n/a	MOON	6	19	[0, 0, 0]	n/a	FR1	0	R1290M
59350.473	1.626	2640214	WORD	n/a	wordpools/wordpool_EN.txt	MOLE	7	19	[0, 0, 0]	n/a	FR1	0	R1290M
59352.099	0.886	2641839	WORD_OFF	n/a	n/a	MOLE	7	19	[0, 0, 0]	n/a	FR1	0	R1290M
59352.985	1.633	2642725	WORD	n/a	wordpools/wordpool_EN.txt	TIE	8	19	[0, 0, 0]	n/a	FR1	0	R1290M
59354.618	1.035	2644358	WORD_OFF	n/a	n/a	TIE	8	19	[0, 0, 0]	n/a	FR1	0	R1290M
59355.653	1.631	2645393	WORD	n/a	wordpools/wordpool_EN.txt	STONE	9	19	[0, 0, 0]	n/a	FR1	0	R1290M
59357.284	0.896	2647024	WORD_OFF	n/a	n/a	STONE	9	19	[0, 0, 0]	n/a	FR1	0	R1290M
59358.18	1.639	2647920	WORD	n/a	wordpools/wordpool_EN.txt	GOAT	10	19	[0, 0, 0]	n/a	FR1	0	R1290M
59359.819	0.876	2649559	WORD_OFF	n/a	n/a	GOAT	10	19	[0, 0, 0]	n/a	FR1	0	R1290M
59360.695	1.623	2650435	WORD	n/a	wordpools/wordpool_EN.txt	EAR	11	19	[0, 0, 0]	n/a	FR1	0	R1290M
59362.318	0.984	2652058	WORD_OFF	n/a	n/a	EAR	11	19	[0, 0, 0]	n/a	FR1	0	R1290M
59363.302	1.618	2653042	WORD	n/a	wordpools/wordpool_EN.txt	OWL	12	19	[0, 0, 0]	n/a	FR1	0	R1290M
59364.92	0.001	2654660	WORD_OFF	n/a	n/a	OWL	12	19	[0, 0, 0]	n/a	FR1	0	R1290M
59364.921	0.001	2654661	ENCODING_END	n/a	n/a	n/a	-999	19	[0, 0, 0]	n/a	FR1	0	R1290M
59364.922	0.0	2654662	DISTRACT_START	n/a	n/a	n/a	-999	19	[0, 0, 0]	n/a	FR1	0	R1290M
59364.922	0.014	2654662	START	n/a	n/a	n/a	-999	19	[-999, -999, -999]	n/a	FR1	0	R1290M
59364.936	3.316	2654676	PROB	3.316	n/a	n/a	-999	19	[1, 8, 2]	11	FR1	0	R1290M
59368.252	11.387	2657992	PROB	11.387	n/a	n/a	-999	19	[8, 7, 1]	16	FR1	0	R1290M
59379.639	10.524	2669378	PROB	10.524	n/a	n/a	-999	19	[4, 2, 7]	13	FR1	0	R1290M
59390.163	0.01	2679902	STOP	n/a	n/a	n/a	-999	19	[-999, -999, -999]	n/a	FR1	0	R1290M
59390.173	0.688	2679912	DISTRACT_END	n/a	n/a	n/a	-999	19	[0, 0, 0]	n/a	FR1	0	R1290M
59390.861	1.597	2680600	RETRIEVAL_ORIENT_START	n/a	n/a	n/a	-999	19	[0, 0, 0]	n/a	FR1	0	R1290M
59392.458	0.001	2682197	RETRIEVAL_ORIENT_END	n/a	n/a	n/a	-999	19	[0, 0, 0]	n/a	FR1	0	R1290M
59392.459	2.008	2682198	REC_START	n/a	n/a	n/a	-999	19	[0, 0, 0]	n/a	FR1	0	R1290M
59394.467	0.69	2684205	REC_WORD	0.69	n/a	BAT	4	19	[0, 0, 0]	n/a	FR1	0	R1290M
59395.157	1.085	2684895	REC_WORD	1.085	n/a	MOLE	7	19	[0, 0, 0]	n/a	FR1	0	R1290M
59396.242	4.871	2685980	REC_WORD	4.871	n/a	STAR	1	19	[0, 0, 0]	n/a	FR1	0	R1290M
59401.113	5.439	2690851	REC_WORD_VV	5.439	n/a	<>	-999	19	[0, 0, 0]	n/a	FR1	0	R1290M
59406.552	0.583	2696290	REC_WORD_VV	0.583	n/a	<>	-999	19	[0, 0, 0]	n/a	FR1	0	R1290M
59407.135	8.337	2696873	REC_WORD	8.337	n/a	STAR	1	19	[0, 0, 0]	n/a	FR1	0	R1290M
59415.472	6.998	2705209	REC_WORD	6.998	n/a	MOOSE	-999	19	[0, 0, 0]	n/a	FR1	0	R1290M
59422.47	0.0	2712207	REC_END	n/a	n/a	n/a	-999	19	[0, 0, 0]	n/a	FR1	0	R1290M
59422.47	0.014	2712207	TRIAL_END	n/a	n/a	n/a	-999	19	[0, 0, 0]	n/a	FR1	0	R1290M
59422.484	0.001	2712221	TRIAL_START	n/a	n/a	n/a	-999	20	[0, 0, 0]	n/a	FR1	0	R1290M
59422.485	0.0	2712222	TRIAL	n/a	n/a	n/a	-999	20	[0, 0, 0]	n/a	FR1	0	R1290M
59422.485	8.364	2712222	WAITING_START	n/a	n/a	n/a	-999	20	[0, 0, 0]	n/a	FR1	0	R1290M
59430.849	0.001	2720586	WAITING_END	n/a	n/a	n/a	-999	20	[0, 0, 0]	n/a	FR1	0	R1290M
59430.85	10.43	2720587	COUNTDOWN_START	n/a	n/a	n/a	-999	20	[0, 0, 0]	n/a	FR1	0	R1290M
59441.28	0.001	2731016	COUNTDOWN_END	n/a	n/a	n/a	-999	20	[0, 0, 0]	n/a	FR1	0	R1290M
59441.281	1.17	2731017	ORIENT_START	n/a	n/a	n/a	-999	20	[0, 0, 0]	n/a	FR1	0	R1290M
59442.451	0.001	2732187	ORIENT_END	n/a	n/a	n/a	-999	20	[0, 0, 0]	n/a	FR1	0	R1290M
59442.452	0.806	2732188	ENCODING_START	n/a	n/a	n/a	-999	20	[0, 0, 0]	n/a	FR1	0	R1290M
59443.258	1.627	2732994	WORD	n/a	wordpools/wordpool_EN.txt	FROG	1	20	[0, 0, 0]	n/a	FR1	0	R1290M
59444.885	0.894	2734621	WORD_OFF	n/a	n/a	FROG	1	20	[0, 0, 0]	n/a	FR1	0	R1290M
59445.779	1.623	2735515	WORD	n/a	wordpools/wordpool_EN.txt	SOCK	2	20	[0, 0, 0]	n/a	FR1	0	R1290M
59447.402	1.029	2737138	WORD_OFF	n/a	n/a	SOCK	2	20	[0, 0, 0]	n/a	FR1	0	R1290M
59448.431	1.637	2738167	WORD	n/a	wordpools/wordpool_EN.txt	SPARK	3	20	[0, 0, 0]	n/a	FR1	0	R1290M
59450.068	0.909	2739804	WORD_OFF	n/a	n/a	SPARK	3	20	[0, 0, 0]	n/a	FR1	0	R1290M
59450.977	1.626	2740713	WORD	n/a	wordpools/wordpool_EN.txt	MAT	4	20	[0, 0, 0]	n/a	FR1	0	R1290M
59452.603	1.067	2742339	WORD_OFF	n/a	n/a	MAT	4	20	[0, 0, 0]	n/a	FR1	0	R1290M
59453.67	1.633	2743406	WORD	n/a	wordpools/wordpool_EN.txt	BREAD	5	20	[0, 0, 0]	n/a	FR1	0	R1290M
59455.303	0.832	2745039	WORD_OFF	n/a	n/a	BREAD	5	20	[0, 0, 0]	n/a	FR1	0	R1290M
59456.135	1.619	2745871	WORD	n/a	wordpools/wordpool_EN.txt	BOMB	6	20	[0, 0, 0]	n/a	FR1	0	R1290M
59457.754	0.861	2747489	WORD_OFF	n/a	n/a	BOMB	6	20	[0, 0, 0]	n/a	FR1	0	R1290M
59458.615	1.622	2748350	WORD	n/a	wordpools/wordpool_EN.txt	MOOSE	7	20	[0, 0, 0]	n/a	FR1	0	R1290M
59460.237	0.987	2749972	WORD_OFF	n/a	n/a	MOOSE	7	20	[0, 0, 0]	n/a	FR1	0	R1290M
59461.224	1.631	2750959	WORD	n/a	wordpools/wordpool_EN.txt	FORK	8	20	[0, 0, 0]	n/a	FR1	0	R1290M
59462.855	0.778	2752590	WORD_OFF	n/a	n/a	FORK	8	20	[0, 0, 0]	n/a	FR1	0	R1290M
59463.633	1.622	2753368	WORD	n/a	wordpools/wordpool_EN.txt	NET	9	20	[0, 0, 0]	n/a	FR1	0	R1290M
59465.255	1.148	2754990	WORD_OFF	n/a	n/a	NET	9	20	[0, 0, 0]	n/a	FR1	0	R1290M
59466.403	1.636	2756138	WORD	n/a	wordpools/wordpool_EN.txt	MAP	10	20	[0, 0, 0]	n/a	FR1	0	R1290M
59468.039	1.011	2757774	WORD_OFF	n/a	n/a	MAP	10	20	[0, 0, 0]	n/a	FR1	0	R1290M
59469.05	1.607	2758785	WORD	n/a	wordpools/wordpool_EN.txt	CAVE	11	20	[0, 0, 0]	n/a	FR1	0	R1290M
59470.657	1.042	2760392	WORD_OFF	n/a	n/a	CAVE	11	20	[0, 0, 0]	n/a	FR1	0	R1290M
59471.699	1.624	2761434	WORD	n/a	wordpools/wordpool_EN.txt	SPEAR	12	20	[0, 0, 0]	n/a	FR1	0	R1290M
59473.323	0.001	2763058	WORD_OFF	n/a	n/a	SPEAR	12	20	[0, 0, 0]	n/a	FR1	0	R1290M
59473.324	0.0	2763059	DISTRACT_START	n/a	n/a	n/a	-999	20	[0, 0, 0]	n/a	FR1	0	R1290M
59473.324	0.001	2763059	ENCODING_END	n/a	n/a	n/a	-999	20	[0, 0, 0]	n/a	FR1	0	R1290M
59473.325	0.015	2763060	START	n/a	n/a	n/a	-999	20	[-999, -999, -999]	n/a	FR1	0	R1290M
59473.34	4.734	2763075	PROB	4.734	n/a	n/a	-999	20	[1, 6, 1]	8	FR1	0	R1290M
59478.074	9.302	2767809	PROB	9.302	n/a	n/a	-999	20	[7, 6, 8]	21	FR1	0	R1290M
59487.376	7.924	2777110	PROB	7.924	n/a	n/a	-999	20	[5, 7, 6]	18	FR1	0	R1290M
59495.3	0.011	2785034	STOP	n/a	n/a	n/a	-999	20	[-999, -999, -999]	n/a	FR1	0	R1290M
59495.311	0.672	2785045	DISTRACT_END	n/a	n/a	n/a	-999	20	[0, 0, 0]	n/a	FR1	0	R1290M
59495.983	1.629	2785717	RETRIEVAL_ORIENT_START	n/a	n/a	n/a	-999	20	[0, 0, 0]	n/a	FR1	0	R1290M
59497.612	0.001	2787346	RETRIEVAL_ORIENT_END	n/a	n/a	n/a	-999	20	[0, 0, 0]	n/a	FR1	0	R1290M
59497.613	0.688	2787347	REC_START	n/a	n/a	n/a	-999	20	[0, 0, 0]	n/a	FR1	0	R1290M
59498.301	1.153	2788035	REC_WORD	1.153	n/a	MOOSE	7	20	[0, 0, 0]	n/a	FR1	0	R1290M
59499.454	1.735	2789187	REC_WORD	1.735	n/a	FROG	1	20	[0, 0, 0]	n/a	FR1	0	R1290M
59501.189	3.604	2790922	REC_WORD	3.604	n/a	CAVE	11	20	[0, 0, 0]	n/a	FR1	0	R1290M
59504.793	0.961	2794526	REC_WORD_VV	0.961	n/a	<>	-999	20	[0, 0, 0]	n/a	FR1	0	R1290M
59505.754	1.789	2795487	REC_WORD	1.789	n/a	SOCK	2	20	[0, 0, 0]	n/a	FR1	0	R1290M
59507.543	3.101	2797276	REC_WORD	3.101	n/a	MAT	4	20	[0, 0, 0]	n/a	FR1	0	R1290M
59510.644	11.223	2800377	REC_WORD_VV	11.223	n/a	<>	-999	20	[0, 0, 0]	n/a	FR1	0	R1290M
59521.867	5.757	2811599	REC_WORD_VV	5.757	n/a	<>	-999	20	[0, 0, 0]	n/a	FR1	0	R1290M
59527.624	0.001	2817356	REC_END	n/a	n/a	n/a	-999	20	[0, 0, 0]	n/a	FR1	0	R1290M
59527.625	0.018	2817357	TRIAL_END	n/a	n/a	n/a	-999	20	[0, 0, 0]	n/a	FR1	0	R1290M
59527.643	0.0	2817375	TRIAL_START	n/a	n/a	n/a	-999	21	[0, 0, 0]	n/a	FR1	0	R1290M
59527.643	0.001	2817375	TRIAL	n/a	n/a	n/a	-999	21	[0, 0, 0]	n/a	FR1	0	R1290M
59527.644	13.126	2817376	WAITING_START	n/a	n/a	n/a	-999	21	[0, 0, 0]	n/a	FR1	0	R1290M
59540.77	0.001	2830502	WAITING_END	n/a	n/a	n/a	-999	21	[0, 0, 0]	n/a	FR1	0	R1290M
59540.771	10.43	2830503	COUNTDOWN_START	n/a	n/a	n/a	-999	21	[0, 0, 0]	n/a	FR1	0	R1290M
59551.201	0.001	2840932	COUNTDOWN_END	n/a	n/a	n/a	-999	21	[0, 0, 0]	n/a	FR1	0	R1290M
59551.202	1.103	2840933	ORIENT_START	n/a	n/a	n/a	-999	21	[0, 0, 0]	n/a	FR1	0	R1290M
59552.305	0.001	2842036	ORIENT_END	n/a	n/a	n/a	-999	21	[0, 0, 0]	n/a	FR1	0	R1290M
59552.306	0.991	2842037	ENCODING_START	n/a	n/a	n/a	-999	21	[0, 0, 0]	n/a	FR1	0	R1290M
59553.297	1.626	2843028	WORD	n/a	wordpools/wordpool_EN.txt	SEA	1	21	[0, 0, 0]	n/a	FR1	0	R1290M
59554.923	0.81	2844654	WORD_OFF	n/a	n/a	SEA	1	21	[0, 0, 0]	n/a	FR1	0	R1290M
59555.733	1.624	2845464	WORD	n/a	wordpools/wordpool_EN.txt	SOAP	2	21	[0, 0, 0]	n/a	FR1	0	R1290M
59557.357	0.976	2847088	WORD_OFF	n/a	n/a	SOAP	2	21	[0, 0, 0]	n/a	FR1	0	R1290M
59558.333	1.626	2848064	WORD	n/a	wordpools/wordpool_EN.txt	DIME	3	21	[0, 0, 0]	n/a	FR1	0	R1290M
59559.959	0.934	2849690	WORD_OFF	n/a	n/a	DIME	3	21	[0, 0, 0]	n/a	FR1	0	R1290M
59560.893	1.632	2850624	WORD	n/a	wordpools/wordpool_EN.txt	THUMB	4	21	[0, 0, 0]	n/a	FR1	0	R1290M
59562.525	1.016	2852256	WORD_OFF	n/a	n/a	THUMB	4	21	[0, 0, 0]	n/a	FR1	0	R1290M
59563.541	1.633	2853271	WORD	n/a	wordpools/wordpool_EN.txt	SLEEVE	5	21	[0, 0, 0]	n/a	FR1	0	R1290M
59565.174	1.049	2854904	WORD_OFF	n/a	n/a	SLEEVE	5	21	[0, 0, 0]	n/a	FR1	0	R1290M
59566.223	1.636	2855953	WORD	n/a	wordpools/wordpool_EN.txt	FORT	6	21	[0, 0, 0]	n/a	FR1	0	R1290M
59567.859	1.041	2857589	WORD_OFF	n/a	n/a	FORT	6	21	[0, 0, 0]	n/a	FR1	0	R1290M
59568.9	1.626	2858630	WORD	n/a	wordpools/wordpool_EN.txt	GRASS	7	21	[0, 0, 0]	n/a	FR1	0	R1290M
59570.526	0.972	2860256	WORD_OFF	n/a	n/a	GRASS	7	21	[0, 0, 0]	n/a	FR1	0	R1290M
59571.498	1.628	2861228	WORD	n/a	wordpools/wordpool_EN.txt	OAK	8	21	[0, 0, 0]	n/a	FR1	0	R1290M
59573.126	0.888	2862856	WORD_OFF	n/a	n/a	OAK	8	21	[0, 0, 0]	n/a	FR1	0	R1290M
59574.014	1.63	2863744	WORD	n/a	wordpools/wordpool_EN.txt	CROWN	9	21	[0, 0, 0]	n/a	FR1	0	R1290M
59575.644	0.787	2865374	WORD_OFF	n/a	n/a	CROWN	9	21	[0, 0, 0]	n/a	FR1	0	R1290M
59576.431	1.629	2866161	WORD	n/a	wordpools/wordpool_EN.txt	CLIFF	10	21	[0, 0, 0]	n/a	FR1	0	R1290M
59578.06	0.904	2867790	WORD_OFF	n/a	n/a	CLIFF	10	21	[0, 0, 0]	n/a	FR1	0	R1290M
59578.964	1.631	2868694	WORD	n/a	wordpools/wordpool_EN.txt	MOTH	11	21	[0, 0, 0]	n/a	FR1	0	R1290M
59580.595	0.904	2870325	WORD_OFF	n/a	n/a	MOTH	11	21	[0, 0, 0]	n/a	FR1	0	R1290M
59581.499	1.629	2871229	WORD	n/a	wordpools/wordpool_EN.txt	TRUCK	12	21	[0, 0, 0]	n/a	FR1	0	R1290M
59583.128	0.0	2872858	WORD_OFF	n/a	n/a	TRUCK	12	21	[0, 0, 0]	n/a	FR1	0	R1290M
59583.128	0.001	2872858	ENCODING_END	n/a	n/a	n/a	-999	21	[0, 0, 0]	n/a	FR1	0	R1290M
59583.129	0.0	2872859	DISTRACT_START	n/a	n/a	n/a	-999	21	[0, 0, 0]	n/a	FR1	0	R1290M
59583.129	0.015	2872859	START	n/a	n/a	n/a	-999	21	[-999, -999, -999]	n/a	FR1	0	R1290M
59583.144	4.134	2872874	PROB	4.134	n/a	n/a	-999	21	[8, 1, 8]	17	FR1	0	R1290M
59587.278	4.052	2877007	PROB	4.052	n/a	n/a	-999	21	[2, 2, 5]	9	FR1	0	R1290M
