onset	duration	sample	trial_type	response_time	stim_file	item_name	serialpos	list	test	answer	experiment	session	subject
0.0	147.328	554273	INSTRUCT_START	n/a	n/a	n/a	-999	-999	[0, 0, 0]	n/a	FR1	0	R1446T
147.328	34.382	701624	INSTRUCT_END	n/a	n/a	n/a	-999	-999	[0, 0, 0]	n/a	FR1	0	R1446T
181.71	10.351	736010	COUNTDOWN_START	n/a	n/a	n/a	-999	-999	[0, 0, 0]	n/a	FR1	0	R1446T
192.061	0.0	746361	COUNTDOWN_END	n/a	n/a	n/a	-999	-999	[0, 0, 0]	n/a	FR1	0	R1446T
192.061	2.233	746361	ENCODING_START	n/a	n/a	n/a	-999	-1	[0, 0, 0]	n/a	FR1	0	R1446T
194.294	1.6	748590	WORD	n/a	n/a	STAR	1	-1	[0, 0, 0]	n/a	FR1	0	R1446T
195.894	0.934	750188	WORD_OFF	n/a	n/a	STAR	1	-1	[0, 0, 0]	n/a	FR1	0	R1446T
196.828	1.616	751127	WORD	n/a	n/a	TOWN	2	-1	[0, 0, 0]	n/a	FR1	0	R1446T
198.444	1.0	752743	WORD_OFF	n/a	n/a	TOWN	2	-1	[0, 0, 0]	n/a	FR1	0	R1446T
199.444	1.616	753744	WORD	n/a	n/a	PIN	3	-1	[0, 0, 0]	n/a	FR1	0	R1446T
201.06	0.883	755359	WORD_OFF	n/a	n/a	PIN	3	-1	[0, 0, 0]	n/a	FR1	0	R1446T
201.943	1.601	756245	WORD	n/a	n/a	SPACE	4	-1	[0, 0, 0]	n/a	FR1	0	R1446T
203.544	0.883	757843	WORD_OFF	n/a	n/a	SPACE	4	-1	[0, 0, 0]	n/a	FR1	0	R1446T
204.427	1.6	758721	WORD	n/a	n/a	ELF	5	-1	[0, 0, 0]	n/a	FR1	0	R1446T
206.027	0.983	760328	WORD_OFF	n/a	n/a	ELF	5	-1	[0, 0, 0]	n/a	FR1	0	R1446T
207.01	1.601	761311	WORD	n/a	n/a	FOOD	6	-1	[0, 0, 0]	n/a	FR1	0	R1446T
208.611	0.916	762909	WORD_OFF	n/a	n/a	FOOD	6	-1	[0, 0, 0]	n/a	FR1	0	R1446T
209.527	1.6	763822	WORD	n/a	n/a	CAGE	7	-1	[0, 0, 0]	n/a	FR1	0	R1446T
211.127	0.784	765428	WORD_OFF	n/a	n/a	CAGE	7	-1	[0, 0, 0]	n/a	FR1	0	R1446T
211.911	1.617	766209	WORD	n/a	n/a	GIFT	8	-1	[0, 0, 0]	n/a	FR1	0	R1446T
213.528	0.966	767825	WORD_OFF	n/a	n/a	GIFT	8	-1	[0, 0, 0]	n/a	FR1	0	R1446T
214.494	1.601	768790	WORD	n/a	n/a	RICE	9	-1	[0, 0, 0]	n/a	FR1	0	R1446T
216.095	0.766	770388	WORD_OFF	n/a	n/a	RICE	9	-1	[0, 0, 0]	n/a	FR1	0	R1446T
216.861	1.617	771161	WORD	n/a	n/a	CHIEF	10	-1	[0, 0, 0]	n/a	FR1	0	R1446T
218.478	1.0	772776	WORD_OFF	n/a	n/a	CHIEF	10	-1	[0, 0, 0]	n/a	FR1	0	R1446T
219.478	1.616	773777	WORD	n/a	n/a	CHURCH	11	-1	[0, 0, 0]	n/a	FR1	0	R1446T
221.094	0.967	775392	WORD_OFF	n/a	n/a	CHURCH	11	-1	[0, 0, 0]	n/a	FR1	0	R1446T
222.061	1.6	776358	WORD	n/a	n/a	GOAL	12	-1	[0, 0, 0]	n/a	FR1	0	R1446T
223.661	0.001	777955	WORD_OFF	n/a	n/a	GOAL	12	-1	[0, 0, 0]	n/a	FR1	0	R1446T
223.662	0.0	777955	ENCODING_END	n/a	n/a	n/a	-999	-1	[0, 0, 0]	n/a	FR1	0	R1446T
223.662	0.0	777964	DISTRACT_START	n/a	n/a	n/a	-999	-1	[0, 0, 0]	n/a	FR1	0	R1446T
223.662	0.001	777964	START	n/a	n/a	n/a	-999	-1	[-999, -999, -999]	n/a	FR1	0	R1446T
223.663	6.031	777965	PROB	6.031	n/a	n/a	-999	-1	[1, 7, 4]	12	FR1	0	R1446T
229.694	4.334	783997	PROB	4.334	n/a	n/a	-999	-1	[8, 7, 2]	17	FR1	0	R1446T
234.028	3.215	788331	PROB	3.215	n/a	n/a	-999	-1	[7, 3, 7]	17	FR1	0	R1446T
237.243	7.132	791547	PROB	7.132	n/a	n/a	-999	-1	[4, 3, 6]	13	FR1	0	R1446T
244.375	0.0	798673	DISTRACT_END	n/a	n/a	n/a	-999	-1	[0, 0, 0]	n/a	FR1	0	R1446T
244.375	2.083	798680	STOP	n/a	n/a	n/a	-999	-1	[-999, -999, -999]	n/a	FR1	0	R1446T
246.458	2.57	800753	REC_START	n/a	n/a	n/a	-999	-1	[0, 0, 0]	n/a	FR1	0	R1446T
249.028	5.839	803333	REC_WORD	5.839	n/a	STAR	1	-1	[0, 0, 0]	n/a	FR1	0	R1446T
254.867	7.8	809173	REC_WORD	7.8	n/a	SPACE	4	-1	[0, 0, 0]	n/a	FR1	0	R1446T
262.667	6.034	816974	REC_WORD	6.034	n/a	SPACE	4	-1	[0, 0, 0]	n/a	FR1	0	R1446T
268.701	7.946	823009	REC_WORD	7.946	n/a	FIELD	-999	-1	[0, 0, 0]	n/a	FR1	0	R1446T
276.647	16.999	830953	REC_END	n/a	n/a	n/a	-999	-1	[0, 0, 0]	n/a	FR1	0	R1446T
293.646	10.35	847957	COUNTDOWN_START	n/a	n/a	n/a	-999	1	[0, 0, 0]	n/a	FR1	0	R1446T
303.996	0.0	858307	COUNTDOWN_END	n/a	n/a	n/a	-999	1	[0, 0, 0]	n/a	FR1	0	R1446T
303.996	1.966	858307	ENCODING_START	n/a	n/a	n/a	-999	1	[0, 0, 0]	n/a	FR1	0	R1446T
305.962	1.601	860265	WORD	n/a	wordpools/wordpool_long_EN.txt	GRASS	1	1	[0, 0, 0]	n/a	FR1	0	R1446T
307.563	0.816	861871	WORD_OFF	n/a	n/a	GRASS	1	1	[0, 0, 0]	n/a	FR1	0	R1446T
308.379	1.617	862688	WORD	n/a	wordpools/wordpool_long_EN.txt	YACHT	2	1	[0, 0, 0]	n/a	FR1	0	R1446T
309.996	0.8	864303	WORD_OFF	n/a	n/a	YACHT	2	1	[0, 0, 0]	n/a	FR1	0	R1446T
310.796	1.6	865102	WORD	n/a	wordpools/wordpool_long_EN.txt	EEL	3	1	[0, 0, 0]	n/a	FR1	0	R1446T
312.396	0.818	866700	WORD_OFF	n/a	n/a	EEL	3	1	[0, 0, 0]	n/a	FR1	0	R1446T
313.214	1.599	867525	WORD	n/a	wordpools/wordpool_long_EN.txt	HOSE	4	1	[0, 0, 0]	n/a	FR1	0	R1446T
314.813	0.983	869123	WORD_OFF	n/a	n/a	HOSE	4	1	[0, 0, 0]	n/a	FR1	0	R1446T
315.796	1.617	870106	WORD	n/a	wordpools/wordpool_long_EN.txt	MAP	5	1	[0, 0, 0]	n/a	FR1	0	R1446T
317.413	0.766	871721	WORD_OFF	n/a	n/a	MAP	5	1	[0, 0, 0]	n/a	FR1	0	R1446T
318.179	1.6	872485	WORD	n/a	wordpools/wordpool_long_EN.txt	FARM	6	1	[0, 0, 0]	n/a	FR1	0	R1446T
319.779	0.999	874083	WORD_OFF	n/a	n/a	FARM	6	1	[0, 0, 0]	n/a	FR1	0	R1446T
320.778	1.618	875083	WORD	n/a	wordpools/wordpool_long_EN.txt	STAIR	7	1	[0, 0, 0]	n/a	FR1	0	R1446T
322.396	0.949	876699	WORD_OFF	n/a	n/a	STAIR	7	1	[0, 0, 0]	n/a	FR1	0	R1446T
323.345	1.617	877656	WORD	n/a	wordpools/wordpool_long_EN.txt	SWAMP	8	1	[0, 0, 0]	n/a	FR1	0	R1446T
324.962	0.9	879271	WORD_OFF	n/a	n/a	SWAMP	8	1	[0, 0, 0]	n/a	FR1	0	R1446T
325.862	1.616	880166	WORD	n/a	wordpools/wordpool_long_EN.txt	ZOO	9	1	[0, 0, 0]	n/a	FR1	0	R1446T
327.478	0.817	881782	WORD_OFF	n/a	n/a	ZOO	9	1	[0, 0, 0]	n/a	FR1	0	R1446T
328.295	1.616	882607	WORD	n/a	wordpools/wordpool_long_EN.txt	POOL	10	1	[0, 0, 0]	n/a	FR1	0	R1446T
329.911	0.932	884222	WORD_OFF	n/a	n/a	POOL	10	1	[0, 0, 0]	n/a	FR1	0	R1446T
330.843	1.6	885153	WORD	n/a	wordpools/wordpool_long_EN.txt	CANE	11	1	[0, 0, 0]	n/a	FR1	0	R1446T
332.443	0.8	886750	WORD_OFF	n/a	n/a	CANE	11	1	[0, 0, 0]	n/a	FR1	0	R1446T
333.243	1.616	887549	WORD	n/a	wordpools/wordpool_long_EN.txt	GIRL	12	1	[0, 0, 0]	n/a	FR1	0	R1446T
334.859	0.001	889165	WORD_OFF	n/a	n/a	GIRL	12	1	[0, 0, 0]	n/a	FR1	0	R1446T
334.86	0.0	889173	ENCODING_END	n/a	n/a	n/a	-999	1	[0, 0, 0]	n/a	FR1	0	R1446T
334.86	0.0	889173	DISTRACT_START	n/a	n/a	n/a	-999	1	[0, 0, 0]	n/a	FR1	0	R1446T
334.86	0.0	889178	START	n/a	n/a	n/a	-999	1	[-999, -999, -999]	n/a	FR1	0	R1446T
334.86	3.149	889178	PROB	3.149	n/a	n/a	-999	1	[6, 4, 1]	11	FR1	0	R1446T
338.009	4.365	892327	PROB	4.365	n/a	n/a	-999	1	[7, 6, 2]	15	FR1	0	R1446T
342.374	2.983	896693	PROB	2.983	n/a	n/a	-999	1	[2, 1, 8]	11	FR1	0	R1446T
345.357	4.432	899676	PROB	4.432	n/a	n/a	-999	1	[3, 1, 8]	12	FR1	0	R1446T
349.789	2.867	904109	PROB	2.867	n/a	n/a	-999	1	[2, 5, 2]	9	FR1	0	R1446T
352.656	3.948	906977	PROB	3.948	n/a	n/a	-999	1	[1, 1, 1]	3	FR1	0	R1446T
356.604	0.0	910918	DISTRACT_END	n/a	n/a	n/a	-999	1	[0, 0, 0]	n/a	FR1	0	R1446T
356.604	2.383	910925	STOP	n/a	n/a	n/a	-999	1	[-999, -999, -999]	n/a	FR1	0	R1446T
358.987	2.571	913305	REC_START	n/a	n/a	n/a	-999	1	[0, 0, 0]	n/a	FR1	0	R1446T
361.558	0.676	915880	REC_WORD	0.676	n/a	POOL	10	1	[0, 0, 0]	n/a	FR1	0	R1446T
362.234	12.419	916556	REC_WORD	12.419	n/a	GIRL	12	1	[0, 0, 0]	n/a	FR1	0	R1446T
374.653	2.362	928977	REC_WORD_VV	2.362	n/a	<>	-999	1	[0, 0, 0]	n/a	FR1	0	R1446T
377.015	12.165	931339	REC_WORD	12.165	n/a	YACHT	2	1	[0, 0, 0]	n/a	FR1	0	R1446T
389.18	2.049	943496	REC_END	n/a	n/a	n/a	-999	1	[0, 0, 0]	n/a	FR1	0	R1446T
391.229	10.348	945551	COUNTDOWN_START	n/a	n/a	n/a	-999	2	[0, 0, 0]	n/a	FR1	0	R1446T
401.577	0.0	955901	COUNTDOWN_END	n/a	n/a	n/a	-999	2	[0, 0, 0]	n/a	FR1	0	R1446T
401.577	2.249	955901	ENCODING_START	n/a	n/a	n/a	-999	2	[0, 0, 0]	n/a	FR1	0	R1446T
403.826	1.616	958148	WORD	n/a	wordpools/wordpool_long_EN.txt	SPOUSE	1	2	[0, 0, 0]	n/a	FR1	0	R1446T
405.442	0.816	959763	WORD_OFF	n/a	n/a	SPOUSE	1	2	[0, 0, 0]	n/a	FR1	0	R1446T
406.258	1.617	960580	WORD	n/a	wordpools/wordpool_long_EN.txt	DEER	2	2	[0, 0, 0]	n/a	FR1	0	R1446T
407.875	0.982	962195	WORD_OFF	n/a	n/a	DEER	2	2	[0, 0, 0]	n/a	FR1	0	R1446T
408.857	1.6	963178	WORD	n/a	wordpools/wordpool_long_EN.txt	MEAT	3	2	[0, 0, 0]	n/a	FR1	0	R1446T
410.457	0.917	964785	WORD_OFF	n/a	n/a	MEAT	3	2	[0, 0, 0]	n/a	FR1	0	R1446T
411.374	1.615	965698	WORD	n/a	wordpools/wordpool_long_EN.txt	BENCH	4	2	[0, 0, 0]	n/a	FR1	0	R1446T
412.989	0.918	967313	WORD_OFF	n/a	n/a	BENCH	4	2	[0, 0, 0]	n/a	FR1	0	R1446T
413.907	1.616	968235	WORD	n/a	wordpools/wordpool_long_EN.txt	BANK	5	2	[0, 0, 0]	n/a	FR1	0	R1446T
415.523	0.949	969850	WORD_OFF	n/a	n/a	BANK	5	2	[0, 0, 0]	n/a	FR1	0	R1446T
416.472	1.617	970798	WORD	n/a	wordpools/wordpool_long_EN.txt	BOOK	6	2	[0, 0, 0]	n/a	FR1	0	R1446T
418.089	0.767	972414	WORD_OFF	n/a	n/a	BOOK	6	2	[0, 0, 0]	n/a	FR1	0	R1446T
418.856	1.616	973186	WORD	n/a	wordpools/wordpool_long_EN.txt	THREAD	7	2	[0, 0, 0]	n/a	FR1	0	R1446T
420.472	0.983	974801	WORD_OFF	n/a	n/a	THREAD	7	2	[0, 0, 0]	n/a	FR1	0	R1446T
421.455	1.616	975785	WORD	n/a	wordpools/wordpool_long_EN.txt	MASK	8	2	[0, 0, 0]	n/a	FR1	0	R1446T
423.071	1.017	977400	WORD_OFF	n/a	n/a	MASK	8	2	[0, 0, 0]	n/a	FR1	0	R1446T
424.088	1.616	978418	WORD	n/a	wordpools/wordpool_long_EN.txt	PET	9	2	[0, 0, 0]	n/a	FR1	0	R1446T
425.704	0.9	980033	WORD_OFF	n/a	n/a	PET	9	2	[0, 0, 0]	n/a	FR1	0	R1446T
426.604	1.616	980929	WORD	n/a	wordpools/wordpool_long_EN.txt	TOAD	10	2	[0, 0, 0]	n/a	FR1	0	R1446T
428.22	0.817	982544	WORD_OFF	n/a	n/a	TOAD	10	2	[0, 0, 0]	n/a	FR1	0	R1446T
429.037	1.616	983361	WORD	n/a	wordpools/wordpool_long_EN.txt	SPRING	11	2	[0, 0, 0]	n/a	FR1	0	R1446T
430.653	0.832	984985	WORD_OFF	n/a	n/a	SPRING	11	2	[0, 0, 0]	n/a	FR1	0	R1446T
431.485	1.601	985810	WORD	n/a	wordpools/wordpool_long_EN.txt	SKUNK	12	2	[0, 0, 0]	n/a	FR1	0	R1446T
433.086	0.001	987416	WORD_OFF	n/a	n/a	SKUNK	12	2	[0, 0, 0]	n/a	FR1	0	R1446T
433.087	0.0	987416	ENCODING_END	n/a	n/a	n/a	-999	2	[0, 0, 0]	n/a	FR1	0	R1446T
433.087	0.0	987416	DISTRACT_START	n/a	n/a	n/a	-999	2	[0, 0, 0]	n/a	FR1	0	R1446T
433.086	0.001	987418	PROB	0.001	n/a	n/a	-999	2	[4, 2, 6]	12	FR1	0	R1446T
433.087	4.865	987419	START	n/a	n/a	n/a	-999	2	[-999, -999, -999]	n/a	FR1	0	R1446T
437.952	5.015	992285	PROB	5.015	n/a	n/a	-999	2	[5, 6, 2]	13	FR1	0	R1446T
442.967	3.749	997301	PROB	3.749	n/a	n/a	-999	2	[3, 1, 7]	11	FR1	0	R1446T
446.716	3.05	1001050	PROB	3.05	n/a	n/a	-999	2	[8, 1, 3]	12	FR1	0	R1446T
449.766	5.517	1004101	PROB	5.517	n/a	n/a	-999	2	[3, 6, 3]	12	FR1	0	R1446T
455.283	0.0	1009609	DISTRACT_END	n/a	n/a	n/a	-999	2	[0, 0, 0]	n/a	FR1	0	R1446T
455.283	2.2	1009618	STOP	n/a	n/a	n/a	-999	2	[-999, -999, -999]	n/a	FR1	0	R1446T
457.483	29.95	1011812	REC_START	n/a	n/a	n/a	-999	2	[0, 0, 0]	n/a	FR1	0	R1446T
487.433	0.233	1041773	REC_WORD_VV	0.233	n/a	<>	-999	2	[0, 0, 0]	n/a	FR1	0	R1446T
487.666	3.333	1041994	REC_END	n/a	n/a	n/a	-999	2	[0, 0, 0]	n/a	FR1	0	R1446T
490.999	10.348	1045330	COUNTDOWN_START	n/a	n/a	n/a	-999	3	[0, 0, 0]	n/a	FR1	0	R1446T
501.347	0.0	1055671	COUNTDOWN_END	n/a	n/a	n/a	-999	3	[0, 0, 0]	n/a	FR1	0	R1446T
501.347	1.866	1055680	ENCODING_START	n/a	n/a	n/a	-999	3	[0, 0, 0]	n/a	FR1	0	R1446T
503.213	1.6	1057541	WORD	n/a	wordpools/wordpool_long_EN.txt	STEAM	1	3	[0, 0, 0]	n/a	FR1	0	R1446T
504.813	0.9	1059139	WORD_OFF	n/a	n/a	STEAM	1	3	[0, 0, 0]	n/a	FR1	0	R1446T
505.713	1.616	1060043	WORD	n/a	wordpools/wordpool_long_EN.txt	BROOM	2	3	[0, 0, 0]	n/a	FR1	0	R1446T
507.329	0.849	1061658	WORD_OFF	n/a	n/a	BROOM	2	3	[0, 0, 0]	n/a	FR1	0	R1446T
508.178	1.601	1062510	WORD	n/a	wordpools/wordpool_long_EN.txt	STEM	3	3	[0, 0, 0]	n/a	FR1	0	R1446T
509.779	0.983	1064108	WORD_OFF	n/a	n/a	STEM	3	3	[0, 0, 0]	n/a	FR1	0	R1446T
510.762	1.616	1065091	WORD	n/a	wordpools/wordpool_long_EN.txt	INK	4	3	[0, 0, 0]	n/a	FR1	0	R1446T
512.378	0.833	1066706	WORD_OFF	n/a	n/a	INK	4	3	[0, 0, 0]	n/a	FR1	0	R1446T
513.211	1.6	1067540	WORD	n/a	wordpools/wordpool_long_EN.txt	WRIST	5	3	[0, 0, 0]	n/a	FR1	0	R1446T
514.811	0.766	1069147	WORD_OFF	n/a	n/a	WRIST	5	3	[0, 0, 0]	n/a	FR1	0	R1446T
515.577	1.6	1069910	WORD	n/a	wordpools/wordpool_long_EN.txt	DIME	6	3	[0, 0, 0]	n/a	FR1	0	R1446T
517.177	0.883	1071508	WORD_OFF	n/a	n/a	DIME	6	3	[0, 0, 0]	n/a	FR1	0	R1446T
518.06	1.616	1072395	WORD	n/a	wordpools/wordpool_long_EN.txt	VAULT	7	3	[0, 0, 0]	n/a	FR1	0	R1446T
519.676	0.949	1074010	WORD_OFF	n/a	n/a	VAULT	7	3	[0, 0, 0]	n/a	FR1	0	R1446T
520.625	1.617	1074958	WORD	n/a	wordpools/wordpool_long_EN.txt	TOOTH	8	3	[0, 0, 0]	n/a	FR1	0	R1446T
522.242	0.917	1076573	WORD_OFF	n/a	n/a	TOOTH	8	3	[0, 0, 0]	n/a	FR1	0	R1446T
523.159	1.616	1077495	WORD	n/a	wordpools/wordpool_long_EN.txt	PURSE	9	3	[0, 0, 0]	n/a	FR1	0	R1446T
524.775	0.932	1079111	WORD_OFF	n/a	n/a	PURSE	9	3	[0, 0, 0]	n/a	FR1	0	R1446T
525.707	1.601	1080041	WORD	n/a	wordpools/wordpool_long_EN.txt	MOLE	10	3	[0, 0, 0]	n/a	FR1	0	R1446T
527.308	0.816	1081639	WORD_OFF	n/a	n/a	MOLE	10	3	[0, 0, 0]	n/a	FR1	0	R1446T
528.124	1.616	1082455	WORD	n/a	wordpools/wordpool_long_EN.txt	FUR	11	3	[0, 0, 0]	n/a	FR1	0	R1446T
529.74	0.784	1084079	WORD_OFF	n/a	n/a	FUR	11	3	[0, 0, 0]	n/a	FR1	0	R1446T
530.524	1.616	1084861	WORD	n/a	wordpools/wordpool_long_EN.txt	SKI	12	3	[0, 0, 0]	n/a	FR1	0	R1446T
532.14	0.001	1086476	WORD_OFF	n/a	n/a	SKI	12	3	[0, 0, 0]	n/a	FR1	0	R1446T
532.141	0.0	1086476	ENCODING_END	n/a	n/a	n/a	-999	3	[0, 0, 0]	n/a	FR1	0	R1446T
532.141	0.0	1086476	DISTRACT_START	n/a	n/a	n/a	-999	3	[0, 0, 0]	n/a	FR1	0	R1446T
532.141	0.0	1086488	PROB	0.0	n/a	n/a	-999	3	[1, 7, 5]	13	FR1	0	R1446T
532.141	3.815	1086488	START	n/a	n/a	n/a	-999	3	[-999, -999, -999]	n/a	FR1	0	R1446T
535.956	5.965	1090303	PROB	5.965	n/a	n/a	-999	3	[7, 4, 2]	13	FR1	0	R1446T
541.921	3.766	1096269	PROB	3.766	n/a	n/a	-999	3	[7, 3, 4]	14	FR1	0	R1446T
545.687	3.582	1100036	PROB	3.582	n/a	n/a	-999	3	[7, 2, 7]	16	FR1	0	R1446T
549.269	2.451	1103618	PROB	2.451	n/a	n/a	-999	3	[5, 1, 5]	11	FR1	0	R1446T
551.72	6.197	1106069	PROB	6.197	n/a	n/a	-999	3	[5, 4, 4]	13	FR1	0	R1446T
557.917	0.0	1112259	DISTRACT_END	n/a	n/a	n/a	-999	3	[0, 0, 0]	n/a	FR1	0	R1446T
557.917	2.282	1112267	STOP	n/a	n/a	n/a	-999	3	[-999, -999, -999]	n/a	FR1	0	R1446T
560.199	4.219	1114541	REC_START	n/a	n/a	n/a	-999	3	[0, 0, 0]	n/a	FR1	0	R1446T
564.418	2.189	1118769	REC_WORD	2.189	n/a	VAULT	7	3	[0, 0, 0]	n/a	FR1	0	R1446T
566.607	5.064	1120958	REC_WORD	5.064	n/a	MOUTH	-999	3	[0, 0, 0]	n/a	FR1	0	R1446T
571.671	4.308	1126023	REC_WORD	4.308	n/a	SKI	12	3	[0, 0, 0]	n/a	FR1	0	R1446T
575.979	0.528	1130332	REC_WORD	0.528	n/a	SKI	12	3	[0, 0, 0]	n/a	FR1	0	R1446T
576.507	13.909	1130860	REC_WORD	13.909	n/a	WRIST	5	3	[0, 0, 0]	n/a	FR1	0	R1446T
590.416	2.493	1144758	REC_END	n/a	n/a	n/a	-999	3	[0, 0, 0]	n/a	FR1	0	R1446T
592.909	10.347	1147260	COUNTDOWN_START	n/a	n/a	n/a	-999	4	[0, 0, 0]	n/a	FR1	0	R1446T
603.256	0.0	1157601	COUNTDOWN_END	n/a	n/a	n/a	-999	4	[0, 0, 0]	n/a	FR1	0	R1446T
603.256	2.183	1157610	ENCODING_START	n/a	n/a	n/a	-999	4	[0, 0, 0]	n/a	FR1	0	R1446T
605.439	1.616	1159787	WORD	n/a	wordpools/wordpool_long_EN.txt	HUT	1	4	[0, 0, 0]	n/a	FR1	0	R1446T
607.055	0.8	1161403	WORD_OFF	n/a	n/a	HUT	1	4	[0, 0, 0]	n/a	FR1	0	R1446T
607.855	1.616	1162201	WORD	n/a	wordpools/wordpool_long_EN.txt	VINE	2	4	[0, 0, 0]	n/a	FR1	0	R1446T
609.471	0.899	1163817	WORD_OFF	n/a	n/a	VINE	2	4	[0, 0, 0]	n/a	FR1	0	R1446T
610.37	1.6	1164721	WORD	n/a	wordpools/wordpool_long_EN.txt	BRICK	3	4	[0, 0, 0]	n/a	FR1	0	R1446T
611.97	0.884	1166319	WORD_OFF	n/a	n/a	BRICK	3	4	[0, 0, 0]	n/a	FR1	0	R1446T
612.854	1.616	1167205	WORD	n/a	wordpools/wordpool_long_EN.txt	TENT	4	4	[0, 0, 0]	n/a	FR1	0	R1446T
614.47	0.966	1168821	WORD_OFF	n/a	n/a	TENT	4	4	[0, 0, 0]	n/a	FR1	0	R1446T
615.436	1.617	1169786	WORD	n/a	wordpools/wordpool_long_EN.txt	TOAST	5	4	[0, 0, 0]	n/a	FR1	0	R1446T
617.053	0.864	1171402	WORD_OFF	n/a	n/a	TOAST	5	4	[0, 0, 0]	n/a	FR1	0	R1446T
617.917	1.602	1172271	WORD	n/a	wordpools/wordpool_long_EN.txt	HOLE	6	4	[0, 0, 0]	n/a	FR1	0	R1446T
619.519	0.983	1173868	WORD_OFF	n/a	n/a	HOLE	6	4	[0, 0, 0]	n/a	FR1	0	R1446T
620.502	1.616	1174852	WORD	n/a	wordpools/wordpool_long_EN.txt	FLEA	7	4	[0, 0, 0]	n/a	FR1	0	R1446T
622.118	0.816	1176467	WORD_OFF	n/a	n/a	FLEA	7	4	[0, 0, 0]	n/a	FR1	0	R1446T
622.934	1.617	1177283	WORD	n/a	wordpools/wordpool_long_EN.txt	CUBE	8	4	[0, 0, 0]	n/a	FR1	0	R1446T
624.551	0.815	1178907	WORD_OFF	n/a	n/a	CUBE	8	4	[0, 0, 0]	n/a	FR1	0	R1446T
625.366	1.601	1179724	WORD	n/a	wordpools/wordpool_long_EN.txt	SIGN	9	4	[0, 0, 0]	n/a	FR1	0	R1446T
626.967	0.783	1181322	WORD_OFF	n/a	n/a	SIGN	9	4	[0, 0, 0]	n/a	FR1	0	R1446T
627.75	1.616	1182103	WORD	n/a	wordpools/wordpool_long_EN.txt	GATE	10	4	[0, 0, 0]	n/a	FR1	0	R1446T
629.366	0.95	1183718	WORD_OFF	n/a	n/a	GATE	10	4	[0, 0, 0]	n/a	FR1	0	R1446T
630.316	1.617	1184675	WORD	n/a	wordpools/wordpool_long_EN.txt	JET	11	4	[0, 0, 0]	n/a	FR1	0	R1446T
631.933	0.999	1186290	WORD_OFF	n/a	n/a	JET	11	4	[0, 0, 0]	n/a	FR1	0	R1446T
632.932	1.616	1187282	WORD	n/a	wordpools/wordpool_long_EN.txt	CHILD	12	4	[0, 0, 0]	n/a	FR1	0	R1446T
634.548	0.001	1188906	WORD_OFF	n/a	n/a	CHILD	12	4	[0, 0, 0]	n/a	FR1	0	R1446T
634.549	0.0	1188906	ENCODING_END	n/a	n/a	n/a	-999	4	[0, 0, 0]	n/a	FR1	0	R1446T
634.549	0.0	1188906	DISTRACT_START	n/a	n/a	n/a	-999	4	[0, 0, 0]	n/a	FR1	0	R1446T
634.548	0.001	1188909	PROB	0.001	n/a	n/a	-999	4	[6, 6, 4]	16	FR1	0	R1446T
634.549	4.699	1188910	START	n/a	n/a	n/a	-999	4	[-999, -999, -999]	n/a	FR1	0	R1446T
639.248	3.881	1193610	PROB	3.881	n/a	n/a	-999	4	[3, 4, 6]	13	FR1	0	R1446T
643.129	4.516	1197492	PROB	4.516	n/a	n/a	-999	4	[3, 1, 5]	9	FR1	0	R1446T
647.645	3.533	1202008	PROB	3.533	n/a	n/a	-999	4	[1, 6, 1]	8	FR1	0	R1446T
651.178	10.247	1205542	PROB	10.247	n/a	n/a	-999	4	[7, 2, 6]	15	FR1	0	R1446T
661.425	0.0	1215787	DISTRACT_END	n/a	n/a	n/a	-999	4	[0, 0, 0]	n/a	FR1	0	R1446T
661.425	2.367	1215790	STOP	n/a	n/a	n/a	-999	4	[-999, -999, -999]	n/a	FR1	0	R1446T
663.792	12.22	1218148	REC_START	n/a	n/a	n/a	-999	4	[0, 0, 0]	n/a	FR1	0	R1446T
676.012	18.0	1230379	REC_WORD	18.0	n/a	HUT	1	4	[0, 0, 0]	n/a	FR1	0	R1446T
694.012	2.872	1248374	REC_END	n/a	n/a	n/a	-999	4	[0, 0, 0]	n/a	FR1	0	R1446T
696.884	10.347	1251253	COUNTDOWN_START	n/a	n/a	n/a	-999	5	[0, 0, 0]	n/a	FR1	0	R1446T
707.231	0.0	1261603	COUNTDOWN_END	n/a	n/a	n/a	-999	5	[0, 0, 0]	n/a	FR1	0	R1446T
707.231	2.249	1261603	ENCODING_START	n/a	n/a	n/a	-999	5	[0, 0, 0]	n/a	FR1	0	R1446T
709.48	1.616	1263851	WORD	n/a	wordpools/wordpool_long_EN.txt	BOARD	1	5	[0, 0, 0]	n/a	FR1	0	R1446T
711.096	0.95	1265466	WORD_OFF	n/a	n/a	BOARD	1	5	[0, 0, 0]	n/a	FR1	0	R1446T
712.046	1.616	1266414	WORD	n/a	wordpools/wordpool_long_EN.txt	PLATE	2	5	[0, 0, 0]	n/a	FR1	0	R1446T
713.662	0.815	1268029	WORD_OFF	n/a	n/a	PLATE	2	5	[0, 0, 0]	n/a	FR1	0	R1446T
714.477	1.602	1268846	WORD	n/a	wordpools/wordpool_long_EN.txt	TRIBE	3	5	[0, 0, 0]	n/a	FR1	0	R1446T
716.079	0.966	1270452	WORD_OFF	n/a	n/a	TRIBE	3	5	[0, 0, 0]	n/a	FR1	0	R1446T
717.045	1.616	1271418	WORD	n/a	wordpools/wordpool_long_EN.txt	SHIELD	4	5	[0, 0, 0]	n/a	FR1	0	R1446T
718.661	0.833	1273033	WORD_OFF	n/a	n/a	SHIELD	4	5	[0, 0, 0]	n/a	FR1	0	R1446T
719.494	1.617	1273867	WORD	n/a	wordpools/wordpool_long_EN.txt	CLAM	5	5	[0, 0, 0]	n/a	FR1	0	R1446T
721.111	0.799	1275483	WORD_OFF	n/a	n/a	CLAM	5	5	[0, 0, 0]	n/a	FR1	0	R1446T
721.91	1.614	1276281	WORD	n/a	wordpools/wordpool_long_EN.txt	EGG	6	5	[0, 0, 0]	n/a	FR1	0	R1446T
723.524	0.935	1277897	WORD_OFF	n/a	n/a	EGG	6	5	[0, 0, 0]	n/a	FR1	0	R1446T
724.459	1.6	1278827	WORD	n/a	wordpools/wordpool_long_EN.txt	SMILE	7	5	[0, 0, 0]	n/a	FR1	0	R1446T
726.059	0.867	1280434	WORD_OFF	n/a	n/a	SMILE	7	5	[0, 0, 0]	n/a	FR1	0	R1446T
726.926	1.616	1281303	WORD	n/a	wordpools/wordpool_long_EN.txt	PAIL	8	5	[0, 0, 0]	n/a	FR1	0	R1446T
728.542	0.966	1282918	WORD_OFF	n/a	n/a	PAIL	8	5	[0, 0, 0]	n/a	FR1	0	R1446T
729.508	1.599	1283884	WORD	n/a	wordpools/wordpool_long_EN.txt	BEEF	9	5	[0, 0, 0]	n/a	FR1	0	R1446T
731.107	0.767	1285482	WORD_OFF	n/a	n/a	BEEF	9	5	[0, 0, 0]	n/a	FR1	0	R1446T
731.874	1.6	1286245	WORD	n/a	wordpools/wordpool_long_EN.txt	SEAT	10	5	[0, 0, 0]	n/a	FR1	0	R1446T
733.474	0.8	1287852	WORD_OFF	n/a	n/a	SEAT	10	5	[0, 0, 0]	n/a	FR1	0	R1446T
734.274	1.616	1288651	WORD	n/a	wordpools/wordpool_long_EN.txt	RUST	11	5	[0, 0, 0]	n/a	FR1	0	R1446T
735.89	0.8	1290266	WORD_OFF	n/a	n/a	RUST	11	5	[0, 0, 0]	n/a	FR1	0	R1446T
736.69	1.616	1291065	WORD	n/a	wordpools/wordpool_long_EN.txt	CRIB	12	5	[0, 0, 0]	n/a	FR1	0	R1446T
738.306	0.001	1292680	WORD_OFF	n/a	n/a	CRIB	12	5	[0, 0, 0]	n/a	FR1	0	R1446T
738.307	0.0	1292680	ENCODING_END	n/a	n/a	n/a	-999	5	[0, 0, 0]	n/a	FR1	0	R1446T
738.306	0.001	1292683	PROB	0.001	n/a	n/a	-999	5	[5, 2, 2]	9	FR1	0	R1446T
738.307	0.0	1292684	START	n/a	n/a	n/a	-999	5	[-999, -999, -999]	n/a	FR1	0	R1446T
738.307	5.631	1292689	DISTRACT_START	n/a	n/a	n/a	-999	5	[0, 0, 0]	n/a	FR1	0	R1446T
743.938	2.934	1298315	PROB	2.934	n/a	n/a	-999	5	[1, 5, 1]	7	FR1	0	R1446T
746.872	3.981	1301250	PROB	3.981	n/a	n/a	-999	5	[4, 6, 6]	16	FR1	0	R1446T
750.853	3.516	1305231	PROB	3.516	n/a	n/a	-999	5	[6, 1, 3]	10	FR1	0	R1446T
754.369	3.65	1308748	PROB	3.65	n/a	n/a	-999	5	[5, 4, 3]	12	FR1	0	R1446T
758.019	8.58	1312398	PROB	8.58	n/a	n/a	-999	5	[8, 8, 5]	21	FR1	0	R1446T
766.599	0.0	1320980	STOP	n/a	n/a	n/a	-999	5	[-999, -999, -999]	n/a	FR1	0	R1446T
766.599	2.233	1320983	DISTRACT_END	n/a	n/a	n/a	-999	5	[0, 0, 0]	n/a	FR1	0	R1446T
768.832	2.368	1323212	REC_START	n/a	n/a	n/a	-999	5	[0, 0, 0]	n/a	FR1	0	R1446T
771.2	11.373	1325581	REC_WORD	11.373	n/a	SMILE	7	5	[0, 0, 0]	n/a	FR1	0	R1446T
782.573	8.149	1336956	REC_WORD_VV	8.149	n/a	<>	-999	5	[0, 0, 0]	n/a	FR1	0	R1446T
790.722	1.026	1345106	REC_WORD	1.026	n/a	RUST	11	5	[0, 0, 0]	n/a	FR1	0	R1446T
791.748	7.297	1346132	REC_WORD	7.297	n/a	SEAT	10	5	[0, 0, 0]	n/a	FR1	0	R1446T
799.045	2.347	1353429	REC_END	n/a	n/a	n/a	-999	5	[0, 0, 0]	n/a	FR1	0	R1446T
801.392	10.351	1355782	COUNTDOWN_START	n/a	n/a	n/a	-999	6	[0, 0, 0]	n/a	FR1	0	R1446T
811.743	0.0	1366132	COUNTDOWN_END	n/a	n/a	n/a	-999	6	[0, 0, 0]	n/a	FR1	0	R1446T
811.743	2.133	1366132	ENCODING_START	n/a	n/a	n/a	-999	6	[0, 0, 0]	n/a	FR1	0	R1446T
813.876	1.616	1368265	WORD	n/a	wordpools/wordpool_long_EN.txt	SNACK	1	6	[0, 0, 0]	n/a	FR1	0	R1446T
815.492	0.884	1369880	WORD_OFF	n/a	n/a	SNACK	1	6	[0, 0, 0]	n/a	FR1	0	R1446T
816.376	1.616	1370758	WORD	n/a	wordpools/wordpool_long_EN.txt	WING	2	6	[0, 0, 0]	n/a	FR1	0	R1446T
817.992	0.884	1372374	WORD_OFF	n/a	n/a	WING	2	6	[0, 0, 0]	n/a	FR1	0	R1446T
818.876	1.616	1373260	WORD	n/a	wordpools/wordpool_long_EN.txt	COD	3	6	[0, 0, 0]	n/a	FR1	0	R1446T
820.492	0.932	1374876	WORD_OFF	n/a	n/a	COD	3	6	[0, 0, 0]	n/a	FR1	0	R1446T
821.424	1.6	1375806	WORD	n/a	wordpools/wordpool_long_EN.txt	PLANT	4	6	[0, 0, 0]	n/a	FR1	0	R1446T
823.024	0.916	1377413	WORD_OFF	n/a	n/a	PLANT	4	6	[0, 0, 0]	n/a	FR1	0	R1446T
823.94	1.601	1378326	WORD	n/a	wordpools/wordpool_long_EN.txt	LACE	5	6	[0, 0, 0]	n/a	FR1	0	R1446T
825.541	0.867	1379923	WORD_OFF	n/a	n/a	LACE	5	6	[0, 0, 0]	n/a	FR1	0	R1446T
826.408	1.617	1380792	WORD	n/a	wordpools/wordpool_long_EN.txt	RUG	6	6	[0, 0, 0]	n/a	FR1	0	R1446T
828.025	0.799	1382408	WORD_OFF	n/a	n/a	RUG	6	6	[0, 0, 0]	n/a	FR1	0	R1446T
828.824	1.6	1383207	WORD	n/a	wordpools/wordpool_long_EN.txt	SCOTCH	7	6	[0, 0, 0]	n/a	FR1	0	R1446T
830.424	0.817	1384804	WORD_OFF	n/a	n/a	SCOTCH	7	6	[0, 0, 0]	n/a	FR1	0	R1446T
831.241	1.6	1385621	WORD	n/a	wordpools/wordpool_long_EN.txt	MAZE	8	6	[0, 0, 0]	n/a	FR1	0	R1446T
832.841	0.833	1387227	WORD_OFF	n/a	n/a	MAZE	8	6	[0, 0, 0]	n/a	FR1	0	R1446T
833.674	1.6	1388061	WORD	n/a	wordpools/wordpool_long_EN.txt	ROOT	9	6	[0, 0, 0]	n/a	FR1	0	R1446T
835.274	0.884	1389659	WORD_OFF	n/a	n/a	ROOT	9	6	[0, 0, 0]	n/a	FR1	0	R1446T
836.158	1.616	1390537	WORD	n/a	wordpools/wordpool_long_EN.txt	SEED	10	6	[0, 0, 0]	n/a	FR1	0	R1446T
837.774	0.817	1392161	WORD_OFF	n/a	n/a	SEED	10	6	[0, 0, 0]	n/a	FR1	0	R1446T
838.591	1.6	1392977	WORD	n/a	wordpools/wordpool_long_EN.txt	APE	11	6	[0, 0, 0]	n/a	FR1	0	R1446T
840.191	0.9	1394575	WORD_OFF	n/a	n/a	APE	11	6	[0, 0, 0]	n/a	FR1	0	R1446T
841.091	1.6	1395471	WORD	n/a	wordpools/wordpool_long_EN.txt	HOUND	12	6	[0, 0, 0]	n/a	FR1	0	R1446T
842.691	0.001	1397077	WORD_OFF	n/a	n/a	HOUND	12	6	[0, 0, 0]	n/a	FR1	0	R1446T
842.692	0.0	1397077	ENCODING_END	n/a	n/a	n/a	-999	6	[0, 0, 0]	n/a	FR1	0	R1446T
842.692	0.0	1397077	DISTRACT_START	n/a	n/a	n/a	-999	6	[0, 0, 0]	n/a	FR1	0	R1446T
842.691	0.001	1397083	PROB	0.001	n/a	n/a	-999	6	[1, 8, 1]	10	FR1	0	R1446T
842.692	3.749	1397084	START	n/a	n/a	n/a	-999	6	[-999, -999, -999]	n/a	FR1	0	R1446T
846.441	3.168	1400833	PROB	3.168	n/a	n/a	-999	6	[6, 2, 2]	10	FR1	0	R1446T
849.609	3.317	1404002	PROB	3.317	n/a	n/a	-999	6	[4, 2, 1]	7	FR1	0	R1446T
852.926	3.349	1407319	PROB	3.349	n/a	n/a	-999	6	[3, 2, 3]	8	FR1	0	R1446T
856.275	2.983	1410669	PROB	2.983	n/a	n/a	-999	6	[2, 4, 1]	7	FR1	0	R1446T
859.258	4.816	1413652	PROB	4.816	n/a	n/a	-999	6	[1, 6, 8]	15	FR1	0	R1446T
864.074	0.0	1418462	DISTRACT_END	n/a	n/a	n/a	-999	6	[0, 0, 0]	n/a	FR1	0	R1446T
864.074	2.115	1418469	STOP	n/a	n/a	n/a	-999	6	[-999, -999, -999]	n/a	FR1	0	R1446T
866.189	17.187	1420577	REC_START	n/a	n/a	n/a	-999	6	[0, 0, 0]	n/a	FR1	0	R1446T
883.376	1.0	1437773	REC_WORD_VV	1.0	n/a	<>	-999	6	[0, 0, 0]	n/a	FR1	0	R1446T
884.376	11.99	1438774	REC_WORD_VV	11.99	n/a	<>	-999	6	[0, 0, 0]	n/a	FR1	0	R1446T
896.366	1.932	1450759	REC_END	n/a	n/a	n/a	-999	6	[0, 0, 0]	n/a	FR1	0	R1446T
898.298	10.347	1452690	COUNTDOWN_START	n/a	n/a	n/a	-999	7	[0, 0, 0]	n/a	FR1	0	R1446T
908.645	0.0	1463041	COUNTDOWN_END	n/a	n/a	n/a	-999	7	[0, 0, 0]	n/a	FR1	0	R1446T
908.645	1.884	1463041	ENCODING_START	n/a	n/a	n/a	-999	7	[0, 0, 0]	n/a	FR1	0	R1446T
910.529	1.616	1464919	WORD	n/a	wordpools/wordpool_long_EN.txt	SHARK	1	7	[0, 0, 0]	n/a	FR1	0	R1446T
912.145	0.934	1466535	WORD_OFF	n/a	n/a	SHARK	1	7	[0, 0, 0]	n/a	FR1	0	R1446T
913.079	1.615	1467474	WORD	n/a	wordpools/wordpool_long_EN.txt	DRINK	2	7	[0, 0, 0]	n/a	FR1	0	R1446T
914.694	0.834	1469089	WORD_OFF	n/a	n/a	DRINK	2	7	[0, 0, 0]	n/a	FR1	0	R1446T
915.528	1.616	1469923	WORD	n/a	wordpools/wordpool_long_EN.txt	BAT	3	7	[0, 0, 0]	n/a	FR1	0	R1446T
917.144	0.767	1471538	WORD_OFF	n/a	n/a	BAT	3	7	[0, 0, 0]	n/a	FR1	0	R1446T
917.911	1.616	1472302	WORD	n/a	wordpools/wordpool_long_EN.txt	LODGE	4	7	[0, 0, 0]	n/a	FR1	0	R1446T
919.527	0.849	1473926	WORD_OFF	n/a	n/a	LODGE	4	7	[0, 0, 0]	n/a	FR1	0	R1446T
920.376	1.616	1474769	WORD	n/a	wordpools/wordpool_long_EN.txt	STORE	5	7	[0, 0, 0]	n/a	FR1	0	R1446T
921.992	0.9	1476384	WORD_OFF	n/a	n/a	STORE	5	7	[0, 0, 0]	n/a	FR1	0	R1446T
922.892	1.616	1477289	WORD	n/a	wordpools/wordpool_long_EN.txt	FENCE	6	7	[0, 0, 0]	n/a	FR1	0	R1446T
924.508	0.967	1478904	WORD_OFF	n/a	n/a	FENCE	6	7	[0, 0, 0]	n/a	FR1	0	R1446T
925.475	1.616	1479878	WORD	n/a	wordpools/wordpool_long_EN.txt	JAR	7	7	[0, 0, 0]	n/a	FR1	0	R1446T
927.091	0.916	1481485	WORD_OFF	n/a	n/a	JAR	7	7	[0, 0, 0]	n/a	FR1	0	R1446T
928.007	1.601	1482407	WORD	n/a	wordpools/wordpool_long_EN.txt	FLEET	8	7	[0, 0, 0]	n/a	FR1	0	R1446T
929.608	0.95	1484004	WORD_OFF	n/a	n/a	FLEET	8	7	[0, 0, 0]	n/a	FR1	0	R1446T
930.558	1.616	1484952	WORD	n/a	wordpools/wordpool_long_EN.txt	SHOE	9	7	[0, 0, 0]	n/a	FR1	0	R1446T
932.174	0.966	1486568	WORD_OFF	n/a	n/a	SHOE	9	7	[0, 0, 0]	n/a	FR1	0	R1446T
933.14	1.6	1487542	WORD	n/a	wordpools/wordpool_long_EN.txt	PIT	10	7	[0, 0, 0]	n/a	FR1	0	R1446T
934.74	0.898	1489140	WORD_OFF	n/a	n/a	PIT	10	7	[0, 0, 0]	n/a	FR1	0	R1446T
935.638	1.601	1490035	WORD	n/a	wordpools/wordpool_long_EN.txt	CUP	11	7	[0, 0, 0]	n/a	FR1	0	R1446T
937.239	0.984	1491642	WORD_OFF	n/a	n/a	CUP	11	7	[0, 0, 0]	n/a	FR1	0	R1446T
938.223	1.616	1492625	WORD	n/a	wordpools/wordpool_long_EN.txt	PASTE	12	7	[0, 0, 0]	n/a	FR1	0	R1446T
939.839	0.001	1494240	WORD_OFF	n/a	n/a	PASTE	12	7	[0, 0, 0]	n/a	FR1	0	R1446T
939.84	0.0	1494240	ENCODING_END	n/a	n/a	n/a	-999	7	[0, 0, 0]	n/a	FR1	0	R1446T
939.84	0.0	1494240	DISTRACT_START	n/a	n/a	n/a	-999	7	[0, 0, 0]	n/a	FR1	0	R1446T
939.839	0.001	1494245	PROB	0.001	n/a	n/a	-999	7	[7, 7, 8]	22	FR1	0	R1446T
939.84	9.513	1494246	START	n/a	n/a	n/a	-999	7	[-999, -999, -999]	n/a	FR1	0	R1446T
949.353	3.133	1503760	PROB	3.133	n/a	n/a	-999	7	[2, 7, 7]	16	FR1	0	R1446T
952.486	8.131	1506894	PROB	8.131	n/a	n/a	-999	7	[7, 7, 8]	22	FR1	0	R1446T
960.617	0.0	1515020	DISTRACT_END	n/a	n/a	n/a	-999	7	[0, 0, 0]	n/a	FR1	0	R1446T
960.617	2.35	1515026	STOP	n/a	n/a	n/a	-999	7	[-999, -999, -999]	n/a	FR1	0	R1446T
962.967	29.964	1517372	REC_START	n/a	n/a	n/a	-999	7	[0, 0, 0]	n/a	FR1	0	R1446T
992.931	0.228	1547344	REC_WORD_VV	0.228	n/a	<>	-999	7	[0, 0, 0]	n/a	FR1	0	R1446T
993.159	3.688	1547563	REC_END	n/a	n/a	n/a	-999	7	[0, 0, 0]	n/a	FR1	0	R1446T
996.847	10.347	1551250	COUNTDOWN_START	n/a	n/a	n/a	-999	8	[0, 0, 0]	n/a	FR1	0	R1446T
1007.194	0.001	1561600	COUNTDOWN_END	n/a	n/a	n/a	-999	8	[0, 0, 0]	n/a	FR1	0	R1446T
1007.195	2.2	1561600	ENCODING_START	n/a	n/a	n/a	-999	8	[0, 0, 0]	n/a	FR1	0	R1446T
1009.395	1.616	1563803	WORD	n/a	wordpools/wordpool_long_EN.txt	RAIL	1	8	[0, 0, 0]	n/a	FR1	0	R1446T
1011.011	0.983	1565418	WORD_OFF	n/a	n/a	RAIL	1	8	[0, 0, 0]	n/a	FR1	0	R1446T
1011.994	1.616	1566402	WORD	n/a	wordpools/wordpool_long_EN.txt	MUG	2	8	[0, 0, 0]	n/a	FR1	0	R1446T
1013.61	0.882	1568017	WORD_OFF	n/a	n/a	MUG	2	8	[0, 0, 0]	n/a	FR1	0	R1446T
1014.492	1.601	1568895	WORD	n/a	wordpools/wordpool_long_EN.txt	SLUSH	3	8	[0, 0, 0]	n/a	FR1	0	R1446T
1016.093	0.882	1570501	WORD_OFF	n/a	n/a	SLUSH	3	8	[0, 0, 0]	n/a	FR1	0	R1446T
1016.975	1.617	1571388	WORD	n/a	wordpools/wordpool_long_EN.txt	LEAF	4	8	[0, 0, 0]	n/a	FR1	0	R1446T
1018.592	0.866	1573003	WORD_OFF	n/a	n/a	LEAF	4	8	[0, 0, 0]	n/a	FR1	0	R1446T
1019.458	1.6	1573864	WORD	n/a	wordpools/wordpool_long_EN.txt	GEESE	5	8	[0, 0, 0]	n/a	FR1	0	R1446T
1021.058	0.934	1575470	WORD_OFF	n/a	n/a	GEESE	5	8	[0, 0, 0]	n/a	FR1	0	R1446T
1021.992	1.616	1576401	WORD	n/a	wordpools/wordpool_long_EN.txt	CARD	6	8	[0, 0, 0]	n/a	FR1	0	R1446T
1023.608	0.817	1578016	WORD_OFF	n/a	n/a	CARD	6	8	[0, 0, 0]	n/a	FR1	0	R1446T
1024.425	1.616	1578832	WORD	n/a	wordpools/wordpool_long_EN.txt	LUNCH	7	8	[0, 0, 0]	n/a	FR1	0	R1446T
1026.041	0.916	1580448	WORD_OFF	n/a	n/a	LUNCH	7	8	[0, 0, 0]	n/a	FR1	0	R1446T
1026.957	1.6	1581369	WORD	n/a	wordpools/wordpool_long_EN.txt	JUDGE	8	8	[0, 0, 0]	n/a	FR1	0	R1446T
1028.557	0.883	1582967	WORD_OFF	n/a	n/a	JUDGE	8	8	[0, 0, 0]	n/a	FR1	0	R1446T
1029.44	1.616	1583854	WORD	n/a	wordpools/wordpool_long_EN.txt	CONE	9	8	[0, 0, 0]	n/a	FR1	0	R1446T
1031.056	0.85	1585469	WORD_OFF	n/a	n/a	CONE	9	8	[0, 0, 0]	n/a	FR1	0	R1446T
1031.906	1.616	1586312	WORD	n/a	wordpools/wordpool_long_EN.txt	SCARF	10	8	[0, 0, 0]	n/a	FR1	0	R1446T
1033.522	0.917	1587936	WORD_OFF	n/a	n/a	SCARF	10	8	[0, 0, 0]	n/a	FR1	0	R1446T
1034.439	1.616	1588849	WORD	n/a	wordpools/wordpool_long_EN.txt	NEST	11	8	[0, 0, 0]	n/a	FR1	0	R1446T
1036.055	0.817	1590464	WORD_OFF	n/a	n/a	NEST	11	8	[0, 0, 0]	n/a	FR1	0	R1446T
1036.872	1.616	1591281	WORD	n/a	wordpools/wordpool_long_EN.txt	CLOCK	12	8	[0, 0, 0]	n/a	FR1	0	R1446T
1038.488	0.001	1592896	WORD_OFF	n/a	n/a	CLOCK	12	8	[0, 0, 0]	n/a	FR1	0	R1446T
1038.489	0.0	1592905	ENCODING_END	n/a	n/a	n/a	-999	8	[0, 0, 0]	n/a	FR1	0	R1446T
1038.489	0.0	1592905	DISTRACT_START	n/a	n/a	n/a	-999	8	[0, 0, 0]	n/a	FR1	0	R1446T
1038.488	0.001	1592908	PROB	0.001	n/a	n/a	-999	8	[3, 4, 1]	8	FR1	0	R1446T
1038.489	3.881	1592909	START	n/a	n/a	n/a	-999	8	[-999, -999, -999]	n/a	FR1	0	R1446T
1042.37	3.616	1596791	PROB	3.616	n/a	n/a	-999	8	[3, 5, 3]	11	FR1	0	R1446T
1045.986	3.167	1600407	PROB	3.167	n/a	n/a	-999	8	[1, 7, 6]	14	FR1	0	R1446T
1049.153	2.698	1603575	PROB	2.698	n/a	n/a	-999	8	[4, 2, 5]	11	FR1	0	R1446T
1051.851	4.05	1606273	PROB	4.05	n/a	n/a	-999	8	[4, 5, 5]	14	FR1	0	R1446T
1055.901	6.514	1610324	PROB	6.514	n/a	n/a	-999	8	[7, 3, 8]	18	FR1	0	R1446T
1062.415	0.0	1616836	DISTRACT_END	n/a	n/a	n/a	-999	8	[0, 0, 0]	n/a	FR1	0	R1446T
1062.415	2.132	1616839	STOP	n/a	n/a	n/a	-999	8	[-999, -999, -999]	n/a	FR1	0	R1446T
1064.547	0.67	1618968	REC_START	n/a	n/a	n/a	-999	8	[0, 0, 0]	n/a	FR1	0	R1446T
1065.217	15.376	1619641	REC_WORD	15.376	n/a	RAIL	1	8	[0, 0, 0]	n/a	FR1	0	R1446T
1080.593	14.14	1635019	REC_WORD	14.14	n/a	GEESE	5	8	[0, 0, 0]	n/a	FR1	0	R1446T
1094.733	2.039	1649159	REC_END	n/a	n/a	n/a	-999	8	[0, 0, 0]	n/a	FR1	0	R1446T
1096.772	10.348	1651196	COUNTDOWN_START	n/a	n/a	n/a	-999	9	[0, 0, 0]	n/a	FR1	0	R1446T
1107.12	0.0	1661546	COUNTDOWN_END	n/a	n/a	n/a	-999	9	[0, 0, 0]	n/a	FR1	0	R1446T
1107.12	2.183	1661546	ENCODING_START	n/a	n/a	n/a	-999	9	[0, 0, 0]	n/a	FR1	0	R1446T
1109.303	1.601	1663732	WORD	n/a	wordpools/wordpool_long_EN.txt	CLOTH	1	9	[0, 0, 0]	n/a	FR1	0	R1446T
1110.904	0.882	1665330	WORD_OFF	n/a	n/a	CLOTH	1	9	[0, 0, 0]	n/a	FR1	0	R1446T
1111.786	1.617	1666216	WORD	n/a	wordpools/wordpool_long_EN.txt	MUD	2	9	[0, 0, 0]	n/a	FR1	0	R1446T
1113.403	0.95	1667831	WORD_OFF	n/a	n/a	MUD	2	9	[0, 0, 0]	n/a	FR1	0	R1446T
1114.353	1.614	1668780	WORD	n/a	wordpools/wordpool_long_EN.txt	SUN	3	9	[0, 0, 0]	n/a	FR1	0	R1446T
1115.967	0.985	1670395	WORD_OFF	n/a	n/a	SUN	3	9	[0, 0, 0]	n/a	FR1	0	R1446T
1116.952	1.616	1671378	WORD	n/a	wordpools/wordpool_long_EN.txt	GLOBE	4	9	[0, 0, 0]	n/a	FR1	0	R1446T
1118.568	0.95	1672993	WORD_OFF	n/a	n/a	GLOBE	4	9	[0, 0, 0]	n/a	FR1	0	R1446T
1119.518	1.6	1673941	WORD	n/a	wordpools/wordpool_long_EN.txt	WORM	5	9	[0, 0, 0]	n/a	FR1	0	R1446T
1121.118	0.783	1675548	WORD_OFF	n/a	n/a	WORM	5	9	[0, 0, 0]	n/a	FR1	0	R1446T
1121.901	1.616	1676329	WORD	n/a	wordpools/wordpool_long_EN.txt	TRASH	6	9	[0, 0, 0]	n/a	FR1	0	R1446T
1123.517	0.966	1677945	WORD_OFF	n/a	n/a	TRASH	6	9	[0, 0, 0]	n/a	FR1	0	R1446T
1124.483	1.6	1678910	WORD	n/a	wordpools/wordpool_long_EN.txt	TEETH	7	9	[0, 0, 0]	n/a	FR1	0	R1446T
1126.083	0.799	1680508	WORD_OFF	n/a	n/a	TEETH	7	9	[0, 0, 0]	n/a	FR1	0	R1446T
1126.882	1.601	1681307	WORD	n/a	wordpools/wordpool_long_EN.txt	SUIT	8	9	[0, 0, 0]	n/a	FR1	0	R1446T
1128.483	0.816	1682913	WORD_OFF	n/a	n/a	SUIT	8	9	[0, 0, 0]	n/a	FR1	0	R1446T
1129.299	1.616	1683730	WORD	n/a	wordpools/wordpool_long_EN.txt	PALM	9	9	[0, 0, 0]	n/a	FR1	0	R1446T
1130.915	0.783	1685345	WORD_OFF	n/a	n/a	PALM	9	9	[0, 0, 0]	n/a	FR1	0	R1446T
1131.698	1.6	1686126	WORD	n/a	wordpools/wordpool_long_EN.txt	SLEEVE	10	9	[0, 0, 0]	n/a	FR1	0	R1446T
1133.298	0.783	1687724	WORD_OFF	n/a	n/a	SLEEVE	10	9	[0, 0, 0]	n/a	FR1	0	R1446T
1134.081	1.616	1688514	WORD	n/a	wordpools/wordpool_long_EN.txt	WORLD	11	9	[0, 0, 0]	n/a	FR1	0	R1446T
1135.697	0.817	1690129	WORD_OFF	n/a	n/a	WORLD	11	9	[0, 0, 0]	n/a	FR1	0	R1446T
1136.514	1.616	1690946	WORD	n/a	wordpools/wordpool_long_EN.txt	DUST	12	9	[0, 0, 0]	n/a	FR1	0	R1446T
1138.13	0.001	1692561	WORD_OFF	n/a	n/a	DUST	12	9	[0, 0, 0]	n/a	FR1	0	R1446T
1138.131	0.0	1692561	ENCODING_END	n/a	n/a	n/a	-999	9	[0, 0, 0]	n/a	FR1	0	R1446T
1138.13	0.001	1692565	PROB	0.001	n/a	n/a	-999	9	[4, 5, 5]	14	FR1	0	R1446T
1138.131	0.0	1692566	START	n/a	n/a	n/a	-999	9	[-999, -999, -999]	n/a	FR1	0	R1446T
1138.131	4.431	1692570	DISTRACT_START	n/a	n/a	n/a	-999	9	[0, 0, 0]	n/a	FR1	0	R1446T
1142.562	4.583	1696997	PROB	4.583	n/a	n/a	-999	9	[5, 6, 7]	18	FR1	0	R1446T
1147.145	4.731	1701581	PROB	4.731	n/a	n/a	-999	9	[7, 2, 4]	13	FR1	0	R1446T
1151.876	7.814	1706313	PROB	7.814	n/a	n/a	-999	9	[8, 5, 2]	15	FR1	0	R1446T
1159.69	0.0	1714122	DISTRACT_END	n/a	n/a	n/a	-999	9	[0, 0, 0]	n/a	FR1	0	R1446T
1159.69	2.167	1714128	STOP	n/a	n/a	n/a	-999	9	[-999, -999, -999]	n/a	FR1	0	R1446T
1161.857	29.965	1716289	REC_START	n/a	n/a	n/a	-999	9	[0, 0, 0]	n/a	FR1	0	R1446T
1191.822	0.241	1746264	REC_WORD_VV	0.241	n/a	<>	-999	9	[0, 0, 0]	n/a	FR1	0	R1446T
1192.063	3.742	1746498	REC_END	n/a	n/a	n/a	-999	9	[0, 0, 0]	n/a	FR1	0	R1446T
1195.805	10.351	1750246	COUNTDOWN_START	n/a	n/a	n/a	-999	10	[0, 0, 0]	n/a	FR1	0	R1446T
1206.156	0.0	1760588	COUNTDOWN_END	n/a	n/a	n/a	-999	10	[0, 0, 0]	n/a	FR1	0	R1446T
1206.156	2.167	1760597	ENCODING_START	n/a	n/a	n/a	-999	10	[0, 0, 0]	n/a	FR1	0	R1446T
1208.323	1.6	1762756	WORD	n/a	wordpools/wordpool_long_EN.txt	BEAK	1	10	[0, 0, 0]	n/a	FR1	0	R1446T
1209.923	0.85	1764354	WORD_OFF	n/a	n/a	BEAK	1	10	[0, 0, 0]	n/a	FR1	0	R1446T
1210.773	1.616	1765205	WORD	n/a	wordpools/wordpool_long_EN.txt	GROUND	2	10	[0, 0, 0]	n/a	FR1	0	R1446T
1212.389	0.917	1766821	WORD_OFF	n/a	n/a	GROUND	2	10	[0, 0, 0]	n/a	FR1	0	R1446T
1213.306	1.616	1767742	WORD	n/a	wordpools/wordpool_long_EN.txt	SEAL	3	10	[0, 0, 0]	n/a	FR1	0	R1446T
1214.922	0.783	1769358	WORD_OFF	n/a	n/a	SEAL	3	10	[0, 0, 0]	n/a	FR1	0	R1446T
1215.705	1.617	1770139	WORD	n/a	wordpools/wordpool_long_EN.txt	RAFT	4	10	[0, 0, 0]	n/a	FR1	0	R1446T
1217.322	0.916	1771754	WORD_OFF	n/a	n/a	RAFT	4	10	[0, 0, 0]	n/a	FR1	0	R1446T
1218.238	1.616	1772676	WORD	n/a	wordpools/wordpool_long_EN.txt	STEAK	5	10	[0, 0, 0]	n/a	FR1	0	R1446T
1219.854	0.866	1774291	WORD_OFF	n/a	n/a	STEAK	5	10	[0, 0, 0]	n/a	FR1	0	R1446T
1220.72	1.617	1775161	WORD	n/a	wordpools/wordpool_long_EN.txt	SOUP	6	10	[0, 0, 0]	n/a	FR1	0	R1446T
1222.337	0.816	1776776	WORD_OFF	n/a	n/a	SOUP	6	10	[0, 0, 0]	n/a	FR1	0	R1446T
1223.153	1.616	1777592	WORD	n/a	wordpools/wordpool_long_EN.txt	SQUARE	7	10	[0, 0, 0]	n/a	FR1	0	R1446T
1224.769	0.867	1779208	WORD_OFF	n/a	n/a	SQUARE	7	10	[0, 0, 0]	n/a	FR1	0	R1446T
1225.636	1.615	1780077	WORD	n/a	wordpools/wordpool_long_EN.txt	RIB	8	10	[0, 0, 0]	n/a	FR1	0	R1446T
1227.251	0.901	1781692	WORD_OFF	n/a	n/a	RIB	8	10	[0, 0, 0]	n/a	FR1	0	R1446T
1228.152	1.616	1782587	WORD	n/a	wordpools/wordpool_long_EN.txt	KEY	9	10	[0, 0, 0]	n/a	FR1	0	R1446T
1229.768	0.934	1784203	WORD_OFF	n/a	n/a	KEY	9	10	[0, 0, 0]	n/a	FR1	0	R1446T
1230.702	1.615	1785142	WORD	n/a	wordpools/wordpool_long_EN.txt	CLAY	10	10	[0, 0, 0]	n/a	FR1	0	R1446T
1232.317	0.834	1786757	WORD_OFF	n/a	n/a	CLAY	10	10	[0, 0, 0]	n/a	FR1	0	R1446T
1233.151	1.617	1787591	WORD	n/a	wordpools/wordpool_long_EN.txt	FLAG	11	10	[0, 0, 0]	n/a	FR1	0	R1446T
1234.768	0.882	1789207	WORD_OFF	n/a	n/a	FLAG	11	10	[0, 0, 0]	n/a	FR1	0	R1446T
1235.65	1.616	1790084	WORD	n/a	wordpools/wordpool_long_EN.txt	STORM	12	10	[0, 0, 0]	n/a	FR1	0	R1446T
1237.266	0.001	1791708	WORD_OFF	n/a	n/a	STORM	12	10	[0, 0, 0]	n/a	FR1	0	R1446T
1237.267	0.0	1791708	ENCODING_END	n/a	n/a	n/a	-999	10	[0, 0, 0]	n/a	FR1	0	R1446T
1237.267	0.0	1791708	DISTRACT_START	n/a	n/a	n/a	-999	10	[0, 0, 0]	n/a	FR1	0	R1446T
1237.266	0.001	1791715	PROB	0.001	n/a	n/a	-999	10	[7, 3, 3]	13	FR1	0	R1446T
1237.267	4.432	1791716	START	n/a	n/a	n/a	-999	10	[-999, -999, -999]	n/a	FR1	0	R1446T
1241.699	3.333	1796149	PROB	3.333	n/a	n/a	-999	10	[4, 1, 4]	9	FR1	0	R1446T
1245.032	3.683	1799482	PROB	3.683	n/a	n/a	-999	10	[1, 4, 2]	7	FR1	0	R1446T
1248.715	2.517	1803166	PROB	2.517	n/a	n/a	-999	10	[1, 5, 5]	11	FR1	0	R1446T
1251.232	3.631	1805683	PROB	3.631	n/a	n/a	-999	10	[2, 1, 6]	9	FR1	0	R1446T
1254.863	4.348	1809315	PROB	4.348	n/a	n/a	-999	10	[7, 3, 6]	16	FR1	0	R1446T
1259.211	0.0	1813655	DISTRACT_END	n/a	n/a	n/a	-999	10	[0, 0, 0]	n/a	FR1	0	R1446T
1259.211	2.166	1813663	STOP	n/a	n/a	n/a	-999	10	[-999, -999, -999]	n/a	FR1	0	R1446T
1261.377	15.024	1815823	REC_START	n/a	n/a	n/a	-999	10	[0, 0, 0]	n/a	FR1	0	R1446T
1276.401	15.171	1830856	REC_WORD	15.171	n/a	STEAK	5	10	[0, 0, 0]	n/a	FR1	0	R1446T
1291.572	3.33	1846023	REC_END	n/a	n/a	n/a	-999	10	[0, 0, 0]	n/a	FR1	0	R1446T
1294.902	10.347	1849359	COUNTDOWN_START	n/a	n/a	n/a	-999	11	[0, 0, 0]	n/a	FR1	0	R1446T
1305.249	0.0	1859700	COUNTDOWN_END	n/a	n/a	n/a	-999	11	[0, 0, 0]	n/a	FR1	0	R1446T
1305.249	2.084	1859700	ENCODING_START	n/a	n/a	n/a	-999	11	[0, 0, 0]	n/a	FR1	0	R1446T
1307.333	1.616	1861789	WORD	n/a	wordpools/wordpool_long_EN.txt	ROAD	1	11	[0, 0, 0]	n/a	FR1	0	R1446T
1308.949	0.8	1863405	WORD_OFF	n/a	n/a	ROAD	1	11	[0, 0, 0]	n/a	FR1	0	R1446T
1309.749	1.616	1864203	WORD	n/a	wordpools/wordpool_long_EN.txt	BRANCH	2	11	[0, 0, 0]	n/a	FR1	0	R1446T
1311.365	0.984	1865819	WORD_OFF	n/a	n/a	BRANCH	2	11	[0, 0, 0]	n/a	FR1	0	R1446T
1312.349	1.615	1866802	WORD	n/a	wordpools/wordpool_long_EN.txt	HOOF	3	11	[0, 0, 0]	n/a	FR1	0	R1446T
1313.964	0.95	1868417	WORD_OFF	n/a	n/a	HOOF	3	11	[0, 0, 0]	n/a	FR1	0	R1446T
1314.914	1.617	1869365	WORD	n/a	wordpools/wordpool_long_EN.txt	SMOG	4	11	[0, 0, 0]	n/a	FR1	0	R1446T
1316.531	0.765	1870989	WORD_OFF	n/a	n/a	SMOG	4	11	[0, 0, 0]	n/a	FR1	0	R1446T
1317.296	1.601	1871753	WORD	n/a	wordpools/wordpool_long_EN.txt	MAT	5	11	[0, 0, 0]	n/a	FR1	0	R1446T
1318.897	0.932	1873351	WORD_OFF	n/a	n/a	MAT	5	11	[0, 0, 0]	n/a	FR1	0	R1446T
1319.829	1.601	1874281	WORD	n/a	wordpools/wordpool_long_EN.txt	TAIL	6	11	[0, 0, 0]	n/a	FR1	0	R1446T
1321.43	0.998	1875888	WORD_OFF	n/a	n/a	TAIL	6	11	[0, 0, 0]	n/a	FR1	0	R1446T
1322.428	1.6	1876880	WORD	n/a	wordpools/wordpool_long_EN.txt	FLASK	7	11	[0, 0, 0]	n/a	FR1	0	R1446T
1324.028	0.917	1878486	WORD_OFF	n/a	n/a	FLASK	7	11	[0, 0, 0]	n/a	FR1	0	R1446T
1324.945	1.616	1879399	WORD	n/a	wordpools/wordpool_long_EN.txt	LAWN	8	11	[0, 0, 0]	n/a	FR1	0	R1446T
1326.561	0.848	1881015	WORD_OFF	n/a	n/a	LAWN	8	11	[0, 0, 0]	n/a	FR1	0	R1446T
1327.409	1.602	1881866	WORD	n/a	wordpools/wordpool_long_EN.txt	CHEST	9	11	[0, 0, 0]	n/a	FR1	0	R1446T
1329.011	0.783	1883464	WORD_OFF	n/a	n/a	CHEST	9	11	[0, 0, 0]	n/a	FR1	0	R1446T
1329.794	1.616	1884254	WORD	n/a	wordpools/wordpool_long_EN.txt	TART	10	11	[0, 0, 0]	n/a	FR1	0	R1446T
1331.41	0.85	1885869	WORD_OFF	n/a	n/a	TART	10	11	[0, 0, 0]	n/a	FR1	0	R1446T
1332.26	1.615	1886721	WORD	n/a	wordpools/wordpool_long_EN.txt	LINT	11	11	[0, 0, 0]	n/a	FR1	0	R1446T
1333.875	0.784	1888336	WORD_OFF	n/a	n/a	LINT	11	11	[0, 0, 0]	n/a	FR1	0	R1446T
1334.659	1.618	1889118	WORD	n/a	wordpools/wordpool_long_EN.txt	BEAN	12	11	[0, 0, 0]	n/a	FR1	0	R1446T
1336.277	0.0	1890733	WORD_OFF	n/a	n/a	BEAN	12	11	[0, 0, 0]	n/a	FR1	0	R1446T
1336.277	0.001	1890740	PROB	0.001	n/a	n/a	-999	11	[7, 4, 5]	16	FR1	0	R1446T
1336.278	0.0	1890741	START	n/a	n/a	n/a	-999	11	[-999, -999, -999]	n/a	FR1	0	R1446T
1336.278	0.0	1890742	ENCODING_END	n/a	n/a	n/a	-999	11	[0, 0, 0]	n/a	FR1	0	R1446T
1336.278	6.649	1890742	DISTRACT_START	n/a	n/a	n/a	-999	11	[0, 0, 0]	n/a	FR1	0	R1446T
1342.927	4.363	1897391	PROB	4.363	n/a	n/a	-999	11	[3, 3, 4]	10	FR1	0	R1446T
1347.29	3.916	1901755	PROB	3.916	n/a	n/a	-999	11	[6, 4, 2]	12	FR1	0	R1446T
1351.206	5.381	1905672	PROB	5.381	n/a	n/a	-999	11	[6, 5, 3]	15	FR1	0	R1446T
1356.587	0.0	1911047	DISTRACT_END	n/a	n/a	n/a	-999	11	[0, 0, 0]	n/a	FR1	0	R1446T
1356.587	2.233	1911053	STOP	n/a	n/a	n/a	-999	11	[-999, -999, -999]	n/a	FR1	0	R1446T
1358.82	29.953	1913285	REC_START	n/a	n/a	n/a	-999	11	[0, 0, 0]	n/a	FR1	0	R1446T
1388.773	0.219	1943244	REC_WORD_VV	0.219	n/a	<>	-999	11	[0, 0, 0]	n/a	FR1	0	R1446T
1388.992	2.954	1943458	REC_END	n/a	n/a	n/a	-999	11	[0, 0, 0]	n/a	FR1	0	R1446T
1391.946	10.347	1946416	COUNTDOWN_START	n/a	n/a	n/a	-999	12	[0, 0, 0]	n/a	FR1	0	R1446T
1402.293	0.0	1956767	COUNTDOWN_END	n/a	n/a	n/a	-999	12	[0, 0, 0]	n/a	FR1	0	R1446T
1402.293	1.983	1956767	ENCODING_START	n/a	n/a	n/a	-999	12	[0, 0, 0]	n/a	FR1	0	R1446T
1404.276	1.616	1958751	WORD	n/a	wordpools/wordpool_long_EN.txt	SLUG	1	12	[0, 0, 0]	n/a	FR1	0	R1446T
1405.892	0.85	1960366	WORD_OFF	n/a	n/a	SLUG	1	12	[0, 0, 0]	n/a	FR1	0	R1446T
1406.742	1.616	1961217	WORD	n/a	wordpools/wordpool_long_EN.txt	SPHINX	2	12	[0, 0, 0]	n/a	FR1	0	R1446T
1408.358	0.9	1962833	WORD_OFF	n/a	n/a	SPHINX	2	12	[0, 0, 0]	n/a	FR1	0	R1446T
1409.258	1.616	1963728	WORD	n/a	wordpools/wordpool_long_EN.txt	BRUSH	3	12	[0, 0, 0]	n/a	FR1	0	R1446T
1410.874	0.85	1965344	WORD_OFF	n/a	n/a	BRUSH	3	12	[0, 0, 0]	n/a	FR1	0	R1446T
1411.724	1.6	1966195	WORD	n/a	wordpools/wordpool_long_EN.txt	YARN	4	12	[0, 0, 0]	n/a	FR1	0	R1446T
1413.324	0.816	1967793	WORD_OFF	n/a	n/a	YARN	4	12	[0, 0, 0]	n/a	FR1	0	R1446T
1414.14	1.616	1968609	WORD	n/a	wordpools/wordpool_long_EN.txt	YOLK	5	12	[0, 0, 0]	n/a	FR1	0	R1446T
1415.756	0.9	1970233	WORD_OFF	n/a	n/a	YOLK	5	12	[0, 0, 0]	n/a	FR1	0	R1446T
1416.656	1.616	1971129	WORD	n/a	wordpools/wordpool_long_EN.txt	YARD	6	12	[0, 0, 0]	n/a	FR1	0	R1446T
1418.272	0.767	1972744	WORD_OFF	n/a	n/a	YARD	6	12	[0, 0, 0]	n/a	FR1	0	R1446T
1419.039	1.616	1973517	WORD	n/a	wordpools/wordpool_long_EN.txt	MOP	7	12	[0, 0, 0]	n/a	FR1	0	R1446T
1420.655	0.984	1975132	WORD_OFF	n/a	n/a	MOP	7	12	[0, 0, 0]	n/a	FR1	0	R1446T
1421.639	1.616	1976115	WORD	n/a	wordpools/wordpool_long_EN.txt	PARK	8	12	[0, 0, 0]	n/a	FR1	0	R1446T
1423.255	0.8	1977730	WORD_OFF	n/a	n/a	PARK	8	12	[0, 0, 0]	n/a	FR1	0	R1446T
1424.055	1.616	1978529	WORD	n/a	wordpools/wordpool_long_EN.txt	INN	9	12	[0, 0, 0]	n/a	FR1	0	R1446T
1425.671	0.933	1980144	WORD_OFF	n/a	n/a	INN	9	12	[0, 0, 0]	n/a	FR1	0	R1446T
1426.604	1.616	1981084	WORD	n/a	wordpools/wordpool_long_EN.txt	BREAD	10	12	[0, 0, 0]	n/a	FR1	0	R1446T
1428.22	0.933	1982699	WORD_OFF	n/a	n/a	BREAD	10	12	[0, 0, 0]	n/a	FR1	0	R1446T
1429.153	1.617	1983630	WORD	n/a	wordpools/wordpool_long_EN.txt	TIE	11	12	[0, 0, 0]	n/a	FR1	0	R1446T
1430.77	0.832	1985245	WORD_OFF	n/a	n/a	TIE	11	12	[0, 0, 0]	n/a	FR1	0	R1446T
1431.602	1.617	1986079	WORD	n/a	wordpools/wordpool_long_EN.txt	SCHOOL	12	12	[0, 0, 0]	n/a	FR1	0	R1446T
1433.219	0.001	1987694	WORD_OFF	n/a	n/a	SCHOOL	12	12	[0, 0, 0]	n/a	FR1	0	R1446T
1433.22	0.0	1987694	ENCODING_END	n/a	n/a	n/a	-999	12	[0, 0, 0]	n/a	FR1	0	R1446T
1433.219	0.001	1987696	PROB	0.001	n/a	n/a	-999	12	[2, 2, 2]	6	FR1	0	R1446T
1433.22	0.0	1987697	START	n/a	n/a	n/a	-999	12	[-999, -999, -999]	n/a	FR1	0	R1446T
1433.22	3.249	1987703	DISTRACT_START	n/a	n/a	n/a	-999	12	[0, 0, 0]	n/a	FR1	0	R1446T
1436.469	3.232	1990947	PROB	3.232	n/a	n/a	-999	12	[3, 1, 8]	12	FR1	0	R1446T
1439.701	5.531	1994179	PROB	5.531	n/a	n/a	-999	12	[6, 8, 4]	18	FR1	0	R1446T
1445.232	7.183	1999711	PROB	7.183	n/a	n/a	-999	12	[2, 7, 4]	14	FR1	0	R1446T
1452.415	3.614	2006895	PROB	3.614	n/a	n/a	-999	12	[4, 8, 4]	16	FR1	0	R1446T
1456.029	0.0	2010510	DISTRACT_END	n/a	n/a	n/a	-999	12	[0, 0, 0]	n/a	FR1	0	R1446T
1456.029	2.251	2010510	STOP	n/a	n/a	n/a	-999	12	[-999, -999, -999]	n/a	FR1	0	R1446T
1458.28	1.133	2012766	REC_START	n/a	n/a	n/a	-999	12	[0, 0, 0]	n/a	FR1	0	R1446T
1459.413	0.708	2013894	REC_WORD_VV	0.708	n/a	<>	-999	12	[0, 0, 0]	n/a	FR1	0	R1446T
1460.121	1.966	2014602	REC_WORD	1.966	n/a	TIE	11	12	[0, 0, 0]	n/a	FR1	0	R1446T
1462.087	11.312	2016569	REC_WORD	11.312	n/a	TIE	11	12	[0, 0, 0]	n/a	FR1	0	R1446T
1473.399	0.554	2027882	REC_WORD_VV	0.554	n/a	<>	-999	12	[0, 0, 0]	n/a	FR1	0	R1446T
1473.953	14.523	2028436	REC_WORD	14.523	n/a	SLUG	1	12	[0, 0, 0]	n/a	FR1	0	R1446T
1488.476	0.0	2042965	REC_END	n/a	n/a	n/a	-999	12	[0, 0, 0]	n/a	FR1	0	R1446T
