onset	duration	sample	trial_type	response_time	stim_file	item_name	serialpos	list	test	answer	experiment	session	subject
0.0	0.0	379900	INSTRUCT_START	n/a	n/a	n/a	-999	-999	[0, 0, 0]	n/a	FR1	0	R1151E
0.0	11.099	379900	INSTRUCT_END	n/a	n/a	n/a	-999	-999	[0, 0, 0]	n/a	FR1	0	R1151E
11.099	0.0	390998	SESS_START	n/a	n/a	n/a	-999	-999	[0, 0, 0]	n/a	FR1	0	R1151E
11.099	207.489	390998	MIC_TEST	n/a	n/a	n/a	-999	-999	[0, 0, 0]	n/a	FR1	0	R1151E
218.588	31.24	598479	PRACTICE_TRIAL	n/a	n/a	n/a	-999	-1	[0, 0, 0]	n/a	FR1	0	R1151E
249.828	10.428	629718	COUNTDOWN_START	n/a	n/a	n/a	-999	-1	[0, 0, 0]	n/a	FR1	0	R1151E
260.256	0.007	640145	COUNTDOWN_END	n/a	n/a	n/a	-999	-1	[0, 0, 0]	n/a	FR1	0	R1151E
260.263	1.616	640152	PRACTICE_ORIENT	n/a	n/a	n/a	-999	-1	[0, 0, 0]	n/a	FR1	0	R1151E
261.879	1.784	641768	PRACTICE_ORIENT_OFF	n/a	n/a	n/a	-999	-1	[0, 0, 0]	n/a	FR1	0	R1151E
263.663	1.601	643552	PRACTICE_WORD	n/a	n/a	RHINO	1	-1	[0, 0, 0]	n/a	FR1	0	R1151E
265.264	0.884	645153	PRACTICE_WORD_OFF	n/a	n/a	RHINO	-999	-1	[0, 0, 0]	n/a	FR1	0	R1151E
266.148	1.616	646037	PRACTICE_WORD	n/a	n/a	FLOOD	2	-1	[0, 0, 0]	n/a	FR1	0	R1151E
267.764	0.768	647653	PRACTICE_WORD_OFF	n/a	n/a	FLOOD	-999	-1	[0, 0, 0]	n/a	FR1	0	R1151E
268.532	1.617	648421	PRACTICE_WORD	n/a	n/a	COTTON	3	-1	[0, 0, 0]	n/a	FR1	0	R1151E
270.149	0.95	650038	PRACTICE_WORD_OFF	n/a	n/a	COTTON	-999	-1	[0, 0, 0]	n/a	FR1	0	R1151E
271.099	1.615	650988	PRACTICE_WORD	n/a	n/a	CAMEL	4	-1	[0, 0, 0]	n/a	FR1	0	R1151E
272.714	0.868	652603	PRACTICE_WORD_OFF	n/a	n/a	CAMEL	-999	-1	[0, 0, 0]	n/a	FR1	0	R1151E
273.582	1.617	653471	PRACTICE_WORD	n/a	n/a	WATCH	5	-1	[0, 0, 0]	n/a	FR1	0	R1151E
275.199	0.85	655088	PRACTICE_WORD_OFF	n/a	n/a	WATCH	-999	-1	[0, 0, 0]	n/a	FR1	0	R1151E
276.049	1.616	655938	PRACTICE_WORD	n/a	n/a	TONGUE	6	-1	[0, 0, 0]	n/a	FR1	0	R1151E
277.665	0.802	657553	PRACTICE_WORD_OFF	n/a	n/a	TONGUE	-999	-1	[0, 0, 0]	n/a	FR1	0	R1151E
278.467	1.617	658355	PRACTICE_WORD	n/a	n/a	BEAM	7	-1	[0, 0, 0]	n/a	FR1	0	R1151E
280.084	0.982	659972	PRACTICE_WORD_OFF	n/a	n/a	BEAM	-999	-1	[0, 0, 0]	n/a	FR1	0	R1151E
281.066	1.617	660954	PRACTICE_WORD	n/a	n/a	CHEST	8	-1	[0, 0, 0]	n/a	FR1	0	R1151E
282.683	0.801	662571	PRACTICE_WORD_OFF	n/a	n/a	CHEST	-999	-1	[0, 0, 0]	n/a	FR1	0	R1151E
283.484	1.617	663372	PRACTICE_WORD	n/a	n/a	IRON	9	-1	[0, 0, 0]	n/a	FR1	0	R1151E
285.101	0.949	664989	PRACTICE_WORD_OFF	n/a	n/a	IRON	-999	-1	[0, 0, 0]	n/a	FR1	0	R1151E
286.05	1.617	665938	PRACTICE_WORD	n/a	n/a	ATTIC	10	-1	[0, 0, 0]	n/a	FR1	0	R1151E
287.667	0.951	667555	PRACTICE_WORD_OFF	n/a	n/a	ATTIC	-999	-1	[0, 0, 0]	n/a	FR1	0	R1151E
288.618	1.617	668506	PRACTICE_WORD	n/a	n/a	RING	11	-1	[0, 0, 0]	n/a	FR1	0	R1151E
290.235	0.934	670123	PRACTICE_WORD_OFF	n/a	n/a	RING	-999	-1	[0, 0, 0]	n/a	FR1	0	R1151E
291.169	1.616	671057	PRACTICE_WORD	n/a	n/a	WAGON	12	-1	[0, 0, 0]	n/a	FR1	0	R1151E
292.785	0.0	672673	PRACTICE_WORD_OFF	n/a	n/a	WAGON	-999	-1	[0, 0, 0]	n/a	FR1	0	R1151E
292.785	0.0	672673	DISTRACT_START	n/a	n/a	n/a	-999	-1	[0, 0, 0]	n/a	FR1	0	R1151E
292.785	0.017	672673	START	n/a	n/a	n/a	-999	-1	[-999, -999, -999]	n/a	FR1	0	R1151E
292.802	12.085	672690	PROB	12.085	n/a	n/a	-999	-1	[4, 5, 2]	11	FR1	0	R1151E
304.887	6.569	684774	PROB	6.569	n/a	n/a	-999	-1	[2, 5, 5]	12	FR1	0	R1151E
311.456	4.248	691343	PROB	4.248	n/a	n/a	-999	-1	[3, 2, 2]	7	FR1	0	R1151E
315.704	0.018	695591	STOP	n/a	n/a	n/a	-999	-1	[-999, -999, -999]	n/a	FR1	0	R1151E
315.722	0.551	695609	DISTRACT_END	n/a	n/a	n/a	-999	-1	[0, 0, 0]	n/a	FR1	0	R1151E
316.273	0.517	696160	RETRIEVAL_ORIENT	n/a	n/a	n/a	-999	-1	[0, 0, 0]	n/a	FR1	0	R1151E
316.79	30.011	696677	PRACTICE_REC_START	n/a	n/a	n/a	-999	-1	[0, 0, 0]	n/a	FR1	0	R1151E
346.801	97.828	726687	PRACTICE_REC_END	n/a	n/a	n/a	-999	-1	[0, 0, 0]	n/a	FR1	0	R1151E
444.629	0.5	824511	TRIAL	n/a	n/a	n/a	-999	1	[0, 0, 0]	n/a	FR1	0	R1151E
445.129	10.428	825011	COUNTDOWN_START	n/a	n/a	n/a	-999	1	[0, 0, 0]	n/a	FR1	0	R1151E
455.557	0.007	835438	COUNTDOWN_END	n/a	n/a	n/a	-999	1	[0, 0, 0]	n/a	FR1	0	R1151E
455.564	1.617	835445	ORIENT	n/a	n/a	n/a	-999	1	[0, 0, 0]	n/a	FR1	0	R1151E
457.181	2.401	837062	ORIENT_OFF	n/a	n/a	n/a	-999	1	[0, 0, 0]	n/a	FR1	0	R1151E
459.582	1.617	839463	WORD	n/a	wordpools/wordpool_EN.txt	TEA	1	1	[0, 0, 0]	n/a	FR1	0	R1151E
461.199	0.782	841080	WORD_OFF	n/a	n/a	TEA	1	1	[0, 0, 0]	n/a	FR1	0	R1151E
461.981	1.601	841862	WORD	n/a	wordpools/wordpool_EN.txt	ANT	2	1	[0, 0, 0]	n/a	FR1	0	R1151E
463.582	0.934	843463	WORD_OFF	n/a	n/a	ANT	2	1	[0, 0, 0]	n/a	FR1	0	R1151E
464.516	1.617	844397	WORD	n/a	wordpools/wordpool_EN.txt	SOAP	3	1	[0, 0, 0]	n/a	FR1	0	R1151E
466.133	0.899	846014	WORD_OFF	n/a	n/a	SOAP	3	1	[0, 0, 0]	n/a	FR1	0	R1151E
467.032	1.617	846913	WORD	n/a	wordpools/wordpool_EN.txt	AXE	4	1	[0, 0, 0]	n/a	FR1	0	R1151E
468.649	0.885	848530	WORD_OFF	n/a	n/a	AXE	4	1	[0, 0, 0]	n/a	FR1	0	R1151E
469.534	1.617	849415	WORD	n/a	wordpools/wordpool_EN.txt	SLIME	5	1	[0, 0, 0]	n/a	FR1	0	R1151E
471.151	0.899	851032	WORD_OFF	n/a	n/a	SLIME	5	1	[0, 0, 0]	n/a	FR1	0	R1151E
472.05	1.617	851931	WORD	n/a	wordpools/wordpool_EN.txt	BOMB	6	1	[0, 0, 0]	n/a	FR1	0	R1151E
473.667	0.967	853548	WORD_OFF	n/a	n/a	BOMB	6	1	[0, 0, 0]	n/a	FR1	0	R1151E
474.634	1.617	854515	WORD	n/a	wordpools/wordpool_EN.txt	CAVE	7	1	[0, 0, 0]	n/a	FR1	0	R1151E
476.251	0.8	856131	WORD_OFF	n/a	n/a	CAVE	7	1	[0, 0, 0]	n/a	FR1	0	R1151E
477.051	1.616	856931	WORD	n/a	wordpools/wordpool_EN.txt	HILL	8	1	[0, 0, 0]	n/a	FR1	0	R1151E
478.667	0.902	858547	WORD_OFF	n/a	n/a	HILL	8	1	[0, 0, 0]	n/a	FR1	0	R1151E
479.569	1.617	859449	WORD	n/a	wordpools/wordpool_EN.txt	PLANT	9	1	[0, 0, 0]	n/a	FR1	0	R1151E
481.186	0.882	861066	WORD_OFF	n/a	n/a	PLANT	9	1	[0, 0, 0]	n/a	FR1	0	R1151E
482.068	1.617	861948	WORD	n/a	wordpools/wordpool_EN.txt	BIRD	10	1	[0, 0, 0]	n/a	FR1	0	R1151E
483.685	0.918	863565	WORD_OFF	n/a	n/a	BIRD	10	1	[0, 0, 0]	n/a	FR1	0	R1151E
484.603	1.617	864483	WORD	n/a	wordpools/wordpool_EN.txt	STOVE	11	1	[0, 0, 0]	n/a	FR1	0	R1151E
486.22	0.95	866100	WORD_OFF	n/a	n/a	STOVE	11	1	[0, 0, 0]	n/a	FR1	0	R1151E
487.17	1.616	867050	WORD	n/a	wordpools/wordpool_EN.txt	TOOTH	12	1	[0, 0, 0]	n/a	FR1	0	R1151E
488.786	0.0	868666	WORD_OFF	n/a	n/a	TOOTH	12	1	[0, 0, 0]	n/a	FR1	0	R1151E
488.786	0.001	868666	DISTRACT_START	n/a	n/a	n/a	-999	1	[0, 0, 0]	n/a	FR1	0	R1151E
488.787	0.016	868667	START	n/a	n/a	n/a	-999	1	[-999, -999, -999]	n/a	FR1	0	R1151E
488.803	5.668	868683	PROB	5.668	n/a	n/a	-999	1	[8, 2, 6]	16	FR1	0	R1151E
494.471	4.851	874351	PROB	4.851	n/a	n/a	-999	1	[9, 3, 8]	20	FR1	0	R1151E
499.322	4.35	879202	PROB	4.35	n/a	n/a	-999	1	[5, 3, 4]	12	FR1	0	R1151E
503.672	4.084	883551	PROB	4.084	n/a	n/a	-999	1	[4, 1, 5]	10	FR1	0	R1151E
507.756	5.154	887635	PROB	5.154	n/a	n/a	-999	1	[6, 8, 8]	22	FR1	0	R1151E
512.91	0.014	892789	STOP	n/a	n/a	n/a	-999	1	[-999, -999, -999]	n/a	FR1	0	R1151E
512.924	0.601	892803	DISTRACT_END	n/a	n/a	n/a	-999	1	[0, 0, 0]	n/a	FR1	0	R1151E
513.525	0.516	893404	RETRIEVAL_ORIENT	n/a	n/a	n/a	-999	1	[0, 0, 0]	n/a	FR1	0	R1151E
514.041	4.35	893920	REC_START	n/a	n/a	n/a	-999	1	[0, 0, 0]	n/a	FR1	0	R1151E
518.391	1.348	898270	REC_WORD	1.348	n/a	TEA	1	1	[0, 0, 0]	n/a	FR1	0	R1151E
519.739	2.158	899618	REC_WORD	2.158	n/a	SLIME	5	1	[0, 0, 0]	n/a	FR1	0	R1151E
521.897	3.558	901776	REC_WORD	3.558	n/a	BOMB	6	1	[0, 0, 0]	n/a	FR1	0	R1151E
525.455	17.25	905333	REC_WORD_VV	17.25	n/a	<>	-999	1	[0, 0, 0]	n/a	FR1	0	R1151E
542.705	1.346	922583	REC_WORD	1.346	n/a	AXE	4	1	[0, 0, 0]	n/a	FR1	0	R1151E
544.051	26.816	923929	REC_END	n/a	n/a	n/a	-999	1	[0, 0, 0]	n/a	FR1	0	R1151E
570.867	0.5	950744	TRIAL	n/a	n/a	n/a	-999	2	[0, 0, 0]	n/a	FR1	0	R1151E
571.367	10.428	951244	COUNTDOWN_START	n/a	n/a	n/a	-999	2	[0, 0, 0]	n/a	FR1	0	R1151E
581.795	0.007	961671	COUNTDOWN_END	n/a	n/a	n/a	-999	2	[0, 0, 0]	n/a	FR1	0	R1151E
581.802	1.618	961678	ORIENT	n/a	n/a	n/a	-999	2	[0, 0, 0]	n/a	FR1	0	R1151E
583.42	1.917	963296	ORIENT_OFF	n/a	n/a	n/a	-999	2	[0, 0, 0]	n/a	FR1	0	R1151E
585.337	1.616	965213	WORD	n/a	wordpools/wordpool_EN.txt	SHOE	1	2	[0, 0, 0]	n/a	FR1	0	R1151E
586.953	0.85	966829	WORD_OFF	n/a	n/a	SHOE	1	2	[0, 0, 0]	n/a	FR1	0	R1151E
587.803	1.618	967679	WORD	n/a	wordpools/wordpool_EN.txt	LOCK	2	2	[0, 0, 0]	n/a	FR1	0	R1151E
589.421	0.784	969297	WORD_OFF	n/a	n/a	LOCK	2	2	[0, 0, 0]	n/a	FR1	0	R1151E
590.205	1.616	970081	WORD	n/a	wordpools/wordpool_EN.txt	VEST	3	2	[0, 0, 0]	n/a	FR1	0	R1151E
591.821	0.967	971697	WORD_OFF	n/a	n/a	VEST	3	2	[0, 0, 0]	n/a	FR1	0	R1151E
592.788	1.617	972664	WORD	n/a	wordpools/wordpool_EN.txt	BRICK	4	2	[0, 0, 0]	n/a	FR1	0	R1151E
594.405	0.767	974281	WORD_OFF	n/a	n/a	BRICK	4	2	[0, 0, 0]	n/a	FR1	0	R1151E
595.172	1.616	975048	WORD	n/a	wordpools/wordpool_EN.txt	FOX	5	2	[0, 0, 0]	n/a	FR1	0	R1151E
596.788	0.785	976664	WORD_OFF	n/a	n/a	FOX	5	2	[0, 0, 0]	n/a	FR1	0	R1151E
597.573	1.617	977449	WORD	n/a	wordpools/wordpool_EN.txt	JEEP	6	2	[0, 0, 0]	n/a	FR1	0	R1151E
599.19	0.9	979065	WORD_OFF	n/a	n/a	JEEP	6	2	[0, 0, 0]	n/a	FR1	0	R1151E
600.09	1.616	979965	WORD	n/a	wordpools/wordpool_EN.txt	LEG	7	2	[0, 0, 0]	n/a	FR1	0	R1151E
601.706	0.983	981581	WORD_OFF	n/a	n/a	LEG	7	2	[0, 0, 0]	n/a	FR1	0	R1151E
602.689	1.618	982564	WORD	n/a	wordpools/wordpool_EN.txt	ARM	8	2	[0, 0, 0]	n/a	FR1	0	R1151E
604.307	0.984	984182	WORD_OFF	n/a	n/a	ARM	8	2	[0, 0, 0]	n/a	FR1	0	R1151E
605.291	1.616	985166	WORD	n/a	wordpools/wordpool_EN.txt	MOOSE	9	2	[0, 0, 0]	n/a	FR1	0	R1151E
606.907	0.767	986782	WORD_OFF	n/a	n/a	MOOSE	9	2	[0, 0, 0]	n/a	FR1	0	R1151E
607.674	1.617	987549	WORD	n/a	wordpools/wordpool_EN.txt	STEAK	10	2	[0, 0, 0]	n/a	FR1	0	R1151E
609.291	0.783	989166	WORD_OFF	n/a	n/a	STEAK	10	2	[0, 0, 0]	n/a	FR1	0	R1151E
610.074	1.617	989949	WORD	n/a	wordpools/wordpool_EN.txt	SHIRT	11	2	[0, 0, 0]	n/a	FR1	0	R1151E
611.691	0.834	991566	WORD_OFF	n/a	n/a	SHIRT	11	2	[0, 0, 0]	n/a	FR1	0	R1151E
612.525	1.617	992400	WORD	n/a	wordpools/wordpool_EN.txt	DOLL	12	2	[0, 0, 0]	n/a	FR1	0	R1151E
614.142	0.0	994017	DISTRACT_START	n/a	n/a	n/a	-999	2	[0, 0, 0]	n/a	FR1	0	R1151E
614.142	0.001	994017	WORD_OFF	n/a	n/a	DOLL	12	2	[0, 0, 0]	n/a	FR1	0	R1151E
614.143	0.016	994018	START	n/a	n/a	n/a	-999	2	[-999, -999, -999]	n/a	FR1	0	R1151E
614.159	4.417	994034	PROB	4.417	n/a	n/a	-999	2	[1, 4, 5]	10	FR1	0	R1151E
618.576	4.133	998451	PROB	4.133	n/a	n/a	-999	2	[2, 6, 9]	17	FR1	0	R1151E
622.709	4.368	1002584	PROB	4.368	n/a	n/a	-999	2	[5, 6, 1]	12	FR1	0	R1151E
627.077	3.152	1006951	PROB	3.152	n/a	n/a	-999	2	[7, 1, 7]	15	FR1	0	R1151E
630.229	6.439	1010103	PROB	6.439	n/a	n/a	-999	2	[7, 9, 9]	25	FR1	0	R1151E
636.668	0.011	1016542	STOP	n/a	n/a	n/a	-999	2	[-999, -999, -999]	n/a	FR1	0	R1151E
636.679	0.601	1016553	DISTRACT_END	n/a	n/a	n/a	-999	2	[0, 0, 0]	n/a	FR1	0	R1151E
637.28	0.516	1017154	RETRIEVAL_ORIENT	n/a	n/a	n/a	-999	2	[0, 0, 0]	n/a	FR1	0	R1151E
637.796	2.338	1017670	REC_START	n/a	n/a	n/a	-999	2	[0, 0, 0]	n/a	FR1	0	R1151E
640.134	7.096	1020008	REC_WORD	7.096	n/a	SHOE	1	2	[0, 0, 0]	n/a	FR1	0	R1151E
647.23	1.441	1027104	REC_WORD	1.441	n/a	FOX	5	2	[0, 0, 0]	n/a	FR1	0	R1151E
648.671	19.135	1028544	REC_WORD	19.135	n/a	MOOSE	9	2	[0, 0, 0]	n/a	FR1	0	R1151E
667.806	20.649	1047679	REC_END	n/a	n/a	n/a	-999	2	[0, 0, 0]	n/a	FR1	0	R1151E
688.455	0.5	1068327	TRIAL	n/a	n/a	n/a	-999	3	[0, 0, 0]	n/a	FR1	0	R1151E
688.955	10.428	1068827	COUNTDOWN_START	n/a	n/a	n/a	-999	3	[0, 0, 0]	n/a	FR1	0	R1151E
699.383	0.008	1079254	COUNTDOWN_END	n/a	n/a	n/a	-999	3	[0, 0, 0]	n/a	FR1	0	R1151E
699.391	1.616	1079262	ORIENT	n/a	n/a	n/a	-999	3	[0, 0, 0]	n/a	FR1	0	R1151E
701.007	2.05	1080878	ORIENT_OFF	n/a	n/a	n/a	-999	3	[0, 0, 0]	n/a	FR1	0	R1151E
703.057	1.617	1082928	WORD	n/a	wordpools/wordpool_EN.txt	FUR	1	3	[0, 0, 0]	n/a	FR1	0	R1151E
704.674	0.901	1084545	WORD_OFF	n/a	n/a	FUR	1	3	[0, 0, 0]	n/a	FR1	0	R1151E
705.575	1.617	1085446	WORD	n/a	wordpools/wordpool_EN.txt	STORM	2	3	[0, 0, 0]	n/a	FR1	0	R1151E
707.192	0.782	1087063	WORD_OFF	n/a	n/a	STORM	2	3	[0, 0, 0]	n/a	FR1	0	R1151E
707.974	1.618	1087845	WORD	n/a	wordpools/wordpool_EN.txt	RIB	3	3	[0, 0, 0]	n/a	FR1	0	R1151E
709.592	1.001	1089463	WORD_OFF	n/a	n/a	RIB	3	3	[0, 0, 0]	n/a	FR1	0	R1151E
710.593	1.617	1090464	WORD	n/a	wordpools/wordpool_EN.txt	TAIL	4	3	[0, 0, 0]	n/a	FR1	0	R1151E
712.21	0.966	1092081	WORD_OFF	n/a	n/a	TAIL	4	3	[0, 0, 0]	n/a	FR1	0	R1151E
713.176	1.616	1093047	WORD	n/a	wordpools/wordpool_EN.txt	GOLD	5	3	[0, 0, 0]	n/a	FR1	0	R1151E
714.792	0.818	1094663	WORD_OFF	n/a	n/a	GOLD	5	3	[0, 0, 0]	n/a	FR1	0	R1151E
715.61	1.617	1095481	WORD	n/a	wordpools/wordpool_EN.txt	TRUCK	6	3	[0, 0, 0]	n/a	FR1	0	R1151E
717.227	0.917	1097098	WORD_OFF	n/a	n/a	TRUCK	6	3	[0, 0, 0]	n/a	FR1	0	R1151E
718.144	1.616	1098015	WORD	n/a	wordpools/wordpool_EN.txt	CLIFF	7	3	[0, 0, 0]	n/a	FR1	0	R1151E
719.76	0.9	1099631	WORD_OFF	n/a	n/a	CLIFF	7	3	[0, 0, 0]	n/a	FR1	0	R1151E
720.66	1.618	1100531	WORD	n/a	wordpools/wordpool_EN.txt	ROOF	8	3	[0, 0, 0]	n/a	FR1	0	R1151E
722.278	0.9	1102148	WORD_OFF	n/a	n/a	ROOF	8	3	[0, 0, 0]	n/a	FR1	0	R1151E
723.178	1.616	1103048	WORD	n/a	wordpools/wordpool_EN.txt	BAND	9	3	[0, 0, 0]	n/a	FR1	0	R1151E
724.794	0.933	1104664	WORD_OFF	n/a	n/a	BAND	9	3	[0, 0, 0]	n/a	FR1	0	R1151E
725.727	1.619	1105597	WORD	n/a	wordpools/wordpool_EN.txt	BADGE	10	3	[0, 0, 0]	n/a	FR1	0	R1151E
727.346	0.783	1107216	WORD_OFF	n/a	n/a	BADGE	10	3	[0, 0, 0]	n/a	FR1	0	R1151E
728.129	1.616	1107999	WORD	n/a	wordpools/wordpool_EN.txt	ROSE	11	3	[0, 0, 0]	n/a	FR1	0	R1151E
729.745	0.95	1109615	WORD_OFF	n/a	n/a	ROSE	11	3	[0, 0, 0]	n/a	FR1	0	R1151E
730.695	1.618	1110565	WORD	n/a	wordpools/wordpool_EN.txt	PIG	12	3	[0, 0, 0]	n/a	FR1	0	R1151E
732.313	0.0	1112183	WORD_OFF	n/a	n/a	PIG	12	3	[0, 0, 0]	n/a	FR1	0	R1151E
732.313	0.001	1112183	DISTRACT_START	n/a	n/a	n/a	-999	3	[0, 0, 0]	n/a	FR1	0	R1151E
732.314	0.016	1112184	START	n/a	n/a	n/a	-999	3	[-999, -999, -999]	n/a	FR1	0	R1151E
732.33	9.751	1112200	PROB	9.751	n/a	n/a	-999	3	[3, 4, 8]	15	FR1	0	R1151E
742.081	5.884	1121951	PROB	5.884	n/a	n/a	-999	3	[1, 3, 6]	10	FR1	0	R1151E
747.965	2.867	1127834	PROB	2.867	n/a	n/a	-999	3	[2, 8, 5]	15	FR1	0	R1151E
750.832	3.339	1130701	PROB	3.339	n/a	n/a	-999	3	[5, 7, 4]	16	FR1	0	R1151E
754.171	0.013	1134040	STOP	n/a	n/a	n/a	-999	3	[-999, -999, -999]	n/a	FR1	0	R1151E
754.184	0.665	1134053	DISTRACT_END	n/a	n/a	n/a	-999	3	[0, 0, 0]	n/a	FR1	0	R1151E
754.849	0.519	1134718	RETRIEVAL_ORIENT	n/a	n/a	n/a	-999	3	[0, 0, 0]	n/a	FR1	0	R1151E
755.368	3.821	1135237	REC_START	n/a	n/a	n/a	-999	3	[0, 0, 0]	n/a	FR1	0	R1151E
759.189	26.191	1139058	REC_WORD	26.191	n/a	FUR	1	3	[0, 0, 0]	n/a	FR1	0	R1151E
785.38	16.661	1165248	REC_END	n/a	n/a	n/a	-999	3	[0, 0, 0]	n/a	FR1	0	R1151E
802.041	0.5	1181908	TRIAL	n/a	n/a	n/a	-999	4	[0, 0, 0]	n/a	FR1	0	R1151E
802.541	10.428	1182408	COUNTDOWN_START	n/a	n/a	n/a	-999	4	[0, 0, 0]	n/a	FR1	0	R1151E
812.969	0.007	1192836	COUNTDOWN_END	n/a	n/a	n/a	-999	4	[0, 0, 0]	n/a	FR1	0	R1151E
812.976	1.618	1192843	ORIENT	n/a	n/a	n/a	-999	4	[0, 0, 0]	n/a	FR1	0	R1151E
814.594	2.116	1194461	ORIENT_OFF	n/a	n/a	n/a	-999	4	[0, 0, 0]	n/a	FR1	0	R1151E
816.71	1.618	1196577	WORD	n/a	wordpools/wordpool_EN.txt	BATH	1	4	[0, 0, 0]	n/a	FR1	0	R1151E
818.328	0.784	1198195	WORD_OFF	n/a	n/a	BATH	1	4	[0, 0, 0]	n/a	FR1	0	R1151E
819.112	1.616	1198979	WORD	n/a	wordpools/wordpool_EN.txt	VAN	2	4	[0, 0, 0]	n/a	FR1	0	R1151E
820.728	1.017	1200594	WORD_OFF	n/a	n/a	VAN	2	4	[0, 0, 0]	n/a	FR1	0	R1151E
821.745	1.618	1201611	WORD	n/a	wordpools/wordpool_EN.txt	GATE	3	4	[0, 0, 0]	n/a	FR1	0	R1151E
823.363	0.899	1203229	WORD_OFF	n/a	n/a	GATE	3	4	[0, 0, 0]	n/a	FR1	0	R1151E
824.262	1.617	1204128	WORD	n/a	wordpools/wordpool_EN.txt	SUN	4	4	[0, 0, 0]	n/a	FR1	0	R1151E
825.879	0.983	1205745	WORD_OFF	n/a	n/a	SUN	4	4	[0, 0, 0]	n/a	FR1	0	R1151E
826.862	1.618	1206728	WORD	n/a	wordpools/wordpool_EN.txt	CORN	5	4	[0, 0, 0]	n/a	FR1	0	R1151E
828.48	0.783	1208346	WORD_OFF	n/a	n/a	CORN	5	4	[0, 0, 0]	n/a	FR1	0	R1151E
829.263	1.616	1209129	WORD	n/a	wordpools/wordpool_EN.txt	FLAME	6	4	[0, 0, 0]	n/a	FR1	0	R1151E
830.879	0.834	1210745	WORD_OFF	n/a	n/a	FLAME	6	4	[0, 0, 0]	n/a	FR1	0	R1151E
831.713	1.601	1211579	WORD	n/a	wordpools/wordpool_EN.txt	PEA	7	4	[0, 0, 0]	n/a	FR1	0	R1151E
833.314	0.817	1213180	WORD_OFF	n/a	n/a	PEA	7	4	[0, 0, 0]	n/a	FR1	0	R1151E
834.131	1.616	1213997	WORD	n/a	wordpools/wordpool_EN.txt	PLATE	8	4	[0, 0, 0]	n/a	FR1	0	R1151E
835.747	0.983	1215613	WORD_OFF	n/a	n/a	PLATE	8	4	[0, 0, 0]	n/a	FR1	0	R1151E
836.73	1.618	1216596	WORD	n/a	wordpools/wordpool_EN.txt	BRUSH	9	4	[0, 0, 0]	n/a	FR1	0	R1151E
838.348	0.967	1218214	WORD_OFF	n/a	n/a	BRUSH	9	4	[0, 0, 0]	n/a	FR1	0	R1151E
839.315	1.616	1219181	WORD	n/a	wordpools/wordpool_EN.txt	PEN	10	4	[0, 0, 0]	n/a	FR1	0	R1151E
840.931	1.017	1220797	WORD_OFF	n/a	n/a	PEN	10	4	[0, 0, 0]	n/a	FR1	0	R1151E
841.948	1.618	1221814	WORD	n/a	wordpools/wordpool_EN.txt	HOSE	11	4	[0, 0, 0]	n/a	FR1	0	R1151E
843.566	1.0	1223432	WORD_OFF	n/a	n/a	HOSE	11	4	[0, 0, 0]	n/a	FR1	0	R1151E
844.566	1.617	1224432	WORD	n/a	wordpools/wordpool_EN.txt	CUP	12	4	[0, 0, 0]	n/a	FR1	0	R1151E
846.183	0.0	1226048	WORD_OFF	n/a	n/a	CUP	12	4	[0, 0, 0]	n/a	FR1	0	R1151E
846.183	0.001	1226048	DISTRACT_START	n/a	n/a	n/a	-999	4	[0, 0, 0]	n/a	FR1	0	R1151E
846.184	0.016	1226049	START	n/a	n/a	n/a	-999	4	[-999, -999, -999]	n/a	FR1	0	R1151E
846.2	9.617	1226065	PROB	9.617	n/a	n/a	-999	4	[8, 4, 9]	21	FR1	0	R1151E
855.817	4.285	1235682	PROB	4.285	n/a	n/a	-999	4	[1, 8, 3]	12	FR1	0	R1151E
860.102	4.518	1239967	PROB	4.518	n/a	n/a	-999	4	[2, 4, 1]	7	FR1	0	R1151E
864.62	3.694	1244485	PROB	3.694	n/a	n/a	-999	4	[5, 2, 1]	8	FR1	0	R1151E
868.314	0.006	1248179	STOP	n/a	n/a	n/a	-999	4	[-999, -999, -999]	n/a	FR1	0	R1151E
868.32	0.549	1248185	DISTRACT_END	n/a	n/a	n/a	-999	4	[0, 0, 0]	n/a	FR1	0	R1151E
868.869	0.519	1248734	RETRIEVAL_ORIENT	n/a	n/a	n/a	-999	4	[0, 0, 0]	n/a	FR1	0	R1151E
869.388	10.494	1249253	REC_START	n/a	n/a	n/a	-999	4	[0, 0, 0]	n/a	FR1	0	R1151E
879.882	1.252	1259746	REC_WORD	1.252	n/a	TOOTH	-999	4	[0, 0, 0]	n/a	FR1	0	R1151E
881.134	3.78	1260998	REC_WORD	3.78	n/a	BAND	-999	4	[0, 0, 0]	n/a	FR1	0	R1151E
884.914	14.485	1264778	REC_WORD_VV	14.485	n/a	<>	-999	4	[0, 0, 0]	n/a	FR1	0	R1151E
899.399	7.677	1279262	REC_END	n/a	n/a	n/a	-999	4	[0, 0, 0]	n/a	FR1	0	R1151E
907.076	0.5	1286939	TRIAL	n/a	n/a	n/a	-999	5	[0, 0, 0]	n/a	FR1	0	R1151E
907.576	10.428	1287439	COUNTDOWN_START	n/a	n/a	n/a	-999	5	[0, 0, 0]	n/a	FR1	0	R1151E
918.004	0.007	1297867	COUNTDOWN_END	n/a	n/a	n/a	-999	5	[0, 0, 0]	n/a	FR1	0	R1151E
918.011	1.601	1297874	ORIENT	n/a	n/a	n/a	-999	5	[0, 0, 0]	n/a	FR1	0	R1151E
919.612	2.067	1299474	ORIENT_OFF	n/a	n/a	n/a	-999	5	[0, 0, 0]	n/a	FR1	0	R1151E
921.679	1.618	1301541	WORD	n/a	wordpools/wordpool_EN.txt	CAGE	1	5	[0, 0, 0]	n/a	FR1	0	R1151E
923.297	0.95	1303159	WORD_OFF	n/a	n/a	CAGE	1	5	[0, 0, 0]	n/a	FR1	0	R1151E
924.247	1.616	1304109	WORD	n/a	wordpools/wordpool_EN.txt	SNAKE	2	5	[0, 0, 0]	n/a	FR1	0	R1151E
925.863	0.9	1305725	WORD_OFF	n/a	n/a	SNAKE	2	5	[0, 0, 0]	n/a	FR1	0	R1151E
926.763	1.618	1306625	WORD	n/a	wordpools/wordpool_EN.txt	POOL	3	5	[0, 0, 0]	n/a	FR1	0	R1151E
928.381	1.0	1308243	WORD_OFF	n/a	n/a	POOL	3	5	[0, 0, 0]	n/a	FR1	0	R1151E
929.381	1.616	1309243	WORD	n/a	wordpools/wordpool_EN.txt	PASTE	4	5	[0, 0, 0]	n/a	FR1	0	R1151E
930.997	0.917	1310859	WORD_OFF	n/a	n/a	PASTE	4	5	[0, 0, 0]	n/a	FR1	0	R1151E
931.914	1.618	1311776	WORD	n/a	wordpools/wordpool_EN.txt	FLOOR	5	5	[0, 0, 0]	n/a	FR1	0	R1151E
933.532	0.9	1313394	WORD_OFF	n/a	n/a	FLOOR	5	5	[0, 0, 0]	n/a	FR1	0	R1151E
934.432	1.616	1314294	WORD	n/a	wordpools/wordpool_EN.txt	CAKE	6	5	[0, 0, 0]	n/a	FR1	0	R1151E
936.048	0.85	1315910	WORD_OFF	n/a	n/a	CAKE	6	5	[0, 0, 0]	n/a	FR1	0	R1151E
936.898	1.618	1316760	WORD	n/a	wordpools/wordpool_EN.txt	SKUNK	7	5	[0, 0, 0]	n/a	FR1	0	R1151E
938.516	0.8	1318378	WORD_OFF	n/a	n/a	SKUNK	7	5	[0, 0, 0]	n/a	FR1	0	R1151E
939.316	1.616	1319178	WORD	n/a	wordpools/wordpool_EN.txt	CHAIR	8	5	[0, 0, 0]	n/a	FR1	0	R1151E
940.932	0.9	1320794	WORD_OFF	n/a	n/a	CHAIR	8	5	[0, 0, 0]	n/a	FR1	0	R1151E
941.832	1.618	1321694	WORD	n/a	wordpools/wordpool_EN.txt	PEACH	9	5	[0, 0, 0]	n/a	FR1	0	R1151E
943.45	0.784	1323312	WORD_OFF	n/a	n/a	PEACH	9	5	[0, 0, 0]	n/a	FR1	0	R1151E
944.234	1.616	1324095	WORD	n/a	wordpools/wordpool_EN.txt	HOOF	10	5	[0, 0, 0]	n/a	FR1	0	R1151E
945.85	0.85	1325711	WORD_OFF	n/a	n/a	HOOF	10	5	[0, 0, 0]	n/a	FR1	0	R1151E
946.7	1.618	1326561	WORD	n/a	wordpools/wordpool_EN.txt	SOCK	11	5	[0, 0, 0]	n/a	FR1	0	R1151E
948.318	0.85	1328179	WORD_OFF	n/a	n/a	SOCK	11	5	[0, 0, 0]	n/a	FR1	0	R1151E
949.168	1.616	1329029	WORD	n/a	wordpools/wordpool_EN.txt	STICK	12	5	[0, 0, 0]	n/a	FR1	0	R1151E
950.784	0.0	1330645	DISTRACT_START	n/a	n/a	n/a	-999	5	[0, 0, 0]	n/a	FR1	0	R1151E
950.784	0.0	1330645	WORD_OFF	n/a	n/a	STICK	12	5	[0, 0, 0]	n/a	FR1	0	R1151E
950.784	0.016	1330645	START	n/a	n/a	n/a	-999	5	[-999, -999, -999]	n/a	FR1	0	R1151E
950.8	5.935	1330661	PROB	5.935	n/a	n/a	-999	5	[6, 4, 4]	14	FR1	0	R1151E
956.735	5.402	1336596	PROB	5.402	n/a	n/a	-999	5	[9, 6, 6]	21	FR1	0	R1151E
962.137	6.301	1341998	PROB	6.301	n/a	n/a	-999	5	[7, 5, 5]	17	FR1	0	R1151E
968.438	3.547	1348299	PROB	3.547	n/a	n/a	-999	5	[8, 7, 5]	20	FR1	0	R1151E
971.985	0.019	1351845	STOP	n/a	n/a	n/a	-999	5	[-999, -999, -999]	n/a	FR1	0	R1151E
972.004	0.601	1351864	DISTRACT_END	n/a	n/a	n/a	-999	5	[0, 0, 0]	n/a	FR1	0	R1151E
972.605	0.518	1352465	RETRIEVAL_ORIENT	n/a	n/a	n/a	-999	5	[0, 0, 0]	n/a	FR1	0	R1151E
973.123	2.616	1352983	REC_START	n/a	n/a	n/a	-999	5	[0, 0, 0]	n/a	FR1	0	R1151E
975.739	1.43	1355599	REC_WORD	1.43	n/a	CAGE	1	5	[0, 0, 0]	n/a	FR1	0	R1151E
977.169	2.009	1357029	REC_WORD	2.009	n/a	SKUNK	7	5	[0, 0, 0]	n/a	FR1	0	R1151E
979.178	14.743	1359038	REC_WORD	14.743	n/a	SNAKE	2	5	[0, 0, 0]	n/a	FR1	0	R1151E
993.921	9.213	1373780	REC_WORD	9.213	n/a	PEACH	9	5	[0, 0, 0]	n/a	FR1	0	R1151E
1003.134	29.132	1382993	REC_END	n/a	n/a	n/a	-999	5	[0, 0, 0]	n/a	FR1	0	R1151E
1032.266	0.5	1412124	TRIAL	n/a	n/a	n/a	-999	6	[0, 0, 0]	n/a	FR1	0	R1151E
1032.766	10.428	1412624	COUNTDOWN_START	n/a	n/a	n/a	-999	6	[0, 0, 0]	n/a	FR1	0	R1151E
1043.194	0.007	1423051	COUNTDOWN_END	n/a	n/a	n/a	-999	6	[0, 0, 0]	n/a	FR1	0	R1151E
1043.201	1.616	1423058	ORIENT	n/a	n/a	n/a	-999	6	[0, 0, 0]	n/a	FR1	0	R1151E
1044.817	2.401	1424674	ORIENT_OFF	n/a	n/a	n/a	-999	6	[0, 0, 0]	n/a	FR1	0	R1151E
1047.218	1.616	1427075	WORD	n/a	wordpools/wordpool_EN.txt	MILK	1	6	[0, 0, 0]	n/a	FR1	0	R1151E
1048.834	0.768	1428691	WORD_OFF	n/a	n/a	MILK	1	6	[0, 0, 0]	n/a	FR1	0	R1151E
1049.602	1.617	1429459	WORD	n/a	wordpools/wordpool_EN.txt	SEA	2	6	[0, 0, 0]	n/a	FR1	0	R1151E
1051.219	0.884	1431076	WORD_OFF	n/a	n/a	SEA	2	6	[0, 0, 0]	n/a	FR1	0	R1151E
1052.103	1.616	1431960	WORD	n/a	wordpools/wordpool_EN.txt	COIN	3	6	[0, 0, 0]	n/a	FR1	0	R1151E
1053.719	0.867	1433576	WORD_OFF	n/a	n/a	COIN	3	6	[0, 0, 0]	n/a	FR1	0	R1151E
1054.586	1.617	1434443	WORD	n/a	wordpools/wordpool_EN.txt	MAIL	4	6	[0, 0, 0]	n/a	FR1	0	R1151E
1056.203	0.917	1436060	WORD_OFF	n/a	n/a	MAIL	4	6	[0, 0, 0]	n/a	FR1	0	R1151E
1057.12	1.616	1436977	WORD	n/a	wordpools/wordpool_EN.txt	SPRING	5	6	[0, 0, 0]	n/a	FR1	0	R1151E
1058.736	0.835	1438593	WORD_OFF	n/a	n/a	SPRING	5	6	[0, 0, 0]	n/a	FR1	0	R1151E
1059.571	1.617	1439428	WORD	n/a	wordpools/wordpool_EN.txt	FOOT	6	6	[0, 0, 0]	n/a	FR1	0	R1151E
1061.188	0.865	1441045	WORD_OFF	n/a	n/a	FOOT	6	6	[0, 0, 0]	n/a	FR1	0	R1151E
1062.053	1.617	1441910	WORD	n/a	wordpools/wordpool_EN.txt	GUARD	7	6	[0, 0, 0]	n/a	FR1	0	R1151E
1063.67	0.885	1443527	WORD_OFF	n/a	n/a	GUARD	7	6	[0, 0, 0]	n/a	FR1	0	R1151E
1064.555	1.617	1444412	WORD	n/a	wordpools/wordpool_EN.txt	STEM	8	6	[0, 0, 0]	n/a	FR1	0	R1151E
1066.172	0.849	1446029	WORD_OFF	n/a	n/a	STEM	8	6	[0, 0, 0]	n/a	FR1	0	R1151E
1067.021	1.617	1446878	WORD	n/a	wordpools/wordpool_EN.txt	CAT	9	6	[0, 0, 0]	n/a	FR1	0	R1151E
1068.638	0.901	1448494	WORD_OFF	n/a	n/a	CAT	9	6	[0, 0, 0]	n/a	FR1	0	R1151E
1069.539	1.617	1449395	WORD	n/a	wordpools/wordpool_EN.txt	ELF	10	6	[0, 0, 0]	n/a	FR1	0	R1151E
1071.156	0.799	1451012	WORD_OFF	n/a	n/a	ELF	10	6	[0, 0, 0]	n/a	FR1	0	R1151E
1071.955	1.618	1451811	WORD	n/a	wordpools/wordpool_EN.txt	ROOT	11	6	[0, 0, 0]	n/a	FR1	0	R1151E
1073.573	0.8	1453429	WORD_OFF	n/a	n/a	ROOT	11	6	[0, 0, 0]	n/a	FR1	0	R1151E
1074.373	1.616	1454229	WORD	n/a	wordpools/wordpool_EN.txt	MOUTH	12	6	[0, 0, 0]	n/a	FR1	0	R1151E
1075.989	0.0	1455845	WORD_OFF	n/a	n/a	MOUTH	12	6	[0, 0, 0]	n/a	FR1	0	R1151E
1075.989	0.001	1455845	DISTRACT_START	n/a	n/a	n/a	-999	6	[0, 0, 0]	n/a	FR1	0	R1151E
1075.99	0.016	1455846	START	n/a	n/a	n/a	-999	6	[-999, -999, -999]	n/a	FR1	0	R1151E
1076.006	8.751	1455862	PROB	8.751	n/a	n/a	-999	6	[2, 2, 7]	11	FR1	0	R1151E
1084.757	6.135	1464613	PROB	6.135	n/a	n/a	-999	6	[3, 8, 9]	20	FR1	0	R1151E
1090.892	5.594	1470748	PROB	5.594	n/a	n/a	-999	6	[3, 5, 8]	16	FR1	0	R1151E
1096.486	0.008	1476341	STOP	n/a	n/a	n/a	-999	6	[-999, -999, -999]	n/a	FR1	0	R1151E
1096.494	0.6	1476349	DISTRACT_END	n/a	n/a	n/a	-999	6	[0, 0, 0]	n/a	FR1	0	R1151E
1097.094	0.517	1476949	RETRIEVAL_ORIENT	n/a	n/a	n/a	-999	6	[0, 0, 0]	n/a	FR1	0	R1151E
1097.611	2.328	1477466	REC_START	n/a	n/a	n/a	-999	6	[0, 0, 0]	n/a	FR1	0	R1151E
1099.939	6.158	1479794	REC_WORD	6.158	n/a	ELF	10	6	[0, 0, 0]	n/a	FR1	0	R1151E
1106.097	1.26	1485952	REC_WORD	1.26	n/a	MAIL	4	6	[0, 0, 0]	n/a	FR1	0	R1151E
1107.357	20.265	1487212	REC_WORD	20.265	n/a	GUARD	7	6	[0, 0, 0]	n/a	FR1	0	R1151E
1127.622	16.212	1507476	REC_END	n/a	n/a	n/a	-999	6	[0, 0, 0]	n/a	FR1	0	R1151E
1143.834	0.5	1523687	TRIAL	n/a	n/a	n/a	-999	7	[0, 0, 0]	n/a	FR1	0	R1151E
1144.334	10.428	1524187	COUNTDOWN_START	n/a	n/a	n/a	-999	7	[0, 0, 0]	n/a	FR1	0	R1151E
1154.762	0.008	1534615	COUNTDOWN_END	n/a	n/a	n/a	-999	7	[0, 0, 0]	n/a	FR1	0	R1151E
1154.77	1.618	1534623	ORIENT	n/a	n/a	n/a	-999	7	[0, 0, 0]	n/a	FR1	0	R1151E
1156.388	2.2	1536241	ORIENT_OFF	n/a	n/a	n/a	-999	7	[0, 0, 0]	n/a	FR1	0	R1151E
1158.588	1.617	1538441	WORD	n/a	wordpools/wordpool_EN.txt	ROPE	1	7	[0, 0, 0]	n/a	FR1	0	R1151E
1160.205	0.967	1540058	WORD_OFF	n/a	n/a	ROPE	1	7	[0, 0, 0]	n/a	FR1	0	R1151E
1161.172	1.616	1541025	WORD	n/a	wordpools/wordpool_EN.txt	CALF	2	7	[0, 0, 0]	n/a	FR1	0	R1151E
1162.788	1.0	1542641	WORD_OFF	n/a	n/a	CALF	2	7	[0, 0, 0]	n/a	FR1	0	R1151E
1163.788	1.618	1543641	WORD	n/a	wordpools/wordpool_EN.txt	BOY	3	7	[0, 0, 0]	n/a	FR1	0	R1151E
1165.406	0.833	1545259	WORD_OFF	n/a	n/a	BOY	3	7	[0, 0, 0]	n/a	FR1	0	R1151E
1166.239	1.616	1546091	WORD	n/a	wordpools/wordpool_EN.txt	SPOON	4	7	[0, 0, 0]	n/a	FR1	0	R1151E
1167.855	0.817	1547707	WORD_OFF	n/a	n/a	SPOON	4	7	[0, 0, 0]	n/a	FR1	0	R1151E
1168.672	1.601	1548524	WORD	n/a	wordpools/wordpool_EN.txt	BED	5	7	[0, 0, 0]	n/a	FR1	0	R1151E
1170.273	0.884	1550125	WORD_OFF	n/a	n/a	BED	5	7	[0, 0, 0]	n/a	FR1	0	R1151E
1171.157	1.616	1551009	WORD	n/a	wordpools/wordpool_EN.txt	CHEEK	6	7	[0, 0, 0]	n/a	FR1	0	R1151E
1172.773	0.933	1552625	WORD_OFF	n/a	n/a	CHEEK	6	7	[0, 0, 0]	n/a	FR1	0	R1151E
1173.706	1.618	1553558	WORD	n/a	wordpools/wordpool_EN.txt	TOY	7	7	[0, 0, 0]	n/a	FR1	0	R1151E
1175.324	0.984	1555176	WORD_OFF	n/a	n/a	TOY	7	7	[0, 0, 0]	n/a	FR1	0	R1151E
1176.308	1.616	1556160	WORD	n/a	wordpools/wordpool_EN.txt	BARN	8	7	[0, 0, 0]	n/a	FR1	0	R1151E
1177.924	0.817	1557776	WORD_OFF	n/a	n/a	BARN	8	7	[0, 0, 0]	n/a	FR1	0	R1151E
1178.741	1.618	1558593	WORD	n/a	wordpools/wordpool_EN.txt	LAWN	9	7	[0, 0, 0]	n/a	FR1	0	R1151E
1180.359	0.866	1560211	WORD_OFF	n/a	n/a	LAWN	9	7	[0, 0, 0]	n/a	FR1	0	R1151E
1181.225	1.616	1561077	WORD	n/a	wordpools/wordpool_EN.txt	RUG	10	7	[0, 0, 0]	n/a	FR1	0	R1151E
1182.841	0.867	1562693	WORD_OFF	n/a	n/a	RUG	10	7	[0, 0, 0]	n/a	FR1	0	R1151E
1183.708	1.618	1563560	WORD	n/a	wordpools/wordpool_EN.txt	PIPE	11	7	[0, 0, 0]	n/a	FR1	0	R1151E
1185.326	0.85	1565178	WORD_OFF	n/a	n/a	PIPE	11	7	[0, 0, 0]	n/a	FR1	0	R1151E
1186.176	1.616	1566028	WORD	n/a	wordpools/wordpool_EN.txt	DOG	12	7	[0, 0, 0]	n/a	FR1	0	R1151E
1187.792	0.0	1567644	WORD_OFF	n/a	n/a	DOG	12	7	[0, 0, 0]	n/a	FR1	0	R1151E
1187.792	0.001	1567644	DISTRACT_START	n/a	n/a	n/a	-999	7	[0, 0, 0]	n/a	FR1	0	R1151E
1187.793	0.016	1567645	START	n/a	n/a	n/a	-999	7	[-999, -999, -999]	n/a	FR1	0	R1151E
1187.809	8.068	1567661	PROB	8.068	n/a	n/a	-999	7	[6, 6, 8]	20	FR1	0	R1151E
1195.877	7.536	1575728	PROB	7.536	n/a	n/a	-999	7	[5, 2, 9]	16	FR1	0	R1151E
1203.413	5.416	1583264	PROB	5.416	n/a	n/a	-999	7	[4, 2, 7]	13	FR1	0	R1151E
1208.829	0.017	1588680	STOP	n/a	n/a	n/a	-999	7	[-999, -999, -999]	n/a	FR1	0	R1151E
1208.846	0.534	1588697	DISTRACT_END	n/a	n/a	n/a	-999	7	[0, 0, 0]	n/a	FR1	0	R1151E
1209.38	0.517	1589231	RETRIEVAL_ORIENT	n/a	n/a	n/a	-999	7	[0, 0, 0]	n/a	FR1	0	R1151E
1209.897	1.345	1589748	REC_START	n/a	n/a	n/a	-999	7	[0, 0, 0]	n/a	FR1	0	R1151E
1211.242	1.01	1591093	REC_WORD	1.01	n/a	ROPE	1	7	[0, 0, 0]	n/a	FR1	0	R1151E
1212.252	1.299	1592103	REC_WORD	1.299	n/a	CALF	2	7	[0, 0, 0]	n/a	FR1	0	R1151E
1213.551	1.166	1593402	REC_WORD	1.166	n/a	BOY	3	7	[0, 0, 0]	n/a	FR1	0	R1151E
1214.717	3.784	1594568	REC_WORD	3.784	n/a	SPRING	-999	7	[0, 0, 0]	n/a	FR1	0	R1151E
1218.501	9.509	1598351	REC_WORD_VV	9.509	n/a	<>	-999	7	[0, 0, 0]	n/a	FR1	0	R1151E
1228.01	11.899	1607860	REC_WORD	11.899	n/a	MAIL	-999	7	[0, 0, 0]	n/a	FR1	0	R1151E
1239.909	11.744	1619759	REC_END	n/a	n/a	n/a	-999	7	[0, 0, 0]	n/a	FR1	0	R1151E
1251.653	0.5	1631502	TRIAL	n/a	n/a	n/a	-999	8	[0, 0, 0]	n/a	FR1	0	R1151E
1252.153	10.428	1632002	COUNTDOWN_START	n/a	n/a	n/a	-999	8	[0, 0, 0]	n/a	FR1	0	R1151E
1262.581	0.009	1642430	COUNTDOWN_END	n/a	n/a	n/a	-999	8	[0, 0, 0]	n/a	FR1	0	R1151E
1262.59	1.617	1642439	ORIENT	n/a	n/a	n/a	-999	8	[0, 0, 0]	n/a	FR1	0	R1151E
1264.207	2.167	1644056	ORIENT_OFF	n/a	n/a	n/a	-999	8	[0, 0, 0]	n/a	FR1	0	R1151E
1266.374	1.616	1646222	WORD	n/a	wordpools/wordpool_EN.txt	HORN	1	8	[0, 0, 0]	n/a	FR1	0	R1151E
1267.99	0.933	1647838	WORD_OFF	n/a	n/a	HORN	1	8	[0, 0, 0]	n/a	FR1	0	R1151E
1268.923	1.601	1648771	WORD	n/a	wordpools/wordpool_EN.txt	HORSE	2	8	[0, 0, 0]	n/a	FR1	0	R1151E
1270.524	0.934	1650372	WORD_OFF	n/a	n/a	HORSE	2	8	[0, 0, 0]	n/a	FR1	0	R1151E
1271.458	1.616	1651306	WORD	n/a	wordpools/wordpool_EN.txt	SHIP	3	8	[0, 0, 0]	n/a	FR1	0	R1151E
1273.074	0.9	1652922	WORD_OFF	n/a	n/a	SHIP	3	8	[0, 0, 0]	n/a	FR1	0	R1151E
1273.974	1.618	1653822	WORD	n/a	wordpools/wordpool_EN.txt	HOUSE	4	8	[0, 0, 0]	n/a	FR1	0	R1151E
1275.592	0.85	1655440	WORD_OFF	n/a	n/a	HOUSE	4	8	[0, 0, 0]	n/a	FR1	0	R1151E
1276.442	1.616	1656290	WORD	n/a	wordpools/wordpool_EN.txt	TOAD	5	8	[0, 0, 0]	n/a	FR1	0	R1151E
1278.058	0.867	1657906	WORD_OFF	n/a	n/a	TOAD	5	8	[0, 0, 0]	n/a	FR1	0	R1151E
1278.925	1.618	1658773	WORD	n/a	wordpools/wordpool_EN.txt	JUDGE	6	8	[0, 0, 0]	n/a	FR1	0	R1151E
1280.543	0.767	1660391	WORD_OFF	n/a	n/a	JUDGE	6	8	[0, 0, 0]	n/a	FR1	0	R1151E
1281.31	1.616	1661158	WORD	n/a	wordpools/wordpool_EN.txt	PLANE	7	8	[0, 0, 0]	n/a	FR1	0	R1151E
1282.926	0.866	1662774	WORD_OFF	n/a	n/a	PLANE	7	8	[0, 0, 0]	n/a	FR1	0	R1151E
1283.792	1.618	1663640	WORD	n/a	wordpools/wordpool_EN.txt	EEL	8	8	[0, 0, 0]	n/a	FR1	0	R1151E
1285.41	0.917	1665258	WORD_OFF	n/a	n/a	EEL	8	8	[0, 0, 0]	n/a	FR1	0	R1151E
1286.327	1.616	1666175	WORD	n/a	wordpools/wordpool_EN.txt	DRUM	9	8	[0, 0, 0]	n/a	FR1	0	R1151E
1287.943	0.85	1667791	WORD_OFF	n/a	n/a	DRUM	9	8	[0, 0, 0]	n/a	FR1	0	R1151E
1288.793	1.601	1668641	WORD	n/a	wordpools/wordpool_EN.txt	POND	10	8	[0, 0, 0]	n/a	FR1	0	R1151E
1290.394	0.784	1670241	WORD_OFF	n/a	n/a	POND	10	8	[0, 0, 0]	n/a	FR1	0	R1151E
1291.178	1.616	1671025	WORD	n/a	wordpools/wordpool_EN.txt	LEAF	11	8	[0, 0, 0]	n/a	FR1	0	R1151E
1292.794	0.834	1672641	WORD_OFF	n/a	n/a	LEAF	11	8	[0, 0, 0]	n/a	FR1	0	R1151E
1293.628	1.617	1673475	WORD	n/a	wordpools/wordpool_EN.txt	CORD	12	8	[0, 0, 0]	n/a	FR1	0	R1151E
1295.245	0.0	1675092	WORD_OFF	n/a	n/a	CORD	12	8	[0, 0, 0]	n/a	FR1	0	R1151E
1295.245	0.001	1675092	DISTRACT_START	n/a	n/a	n/a	-999	8	[0, 0, 0]	n/a	FR1	0	R1151E
1295.246	0.016	1675093	START	n/a	n/a	n/a	-999	8	[-999, -999, -999]	n/a	FR1	0	R1151E
1295.262	15.552	1675109	PROB	15.552	n/a	n/a	-999	8	[5, 2, 3]	10	FR1	0	R1151E
1310.814	3.685	1690661	PROB	3.685	n/a	n/a	-999	8	[6, 2, 4]	12	FR1	0	R1151E
1314.499	5.994	1694345	PROB	5.994	n/a	n/a	-999	8	[1, 9, 4]	14	FR1	0	R1151E
1320.493	0.007	1700339	STOP	n/a	n/a	n/a	-999	8	[-999, -999, -999]	n/a	FR1	0	R1151E
1320.5	0.6	1700346	DISTRACT_END	n/a	n/a	n/a	-999	8	[0, 0, 0]	n/a	FR1	0	R1151E
1321.1	0.517	1700946	RETRIEVAL_ORIENT	n/a	n/a	n/a	-999	8	[0, 0, 0]	n/a	FR1	0	R1151E
1321.617	2.441	1701463	REC_START	n/a	n/a	n/a	-999	8	[0, 0, 0]	n/a	FR1	0	R1151E
1324.058	1.181	1703904	REC_WORD	1.181	n/a	EEL	8	8	[0, 0, 0]	n/a	FR1	0	R1151E
1325.239	8.334	1705085	REC_WORD	8.334	n/a	DRUM	9	8	[0, 0, 0]	n/a	FR1	0	R1151E
1333.573	18.055	1713419	REC_WORD	18.055	n/a	HOUSE	4	8	[0, 0, 0]	n/a	FR1	0	R1151E
1351.628	8.094	1731473	REC_END	n/a	n/a	n/a	-999	8	[0, 0, 0]	n/a	FR1	0	R1151E
1359.722	0.5	1739567	TRIAL	n/a	n/a	n/a	-999	9	[0, 0, 0]	n/a	FR1	0	R1151E
1360.222	10.428	1740067	COUNTDOWN_START	n/a	n/a	n/a	-999	9	[0, 0, 0]	n/a	FR1	0	R1151E
1370.65	0.008	1750494	COUNTDOWN_END	n/a	n/a	n/a	-999	9	[0, 0, 0]	n/a	FR1	0	R1151E
1370.658	1.618	1750502	ORIENT	n/a	n/a	n/a	-999	9	[0, 0, 0]	n/a	FR1	0	R1151E
1372.276	1.967	1752120	ORIENT_OFF	n/a	n/a	n/a	-999	9	[0, 0, 0]	n/a	FR1	0	R1151E
1374.243	1.616	1754087	WORD	n/a	wordpools/wordpool_EN.txt	STREET	1	9	[0, 0, 0]	n/a	FR1	0	R1151E
1375.859	1.016	1755703	WORD_OFF	n/a	n/a	STREET	1	9	[0, 0, 0]	n/a	FR1	0	R1151E
1376.875	1.618	1756719	WORD	n/a	wordpools/wordpool_EN.txt	HOOK	2	9	[0, 0, 0]	n/a	FR1	0	R1151E
1378.493	0.967	1758337	WORD_OFF	n/a	n/a	HOOK	2	9	[0, 0, 0]	n/a	FR1	0	R1151E
1379.46	1.616	1759304	WORD	n/a	wordpools/wordpool_EN.txt	NOSE	3	9	[0, 0, 0]	n/a	FR1	0	R1151E
1381.076	0.767	1760920	WORD_OFF	n/a	n/a	NOSE	3	9	[0, 0, 0]	n/a	FR1	0	R1151E
1381.843	1.618	1761687	WORD	n/a	wordpools/wordpool_EN.txt	DIME	4	9	[0, 0, 0]	n/a	FR1	0	R1151E
1383.461	0.95	1763305	WORD_OFF	n/a	n/a	DIME	4	9	[0, 0, 0]	n/a	FR1	0	R1151E
1384.411	1.616	1764255	WORD	n/a	wordpools/wordpool_EN.txt	THREAD	5	9	[0, 0, 0]	n/a	FR1	0	R1151E
1386.027	0.767	1765871	WORD_OFF	n/a	n/a	THREAD	5	9	[0, 0, 0]	n/a	FR1	0	R1151E
1386.794	1.601	1766638	WORD	n/a	wordpools/wordpool_EN.txt	MAT	6	9	[0, 0, 0]	n/a	FR1	0	R1151E
1388.395	0.784	1768238	WORD_OFF	n/a	n/a	MAT	6	9	[0, 0, 0]	n/a	FR1	0	R1151E
1389.179	1.616	1769022	WORD	n/a	wordpools/wordpool_EN.txt	CHIN	7	9	[0, 0, 0]	n/a	FR1	0	R1151E
1390.795	0.784	1770638	WORD_OFF	n/a	n/a	CHIN	7	9	[0, 0, 0]	n/a	FR1	0	R1151E
1391.579	1.617	1771422	WORD	n/a	wordpools/wordpool_EN.txt	VINE	8	9	[0, 0, 0]	n/a	FR1	0	R1151E
1393.196	0.934	1773039	WORD_OFF	n/a	n/a	VINE	8	9	[0, 0, 0]	n/a	FR1	0	R1151E
1394.13	1.615	1773973	WORD	n/a	wordpools/wordpool_EN.txt	FLUTE	9	9	[0, 0, 0]	n/a	FR1	0	R1151E
1395.745	0.785	1775588	WORD_OFF	n/a	n/a	FLUTE	9	9	[0, 0, 0]	n/a	FR1	0	R1151E
1396.53	1.617	1776373	WORD	n/a	wordpools/wordpool_EN.txt	HOLE	10	9	[0, 0, 0]	n/a	FR1	0	R1151E
1398.147	1.0	1777990	WORD_OFF	n/a	n/a	HOLE	10	9	[0, 0, 0]	n/a	FR1	0	R1151E
1399.147	1.616	1778990	WORD	n/a	wordpools/wordpool_EN.txt	FISH	11	9	[0, 0, 0]	n/a	FR1	0	R1151E
1400.763	0.801	1780606	WORD_OFF	n/a	n/a	FISH	11	9	[0, 0, 0]	n/a	FR1	0	R1151E
1401.564	1.617	1781407	WORD	n/a	wordpools/wordpool_EN.txt	COUCH	12	9	[0, 0, 0]	n/a	FR1	0	R1151E
1403.181	0.0	1783024	WORD_OFF	n/a	n/a	COUCH	12	9	[0, 0, 0]	n/a	FR1	0	R1151E
1403.181	0.001	1783024	DISTRACT_START	n/a	n/a	n/a	-999	9	[0, 0, 0]	n/a	FR1	0	R1151E
1403.182	0.016	1783025	START	n/a	n/a	n/a	-999	9	[-999, -999, -999]	n/a	FR1	0	R1151E
1403.198	13.451	1783041	PROB	13.451	n/a	n/a	-999	9	[6, 6, 5]	17	FR1	0	R1151E
1416.649	9.882	1796491	PROB	9.882	n/a	n/a	-999	9	[9, 9, 5]	13	FR1	0	R1151E
1426.531	0.021	1806373	STOP	n/a	n/a	n/a	-999	9	[-999, -999, -999]	n/a	FR1	0	R1151E
1426.552	0.516	1806394	DISTRACT_END	n/a	n/a	n/a	-999	9	[0, 0, 0]	n/a	FR1	0	R1151E
1427.068	0.518	1806910	RETRIEVAL_ORIENT	n/a	n/a	n/a	-999	9	[0, 0, 0]	n/a	FR1	0	R1151E
1427.586	6.944	1807428	REC_START	n/a	n/a	n/a	-999	9	[0, 0, 0]	n/a	FR1	0	R1151E
1434.53	0.709	1814372	REC_WORD	0.709	n/a	STRING	-999	9	[0, 0, 0]	n/a	FR1	0	R1151E
1435.239	0.684	1815081	REC_WORD	0.684	n/a	HOOK	2	9	[0, 0, 0]	n/a	FR1	0	R1151E
1435.923	0.762	1815765	REC_WORD	0.762	n/a	NOSE	3	9	[0, 0, 0]	n/a	FR1	0	R1151E
1436.685	0.336	1816527	REC_WORD	0.336	n/a	DIME	4	9	[0, 0, 0]	n/a	FR1	0	R1151E
1437.021	20.576	1816863	REC_WORD	20.576	n/a	THREAD	5	9	[0, 0, 0]	n/a	FR1	0	R1151E
1457.597	15.746	1837438	REC_END	n/a	n/a	n/a	-999	9	[0, 0, 0]	n/a	FR1	0	R1151E
1473.343	0.5	1853183	TRIAL	n/a	n/a	n/a	-999	10	[0, 0, 0]	n/a	FR1	0	R1151E
1473.843	10.428	1853683	COUNTDOWN_START	n/a	n/a	n/a	-999	10	[0, 0, 0]	n/a	FR1	0	R1151E
1484.271	0.008	1864111	COUNTDOWN_END	n/a	n/a	n/a	-999	10	[0, 0, 0]	n/a	FR1	0	R1151E
1484.279	1.616	1864119	ORIENT	n/a	n/a	n/a	-999	10	[0, 0, 0]	n/a	FR1	0	R1151E
1485.895	1.9	1865735	ORIENT_OFF	n/a	n/a	n/a	-999	10	[0, 0, 0]	n/a	FR1	0	R1151E
1487.795	1.618	1867634	WORD	n/a	wordpools/wordpool_EN.txt	PEARL	1	10	[0, 0, 0]	n/a	FR1	0	R1151E
1489.413	0.817	1869252	WORD_OFF	n/a	n/a	PEARL	1	10	[0, 0, 0]	n/a	FR1	0	R1151E
1490.23	1.616	1870069	WORD	n/a	wordpools/wordpool_EN.txt	FLEA	2	10	[0, 0, 0]	n/a	FR1	0	R1151E
1491.846	0.983	1871685	WORD_OFF	n/a	n/a	FLEA	2	10	[0, 0, 0]	n/a	FR1	0	R1151E
1492.829	1.601	1872668	WORD	n/a	wordpools/wordpool_EN.txt	STONE	3	10	[0, 0, 0]	n/a	FR1	0	R1151E
1494.43	0.901	1874269	WORD_OFF	n/a	n/a	STONE	3	10	[0, 0, 0]	n/a	FR1	0	R1151E
1495.331	1.616	1875170	WORD	n/a	wordpools/wordpool_EN.txt	OAK	4	10	[0, 0, 0]	n/a	FR1	0	R1151E
1496.947	0.95	1876786	WORD_OFF	n/a	n/a	OAK	4	10	[0, 0, 0]	n/a	FR1	0	R1151E
1497.897	1.618	1877736	WORD	n/a	wordpools/wordpool_EN.txt	FORT	5	10	[0, 0, 0]	n/a	FR1	0	R1151E
1499.515	0.967	1879354	WORD_OFF	n/a	n/a	FORT	5	10	[0, 0, 0]	n/a	FR1	0	R1151E
1500.482	1.616	1880321	WORD	n/a	wordpools/wordpool_EN.txt	FORK	6	10	[0, 0, 0]	n/a	FR1	0	R1151E
1502.098	0.85	1881937	WORD_OFF	n/a	n/a	FORK	6	10	[0, 0, 0]	n/a	FR1	0	R1151E
1502.948	1.618	1882787	WORD	n/a	wordpools/wordpool_EN.txt	SKI	7	10	[0, 0, 0]	n/a	FR1	0	R1151E
1504.566	0.85	1884405	WORD_OFF	n/a	n/a	SKI	7	10	[0, 0, 0]	n/a	FR1	0	R1151E
1505.416	1.616	1885255	WORD	n/a	wordpools/wordpool_EN.txt	CLOCK	8	10	[0, 0, 0]	n/a	FR1	0	R1151E
1507.032	0.933	1886871	WORD_OFF	n/a	n/a	CLOCK	8	10	[0, 0, 0]	n/a	FR1	0	R1151E
1507.965	1.601	1887804	WORD	n/a	wordpools/wordpool_EN.txt	PHONE	9	10	[0, 0, 0]	n/a	FR1	0	R1151E
1509.566	0.784	1889405	WORD_OFF	n/a	n/a	PHONE	9	10	[0, 0, 0]	n/a	FR1	0	R1151E
1510.35	1.616	1890189	WORD	n/a	wordpools/wordpool_EN.txt	FROG	10	10	[0, 0, 0]	n/a	FR1	0	R1151E
1511.966	0.983	1891804	WORD_OFF	n/a	n/a	FROG	10	10	[0, 0, 0]	n/a	FR1	0	R1151E
1512.949	1.618	1892787	WORD	n/a	wordpools/wordpool_EN.txt	ROCK	11	10	[0, 0, 0]	n/a	FR1	0	R1151E
1514.567	0.934	1894405	WORD_OFF	n/a	n/a	ROCK	11	10	[0, 0, 0]	n/a	FR1	0	R1151E
1515.501	1.617	1895339	WORD	n/a	wordpools/wordpool_EN.txt	HEART	12	10	[0, 0, 0]	n/a	FR1	0	R1151E
1517.118	0.0	1896956	WORD_OFF	n/a	n/a	HEART	12	10	[0, 0, 0]	n/a	FR1	0	R1151E
1517.118	0.0	1896956	DISTRACT_START	n/a	n/a	n/a	-999	10	[0, 0, 0]	n/a	FR1	0	R1151E
1517.118	0.016	1896956	START	n/a	n/a	n/a	-999	10	[-999, -999, -999]	n/a	FR1	0	R1151E
1517.134	13.802	1896972	PROB	13.802	n/a	n/a	-999	10	[6, 7, 7]	20	FR1	0	R1151E
1530.936	5.001	1910774	PROB	5.001	n/a	n/a	-999	10	[4, 9, 9]	22	FR1	0	R1151E
1535.937	3.692	1915775	PROB	3.692	n/a	n/a	-999	10	[1, 6, 2]	9	FR1	0	R1151E
1539.629	0.009	1919466	STOP	n/a	n/a	n/a	-999	10	[-999, -999, -999]	n/a	FR1	0	R1151E
1539.638	0.601	1919475	DISTRACT_END	n/a	n/a	n/a	-999	10	[0, 0, 0]	n/a	FR1	0	R1151E
1540.239	0.516	1920076	RETRIEVAL_ORIENT	n/a	n/a	n/a	-999	10	[0, 0, 0]	n/a	FR1	0	R1151E
1540.755	6.617	1920592	REC_START	n/a	n/a	n/a	-999	10	[0, 0, 0]	n/a	FR1	0	R1151E
1547.372	0.667	1927209	REC_WORD	0.667	n/a	PEARL	1	10	[0, 0, 0]	n/a	FR1	0	R1151E
1548.039	1.353	1927876	REC_WORD	1.353	n/a	STREET	-999	10	[0, 0, 0]	n/a	FR1	0	R1151E
1549.392	1.374	1929229	REC_WORD	1.374	n/a	OAK	4	10	[0, 0, 0]	n/a	FR1	0	R1151E
1550.766	20.001	1930603	REC_WORD	20.001	n/a	FROG	10	10	[0, 0, 0]	n/a	FR1	0	R1151E
1570.767	11.228	1950603	REC_END	n/a	n/a	n/a	-999	10	[0, 0, 0]	n/a	FR1	0	R1151E
1581.995	0.5	1961831	TRIAL	n/a	n/a	n/a	-999	11	[0, 0, 0]	n/a	FR1	0	R1151E
1582.495	10.428	1962331	COUNTDOWN_START	n/a	n/a	n/a	-999	11	[0, 0, 0]	n/a	FR1	0	R1151E
1592.923	0.007	1972758	COUNTDOWN_END	n/a	n/a	n/a	-999	11	[0, 0, 0]	n/a	FR1	0	R1151E
1592.93	1.601	1972765	ORIENT	n/a	n/a	n/a	-999	11	[0, 0, 0]	n/a	FR1	0	R1151E
1594.531	2.333	1974366	ORIENT_OFF	n/a	n/a	n/a	-999	11	[0, 0, 0]	n/a	FR1	0	R1151E
1596.864	1.618	1976699	WORD	n/a	wordpools/wordpool_EN.txt	OWL	1	11	[0, 0, 0]	n/a	FR1	0	R1151E
1598.482	0.867	1978317	WORD_OFF	n/a	n/a	OWL	1	11	[0, 0, 0]	n/a	FR1	0	R1151E
1599.349	1.616	1979184	WORD	n/a	wordpools/wordpool_EN.txt	MAP	2	11	[0, 0, 0]	n/a	FR1	0	R1151E
1600.965	0.983	1980800	WORD_OFF	n/a	n/a	MAP	2	11	[0, 0, 0]	n/a	FR1	0	R1151E
1601.948	1.618	1981783	WORD	n/a	wordpools/wordpool_EN.txt	JAIL	3	11	[0, 0, 0]	n/a	FR1	0	R1151E
1603.566	0.767	1983401	WORD_OFF	n/a	n/a	JAIL	3	11	[0, 0, 0]	n/a	FR1	0	R1151E
1604.333	1.616	1984168	WORD	n/a	wordpools/wordpool_EN.txt	ZOO	4	11	[0, 0, 0]	n/a	FR1	0	R1151E
1605.949	1.0	1985784	WORD_OFF	n/a	n/a	ZOO	4	11	[0, 0, 0]	n/a	FR1	0	R1151E
1606.949	1.618	1986784	WORD	n/a	wordpools/wordpool_EN.txt	WALL	5	11	[0, 0, 0]	n/a	FR1	0	R1151E
1608.567	0.834	1988402	WORD_OFF	n/a	n/a	WALL	5	11	[0, 0, 0]	n/a	FR1	0	R1151E
1609.401	1.615	1989236	WORD	n/a	wordpools/wordpool_EN.txt	WHALE	6	11	[0, 0, 0]	n/a	FR1	0	R1151E
1611.016	0.967	1990850	WORD_OFF	n/a	n/a	WHALE	6	11	[0, 0, 0]	n/a	FR1	0	R1151E
1611.983	1.601	1991817	WORD	n/a	wordpools/wordpool_EN.txt	EAR	7	11	[0, 0, 0]	n/a	FR1	0	R1151E
1613.584	1.001	1993418	WORD_OFF	n/a	n/a	EAR	7	11	[0, 0, 0]	n/a	FR1	0	R1151E
1614.585	1.617	1994419	WORD	n/a	wordpools/wordpool_EN.txt	CAR	8	11	[0, 0, 0]	n/a	FR1	0	R1151E
1616.202	0.933	1996036	WORD_OFF	n/a	n/a	CAR	8	11	[0, 0, 0]	n/a	FR1	0	R1151E
1617.135	1.616	1996969	WORD	n/a	wordpools/wordpool_EN.txt	GLOVE	9	11	[0, 0, 0]	n/a	FR1	0	R1151E
1618.751	0.785	1998585	WORD_OFF	n/a	n/a	GLOVE	9	11	[0, 0, 0]	n/a	FR1	0	R1151E
1619.536	1.617	1999370	WORD	n/a	wordpools/wordpool_EN.txt	INK	10	11	[0, 0, 0]	n/a	FR1	0	R1151E
1621.153	0.882	2000987	WORD_OFF	n/a	n/a	INK	10	11	[0, 0, 0]	n/a	FR1	0	R1151E
1622.035	1.601	2001869	WORD	n/a	wordpools/wordpool_EN.txt	CHIEF	11	11	[0, 0, 0]	n/a	FR1	0	R1151E
1623.636	0.834	2003470	WORD_OFF	n/a	n/a	CHIEF	11	11	[0, 0, 0]	n/a	FR1	0	R1151E
1624.47	1.617	2004304	WORD	n/a	wordpools/wordpool_EN.txt	CAPE	12	11	[0, 0, 0]	n/a	FR1	0	R1151E
1626.087	0.0	2005921	WORD_OFF	n/a	n/a	CAPE	12	11	[0, 0, 0]	n/a	FR1	0	R1151E
1626.087	0.001	2005921	DISTRACT_START	n/a	n/a	n/a	-999	11	[0, 0, 0]	n/a	FR1	0	R1151E
1626.088	0.016	2005922	START	n/a	n/a	n/a	-999	11	[-999, -999, -999]	n/a	FR1	0	R1151E
1626.104	16.835	2005938	PROB	16.835	n/a	n/a	-999	11	[8, 9, 4]	22	FR1	0	R1151E
1642.939	8.086	2022772	PROB	8.086	n/a	n/a	-999	11	[8, 5, 5]	18	FR1	0	R1151E
1651.025	0.015	2030858	STOP	n/a	n/a	n/a	-999	11	[-999, -999, -999]	n/a	FR1	0	R1151E
1651.04	0.535	2030873	DISTRACT_END	n/a	n/a	n/a	-999	11	[0, 0, 0]	n/a	FR1	0	R1151E
1651.575	0.517	2031408	RETRIEVAL_ORIENT	n/a	n/a	n/a	-999	11	[0, 0, 0]	n/a	FR1	0	R1151E
1652.092	1.836	2031925	REC_START	n/a	n/a	n/a	-999	11	[0, 0, 0]	n/a	FR1	0	R1151E
1653.928	2.696	2033761	REC_WORD_VV	2.696	n/a	<>	-999	11	[0, 0, 0]	n/a	FR1	0	R1151E
1656.624	1.732	2036457	REC_WORD	1.732	n/a	WALL	5	11	[0, 0, 0]	n/a	FR1	0	R1151E
1658.356	6.805	2038189	REC_WORD	6.805	n/a	OAK	-999	11	[0, 0, 0]	n/a	FR1	0	R1151E
1665.161	12.447	2044993	REC_WORD	12.447	n/a	OWL	1	11	[0, 0, 0]	n/a	FR1	0	R1151E
1677.608	4.496	2057440	REC_WORD	4.496	n/a	CHIEF	11	11	[0, 0, 0]	n/a	FR1	0	R1151E
1682.104	21.047	2061936	REC_END	n/a	n/a	n/a	-999	11	[0, 0, 0]	n/a	FR1	0	R1151E
1703.151	0.5	2082982	TRIAL	n/a	n/a	n/a	-999	12	[0, 0, 0]	n/a	FR1	0	R1151E
1703.651	10.428	2083482	COUNTDOWN_START	n/a	n/a	n/a	-999	12	[0, 0, 0]	n/a	FR1	0	R1151E
1714.079	0.007	2093909	COUNTDOWN_END	n/a	n/a	n/a	-999	12	[0, 0, 0]	n/a	FR1	0	R1151E
1714.086	1.616	2093916	ORIENT	n/a	n/a	n/a	-999	12	[0, 0, 0]	n/a	FR1	0	R1151E
1715.702	1.934	2095532	ORIENT_OFF	n/a	n/a	n/a	-999	12	[0, 0, 0]	n/a	FR1	0	R1151E
1717.636	1.617	2097466	WORD	n/a	wordpools/wordpool_EN.txt	BRANCH	1	12	[0, 0, 0]	n/a	FR1	0	R1151E
1719.253	0.833	2099083	WORD_OFF	n/a	n/a	BRANCH	1	12	[0, 0, 0]	n/a	FR1	0	R1151E
1720.086	1.617	2099916	WORD	n/a	wordpools/wordpool_EN.txt	MUG	2	12	[0, 0, 0]	n/a	FR1	0	R1151E
1721.703	0.801	2101533	WORD_OFF	n/a	n/a	MUG	2	12	[0, 0, 0]	n/a	FR1	0	R1151E
1722.504	1.617	2102334	WORD	n/a	wordpools/wordpool_EN.txt	BOAT	3	12	[0, 0, 0]	n/a	FR1	0	R1151E
1724.121	0.866	2103951	WORD_OFF	n/a	n/a	BOAT	3	12	[0, 0, 0]	n/a	FR1	0	R1151E
1724.987	1.618	2104817	WORD	n/a	wordpools/wordpool_EN.txt	DUCK	4	12	[0, 0, 0]	n/a	FR1	0	R1151E
1726.605	0.85	2106435	WORD_OFF	n/a	n/a	DUCK	4	12	[0, 0, 0]	n/a	FR1	0	R1151E
1727.455	1.616	2107285	WORD	n/a	wordpools/wordpool_EN.txt	TANK	5	12	[0, 0, 0]	n/a	FR1	0	R1151E
1729.071	0.933	2108901	WORD_OFF	n/a	n/a	TANK	5	12	[0, 0, 0]	n/a	FR1	0	R1151E
1730.004	1.618	2109834	WORD	n/a	wordpools/wordpool_EN.txt	CASH	6	12	[0, 0, 0]	n/a	FR1	0	R1151E
1731.622	0.85	2111452	WORD_OFF	n/a	n/a	CASH	6	12	[0, 0, 0]	n/a	FR1	0	R1151E
1732.472	1.617	2112302	WORD	n/a	wordpools/wordpool_EN.txt	DEER	7	12	[0, 0, 0]	n/a	FR1	0	R1151E
1734.089	1.0	2113918	WORD_OFF	n/a	n/a	DEER	7	12	[0, 0, 0]	n/a	FR1	0	R1151E
1735.089	1.616	2114918	WORD	n/a	wordpools/wordpool_EN.txt	WEB	8	12	[0, 0, 0]	n/a	FR1	0	R1151E
1736.705	0.984	2116534	WORD_OFF	n/a	n/a	WEB	8	12	[0, 0, 0]	n/a	FR1	0	R1151E
1737.689	1.618	2117518	WORD	n/a	wordpools/wordpool_EN.txt	SEAL	9	12	[0, 0, 0]	n/a	FR1	0	R1151E
1739.307	0.933	2119136	WORD_OFF	n/a	n/a	SEAL	9	12	[0, 0, 0]	n/a	FR1	0	R1151E
1740.24	1.616	2120069	WORD	n/a	wordpools/wordpool_EN.txt	HAWK	10	12	[0, 0, 0]	n/a	FR1	0	R1151E
1741.856	0.901	2121685	WORD_OFF	n/a	n/a	HAWK	10	12	[0, 0, 0]	n/a	FR1	0	R1151E
1742.757	1.617	2122586	WORD	n/a	wordpools/wordpool_EN.txt	APE	11	12	[0, 0, 0]	n/a	FR1	0	R1151E
1744.374	0.917	2124203	WORD_OFF	n/a	n/a	APE	11	12	[0, 0, 0]	n/a	FR1	0	R1151E
1745.291	1.616	2125120	WORD	n/a	wordpools/wordpool_EN.txt	BANK	12	12	[0, 0, 0]	n/a	FR1	0	R1151E
1746.907	0.0	2126736	WORD_OFF	n/a	n/a	BANK	12	12	[0, 0, 0]	n/a	FR1	0	R1151E
1746.907	0.001	2126736	DISTRACT_START	n/a	n/a	n/a	-999	12	[0, 0, 0]	n/a	FR1	0	R1151E
1746.908	0.016	2126737	START	n/a	n/a	n/a	-999	12	[-999, -999, -999]	n/a	FR1	0	R1151E
1746.924	12.37	2126753	PROB	12.37	n/a	n/a	-999	12	[5, 9, 2]	16	FR1	0	R1151E
1759.294	7.417	2139122	PROB	7.417	n/a	n/a	-999	12	[7, 4, 8]	19	FR1	0	R1151E
1766.711	4.4	2146539	PROB	4.4	n/a	n/a	-999	12	[4, 9, 7]	20	FR1	0	R1151E
1771.111	0.018	2150939	STOP	n/a	n/a	n/a	-999	12	[-999, -999, -999]	n/a	FR1	0	R1151E
1771.129	0.583	2150957	DISTRACT_END	n/a	n/a	n/a	-999	12	[0, 0, 0]	n/a	FR1	0	R1151E
1771.712	0.518	2151540	RETRIEVAL_ORIENT	n/a	n/a	n/a	-999	12	[0, 0, 0]	n/a	FR1	0	R1151E
1772.23	6.255	2152058	REC_START	n/a	n/a	n/a	-999	12	[0, 0, 0]	n/a	FR1	0	R1151E
1778.485	12.854	2158313	REC_WORD_VV	12.854	n/a	<>	-999	12	[0, 0, 0]	n/a	FR1	0	R1151E
1791.339	1.028	2171166	REC_WORD	1.028	n/a	SEAL	9	12	[0, 0, 0]	n/a	FR1	0	R1151E
1792.367	9.874	2172194	REC_WORD	9.874	n/a	HAWK	10	12	[0, 0, 0]	n/a	FR1	0	R1151E
1802.241	21.881	2182068	REC_END	n/a	n/a	n/a	-999	12	[0, 0, 0]	n/a	FR1	0	R1151E
1824.122	0.5	2203948	TRIAL	n/a	n/a	n/a	-999	13	[0, 0, 0]	n/a	FR1	0	R1151E
1824.622	10.428	2204448	COUNTDOWN_START	n/a	n/a	n/a	-999	13	[0, 0, 0]	n/a	FR1	0	R1151E
1835.05	0.006	2214875	COUNTDOWN_END	n/a	n/a	n/a	-999	13	[0, 0, 0]	n/a	FR1	0	R1151E
1835.056	1.617	2214881	ORIENT	n/a	n/a	n/a	-999	13	[0, 0, 0]	n/a	FR1	0	R1151E
1836.673	2.084	2216498	ORIENT_OFF	n/a	n/a	n/a	-999	13	[0, 0, 0]	n/a	FR1	0	R1151E
1838.757	1.618	2218582	WORD	n/a	wordpools/wordpool_EN.txt	TENT	1	13	[0, 0, 0]	n/a	FR1	0	R1151E
1840.375	0.917	2220200	WORD_OFF	n/a	n/a	TENT	1	13	[0, 0, 0]	n/a	FR1	0	R1151E
1841.292	1.616	2221117	WORD	n/a	wordpools/wordpool_EN.txt	GRASS	2	13	[0, 0, 0]	n/a	FR1	0	R1151E
1842.908	0.85	2222733	WORD_OFF	n/a	n/a	GRASS	2	13	[0, 0, 0]	n/a	FR1	0	R1151E
1843.758	1.618	2223583	WORD	n/a	wordpools/wordpool_EN.txt	FUDGE	3	13	[0, 0, 0]	n/a	FR1	0	R1151E
1845.376	0.966	2225201	WORD_OFF	n/a	n/a	FUDGE	3	13	[0, 0, 0]	n/a	FR1	0	R1151E
1846.342	1.616	2226167	WORD	n/a	wordpools/wordpool_EN.txt	BEE	4	13	[0, 0, 0]	n/a	FR1	0	R1151E
1847.958	0.967	2227783	WORD_OFF	n/a	n/a	BEE	4	13	[0, 0, 0]	n/a	FR1	0	R1151E
1848.925	1.618	2228750	WORD	n/a	wordpools/wordpool_EN.txt	BOOK	5	13	[0, 0, 0]	n/a	FR1	0	R1151E
1850.543	1.0	2230368	WORD_OFF	n/a	n/a	BOOK	5	13	[0, 0, 0]	n/a	FR1	0	R1151E
1851.543	1.617	2231368	WORD	n/a	wordpools/wordpool_EN.txt	LAKE	6	13	[0, 0, 0]	n/a	FR1	0	R1151E
1853.16	0.849	2232985	WORD_OFF	n/a	n/a	LAKE	6	13	[0, 0, 0]	n/a	FR1	0	R1151E
1854.009	1.602	2233834	WORD	n/a	wordpools/wordpool_EN.txt	RICE	7	13	[0, 0, 0]	n/a	FR1	0	R1151E
1855.611	0.767	2235436	WORD_OFF	n/a	n/a	RICE	7	13	[0, 0, 0]	n/a	FR1	0	R1151E
1856.378	1.615	2236203	WORD	n/a	wordpools/wordpool_EN.txt	BAT	8	13	[0, 0, 0]	n/a	FR1	0	R1151E
1857.993	0.817	2237817	WORD_OFF	n/a	n/a	BAT	8	13	[0, 0, 0]	n/a	FR1	0	R1151E
1858.81	1.618	2238634	WORD	n/a	wordpools/wordpool_EN.txt	ROAD	9	13	[0, 0, 0]	n/a	FR1	0	R1151E
1860.428	0.95	2240252	WORD_OFF	n/a	n/a	ROAD	9	13	[0, 0, 0]	n/a	FR1	0	R1151E
1861.378	1.616	2241202	WORD	n/a	wordpools/wordpool_EN.txt	SAIL	10	13	[0, 0, 0]	n/a	FR1	0	R1151E
1862.994	0.8	2242818	WORD_OFF	n/a	n/a	SAIL	10	13	[0, 0, 0]	n/a	FR1	0	R1151E
1863.794	1.601	2243618	WORD	n/a	wordpools/wordpool_EN.txt	FRUIT	11	13	[0, 0, 0]	n/a	FR1	0	R1151E
1865.395	0.868	2245219	WORD_OFF	n/a	n/a	FRUIT	11	13	[0, 0, 0]	n/a	FR1	0	R1151E
1866.263	1.616	2246087	WORD	n/a	wordpools/wordpool_EN.txt	SOUP	12	13	[0, 0, 0]	n/a	FR1	0	R1151E
1867.879	0.0	2247703	WORD_OFF	n/a	n/a	SOUP	12	13	[0, 0, 0]	n/a	FR1	0	R1151E
1867.879	0.0	2247703	DISTRACT_START	n/a	n/a	n/a	-999	13	[0, 0, 0]	n/a	FR1	0	R1151E
1867.879	0.016	2247703	START	n/a	n/a	n/a	-999	13	[-999, -999, -999]	n/a	FR1	0	R1151E
1867.895	8.269	2247719	PROB	8.269	n/a	n/a	-999	13	[2, 6, 6]	14	FR1	0	R1151E
1876.164	5.251	2255988	PROB	5.251	n/a	n/a	-999	13	[8, 6, 4]	18	FR1	0	R1151E
1881.415	3.233	2261239	PROB	3.233	n/a	n/a	-999	13	[4, 4, 1]	9	FR1	0	R1151E
1884.648	9.423	2264471	PROB	9.423	n/a	n/a	-999	13	[2, 7, 5]	14	FR1	0	R1151E
1894.071	0.013	2273894	STOP	n/a	n/a	n/a	-999	13	[-999, -999, -999]	n/a	FR1	0	R1151E
1894.084	0.534	2273907	DISTRACT_END	n/a	n/a	n/a	-999	13	[0, 0, 0]	n/a	FR1	0	R1151E
1894.618	0.517	2274441	RETRIEVAL_ORIENT	n/a	n/a	n/a	-999	13	[0, 0, 0]	n/a	FR1	0	R1151E
1895.135	1.356	2274958	REC_START	n/a	n/a	n/a	-999	13	[0, 0, 0]	n/a	FR1	0	R1151E
1896.491	1.077	2276314	REC_WORD	1.077	n/a	TENT	1	13	[0, 0, 0]	n/a	FR1	0	R1151E
1897.568	1.354	2277391	REC_WORD	1.354	n/a	GRASS	2	13	[0, 0, 0]	n/a	FR1	0	R1151E
1898.922	1.48	2278745	REC_WORD	1.48	n/a	FUDGE	3	13	[0, 0, 0]	n/a	FR1	0	R1151E
1900.402	1.681	2280225	REC_WORD	1.681	n/a	GREEN	-999	13	[0, 0, 0]	n/a	FR1	0	R1151E
1902.083	3.053	2281906	REC_WORD	3.053	n/a	BOOT	-999	13	[0, 0, 0]	n/a	FR1	0	R1151E
1905.136	20.011	2284959	REC_WORD_VV	20.011	n/a	<>	-999	13	[0, 0, 0]	n/a	FR1	0	R1151E
1925.147	20.595	2304969	REC_END	n/a	n/a	n/a	-999	13	[0, 0, 0]	n/a	FR1	0	R1151E
1945.742	0.5	2325563	TRIAL	n/a	n/a	n/a	-999	14	[0, 0, 0]	n/a	FR1	0	R1151E
1946.242	10.428	2326063	COUNTDOWN_START	n/a	n/a	n/a	-999	14	[0, 0, 0]	n/a	FR1	0	R1151E
1956.67	0.007	2336490	COUNTDOWN_END	n/a	n/a	n/a	-999	14	[0, 0, 0]	n/a	FR1	0	R1151E
1956.677	1.601	2336497	ORIENT	n/a	n/a	n/a	-999	14	[0, 0, 0]	n/a	FR1	0	R1151E
1958.278	2.034	2338098	ORIENT_OFF	n/a	n/a	n/a	-999	14	[0, 0, 0]	n/a	FR1	0	R1151E
1960.312	1.616	2340132	WORD	n/a	wordpools/wordpool_EN.txt	CONE	1	14	[0, 0, 0]	n/a	FR1	0	R1151E
1961.928	1.017	2341748	WORD_OFF	n/a	n/a	CONE	1	14	[0, 0, 0]	n/a	FR1	0	R1151E
1962.945	1.618	2342765	WORD	n/a	wordpools/wordpool_EN.txt	HEN	2	14	[0, 0, 0]	n/a	FR1	0	R1151E
1964.563	0.834	2344383	WORD_OFF	n/a	n/a	HEN	2	14	[0, 0, 0]	n/a	FR1	0	R1151E
1965.397	1.616	2345217	WORD	n/a	wordpools/wordpool_EN.txt	DITCH	3	14	[0, 0, 0]	n/a	FR1	0	R1151E
1967.013	0.983	2346833	WORD_OFF	n/a	n/a	DITCH	3	14	[0, 0, 0]	n/a	FR1	0	R1151E
1967.996	1.601	2347816	WORD	n/a	wordpools/wordpool_EN.txt	HAT	4	14	[0, 0, 0]	n/a	FR1	0	R1151E
1969.597	0.917	2349417	WORD_OFF	n/a	n/a	HAT	4	14	[0, 0, 0]	n/a	FR1	0	R1151E
1970.514	1.617	2350334	WORD	n/a	wordpools/wordpool_EN.txt	YARD	5	14	[0, 0, 0]	n/a	FR1	0	R1151E
1972.131	0.849	2351951	WORD_OFF	n/a	n/a	YARD	5	14	[0, 0, 0]	n/a	FR1	0	R1151E
1972.98	1.618	2352800	WORD	n/a	wordpools/wordpool_EN.txt	CART	6	14	[0, 0, 0]	n/a	FR1	0	R1151E
1974.598	0.884	2354418	WORD_OFF	n/a	n/a	CART	6	14	[0, 0, 0]	n/a	FR1	0	R1151E
1975.482	1.617	2355302	WORD	n/a	wordpools/wordpool_EN.txt	TOOL	7	14	[0, 0, 0]	n/a	FR1	0	R1151E
1977.099	0.899	2356919	WORD_OFF	n/a	n/a	TOOL	7	14	[0, 0, 0]	n/a	FR1	0	R1151E
1977.998	1.618	2357818	WORD	n/a	wordpools/wordpool_EN.txt	RAKE	8	14	[0, 0, 0]	n/a	FR1	0	R1151E
1979.616	0.983	2359436	WORD_OFF	n/a	n/a	RAKE	8	14	[0, 0, 0]	n/a	FR1	0	R1151E
1980.599	1.617	2360418	WORD	n/a	wordpools/wordpool_EN.txt	THUMB	9	14	[0, 0, 0]	n/a	FR1	0	R1151E
1982.216	0.85	2362035	WORD_OFF	n/a	n/a	THUMB	9	14	[0, 0, 0]	n/a	FR1	0	R1151E
1983.066	1.616	2362885	WORD	n/a	wordpools/wordpool_EN.txt	BREAD	10	14	[0, 0, 0]	n/a	FR1	0	R1151E
1984.682	0.785	2364501	WORD_OFF	n/a	n/a	BREAD	10	14	[0, 0, 0]	n/a	FR1	0	R1151E
1985.467	1.617	2365286	WORD	n/a	wordpools/wordpool_EN.txt	POLE	11	14	[0, 0, 0]	n/a	FR1	0	R1151E
1987.084	0.916	2366903	WORD_OFF	n/a	n/a	POLE	11	14	[0, 0, 0]	n/a	FR1	0	R1151E
1988.0	1.618	2367819	WORD	n/a	wordpools/wordpool_EN.txt	WAND	12	14	[0, 0, 0]	n/a	FR1	0	R1151E
1989.618	0.0	2369437	WORD_OFF	n/a	n/a	WAND	12	14	[0, 0, 0]	n/a	FR1	0	R1151E
1989.618	0.0	2369437	DISTRACT_START	n/a	n/a	n/a	-999	14	[0, 0, 0]	n/a	FR1	0	R1151E
1989.618	0.016	2369437	START	n/a	n/a	n/a	-999	14	[-999, -999, -999]	n/a	FR1	0	R1151E
1989.634	7.701	2369453	PROB	7.701	n/a	n/a	-999	14	[6, 7, 4]	17	FR1	0	R1151E
1997.335	14.287	2377154	PROB	14.287	n/a	n/a	-999	14	[5, 8, 4]	17	FR1	0	R1151E
2011.622	0.016	2391440	STOP	n/a	n/a	n/a	-999	14	[-999, -999, -999]	n/a	FR1	0	R1151E
2011.638	0.617	2391456	DISTRACT_END	n/a	n/a	n/a	-999	14	[0, 0, 0]	n/a	FR1	0	R1151E
2012.255	0.516	2392073	RETRIEVAL_ORIENT	n/a	n/a	n/a	-999	14	[0, 0, 0]	n/a	FR1	0	R1151E
2012.771	5.043	2392589	REC_START	n/a	n/a	n/a	-999	14	[0, 0, 0]	n/a	FR1	0	R1151E
2017.814	1.121	2397632	REC_WORD	1.121	n/a	CONE	1	14	[0, 0, 0]	n/a	FR1	0	R1151E
2018.935	3.913	2398753	REC_WORD	3.913	n/a	WAND	12	14	[0, 0, 0]	n/a	FR1	0	R1151E
2022.848	18.478	2402666	REC_WORD	18.478	n/a	BREAD	10	14	[0, 0, 0]	n/a	FR1	0	R1151E
2041.326	1.458	2421143	REC_WORD	1.458	n/a	GRASS	-999	14	[0, 0, 0]	n/a	FR1	0	R1151E
2042.784	11.061	2422601	REC_END	n/a	n/a	n/a	-999	14	[0, 0, 0]	n/a	FR1	0	R1151E
2053.845	0.5	2433662	TRIAL	n/a	n/a	n/a	-999	15	[0, 0, 0]	n/a	FR1	0	R1151E
2054.345	10.428	2434162	COUNTDOWN_START	n/a	n/a	n/a	-999	15	[0, 0, 0]	n/a	FR1	0	R1151E
2064.773	0.007	2444589	COUNTDOWN_END	n/a	n/a	n/a	-999	15	[0, 0, 0]	n/a	FR1	0	R1151E
2064.78	1.618	2444596	ORIENT	n/a	n/a	n/a	-999	15	[0, 0, 0]	n/a	FR1	0	R1151E
2066.398	2.117	2446214	ORIENT_OFF	n/a	n/a	n/a	-999	15	[0, 0, 0]	n/a	FR1	0	R1151E
2068.515	1.616	2448331	WORD	n/a	wordpools/wordpool_EN.txt	PIE	1	15	[0, 0, 0]	n/a	FR1	0	R1151E
2070.131	0.9	2449947	WORD_OFF	n/a	n/a	PIE	1	15	[0, 0, 0]	n/a	FR1	0	R1151E
2071.031	1.617	2450847	WORD	n/a	wordpools/wordpool_EN.txt	BROOM	2	15	[0, 0, 0]	n/a	FR1	0	R1151E
2072.648	0.818	2452464	WORD_OFF	n/a	n/a	BROOM	2	15	[0, 0, 0]	n/a	FR1	0	R1151E
2073.466	1.617	2453282	WORD	n/a	wordpools/wordpool_EN.txt	FOG	3	15	[0, 0, 0]	n/a	FR1	0	R1151E
2075.083	0.965	2454899	WORD_OFF	n/a	n/a	FOG	3	15	[0, 0, 0]	n/a	FR1	0	R1151E
2076.048	1.617	2455864	WORD	n/a	wordpools/wordpool_EN.txt	WOOD	4	15	[0, 0, 0]	n/a	FR1	0	R1151E
2077.665	0.885	2457481	WORD_OFF	n/a	n/a	WOOD	4	15	[0, 0, 0]	n/a	FR1	0	R1151E
2078.55	1.617	2458366	WORD	n/a	wordpools/wordpool_EN.txt	SLUSH	5	15	[0, 0, 0]	n/a	FR1	0	R1151E
2080.167	0.933	2459982	WORD_OFF	n/a	n/a	SLUSH	5	15	[0, 0, 0]	n/a	FR1	0	R1151E
2081.1	1.616	2460915	WORD	n/a	wordpools/wordpool_EN.txt	ROOM	6	15	[0, 0, 0]	n/a	FR1	0	R1151E
2082.716	0.868	2462531	WORD_OFF	n/a	n/a	ROOM	6	15	[0, 0, 0]	n/a	FR1	0	R1151E
2083.584	1.617	2463399	WORD	n/a	wordpools/wordpool_EN.txt	STAIR	7	15	[0, 0, 0]	n/a	FR1	0	R1151E
2085.201	0.833	2465016	WORD_OFF	n/a	n/a	STAIR	7	15	[0, 0, 0]	n/a	FR1	0	R1151E
2086.034	1.617	2465849	WORD	n/a	wordpools/wordpool_EN.txt	NAIL	8	15	[0, 0, 0]	n/a	FR1	0	R1151E
2087.651	1.0	2467466	WORD_OFF	n/a	n/a	NAIL	8	15	[0, 0, 0]	n/a	FR1	0	R1151E
2088.651	1.618	2468466	WORD	n/a	wordpools/wordpool_EN.txt	PANTS	9	15	[0, 0, 0]	n/a	FR1	0	R1151E
2090.269	0.85	2470084	WORD_OFF	n/a	n/a	PANTS	9	15	[0, 0, 0]	n/a	FR1	0	R1151E
2091.119	1.616	2470934	WORD	n/a	wordpools/wordpool_EN.txt	SUIT	10	15	[0, 0, 0]	n/a	FR1	0	R1151E
2092.735	0.967	2472550	WORD_OFF	n/a	n/a	SUIT	10	15	[0, 0, 0]	n/a	FR1	0	R1151E
2093.702	1.618	2473517	WORD	n/a	wordpools/wordpool_EN.txt	PEAR	11	15	[0, 0, 0]	n/a	FR1	0	R1151E
2095.32	0.799	2475135	WORD_OFF	n/a	n/a	PEAR	11	15	[0, 0, 0]	n/a	FR1	0	R1151E
2096.119	1.617	2475934	WORD	n/a	wordpools/wordpool_EN.txt	WORM	12	15	[0, 0, 0]	n/a	FR1	0	R1151E
2097.736	0.0	2477551	WORD_OFF	n/a	n/a	WORM	12	15	[0, 0, 0]	n/a	FR1	0	R1151E
2097.736	0.0	2477551	DISTRACT_START	n/a	n/a	n/a	-999	15	[0, 0, 0]	n/a	FR1	0	R1151E
2097.736	0.016	2477551	START	n/a	n/a	n/a	-999	15	[-999, -999, -999]	n/a	FR1	0	R1151E
2097.752	5.869	2477567	PROB	5.869	n/a	n/a	-999	15	[8, 1, 2]	11	FR1	0	R1151E
2103.621	8.768	2483436	PROB	8.768	n/a	n/a	-999	15	[8, 8, 5]	21	FR1	0	R1151E
2112.389	5.168	2492203	PROB	5.168	n/a	n/a	-999	15	[6, 1, 9]	16	FR1	0	R1151E
2117.557	3.832	2497371	PROB	3.832	n/a	n/a	-999	15	[1, 3, 8]	12	FR1	0	R1151E
2121.389	0.018	2501203	STOP	n/a	n/a	n/a	-999	15	[-999, -999, -999]	n/a	FR1	0	R1151E
2121.407	0.583	2501221	DISTRACT_END	n/a	n/a	n/a	-999	15	[0, 0, 0]	n/a	FR1	0	R1151E
2121.99	0.518	2501804	RETRIEVAL_ORIENT	n/a	n/a	n/a	-999	15	[0, 0, 0]	n/a	FR1	0	R1151E
2122.508	7.257	2502322	REC_START	n/a	n/a	n/a	-999	15	[0, 0, 0]	n/a	FR1	0	R1151E
2129.765	1.537	2509578	REC_WORD	1.537	n/a	NAIL	8	15	[0, 0, 0]	n/a	FR1	0	R1151E
2131.302	10.907	2511115	REC_WORD	10.907	n/a	STAIR	7	15	[0, 0, 0]	n/a	FR1	0	R1151E
2142.209	10.311	2522022	REC_WORD	10.311	n/a	CHAIR	-999	15	[0, 0, 0]	n/a	FR1	0	R1151E
2152.52	10.127	2532333	REC_END	n/a	n/a	n/a	-999	15	[0, 0, 0]	n/a	FR1	0	R1151E
2162.647	0.5	2542459	TRIAL	n/a	n/a	n/a	-999	16	[0, 0, 0]	n/a	FR1	0	R1151E
2163.147	10.428	2542959	COUNTDOWN_START	n/a	n/a	n/a	-999	16	[0, 0, 0]	n/a	FR1	0	R1151E
2173.575	0.008	2553387	COUNTDOWN_END	n/a	n/a	n/a	-999	16	[0, 0, 0]	n/a	FR1	0	R1151E
2173.583	1.617	2553395	ORIENT	n/a	n/a	n/a	-999	16	[0, 0, 0]	n/a	FR1	0	R1151E
2175.2	2.251	2555012	ORIENT_OFF	n/a	n/a	n/a	-999	16	[0, 0, 0]	n/a	FR1	0	R1151E
2177.451	1.616	2557263	WORD	n/a	wordpools/wordpool_EN.txt	GOAT	1	16	[0, 0, 0]	n/a	FR1	0	R1151E
2179.067	0.883	2558878	WORD_OFF	n/a	n/a	GOAT	1	16	[0, 0, 0]	n/a	FR1	0	R1151E
2179.95	1.618	2559761	WORD	n/a	wordpools/wordpool_EN.txt	ARK	2	16	[0, 0, 0]	n/a	FR1	0	R1151E
2181.568	0.867	2561379	WORD_OFF	n/a	n/a	ARK	2	16	[0, 0, 0]	n/a	FR1	0	R1151E
2182.435	1.616	2562246	WORD	n/a	wordpools/wordpool_EN.txt	LAMB	3	16	[0, 0, 0]	n/a	FR1	0	R1151E
2184.051	0.817	2563862	WORD_OFF	n/a	n/a	LAMB	3	16	[0, 0, 0]	n/a	FR1	0	R1151E
2184.868	1.618	2564679	WORD	n/a	wordpools/wordpool_EN.txt	SPEAR	4	16	[0, 0, 0]	n/a	FR1	0	R1151E
2186.486	0.866	2566297	WORD_OFF	n/a	n/a	SPEAR	4	16	[0, 0, 0]	n/a	FR1	0	R1151E
2187.352	1.616	2567163	WORD	n/a	wordpools/wordpool_EN.txt	STEAM	5	16	[0, 0, 0]	n/a	FR1	0	R1151E
2188.968	0.767	2568779	WORD_OFF	n/a	n/a	STEAM	5	16	[0, 0, 0]	n/a	FR1	0	R1151E
2189.735	1.618	2569546	WORD	n/a	wordpools/wordpool_EN.txt	FACE	6	16	[0, 0, 0]	n/a	FR1	0	R1151E
2191.353	0.767	2571164	WORD_OFF	n/a	n/a	FACE	6	16	[0, 0, 0]	n/a	FR1	0	R1151E
2192.12	1.616	2571931	WORD	n/a	wordpools/wordpool_EN.txt	SWORD	7	16	[0, 0, 0]	n/a	FR1	0	R1151E
2193.736	0.851	2573547	WORD_OFF	n/a	n/a	SWORD	7	16	[0, 0, 0]	n/a	FR1	0	R1151E
2194.587	1.617	2574398	WORD	n/a	wordpools/wordpool_EN.txt	SHIELD	8	16	[0, 0, 0]	n/a	FR1	0	R1151E
2196.204	0.967	2576015	WORD_OFF	n/a	n/a	SHIELD	8	16	[0, 0, 0]	n/a	FR1	0	R1151E
2197.171	1.616	2576982	WORD	n/a	wordpools/wordpool_EN.txt	LAMP	9	16	[0, 0, 0]	n/a	FR1	0	R1151E
2198.787	0.801	2578598	WORD_OFF	n/a	n/a	LAMP	9	16	[0, 0, 0]	n/a	FR1	0	R1151E
2199.588	1.617	2579399	WORD	n/a	wordpools/wordpool_EN.txt	SEAT	10	16	[0, 0, 0]	n/a	FR1	0	R1151E
2201.205	0.967	2581016	WORD_OFF	n/a	n/a	SEAT	10	16	[0, 0, 0]	n/a	FR1	0	R1151E
2202.172	1.616	2581983	WORD	n/a	wordpools/wordpool_EN.txt	LIP	11	16	[0, 0, 0]	n/a	FR1	0	R1151E
2203.788	0.834	2583598	WORD_OFF	n/a	n/a	LIP	11	16	[0, 0, 0]	n/a	FR1	0	R1151E
2204.622	1.617	2584432	WORD	n/a	wordpools/wordpool_EN.txt	DESK	12	16	[0, 0, 0]	n/a	FR1	0	R1151E
2206.239	0.0	2586049	WORD_OFF	n/a	n/a	DESK	12	16	[0, 0, 0]	n/a	FR1	0	R1151E
2206.239	0.001	2586049	DISTRACT_START	n/a	n/a	n/a	-999	16	[0, 0, 0]	n/a	FR1	0	R1151E
2206.24	0.016	2586050	START	n/a	n/a	n/a	-999	16	[-999, -999, -999]	n/a	FR1	0	R1151E
2206.256	14.036	2586066	PROB	14.036	n/a	n/a	-999	16	[6, 2, 8]	16	FR1	0	R1151E
2220.292	2.917	2600102	PROB	2.917	n/a	n/a	-999	16	[1, 1, 2]	4	FR1	0	R1151E
2223.209	7.154	2603019	PROB	7.154	n/a	n/a	-999	16	[3, 3, 8]	14	FR1	0	R1151E
2230.363	0.014	2610172	STOP	n/a	n/a	n/a	-999	16	[-999, -999, -999]	n/a	FR1	0	R1151E
2230.377	0.665	2610186	DISTRACT_END	n/a	n/a	n/a	-999	16	[0, 0, 0]	n/a	FR1	0	R1151E
2231.042	0.519	2610851	RETRIEVAL_ORIENT	n/a	n/a	n/a	-999	16	[0, 0, 0]	n/a	FR1	0	R1151E
2231.561	5.519	2611370	REC_START	n/a	n/a	n/a	-999	16	[0, 0, 0]	n/a	FR1	0	R1151E
2237.08	2.691	2616889	REC_WORD	2.691	n/a	SWORD	7	16	[0, 0, 0]	n/a	FR1	0	R1151E
2239.771	1.054	2619580	REC_WORD	1.054	n/a	LAMP	9	16	[0, 0, 0]	n/a	FR1	0	R1151E
2240.825	8.956	2620634	REC_WORD	8.956	n/a	FACE	6	16	[0, 0, 0]	n/a	FR1	0	R1151E
2249.781	11.792	2629590	REC_WORD	11.792	n/a	STEAM	5	16	[0, 0, 0]	n/a	FR1	0	R1151E
2261.573	36.666	2641381	REC_END	n/a	n/a	n/a	-999	16	[0, 0, 0]	n/a	FR1	0	R1151E
2298.239	0.5	2678046	TRIAL	n/a	n/a	n/a	-999	17	[0, 0, 0]	n/a	FR1	0	R1151E
2298.739	10.428	2678546	COUNTDOWN_START	n/a	n/a	n/a	-999	17	[0, 0, 0]	n/a	FR1	0	R1151E
2309.167	0.007	2688973	COUNTDOWN_END	n/a	n/a	n/a	-999	17	[0, 0, 0]	n/a	FR1	0	R1151E
2309.174	1.616	2688980	ORIENT	n/a	n/a	n/a	-999	17	[0, 0, 0]	n/a	FR1	0	R1151E
2310.79	2.0	2690596	ORIENT_OFF	n/a	n/a	n/a	-999	17	[0, 0, 0]	n/a	FR1	0	R1151E
2312.79	1.601	2692596	WORD	n/a	wordpools/wordpool_EN.txt	SHEEP	1	17	[0, 0, 0]	n/a	FR1	0	R1151E
2314.391	0.967	2694197	WORD_OFF	n/a	n/a	SHEEP	1	17	[0, 0, 0]	n/a	FR1	0	R1151E
2315.358	1.616	2695164	WORD	n/a	wordpools/wordpool_EN.txt	CHALK	2	17	[0, 0, 0]	n/a	FR1	0	R1151E
2316.974	0.8	2696780	WORD_OFF	n/a	n/a	CHALK	2	17	[0, 0, 0]	n/a	FR1	0	R1151E
2317.774	1.618	2697580	WORD	n/a	wordpools/wordpool_EN.txt	SWAMP	3	17	[0, 0, 0]	n/a	FR1	0	R1151E
2319.392	0.967	2699198	WORD_OFF	n/a	n/a	SWAMP	3	17	[0, 0, 0]	n/a	FR1	0	R1151E
2320.359	1.616	2700165	WORD	n/a	wordpools/wordpool_EN.txt	FARM	4	17	[0, 0, 0]	n/a	FR1	0	R1151E
2321.975	0.967	2701781	WORD_OFF	n/a	n/a	FARM	4	17	[0, 0, 0]	n/a	FR1	0	R1151E
2322.942	1.618	2702748	WORD	n/a	wordpools/wordpool_EN.txt	RAT	5	17	[0, 0, 0]	n/a	FR1	0	R1151E
2324.56	0.967	2704366	WORD_OFF	n/a	n/a	RAT	5	17	[0, 0, 0]	n/a	FR1	0	R1151E
2325.527	1.617	2705333	WORD	n/a	wordpools/wordpool_EN.txt	SEED	6	17	[0, 0, 0]	n/a	FR1	0	R1151E
2327.144	0.799	2706949	WORD_OFF	n/a	n/a	SEED	6	17	[0, 0, 0]	n/a	FR1	0	R1151E
2327.943	1.618	2707748	WORD	n/a	wordpools/wordpool_EN.txt	SNAIL	7	17	[0, 0, 0]	n/a	FR1	0	R1151E
2329.561	0.817	2709366	WORD_OFF	n/a	n/a	SNAIL	7	17	[0, 0, 0]	n/a	FR1	0	R1151E
2330.378	1.616	2710183	WORD	n/a	wordpools/wordpool_EN.txt	FLAG	8	17	[0, 0, 0]	n/a	FR1	0	R1151E
2331.994	0.766	2711799	WORD_OFF	n/a	n/a	FLAG	8	17	[0, 0, 0]	n/a	FR1	0	R1151E
2332.76	1.618	2712565	WORD	n/a	wordpools/wordpool_EN.txt	CLOUD	9	17	[0, 0, 0]	n/a	FR1	0	R1151E
2334.378	0.8	2714183	WORD_OFF	n/a	n/a	CLOUD	9	17	[0, 0, 0]	n/a	FR1	0	R1151E
2335.178	1.616	2714983	WORD	n/a	wordpools/wordpool_EN.txt	SPARK	10	17	[0, 0, 0]	n/a	FR1	0	R1151E
2336.794	0.785	2716599	WORD_OFF	n/a	n/a	SPARK	10	17	[0, 0, 0]	n/a	FR1	0	R1151E
2337.579	1.617	2717384	WORD	n/a	wordpools/wordpool_EN.txt	CANE	11	17	[0, 0, 0]	n/a	FR1	0	R1151E
2339.196	0.849	2719001	WORD_OFF	n/a	n/a	CANE	11	17	[0, 0, 0]	n/a	FR1	0	R1151E
2340.045	1.617	2719850	WORD	n/a	wordpools/wordpool_EN.txt	SHARK	12	17	[0, 0, 0]	n/a	FR1	0	R1151E
2341.662	0.0	2721467	WORD_OFF	n/a	n/a	SHARK	12	17	[0, 0, 0]	n/a	FR1	0	R1151E
2341.662	0.001	2721467	DISTRACT_START	n/a	n/a	n/a	-999	17	[0, 0, 0]	n/a	FR1	0	R1151E
2341.663	0.016	2721468	START	n/a	n/a	n/a	-999	17	[-999, -999, -999]	n/a	FR1	0	R1151E
2341.679	8.351	2721484	PROB	8.351	n/a	n/a	-999	17	[5, 5, 6]	16	FR1	0	R1151E
2350.03	3.302	2729835	PROB	3.302	n/a	n/a	-999	17	[3, 3, 6]	12	FR1	0	R1151E
2353.332	9.69	2733136	PROB	9.69	n/a	n/a	-999	17	[8, 4, 4]	16	FR1	0	R1151E
2363.022	0.01	2742826	STOP	n/a	n/a	n/a	-999	17	[-999, -999, -999]	n/a	FR1	0	R1151E
2363.032	0.7	2742836	DISTRACT_END	n/a	n/a	n/a	-999	17	[0, 0, 0]	n/a	FR1	0	R1151E
2363.732	0.519	2743536	RETRIEVAL_ORIENT	n/a	n/a	n/a	-999	17	[0, 0, 0]	n/a	FR1	0	R1151E
2364.251	4.893	2744055	REC_START	n/a	n/a	n/a	-999	17	[0, 0, 0]	n/a	FR1	0	R1151E
2369.144	4.556	2748948	REC_WORD	4.556	n/a	SNAIL	7	17	[0, 0, 0]	n/a	FR1	0	R1151E
2373.7	17.743	2753504	REC_WORD	17.743	n/a	RAT	5	17	[0, 0, 0]	n/a	FR1	0	R1151E
2391.443	2.819	2771246	REC_WORD	2.819	n/a	SHEEP	1	17	[0, 0, 0]	n/a	FR1	0	R1151E
2394.262	6.794	2774065	REC_END	n/a	n/a	n/a	-999	17	[0, 0, 0]	n/a	FR1	0	R1151E
2401.056	0.5	2780858	TRIAL	n/a	n/a	n/a	-999	18	[0, 0, 0]	n/a	FR1	0	R1151E
2401.556	10.428	2781358	COUNTDOWN_START	n/a	n/a	n/a	-999	18	[0, 0, 0]	n/a	FR1	0	R1151E
2411.984	0.007	2791786	COUNTDOWN_END	n/a	n/a	n/a	-999	18	[0, 0, 0]	n/a	FR1	0	R1151E
2411.991	1.618	2791793	ORIENT	n/a	n/a	n/a	-999	18	[0, 0, 0]	n/a	FR1	0	R1151E
2413.609	2.199	2793411	ORIENT_OFF	n/a	n/a	n/a	-999	18	[0, 0, 0]	n/a	FR1	0	R1151E
2415.808	1.618	2795610	WORD	n/a	wordpools/wordpool_EN.txt	GLASS	1	18	[0, 0, 0]	n/a	FR1	0	R1151E
2417.426	0.8	2797228	WORD_OFF	n/a	n/a	GLASS	1	18	[0, 0, 0]	n/a	FR1	0	R1151E
2418.226	1.616	2798028	WORD	n/a	wordpools/wordpool_EN.txt	PIT	2	18	[0, 0, 0]	n/a	FR1	0	R1151E
2419.842	0.901	2799644	WORD_OFF	n/a	n/a	PIT	2	18	[0, 0, 0]	n/a	FR1	0	R1151E
2420.743	1.618	2800545	WORD	n/a	wordpools/wordpool_EN.txt	SMILE	3	18	[0, 0, 0]	n/a	FR1	0	R1151E
2422.361	0.866	2802163	WORD_OFF	n/a	n/a	SMILE	3	18	[0, 0, 0]	n/a	FR1	0	R1151E
2423.227	1.616	2803029	WORD	n/a	wordpools/wordpool_EN.txt	CROWN	4	18	[0, 0, 0]	n/a	FR1	0	R1151E
2424.843	0.984	2804644	WORD_OFF	n/a	n/a	CROWN	4	18	[0, 0, 0]	n/a	FR1	0	R1151E
2425.827	1.618	2805628	WORD	n/a	wordpools/wordpool_EN.txt	BEAR	5	18	[0, 0, 0]	n/a	FR1	0	R1151E
2427.445	1.0	2807246	WORD_OFF	n/a	n/a	BEAR	5	18	[0, 0, 0]	n/a	FR1	0	R1151E
2428.445	1.616	2808246	WORD	n/a	wordpools/wordpool_EN.txt	DRESS	6	18	[0, 0, 0]	n/a	FR1	0	R1151E
2430.061	0.917	2809862	WORD_OFF	n/a	n/a	DRESS	6	18	[0, 0, 0]	n/a	FR1	0	R1151E
2430.978	1.617	2810779	WORD	n/a	wordpools/wordpool_EN.txt	PARK	7	18	[0, 0, 0]	n/a	FR1	0	R1151E
2432.595	0.967	2812396	WORD_OFF	n/a	n/a	PARK	7	18	[0, 0, 0]	n/a	FR1	0	R1151E
2433.562	1.618	2813363	WORD	n/a	wordpools/wordpool_EN.txt	CUBE	8	18	[0, 0, 0]	n/a	FR1	0	R1151E
2435.18	0.933	2814981	WORD_OFF	n/a	n/a	CUBE	8	18	[0, 0, 0]	n/a	FR1	0	R1151E
2436.113	1.616	2815914	WORD	n/a	wordpools/wordpool_EN.txt	SHEET	9	18	[0, 0, 0]	n/a	FR1	0	R1151E
2437.729	0.834	2817530	WORD_OFF	n/a	n/a	SHEET	9	18	[0, 0, 0]	n/a	FR1	0	R1151E
2438.563	1.617	2818364	WORD	n/a	wordpools/wordpool_EN.txt	EGG	10	18	[0, 0, 0]	n/a	FR1	0	R1151E
2440.18	0.883	2819981	WORD_OFF	n/a	n/a	EGG	10	18	[0, 0, 0]	n/a	FR1	0	R1151E
2441.063	1.617	2820864	WORD	n/a	wordpools/wordpool_EN.txt	BUSH	11	18	[0, 0, 0]	n/a	FR1	0	R1151E
2442.68	0.868	2822481	WORD_OFF	n/a	n/a	BUSH	11	18	[0, 0, 0]	n/a	FR1	0	R1151E
2443.548	1.617	2823349	WORD	n/a	wordpools/wordpool_EN.txt	RAIN	12	18	[0, 0, 0]	n/a	FR1	0	R1151E
2445.165	0.0	2824966	DISTRACT_START	n/a	n/a	n/a	-999	18	[0, 0, 0]	n/a	FR1	0	R1151E
2445.165	0.0	2824966	WORD_OFF	n/a	n/a	RAIN	12	18	[0, 0, 0]	n/a	FR1	0	R1151E
2445.165	0.016	2824966	START	n/a	n/a	n/a	-999	18	[-999, -999, -999]	n/a	FR1	0	R1151E
2445.181	10.884	2824982	PROB	10.884	n/a	n/a	-999	18	[2, 1, 2]	5	FR1	0	R1151E
2456.065	8.086	2835865	PROB	8.086	n/a	n/a	-999	18	[4, 9, 2]	15	FR1	0	R1151E
2464.151	3.325	2843951	PROB	3.325	n/a	n/a	-999	18	[5, 5, 4]	14	FR1	0	R1151E
2467.476	0.009	2847276	STOP	n/a	n/a	n/a	-999	18	[-999, -999, -999]	n/a	FR1	0	R1151E
2467.485	0.684	2847285	DISTRACT_END	n/a	n/a	n/a	-999	18	[0, 0, 0]	n/a	FR1	0	R1151E
2468.169	0.516	2847969	RETRIEVAL_ORIENT	n/a	n/a	n/a	-999	18	[0, 0, 0]	n/a	FR1	0	R1151E
2468.685	0.839	2848485	REC_START	n/a	n/a	n/a	-999	18	[0, 0, 0]	n/a	FR1	0	R1151E
2469.524	0.849	2849324	REC_WORD	0.849	n/a	EGG	10	18	[0, 0, 0]	n/a	FR1	0	R1151E
2470.373	1.042	2850173	REC_WORD	1.042	n/a	GLASS	1	18	[0, 0, 0]	n/a	FR1	0	R1151E
2471.415	1.023	2851215	REC_WORD	1.023	n/a	PIT	2	18	[0, 0, 0]	n/a	FR1	0	R1151E
2472.438	3.37	2852238	REC_WORD	3.37	n/a	RAIN	12	18	[0, 0, 0]	n/a	FR1	0	R1151E
2475.808	22.889	2855607	REC_WORD	22.889	n/a	SHIELD	-999	18	[0, 0, 0]	n/a	FR1	0	R1151E
2498.697	7.695	2878495	REC_END	n/a	n/a	n/a	-999	18	[0, 0, 0]	n/a	FR1	0	R1151E
2506.392	0.5	2886190	TRIAL	n/a	n/a	n/a	-999	19	[0, 0, 0]	n/a	FR1	0	R1151E
2506.892	10.428	2886690	COUNTDOWN_START	n/a	n/a	n/a	-999	19	[0, 0, 0]	n/a	FR1	0	R1151E
2517.32	0.007	2897118	COUNTDOWN_END	n/a	n/a	n/a	-999	19	[0, 0, 0]	n/a	FR1	0	R1151E
2517.327	1.616	2897125	ORIENT	n/a	n/a	n/a	-999	19	[0, 0, 0]	n/a	FR1	0	R1151E
2518.943	1.934	2898741	ORIENT_OFF	n/a	n/a	n/a	-999	19	[0, 0, 0]	n/a	FR1	0	R1151E
2520.877	1.601	2900675	WORD	n/a	wordpools/wordpool_EN.txt	MAZE	1	19	[0, 0, 0]	n/a	FR1	0	R1151E
2522.478	0.85	2902276	WORD_OFF	n/a	n/a	MAZE	1	19	[0, 0, 0]	n/a	FR1	0	R1151E
2523.328	1.616	2903126	WORD	n/a	wordpools/wordpool_EN.txt	BLOOM	2	19	[0, 0, 0]	n/a	FR1	0	R1151E
2524.944	0.834	2904741	WORD_OFF	n/a	n/a	BLOOM	2	19	[0, 0, 0]	n/a	FR1	0	R1151E
2525.778	1.618	2905575	WORD	n/a	wordpools/wordpool_EN.txt	SCHOOL	3	19	[0, 0, 0]	n/a	FR1	0	R1151E
2527.396	0.8	2907193	WORD_OFF	n/a	n/a	SCHOOL	3	19	[0, 0, 0]	n/a	FR1	0	R1151E
2528.196	1.616	2907993	WORD	n/a	wordpools/wordpool_EN.txt	BEACH	4	19	[0, 0, 0]	n/a	FR1	0	R1151E
2529.812	0.883	2909609	WORD_OFF	n/a	n/a	BEACH	4	19	[0, 0, 0]	n/a	FR1	0	R1151E
2530.695	1.601	2910492	WORD	n/a	wordpools/wordpool_EN.txt	SIGN	5	19	[0, 0, 0]	n/a	FR1	0	R1151E
2532.296	0.801	2912093	WORD_OFF	n/a	n/a	SIGN	5	19	[0, 0, 0]	n/a	FR1	0	R1151E
2533.097	1.616	2912894	WORD	n/a	wordpools/wordpool_EN.txt	NET	6	19	[0, 0, 0]	n/a	FR1	0	R1151E
2534.713	0.918	2914510	WORD_OFF	n/a	n/a	NET	6	19	[0, 0, 0]	n/a	FR1	0	R1151E
2535.631	1.616	2915428	WORD	n/a	wordpools/wordpool_EN.txt	MOON	7	19	[0, 0, 0]	n/a	FR1	0	R1151E
2537.247	0.783	2917044	WORD_OFF	n/a	n/a	MOON	7	19	[0, 0, 0]	n/a	FR1	0	R1151E
2538.03	1.617	2917827	WORD	n/a	wordpools/wordpool_EN.txt	BALL	8	19	[0, 0, 0]	n/a	FR1	0	R1151E
2539.647	0.818	2919444	WORD_OFF	n/a	n/a	BALL	8	19	[0, 0, 0]	n/a	FR1	0	R1151E
2540.465	1.617	2920262	WORD	n/a	wordpools/wordpool_EN.txt	SPONGE	9	19	[0, 0, 0]	n/a	FR1	0	R1151E
2542.082	0.765	2921879	WORD_OFF	n/a	n/a	SPONGE	9	19	[0, 0, 0]	n/a	FR1	0	R1151E
2542.847	1.602	2922644	WORD	n/a	wordpools/wordpool_EN.txt	STAR	10	19	[0, 0, 0]	n/a	FR1	0	R1151E
2544.449	0.883	2924246	WORD_OFF	n/a	n/a	STAR	10	19	[0, 0, 0]	n/a	FR1	0	R1151E
2545.332	1.616	2925129	WORD	n/a	wordpools/wordpool_EN.txt	BOWL	11	19	[0, 0, 0]	n/a	FR1	0	R1151E
2546.948	0.934	2926745	WORD_OFF	n/a	n/a	BOWL	11	19	[0, 0, 0]	n/a	FR1	0	R1151E
2547.882	1.618	2927679	WORD	n/a	wordpools/wordpool_EN.txt	KITE	12	19	[0, 0, 0]	n/a	FR1	0	R1151E
2549.5	0.0	2929296	WORD_OFF	n/a	n/a	KITE	12	19	[0, 0, 0]	n/a	FR1	0	R1151E
2549.5	0.0	2929296	DISTRACT_START	n/a	n/a	n/a	-999	19	[0, 0, 0]	n/a	FR1	0	R1151E
2549.5	0.016	2929296	START	n/a	n/a	n/a	-999	19	[-999, -999, -999]	n/a	FR1	0	R1151E
2549.516	10.619	2929312	PROB	10.619	n/a	n/a	-999	19	[1, 6, 1]	8	FR1	0	R1151E
2560.135	11.138	2939931	PROB	11.138	n/a	n/a	-999	19	[2, 7, 1]	10	FR1	0	R1151E
2571.273	0.014	2951069	STOP	n/a	n/a	n/a	-999	19	[-999, -999, -999]	n/a	FR1	0	R1151E
2571.287	0.632	2951083	DISTRACT_END	n/a	n/a	n/a	-999	19	[0, 0, 0]	n/a	FR1	0	R1151E
2571.919	0.518	2951715	RETRIEVAL_ORIENT	n/a	n/a	n/a	-999	19	[0, 0, 0]	n/a	FR1	0	R1151E
2572.437	2.637	2952233	REC_START	n/a	n/a	n/a	-999	19	[0, 0, 0]	n/a	FR1	0	R1151E
2575.074	1.484	2954869	REC_WORD	1.484	n/a	NAIL	-999	19	[0, 0, 0]	n/a	FR1	0	R1151E
2576.558	5.682	2956353	REC_WORD	5.682	n/a	KITE	12	19	[0, 0, 0]	n/a	FR1	0	R1151E
2582.24	15.027	2962035	REC_WORD	15.027	n/a	BALL	8	19	[0, 0, 0]	n/a	FR1	0	R1151E
2597.267	5.182	2977062	REC_WORD	5.182	n/a	BLOOM	2	19	[0, 0, 0]	n/a	FR1	0	R1151E
2602.449	7.695	2982243	REC_END	n/a	n/a	n/a	-999	19	[0, 0, 0]	n/a	FR1	0	R1151E
2610.144	0.5	2989938	TRIAL	n/a	n/a	n/a	-999	20	[0, 0, 0]	n/a	FR1	0	R1151E
2610.644	10.428	2990438	COUNTDOWN_START	n/a	n/a	n/a	-999	20	[0, 0, 0]	n/a	FR1	0	R1151E
2621.072	0.006	3000866	COUNTDOWN_END	n/a	n/a	n/a	-999	20	[0, 0, 0]	n/a	FR1	0	R1151E
2621.078	1.617	3000872	ORIENT	n/a	n/a	n/a	-999	20	[0, 0, 0]	n/a	FR1	0	R1151E
2622.695	1.851	3002488	ORIENT_OFF	n/a	n/a	n/a	-999	20	[0, 0, 0]	n/a	FR1	0	R1151E
2624.546	1.617	3004339	WORD	n/a	wordpools/wordpool_EN.txt	BEAN	1	20	[0, 0, 0]	n/a	FR1	0	R1151E
2626.163	0.934	3005956	WORD_OFF	n/a	n/a	BEAN	1	20	[0, 0, 0]	n/a	FR1	0	R1151E
2627.097	1.616	3006890	WORD	n/a	wordpools/wordpool_EN.txt	JAR	2	20	[0, 0, 0]	n/a	FR1	0	R1151E
2628.713	0.933	3008506	WORD_OFF	n/a	n/a	JAR	2	20	[0, 0, 0]	n/a	FR1	0	R1151E
2629.646	1.618	3009439	WORD	n/a	wordpools/wordpool_EN.txt	CLOWN	3	20	[0, 0, 0]	n/a	FR1	0	R1151E
2631.264	0.9	3011057	WORD_OFF	n/a	n/a	CLOWN	3	20	[0, 0, 0]	n/a	FR1	0	R1151E
2632.164	1.616	3011957	WORD	n/a	wordpools/wordpool_EN.txt	TIE	4	20	[0, 0, 0]	n/a	FR1	0	R1151E
2633.78	1.017	3013573	WORD_OFF	n/a	n/a	TIE	4	20	[0, 0, 0]	n/a	FR1	0	R1151E
2634.797	1.618	3014590	WORD	n/a	wordpools/wordpool_EN.txt	CLAY	5	20	[0, 0, 0]	n/a	FR1	0	R1151E
2636.415	0.85	3016208	WORD_OFF	n/a	n/a	CLAY	5	20	[0, 0, 0]	n/a	FR1	0	R1151E
2637.265	1.616	3017058	WORD	n/a	wordpools/wordpool_EN.txt	CROW	6	20	[0, 0, 0]	n/a	FR1	0	R1151E
2638.881	0.85	3018674	WORD_OFF	n/a	n/a	CROW	6	20	[0, 0, 0]	n/a	FR1	0	R1151E
2639.731	1.618	3019524	WORD	n/a	wordpools/wordpool_EN.txt	WAVE	7	20	[0, 0, 0]	n/a	FR1	0	R1151E
2641.349	0.9	3021142	WORD_OFF	n/a	n/a	WAVE	7	20	[0, 0, 0]	n/a	FR1	0	R1151E
2642.249	1.616	3022042	WORD	n/a	wordpools/wordpool_EN.txt	HAND	8	20	[0, 0, 0]	n/a	FR1	0	R1151E
2643.865	0.967	3023658	WORD_OFF	n/a	n/a	HAND	8	20	[0, 0, 0]	n/a	FR1	0	R1151E
2644.832	1.601	3024625	WORD	n/a	wordpools/wordpool_EN.txt	DART	9	20	[0, 0, 0]	n/a	FR1	0	R1151E
2646.433	0.767	3026226	WORD_OFF	n/a	n/a	DART	9	20	[0, 0, 0]	n/a	FR1	0	R1151E
2647.2	1.616	3026992	WORD	n/a	wordpools/wordpool_EN.txt	CLOTH	10	20	[0, 0, 0]	n/a	FR1	0	R1151E
2648.816	0.884	3028608	WORD_OFF	n/a	n/a	CLOTH	10	20	[0, 0, 0]	n/a	FR1	0	R1151E
2649.7	1.618	3029492	WORD	n/a	wordpools/wordpool_EN.txt	FAN	11	20	[0, 0, 0]	n/a	FR1	0	R1151E
2651.318	0.9	3031110	WORD_OFF	n/a	n/a	FAN	11	20	[0, 0, 0]	n/a	FR1	0	R1151E
2652.218	1.616	3032010	WORD	n/a	wordpools/wordpool_EN.txt	BOX	12	20	[0, 0, 0]	n/a	FR1	0	R1151E
2653.834	0.0	3033626	WORD_OFF	n/a	n/a	BOX	12	20	[0, 0, 0]	n/a	FR1	0	R1151E
2653.834	0.0	3033626	DISTRACT_START	n/a	n/a	n/a	-999	20	[0, 0, 0]	n/a	FR1	0	R1151E
2653.834	0.016	3033626	START	n/a	n/a	n/a	-999	20	[-999, -999, -999]	n/a	FR1	0	R1151E
2653.85	11.202	3033642	PROB	11.202	n/a	n/a	-999	20	[5, 9, 4]	18	FR1	0	R1151E
2665.052	7.001	3044844	PROB	7.001	n/a	n/a	-999	20	[7, 2, 6]	15	FR1	0	R1151E
2672.053	3.798	3051844	PROB	3.798	n/a	n/a	-999	20	[6, 1, 2]	9	FR1	0	R1151E
2675.851	0.02	3055642	STOP	n/a	n/a	n/a	-999	20	[-999, -999, -999]	n/a	FR1	0	R1151E
2675.871	0.651	3055662	DISTRACT_END	n/a	n/a	n/a	-999	20	[0, 0, 0]	n/a	FR1	0	R1151E
2676.522	0.516	3056313	RETRIEVAL_ORIENT	n/a	n/a	n/a	-999	20	[0, 0, 0]	n/a	FR1	0	R1151E
2677.038	3.653	3056829	REC_START	n/a	n/a	n/a	-999	20	[0, 0, 0]	n/a	FR1	0	R1151E
2680.691	1.424	3060482	REC_WORD	1.424	n/a	BEAN	1	20	[0, 0, 0]	n/a	FR1	0	R1151E
2682.115	1.604	3061906	REC_WORD	1.604	n/a	JAR	2	20	[0, 0, 0]	n/a	FR1	0	R1151E
2683.719	5.652	3063510	REC_WORD	5.652	n/a	CLOWN	3	20	[0, 0, 0]	n/a	FR1	0	R1151E
2689.371	17.679	3069162	REC_WORD	17.679	n/a	CLOTH	10	20	[0, 0, 0]	n/a	FR1	0	R1151E
2707.05	8.728	3086840	REC_END	n/a	n/a	n/a	-999	20	[0, 0, 0]	n/a	FR1	0	R1151E
2715.778	0.5	3095568	TRIAL	n/a	n/a	n/a	-999	21	[0, 0, 0]	n/a	FR1	0	R1151E
2716.278	10.428	3096068	COUNTDOWN_START	n/a	n/a	n/a	-999	21	[0, 0, 0]	n/a	FR1	0	R1151E
2726.706	0.007	3106495	COUNTDOWN_END	n/a	n/a	n/a	-999	21	[0, 0, 0]	n/a	FR1	0	R1151E
2726.713	1.618	3106502	ORIENT	n/a	n/a	n/a	-999	21	[0, 0, 0]	n/a	FR1	0	R1151E
2728.331	1.967	3108120	ORIENT_OFF	n/a	n/a	n/a	-999	21	[0, 0, 0]	n/a	FR1	0	R1151E
2730.298	1.616	3110087	WORD	n/a	wordpools/wordpool_EN.txt	NEST	1	21	[0, 0, 0]	n/a	FR1	0	R1151E
2731.914	0.834	3111703	WORD_OFF	n/a	n/a	NEST	1	21	[0, 0, 0]	n/a	FR1	0	R1151E
2732.748	1.618	3112537	WORD	n/a	wordpools/wordpool_EN.txt	BAG	2	21	[0, 0, 0]	n/a	FR1	0	R1151E
2734.366	0.883	3114155	WORD_OFF	n/a	n/a	BAG	2	21	[0, 0, 0]	n/a	FR1	0	R1151E
2735.249	1.616	3115038	WORD	n/a	wordpools/wordpool_EN.txt	FOAM	3	21	[0, 0, 0]	n/a	FR1	0	R1151E
2736.865	0.85	3116654	WORD_OFF	n/a	n/a	FOAM	3	21	[0, 0, 0]	n/a	FR1	0	R1151E
2737.715	1.618	3117504	WORD	n/a	wordpools/wordpool_EN.txt	FENCE	4	21	[0, 0, 0]	n/a	FR1	0	R1151E
2739.333	0.984	3119122	WORD_OFF	n/a	n/a	FENCE	4	21	[0, 0, 0]	n/a	FR1	0	R1151E
2740.317	1.616	3120106	WORD	n/a	wordpools/wordpool_EN.txt	SINK	5	21	[0, 0, 0]	n/a	FR1	0	R1151E
2741.933	0.966	3121722	WORD_OFF	n/a	n/a	SINK	5	21	[0, 0, 0]	n/a	FR1	0	R1151E
2742.899	1.618	3122688	WORD	n/a	wordpools/wordpool_EN.txt	WEED	6	21	[0, 0, 0]	n/a	FR1	0	R1151E
2744.517	0.834	3124306	WORD_OFF	n/a	n/a	WEED	6	21	[0, 0, 0]	n/a	FR1	0	R1151E
2745.351	1.616	3125140	WORD	n/a	wordpools/wordpool_EN.txt	PALM	7	21	[0, 0, 0]	n/a	FR1	0	R1151E
2746.967	1.0	3126755	WORD_OFF	n/a	n/a	PALM	7	21	[0, 0, 0]	n/a	FR1	0	R1151E
2747.967	1.618	3127755	WORD	n/a	wordpools/wordpool_EN.txt	TRAY	8	21	[0, 0, 0]	n/a	FR1	0	R1151E
2749.585	0.983	3129373	WORD_OFF	n/a	n/a	TRAY	8	21	[0, 0, 0]	n/a	FR1	0	R1151E
2750.568	1.617	3130356	WORD	n/a	wordpools/wordpool_EN.txt	GEESE	9	21	[0, 0, 0]	n/a	FR1	0	R1151E
2752.185	0.95	3131973	WORD_OFF	n/a	n/a	GEESE	9	21	[0, 0, 0]	n/a	FR1	0	R1151E
2753.135	1.616	3132923	WORD	n/a	wordpools/wordpool_EN.txt	TOAST	10	21	[0, 0, 0]	n/a	FR1	0	R1151E
2754.751	0.917	3134539	WORD_OFF	n/a	n/a	TOAST	10	21	[0, 0, 0]	n/a	FR1	0	R1151E
2755.668	1.618	3135456	WORD	n/a	wordpools/wordpool_EN.txt	SNOW	11	21	[0, 0, 0]	n/a	FR1	0	R1151E
2757.286	0.834	3137074	WORD_OFF	n/a	n/a	SNOW	11	21	[0, 0, 0]	n/a	FR1	0	R1151E
2758.12	1.616	3137908	WORD	n/a	wordpools/wordpool_EN.txt	COW	12	21	[0, 0, 0]	n/a	FR1	0	R1151E
2759.736	0.0	3139524	WORD_OFF	n/a	n/a	COW	12	21	[0, 0, 0]	n/a	FR1	0	R1151E
2759.736	0.0	3139524	DISTRACT_START	n/a	n/a	n/a	-999	21	[0, 0, 0]	n/a	FR1	0	R1151E
2759.736	0.016	3139524	START	n/a	n/a	n/a	-999	21	[-999, -999, -999]	n/a	FR1	0	R1151E
2759.752	6.719	3139540	PROB	6.719	n/a	n/a	-999	21	[8, 1, 4]	13	FR1	0	R1151E
2766.471	5.267	3146259	PROB	5.267	n/a	n/a	-999	21	[8, 1, 4]	13	FR1	0	R1151E
2771.738	9.02	3151525	PROB	9.02	n/a	n/a	-999	21	[3, 8, 7]	18	FR1	0	R1151E
2780.758	0.015	3160545	STOP	n/a	n/a	n/a	-999	21	[-999, -999, -999]	n/a	FR1	0	R1151E
2780.773	0.568	3160560	DISTRACT_END	n/a	n/a	n/a	-999	21	[0, 0, 0]	n/a	FR1	0	R1151E
2781.341	0.516	3161128	RETRIEVAL_ORIENT	n/a	n/a	n/a	-999	21	[0, 0, 0]	n/a	FR1	0	R1151E
2781.857	2.848	3161644	REC_START	n/a	n/a	n/a	-999	21	[0, 0, 0]	n/a	FR1	0	R1151E
2784.705	1.105	3164492	REC_WORD	1.105	n/a	NEST	1	21	[0, 0, 0]	n/a	FR1	0	R1151E
2785.81	2.112	3165597	REC_WORD	2.112	n/a	BAG	2	21	[0, 0, 0]	n/a	FR1	0	R1151E
2787.922	4.398	3167709	REC_WORD	4.398	n/a	SINK	5	21	[0, 0, 0]	n/a	FR1	0	R1151E
2792.32	15.605	3172107	REC_WORD	15.605	n/a	TRAY	8	21	[0, 0, 0]	n/a	FR1	0	R1151E
2807.925	3.942	3187711	REC_WORD	3.942	n/a	SINK	5	21	[0, 0, 0]	n/a	FR1	0	R1151E
2811.867	8.996	3191653	REC_END	n/a	n/a	n/a	-999	21	[0, 0, 0]	n/a	FR1	0	R1151E
2820.863	0.5	3200648	TRIAL	n/a	n/a	n/a	-999	22	[0, 0, 0]	n/a	FR1	0	R1151E
2821.363	10.428	3201148	COUNTDOWN_START	n/a	n/a	n/a	-999	22	[0, 0, 0]	n/a	FR1	0	R1151E
2831.791	0.007	3211576	COUNTDOWN_END	n/a	n/a	n/a	-999	22	[0, 0, 0]	n/a	FR1	0	R1151E
2831.798	1.601	3211583	ORIENT	n/a	n/a	n/a	-999	22	[0, 0, 0]	n/a	FR1	0	R1151E
2833.399	2.118	3213184	ORIENT_OFF	n/a	n/a	n/a	-999	22	[0, 0, 0]	n/a	FR1	0	R1151E
2835.517	1.617	3215302	WORD	n/a	wordpools/wordpool_EN.txt	OAR	1	22	[0, 0, 0]	n/a	FR1	0	R1151E
2837.134	0.865	3216919	WORD_OFF	n/a	n/a	OAR	1	22	[0, 0, 0]	n/a	FR1	0	R1151E
2837.999	1.602	3217784	WORD	n/a	wordpools/wordpool_EN.txt	GRAPE	2	22	[0, 0, 0]	n/a	FR1	0	R1151E
2839.601	1.0	3219386	WORD_OFF	n/a	n/a	GRAPE	2	22	[0, 0, 0]	n/a	FR1	0	R1151E
2840.601	1.617	3220386	WORD	n/a	wordpools/wordpool_EN.txt	SLEEVE	3	22	[0, 0, 0]	n/a	FR1	0	R1151E
2842.218	1.017	3222003	WORD_OFF	n/a	n/a	SLEEVE	3	22	[0, 0, 0]	n/a	FR1	0	R1151E
2843.235	1.616	3223020	WORD	n/a	wordpools/wordpool_EN.txt	VASE	4	22	[0, 0, 0]	n/a	FR1	0	R1151E
2844.851	0.866	3224635	WORD_OFF	n/a	n/a	VASE	4	22	[0, 0, 0]	n/a	FR1	0	R1151E
2845.717	1.618	3225501	WORD	n/a	wordpools/wordpool_EN.txt	BENCH	5	22	[0, 0, 0]	n/a	FR1	0	R1151E
2847.335	0.917	3227119	WORD_OFF	n/a	n/a	BENCH	5	22	[0, 0, 0]	n/a	FR1	0	R1151E
2848.252	1.616	3228036	WORD	n/a	wordpools/wordpool_EN.txt	STOOL	6	22	[0, 0, 0]	n/a	FR1	0	R1151E
2849.868	0.817	3229652	WORD_OFF	n/a	n/a	STOOL	6	22	[0, 0, 0]	n/a	FR1	0	R1151E
2850.685	1.618	3230469	WORD	n/a	wordpools/wordpool_EN.txt	DOOR	7	22	[0, 0, 0]	n/a	FR1	0	R1151E
2852.303	1.0	3232087	WORD_OFF	n/a	n/a	DOOR	7	22	[0, 0, 0]	n/a	FR1	0	R1151E
2853.303	1.616	3233087	WORD	n/a	wordpools/wordpool_EN.txt	STRAW	8	22	[0, 0, 0]	n/a	FR1	0	R1151E
2854.919	0.883	3234703	WORD_OFF	n/a	n/a	STRAW	8	22	[0, 0, 0]	n/a	FR1	0	R1151E
2855.802	1.619	3235586	WORD	n/a	wordpools/wordpool_EN.txt	MUD	9	22	[0, 0, 0]	n/a	FR1	0	R1151E
2857.421	0.933	3237205	WORD_OFF	n/a	n/a	MUD	9	22	[0, 0, 0]	n/a	FR1	0	R1151E
2858.354	1.616	3238138	WORD	n/a	wordpools/wordpool_EN.txt	PURSE	10	22	[0, 0, 0]	n/a	FR1	0	R1151E
2859.97	0.867	3239754	WORD_OFF	n/a	n/a	PURSE	10	22	[0, 0, 0]	n/a	FR1	0	R1151E
2860.837	1.618	3240621	WORD	n/a	wordpools/wordpool_EN.txt	SKY	11	22	[0, 0, 0]	n/a	FR1	0	R1151E
2862.455	0.833	3242239	WORD_OFF	n/a	n/a	SKY	11	22	[0, 0, 0]	n/a	FR1	0	R1151E
2863.288	1.616	3243072	WORD	n/a	wordpools/wordpool_EN.txt	TOE	12	22	[0, 0, 0]	n/a	FR1	0	R1151E
2864.904	0.0	3244688	DISTRACT_START	n/a	n/a	n/a	-999	22	[0, 0, 0]	n/a	FR1	0	R1151E
2864.904	0.001	3244688	WORD_OFF	n/a	n/a	TOE	12	22	[0, 0, 0]	n/a	FR1	0	R1151E
2864.905	0.016	3244689	START	n/a	n/a	n/a	-999	22	[-999, -999, -999]	n/a	FR1	0	R1151E
2864.921	12.336	3244705	PROB	12.336	n/a	n/a	-999	22	[9, 7, 7]	23	FR1	0	R1151E
2877.257	7.434	3257040	PROB	7.434	n/a	n/a	-999	22	[8, 2, 7]	17	FR1	0	R1151E
2884.691	3.628	3264474	PROB	3.628	n/a	n/a	-999	22	[1, 3, 8]	12	FR1	0	R1151E
2888.319	0.007	3268102	STOP	n/a	n/a	n/a	-999	22	[-999, -999, -999]	n/a	FR1	0	R1151E
2888.326	0.682	3268109	DISTRACT_END	n/a	n/a	n/a	-999	22	[0, 0, 0]	n/a	FR1	0	R1151E
2889.008	0.519	3268791	RETRIEVAL_ORIENT	n/a	n/a	n/a	-999	22	[0, 0, 0]	n/a	FR1	0	R1151E
2889.527	0.973	3269310	REC_START	n/a	n/a	n/a	-999	22	[0, 0, 0]	n/a	FR1	0	R1151E
2890.5	1.541	3270283	REC_WORD	1.541	n/a	OAR	1	22	[0, 0, 0]	n/a	FR1	0	R1151E
2892.041	7.171	3271824	REC_WORD	7.171	n/a	TOE	12	22	[0, 0, 0]	n/a	FR1	0	R1151E
2899.212	19.805	3278994	REC_WORD	19.805	n/a	SLEEVE	3	22	[0, 0, 0]	n/a	FR1	0	R1151E
2919.017	0.521	3298798	REC_WORD	0.521	n/a	GATE	-999	22	[0, 0, 0]	n/a	FR1	0	R1151E
2919.538	10.211	3299319	REC_END	n/a	n/a	n/a	-999	22	[0, 0, 0]	n/a	FR1	0	R1151E
2929.749	0.5	3309530	TRIAL	n/a	n/a	n/a	-999	23	[0, 0, 0]	n/a	FR1	0	R1151E
2930.249	10.428	3310030	COUNTDOWN_START	n/a	n/a	n/a	-999	23	[0, 0, 0]	n/a	FR1	0	R1151E
2940.677	0.007	3320458	COUNTDOWN_END	n/a	n/a	n/a	-999	23	[0, 0, 0]	n/a	FR1	0	R1151E
2940.684	1.618	3320465	ORIENT	n/a	n/a	n/a	-999	23	[0, 0, 0]	n/a	FR1	0	R1151E
2942.302	1.934	3322083	ORIENT_OFF	n/a	n/a	n/a	-999	23	[0, 0, 0]	n/a	FR1	0	R1151E
2944.236	1.616	3324016	WORD	n/a	wordpools/wordpool_EN.txt	FOOD	1	23	[0, 0, 0]	n/a	FR1	0	R1151E
2945.852	0.9	3325632	WORD_OFF	n/a	n/a	FOOD	1	23	[0, 0, 0]	n/a	FR1	0	R1151E
2946.752	1.618	3326532	WORD	n/a	wordpools/wordpool_EN.txt	LAND	2	23	[0, 0, 0]	n/a	FR1	0	R1151E
2948.37	0.9	3328150	WORD_OFF	n/a	n/a	LAND	2	23	[0, 0, 0]	n/a	FR1	0	R1151E
2949.27	1.616	3329050	WORD	n/a	wordpools/wordpool_EN.txt	MOTH	3	23	[0, 0, 0]	n/a	FR1	0	R1151E
2950.886	0.817	3330666	WORD_OFF	n/a	n/a	MOTH	3	23	[0, 0, 0]	n/a	FR1	0	R1151E
2951.703	1.618	3331483	WORD	n/a	wordpools/wordpool_EN.txt	BLUSH	4	23	[0, 0, 0]	n/a	FR1	0	R1151E
2953.321	0.95	3333101	WORD_OFF	n/a	n/a	BLUSH	4	23	[0, 0, 0]	n/a	FR1	0	R1151E
2954.271	1.616	3334051	WORD	n/a	wordpools/wordpool_EN.txt	SALT	5	23	[0, 0, 0]	n/a	FR1	0	R1151E
2955.887	0.967	3335667	WORD_OFF	n/a	n/a	SALT	5	23	[0, 0, 0]	n/a	FR1	0	R1151E
2956.854	1.618	3336634	WORD	n/a	wordpools/wordpool_EN.txt	BRIDGE	6	23	[0, 0, 0]	n/a	FR1	0	R1151E
2958.472	0.8	3338252	WORD_OFF	n/a	n/a	BRIDGE	6	23	[0, 0, 0]	n/a	FR1	0	R1151E
2959.272	1.616	3339052	WORD	n/a	wordpools/wordpool_EN.txt	FILM	7	23	[0, 0, 0]	n/a	FR1	0	R1151E
2960.888	0.883	3340668	WORD_OFF	n/a	n/a	FILM	7	23	[0, 0, 0]	n/a	FR1	0	R1151E
2961.771	1.618	3341551	WORD	n/a	wordpools/wordpool_EN.txt	SQUARE	8	23	[0, 0, 0]	n/a	FR1	0	R1151E
2963.389	0.834	3343169	WORD_OFF	n/a	n/a	SQUARE	8	23	[0, 0, 0]	n/a	FR1	0	R1151E
2964.223	1.616	3344003	WORD	n/a	wordpools/wordpool_EN.txt	JET	9	23	[0, 0, 0]	n/a	FR1	0	R1151E
2965.839	0.933	3345619	WORD_OFF	n/a	n/a	JET	9	23	[0, 0, 0]	n/a	FR1	0	R1151E
2966.772	1.618	3346552	WORD	n/a	wordpools/wordpool_EN.txt	PET	10	23	[0, 0, 0]	n/a	FR1	0	R1151E
2968.39	0.834	3348169	WORD_OFF	n/a	n/a	PET	10	23	[0, 0, 0]	n/a	FR1	0	R1151E
2969.224	1.615	3349003	WORD	n/a	wordpools/wordpool_EN.txt	WOLF	11	23	[0, 0, 0]	n/a	FR1	0	R1151E
2970.839	0.917	3350618	WORD_OFF	n/a	n/a	WOLF	11	23	[0, 0, 0]	n/a	FR1	0	R1151E
2971.756	1.618	3351535	WORD	n/a	wordpools/wordpool_EN.txt	WING	12	23	[0, 0, 0]	n/a	FR1	0	R1151E
2973.374	0.0	3353153	WORD_OFF	n/a	n/a	WING	12	23	[0, 0, 0]	n/a	FR1	0	R1151E
2973.374	0.001	3353153	DISTRACT_START	n/a	n/a	n/a	-999	23	[0, 0, 0]	n/a	FR1	0	R1151E
2973.375	0.016	3353154	START	n/a	n/a	n/a	-999	23	[-999, -999, -999]	n/a	FR1	0	R1151E
2973.391	5.6	3353170	PROB	5.6	n/a	n/a	-999	23	[7, 3, 9]	19	FR1	0	R1151E
2978.991	9.503	3358770	PROB	9.503	n/a	n/a	-999	23	[8, 4, 6]	18	FR1	0	R1151E
2988.494	4.134	3368273	PROB	4.134	n/a	n/a	-999	23	[7, 7, 7]	21	FR1	0	R1151E
2992.628	4.938	3372406	PROB	4.938	n/a	n/a	-999	23	[6, 7, 5]	18	FR1	0	R1151E
2997.566	0.013	3377344	STOP	n/a	n/a	n/a	-999	23	[-999, -999, -999]	n/a	FR1	0	R1151E
2997.579	0.683	3377357	DISTRACT_END	n/a	n/a	n/a	-999	23	[0, 0, 0]	n/a	FR1	0	R1151E
2998.262	0.517	3378040	RETRIEVAL_ORIENT	n/a	n/a	n/a	-999	23	[0, 0, 0]	n/a	FR1	0	R1151E
2998.779	0.755	3378557	REC_START	n/a	n/a	n/a	-999	23	[0, 0, 0]	n/a	FR1	0	R1151E
2999.534	1.327	3379312	REC_WORD	1.327	n/a	FOOD	1	23	[0, 0, 0]	n/a	FR1	0	R1151E
3000.861	1.105	3380639	REC_WORD	1.105	n/a	LAND	2	23	[0, 0, 0]	n/a	FR1	0	R1151E
3001.966	1.226	3381744	REC_WORD	1.226	n/a	MOTH	3	23	[0, 0, 0]	n/a	FR1	0	R1151E
3003.192	1.043	3382970	REC_WORD	1.043	n/a	JET	9	23	[0, 0, 0]	n/a	FR1	0	R1151E
3004.235	24.555	3384013	REC_WORD	24.555	n/a	PET	10	23	[0, 0, 0]	n/a	FR1	0	R1151E
3028.79	9.395	3408567	REC_END	n/a	n/a	n/a	-999	23	[0, 0, 0]	n/a	FR1	0	R1151E
3038.185	0.5	3417962	TRIAL	n/a	n/a	n/a	-999	24	[0, 0, 0]	n/a	FR1	0	R1151E
3038.685	10.428	3418462	COUNTDOWN_START	n/a	n/a	n/a	-999	24	[0, 0, 0]	n/a	FR1	0	R1151E
3049.113	0.008	3428889	COUNTDOWN_END	n/a	n/a	n/a	-999	24	[0, 0, 0]	n/a	FR1	0	R1151E
3049.121	1.616	3428897	ORIENT	n/a	n/a	n/a	-999	24	[0, 0, 0]	n/a	FR1	0	R1151E
3050.737	2.15	3430513	ORIENT_OFF	n/a	n/a	n/a	-999	24	[0, 0, 0]	n/a	FR1	0	R1151E
3052.887	1.618	3432663	WORD	n/a	wordpools/wordpool_EN.txt	PIN	1	24	[0, 0, 0]	n/a	FR1	0	R1151E
3054.505	0.867	3434281	WORD_OFF	n/a	n/a	PIN	1	24	[0, 0, 0]	n/a	FR1	0	R1151E
3055.372	1.616	3435148	WORD	n/a	wordpools/wordpool_EN.txt	SHELL	2	24	[0, 0, 0]	n/a	FR1	0	R1151E
3056.988	0.8	3436764	WORD_OFF	n/a	n/a	SHELL	2	24	[0, 0, 0]	n/a	FR1	0	R1151E
3057.788	1.601	3437564	WORD	n/a	wordpools/wordpool_EN.txt	TRASH	3	24	[0, 0, 0]	n/a	FR1	0	R1151E
3059.389	0.901	3439165	WORD_OFF	n/a	n/a	TRASH	3	24	[0, 0, 0]	n/a	FR1	0	R1151E
3060.29	1.616	3440066	WORD	n/a	wordpools/wordpool_EN.txt	KEY	4	24	[0, 0, 0]	n/a	FR1	0	R1151E
3061.906	0.85	3441682	WORD_OFF	n/a	n/a	KEY	4	24	[0, 0, 0]	n/a	FR1	0	R1151E
3062.756	1.601	3442532	WORD	n/a	wordpools/wordpool_EN.txt	BOOT	5	24	[0, 0, 0]	n/a	FR1	0	R1151E
3064.357	0.833	3444133	WORD_OFF	n/a	n/a	BOOT	5	24	[0, 0, 0]	n/a	FR1	0	R1151E
3065.19	1.617	3444966	WORD	n/a	wordpools/wordpool_EN.txt	BEAK	6	24	[0, 0, 0]	n/a	FR1	0	R1151E
3066.807	0.95	3446582	WORD_OFF	n/a	n/a	BEAK	6	24	[0, 0, 0]	n/a	FR1	0	R1151E
3067.757	1.618	3447532	WORD	n/a	wordpools/wordpool_EN.txt	TRAIN	7	24	[0, 0, 0]	n/a	FR1	0	R1151E
3069.375	0.966	3449150	WORD_OFF	n/a	n/a	TRAIN	7	24	[0, 0, 0]	n/a	FR1	0	R1151E
3070.341	1.616	3450116	WORD	n/a	wordpools/wordpool_EN.txt	SHRIMP	8	24	[0, 0, 0]	n/a	FR1	0	R1151E
3071.957	0.95	3451732	WORD_OFF	n/a	n/a	SHRIMP	8	24	[0, 0, 0]	n/a	FR1	0	R1151E
3072.907	1.618	3452682	WORD	n/a	wordpools/wordpool_EN.txt	CRANE	9	24	[0, 0, 0]	n/a	FR1	0	R1151E
3074.525	0.967	3454300	WORD_OFF	n/a	n/a	CRANE	9	24	[0, 0, 0]	n/a	FR1	0	R1151E
3075.492	1.617	3455267	WORD	n/a	wordpools/wordpool_EN.txt	BOARD	10	24	[0, 0, 0]	n/a	FR1	0	R1151E
3077.109	0.783	3456884	WORD_OFF	n/a	n/a	BOARD	10	24	[0, 0, 0]	n/a	FR1	0	R1151E
3077.892	1.618	3457667	WORD	n/a	wordpools/wordpool_EN.txt	MULE	11	24	[0, 0, 0]	n/a	FR1	0	R1151E
3079.51	0.95	3459285	WORD_OFF	n/a	n/a	MULE	11	24	[0, 0, 0]	n/a	FR1	0	R1151E
3080.46	1.616	3460235	WORD	n/a	wordpools/wordpool_EN.txt	JUICE	12	24	[0, 0, 0]	n/a	FR1	0	R1151E
3082.076	0.0	3461851	DISTRACT_START	n/a	n/a	n/a	-999	24	[0, 0, 0]	n/a	FR1	0	R1151E
3082.076	0.0	3461851	WORD_OFF	n/a	n/a	JUICE	12	24	[0, 0, 0]	n/a	FR1	0	R1151E
3082.076	0.017	3461851	START	n/a	n/a	n/a	-999	24	[-999, -999, -999]	n/a	FR1	0	R1151E
3082.093	6.751	3461868	PROB	6.751	n/a	n/a	-999	24	[2, 9, 2]	13	FR1	0	R1151E
3088.844	6.485	3468619	PROB	6.485	n/a	n/a	-999	24	[4, 4, 8]	16	FR1	0	R1151E
3095.329	5.034	3475103	PROB	5.034	n/a	n/a	-999	24	[7, 5, 3]	15	FR1	0	R1151E
3100.363	3.842	3480137	PROB	3.842	n/a	n/a	-999	24	[9, 4, 8]	21	FR1	0	R1151E
3104.205	0.009	3483979	STOP	n/a	n/a	n/a	-999	24	[-999, -999, -999]	n/a	FR1	0	R1151E
3104.214	0.699	3483988	DISTRACT_END	n/a	n/a	n/a	-999	24	[0, 0, 0]	n/a	FR1	0	R1151E
3104.913	0.518	3484687	RETRIEVAL_ORIENT	n/a	n/a	n/a	-999	24	[0, 0, 0]	n/a	FR1	0	R1151E
3105.431	2.52	3485205	REC_START	n/a	n/a	n/a	-999	24	[0, 0, 0]	n/a	FR1	0	R1151E
3107.951	0.611	3487725	REC_WORD	0.611	n/a	PIN	1	24	[0, 0, 0]	n/a	FR1	0	R1151E
3108.562	1.17	3488336	REC_WORD	1.17	n/a	SHELL	2	24	[0, 0, 0]	n/a	FR1	0	R1151E
3109.732	25.71	3489506	REC_WORD	25.71	n/a	MULE	11	24	[0, 0, 0]	n/a	FR1	0	R1151E
3135.442	7.762	3515215	REC_END	n/a	n/a	n/a	-999	24	[0, 0, 0]	n/a	FR1	0	R1151E
3143.204	0.5	3522976	TRIAL	n/a	n/a	n/a	-999	25	[0, 0, 0]	n/a	FR1	0	R1151E
3143.704	10.428	3523476	COUNTDOWN_START	n/a	n/a	n/a	-999	25	[0, 0, 0]	n/a	FR1	0	R1151E
3154.132	0.007	3533904	COUNTDOWN_END	n/a	n/a	n/a	-999	25	[0, 0, 0]	n/a	FR1	0	R1151E
3154.139	1.616	3533911	ORIENT	n/a	n/a	n/a	-999	25	[0, 0, 0]	n/a	FR1	0	R1151E
3155.755	2.151	3535527	ORIENT_OFF	n/a	n/a	n/a	-999	25	[0, 0, 0]	n/a	FR1	0	R1151E
3157.906	1.618	3537678	WORD	n/a	wordpools/wordpool_EN.txt	SMOKE	1	25	[0, 0, 0]	n/a	FR1	0	R1151E
3159.524	0.783	3539296	WORD_OFF	n/a	n/a	SMOKE	1	25	[0, 0, 0]	n/a	FR1	0	R1151E
3160.307	1.616	3540079	WORD	n/a	wordpools/wordpool_EN.txt	STORE	2	25	[0, 0, 0]	n/a	FR1	0	R1151E
3161.923	0.917	3541695	WORD_OFF	n/a	n/a	STORE	2	25	[0, 0, 0]	n/a	FR1	0	R1151E
3162.84	1.618	3542612	WORD	n/a	wordpools/wordpool_EN.txt	PRINCE	3	25	[0, 0, 0]	n/a	FR1	0	R1151E
3164.458	0.983	3544230	WORD_OFF	n/a	n/a	PRINCE	3	25	[0, 0, 0]	n/a	FR1	0	R1151E
3165.441	1.616	3545212	WORD	n/a	wordpools/wordpool_EN.txt	ICE	4	25	[0, 0, 0]	n/a	FR1	0	R1151E
3167.057	0.934	3546828	WORD_OFF	n/a	n/a	ICE	4	25	[0, 0, 0]	n/a	FR1	0	R1151E
3167.991	1.618	3547762	WORD	n/a	wordpools/wordpool_EN.txt	DOCK	5	25	[0, 0, 0]	n/a	FR1	0	R1151E
3169.609	0.95	3549380	WORD_OFF	n/a	n/a	DOCK	5	25	[0, 0, 0]	n/a	FR1	0	R1151E
3170.559	1.617	3550330	WORD	n/a	wordpools/wordpool_EN.txt	TREE	6	25	[0, 0, 0]	n/a	FR1	0	R1151E
3172.176	0.816	3551947	WORD_OFF	n/a	n/a	TREE	6	25	[0, 0, 0]	n/a	FR1	0	R1151E
3172.992	1.618	3552763	WORD	n/a	wordpools/wordpool_EN.txt	WHEEL	7	25	[0, 0, 0]	n/a	FR1	0	R1151E
3174.61	0.833	3554381	WORD_OFF	n/a	n/a	WHEEL	7	25	[0, 0, 0]	n/a	FR1	0	R1151E
3175.443	1.616	3555214	WORD	n/a	wordpools/wordpool_EN.txt	MOLE	8	25	[0, 0, 0]	n/a	FR1	0	R1151E
3177.059	0.834	3556830	WORD_OFF	n/a	n/a	MOLE	8	25	[0, 0, 0]	n/a	FR1	0	R1151E
3177.893	1.618	3557664	WORD	n/a	wordpools/wordpool_EN.txt	TEETH	9	25	[0, 0, 0]	n/a	FR1	0	R1151E
3179.511	0.916	3559282	WORD_OFF	n/a	n/a	TEETH	9	25	[0, 0, 0]	n/a	FR1	0	R1151E
3180.427	1.616	3560198	WORD	n/a	wordpools/wordpool_EN.txt	MOUSE	10	25	[0, 0, 0]	n/a	FR1	0	R1151E
3182.043	0.867	3561814	WORD_OFF	n/a	n/a	MOUSE	10	25	[0, 0, 0]	n/a	FR1	0	R1151E
3182.91	1.601	3562681	WORD	n/a	wordpools/wordpool_EN.txt	WORLD	11	25	[0, 0, 0]	n/a	FR1	0	R1151E
3184.511	1.0	3564282	WORD_OFF	n/a	n/a	WORLD	11	25	[0, 0, 0]	n/a	FR1	0	R1151E
3185.511	1.618	3565282	WORD	n/a	wordpools/wordpool_EN.txt	STRING	12	25	[0, 0, 0]	n/a	FR1	0	R1151E
3187.129	0.0	3566900	WORD_OFF	n/a	n/a	STRING	12	25	[0, 0, 0]	n/a	FR1	0	R1151E
3187.129	0.0	3566900	DISTRACT_START	n/a	n/a	n/a	-999	25	[0, 0, 0]	n/a	FR1	0	R1151E
3187.129	0.016	3566900	START	n/a	n/a	n/a	-999	25	[-999, -999, -999]	n/a	FR1	0	R1151E
3187.145	16.103	3566916	PROB	16.103	n/a	n/a	-999	25	[8, 6, 7]	21	FR1	0	R1151E
3203.248	4.746	3583018	PROB	4.746	n/a	n/a	-999	25	[1, 6, 6]	13	FR1	0	R1151E
3207.994	0.021	3587764	STOP	n/a	n/a	n/a	-999	25	[-999, -999, -999]	n/a	FR1	0	R1151E
3208.015	0.683	3587785	DISTRACT_END	n/a	n/a	n/a	-999	25	[0, 0, 0]	n/a	FR1	0	R1151E
3208.698	0.519	3588468	RETRIEVAL_ORIENT	n/a	n/a	n/a	-999	25	[0, 0, 0]	n/a	FR1	0	R1151E
3209.217	3.86	3588987	REC_START	n/a	n/a	n/a	-999	25	[0, 0, 0]	n/a	FR1	0	R1151E
3213.077	0.894	3592847	REC_WORD	0.894	n/a	SMOKE	1	25	[0, 0, 0]	n/a	FR1	0	R1151E
3213.971	3.299	3593741	REC_WORD	3.299	n/a	STORE	2	25	[0, 0, 0]	n/a	FR1	0	R1151E
3217.27	3.7	3597039	REC_WORD	3.7	n/a	MULE	-999	25	[0, 0, 0]	n/a	FR1	0	R1151E
3220.97	18.258	3600739	REC_WORD	18.258	n/a	ICE	4	25	[0, 0, 0]	n/a	FR1	0	R1151E
3239.228	232.467	3618996	REC_END	n/a	n/a	n/a	-999	25	[0, 0, 0]	n/a	FR1	0	R1151E
3471.695	0.0	3851454	SESS_END	n/a	n/a	n/a	-999	25	[0, 0, 0]	n/a	FR1	0	R1151E
