onset	duration	sample	trial_type	response_time	stim_file	item_name	serialpos	list	test	answer	experiment	session	subject
0.0	762.675	-1	INSTRUCT_START	n/a	n/a	n/a	-999	-999	[0, 0, 0]	n/a	FR1	0	R1330D
762.675	243.474	1505	INSTRUCT_START	n/a	n/a	n/a	-999	-999	[0, 0, 0]	n/a	FR1	0	R1330D
1006.149	1.468	244967	INSTRUCT_END	n/a	n/a	n/a	-999	-999	[0, 0, 0]	n/a	FR1	0	R1330D
1007.617	10.416	246435	MIC TEST_START	n/a	n/a	n/a	-999	-999	[0, 0, 0]	n/a	FR1	0	R1330D
1018.033	0.009	256850	MIC TEST_END	n/a	n/a	n/a	-999	-999	[0, 0, 0]	n/a	FR1	0	R1330D
1018.042	0.001	256859	TRIAL_START	n/a	n/a	n/a	-999	-1	[0, 0, 0]	n/a	FR1	0	R1330D
1018.043	0.0	256860	TRIAL	n/a	n/a	n/a	-999	-1	[0, 0, 0]	n/a	FR1	0	R1330D
1018.043	1.509	256860	WAITING_START	n/a	n/a	n/a	-999	-1	[0, 0, 0]	n/a	FR1	0	R1330D
1019.552	0.001	258369	WAITING_END	n/a	n/a	n/a	-999	-1	[0, 0, 0]	n/a	FR1	0	R1330D
1019.553	10.429	258370	COUNTDOWN_START	n/a	n/a	n/a	-999	-1	[0, 0, 0]	n/a	FR1	0	R1330D
1029.982	0.001	268799	COUNTDOWN_END	n/a	n/a	n/a	-999	-1	[0, 0, 0]	n/a	FR1	0	R1330D
1029.983	1.203	268800	ORIENT_START	n/a	n/a	n/a	-999	-1	[0, 0, 0]	n/a	FR1	0	R1330D
1031.186	0.001	270002	ORIENT_END	n/a	n/a	n/a	-999	-1	[0, 0, 0]	n/a	FR1	0	R1330D
1031.187	0.918	270003	ENCODING_START	n/a	n/a	n/a	-999	-1	[0, 0, 0]	n/a	FR1	0	R1330D
1032.105	1.632	270921	WORD	n/a	n/a	BEAM	1	-1	[0, 0, 0]	n/a	FR1	0	R1330D
1033.737	0.776	272553	WORD_OFF	n/a	n/a	BEAM	1	-1	[0, 0, 0]	n/a	FR1	0	R1330D
1034.513	1.624	273329	WORD	n/a	n/a	RING	2	-1	[0, 0, 0]	n/a	FR1	0	R1330D
1036.137	1.121	274953	WORD_OFF	n/a	n/a	RING	2	-1	[0, 0, 0]	n/a	FR1	0	R1330D
1037.258	1.63	276074	WORD	n/a	n/a	IMAGE	3	-1	[0, 0, 0]	n/a	FR1	0	R1330D
1038.888	0.918	277704	WORD_OFF	n/a	n/a	IMAGE	3	-1	[0, 0, 0]	n/a	FR1	0	R1330D
1039.806	1.633	278622	WORD	n/a	n/a	WATCH	4	-1	[0, 0, 0]	n/a	FR1	0	R1330D
1041.439	0.852	280255	WORD_OFF	n/a	n/a	WATCH	4	-1	[0, 0, 0]	n/a	FR1	0	R1330D
1042.291	1.631	281107	WORD	n/a	n/a	RHINO	5	-1	[0, 0, 0]	n/a	FR1	0	R1330D
1043.922	0.939	282738	WORD_OFF	n/a	n/a	RHINO	5	-1	[0, 0, 0]	n/a	FR1	0	R1330D
1044.861	1.629	283677	WORD	n/a	n/a	WAGON	6	-1	[0, 0, 0]	n/a	FR1	0	R1330D
1046.49	0.842	285306	WORD_OFF	n/a	n/a	WAGON	6	-1	[0, 0, 0]	n/a	FR1	0	R1330D
1047.332	1.624	286148	WORD	n/a	n/a	FLOOD	7	-1	[0, 0, 0]	n/a	FR1	0	R1330D
1048.956	1.062	287772	WORD_OFF	n/a	n/a	FLOOD	7	-1	[0, 0, 0]	n/a	FR1	0	R1330D
1050.018	1.623	288834	WORD	n/a	n/a	COTTON	8	-1	[0, 0, 0]	n/a	FR1	0	R1330D
1051.641	1.147	290456	WORD_OFF	n/a	n/a	COTTON	8	-1	[0, 0, 0]	n/a	FR1	0	R1330D
1052.788	1.637	291603	WORD	n/a	n/a	BABY	9	-1	[0, 0, 0]	n/a	FR1	0	R1330D
1054.425	0.87	293240	WORD_OFF	n/a	n/a	BABY	9	-1	[0, 0, 0]	n/a	FR1	0	R1330D
1055.295	1.629	294110	WORD	n/a	n/a	TONGUE	10	-1	[0, 0, 0]	n/a	FR1	0	R1330D
1056.924	0.949	295739	WORD_OFF	n/a	n/a	TONGUE	10	-1	[0, 0, 0]	n/a	FR1	0	R1330D
1057.873	1.619	296688	WORD	n/a	n/a	CAMEL	11	-1	[0, 0, 0]	n/a	FR1	0	R1330D
1059.492	0.791	298307	WORD_OFF	n/a	n/a	CAMEL	11	-1	[0, 0, 0]	n/a	FR1	0	R1330D
1060.283	1.625	299098	WORD	n/a	n/a	CHEST	12	-1	[0, 0, 0]	n/a	FR1	0	R1330D
1061.908	0.001	300723	WORD_OFF	n/a	n/a	CHEST	12	-1	[0, 0, 0]	n/a	FR1	0	R1330D
1061.909	0.0	300724	ENCODING_END	n/a	n/a	n/a	-999	-1	[0, 0, 0]	n/a	FR1	0	R1330D
1061.909	0.0	300724	DISTRACT_START	n/a	n/a	n/a	-999	-1	[0, 0, 0]	n/a	FR1	0	R1330D
1061.909	0.016	300724	START	n/a	n/a	n/a	-999	-1	[-999, -999, -999]	n/a	FR1	0	R1330D
1061.925	7.284	300740	PROB	7.284	n/a	n/a	-999	-1	[6, 3, 7]	16	FR1	0	R1330D
1069.209	6.935	308024	PROB	6.935	n/a	n/a	-999	-1	[7, 9, 7]	23	FR1	0	R1330D
1076.144	3.901	314958	PROB	3.901	n/a	n/a	-999	-1	[1, 1, 9]	11	FR1	0	R1330D
1080.045	5.148	318859	PROB	5.148	n/a	n/a	-999	-1	[6, 8, 5]	19	FR1	0	R1330D
1085.193	0.02	324007	STOP	n/a	n/a	n/a	-999	-1	[-999, -999, -999]	n/a	FR1	0	R1330D
1085.213	0.701	324027	DISTRACT_END	n/a	n/a	n/a	-999	-1	[0, 0, 0]	n/a	FR1	0	R1330D
1085.914	1.7	324728	RETRIEVAL_ORIENT_START	n/a	n/a	n/a	-999	-1	[0, 0, 0]	n/a	FR1	0	R1330D
1087.614	0.001	326428	RETRIEVAL_ORIENT_END	n/a	n/a	n/a	-999	-1	[0, 0, 0]	n/a	FR1	0	R1330D
1087.615	0.0	326429	REC_START	n/a	n/a	n/a	-999	-1	[0, 0, 0]	n/a	FR1	0	R1330D
1087.615	30.013	326429	REC_WORD_VV	30.013	n/a	<>	-999	-1	[0, 0, 0]	n/a	FR1	0	R1330D
1117.628	0.0	356440	PRACTICE_POST_INSTRUCT_START	n/a	n/a	n/a	-999	-1	[0, 0, 0]	n/a	FR1	0	R1330D
1117.628	17.778	356440	REC_END	n/a	n/a	n/a	-999	-1	[0, 0, 0]	n/a	FR1	0	R1330D
1135.406	0.0	374217	PRACTICE_POST_INSTRUCT_END	n/a	n/a	n/a	-999	-1	[0, 0, 0]	n/a	FR1	0	R1330D
1135.406	0.019	374217	TRIAL_END	n/a	n/a	n/a	-999	-1	[0, 0, 0]	n/a	FR1	0	R1330D
1135.425	0.0	374236	TRIAL_START	n/a	n/a	n/a	-999	1	[0, 0, 0]	n/a	FR1	0	R1330D
1135.425	0.001	374236	TRIAL	n/a	n/a	n/a	-999	1	[0, 0, 0]	n/a	FR1	0	R1330D
1135.426	3.297	374237	WAITING_START	n/a	n/a	n/a	-999	1	[0, 0, 0]	n/a	FR1	0	R1330D
1138.723	0.0	377534	WAITING_END	n/a	n/a	n/a	-999	1	[0, 0, 0]	n/a	FR1	0	R1330D
1138.723	10.431	377534	COUNTDOWN_START	n/a	n/a	n/a	-999	1	[0, 0, 0]	n/a	FR1	0	R1330D
1149.154	0.0	387965	COUNTDOWN_END	n/a	n/a	n/a	-999	1	[0, 0, 0]	n/a	FR1	0	R1330D
1149.154	1.221	387965	ORIENT_START	n/a	n/a	n/a	-999	1	[0, 0, 0]	n/a	FR1	0	R1330D
1150.375	0.0	389186	ENCODING_START	n/a	n/a	n/a	-999	1	[0, 0, 0]	n/a	FR1	0	R1330D
1150.375	1.059	389186	ORIENT_END	n/a	n/a	n/a	-999	1	[0, 0, 0]	n/a	FR1	0	R1330D
1151.434	1.625	390244	WORD	n/a	wordpools/wordpool_EN.txt	SPOON	1	1	[0, 0, 0]	n/a	FR1	0	R1330D
1153.059	0.844	391869	WORD_OFF	n/a	n/a	SPOON	1	1	[0, 0, 0]	n/a	FR1	0	R1330D
1153.903	1.607	392713	WORD	n/a	wordpools/wordpool_EN.txt	BARN	2	1	[0, 0, 0]	n/a	FR1	0	R1330D
1155.51	1.067	394320	WORD_OFF	n/a	n/a	BARN	2	1	[0, 0, 0]	n/a	FR1	0	R1330D
1156.577	1.633	395387	WORD	n/a	wordpools/wordpool_EN.txt	ZOO	3	1	[0, 0, 0]	n/a	FR1	0	R1330D
1158.21	0.777	397020	WORD_OFF	n/a	n/a	ZOO	3	1	[0, 0, 0]	n/a	FR1	0	R1330D
1158.987	1.624	397797	WORD	n/a	wordpools/wordpool_EN.txt	GRASS	4	1	[0, 0, 0]	n/a	FR1	0	R1330D
1160.611	0.884	399421	WORD_OFF	n/a	n/a	GRASS	4	1	[0, 0, 0]	n/a	FR1	0	R1330D
1161.495	1.632	400305	WORD	n/a	wordpools/wordpool_EN.txt	MAZE	5	1	[0, 0, 0]	n/a	FR1	0	R1330D
1163.127	1.069	401937	WORD_OFF	n/a	n/a	MAZE	5	1	[0, 0, 0]	n/a	FR1	0	R1330D
1164.196	1.632	403006	WORD	n/a	wordpools/wordpool_EN.txt	BENCH	6	1	[0, 0, 0]	n/a	FR1	0	R1330D
1165.828	0.976	404638	WORD_OFF	n/a	n/a	BENCH	6	1	[0, 0, 0]	n/a	FR1	0	R1330D
1166.804	1.625	405614	WORD	n/a	wordpools/wordpool_EN.txt	EEL	7	1	[0, 0, 0]	n/a	FR1	0	R1330D
1168.429	1.003	407239	WORD_OFF	n/a	n/a	EEL	7	1	[0, 0, 0]	n/a	FR1	0	R1330D
1169.432	1.63	408242	WORD	n/a	wordpools/wordpool_EN.txt	BATH	8	1	[0, 0, 0]	n/a	FR1	0	R1330D
1171.062	0.876	409871	WORD_OFF	n/a	n/a	BATH	8	1	[0, 0, 0]	n/a	FR1	0	R1330D
1171.938	1.608	410747	WORD	n/a	wordpools/wordpool_EN.txt	WAVE	9	1	[0, 0, 0]	n/a	FR1	0	R1330D
1173.546	1.104	412355	WORD_OFF	n/a	n/a	WAVE	9	1	[0, 0, 0]	n/a	FR1	0	R1330D
1174.65	1.629	413459	WORD	n/a	wordpools/wordpool_EN.txt	SLUSH	10	1	[0, 0, 0]	n/a	FR1	0	R1330D
1176.279	1.085	415088	WORD_OFF	n/a	n/a	SLUSH	10	1	[0, 0, 0]	n/a	FR1	0	R1330D
1177.364	1.633	416173	WORD	n/a	wordpools/wordpool_EN.txt	POOL	11	1	[0, 0, 0]	n/a	FR1	0	R1330D
1178.997	1.004	417806	WORD_OFF	n/a	n/a	POOL	11	1	[0, 0, 0]	n/a	FR1	0	R1330D
1180.001	1.614	418810	WORD	n/a	wordpools/wordpool_EN.txt	GLASS	12	1	[0, 0, 0]	n/a	FR1	0	R1330D
1181.615	0.0	420424	WORD_OFF	n/a	n/a	GLASS	12	1	[0, 0, 0]	n/a	FR1	0	R1330D
1181.615	0.001	420424	ENCODING_END	n/a	n/a	n/a	-999	1	[0, 0, 0]	n/a	FR1	0	R1330D
1181.616	0.0	420425	DISTRACT_START	n/a	n/a	n/a	-999	1	[0, 0, 0]	n/a	FR1	0	R1330D
1181.616	0.015	420425	START	n/a	n/a	n/a	-999	1	[-999, -999, -999]	n/a	FR1	0	R1330D
1181.631	6.417	420440	PROB	6.417	n/a	n/a	-999	1	[6, 6, 9]	21	FR1	0	R1330D
1188.048	4.569	426857	PROB	4.569	n/a	n/a	-999	1	[8, 6, 1]	15	FR1	0	R1330D
1192.617	8.133	431425	PROB	8.133	n/a	n/a	-999	1	[7, 9, 6]	22	FR1	0	R1330D
1200.75	4.224	439558	PROB	4.224	n/a	n/a	-999	1	[7, 5, 3]	15	FR1	0	R1330D
1204.974	0.011	443782	STOP	n/a	n/a	n/a	-999	1	[-999, -999, -999]	n/a	FR1	0	R1330D
1204.985	0.504	443793	DISTRACT_END	n/a	n/a	n/a	-999	1	[0, 0, 0]	n/a	FR1	0	R1330D
1205.489	1.563	444297	RETRIEVAL_ORIENT_START	n/a	n/a	n/a	-999	1	[0, 0, 0]	n/a	FR1	0	R1330D
1207.052	0.0	445860	RETRIEVAL_ORIENT_END	n/a	n/a	n/a	-999	1	[0, 0, 0]	n/a	FR1	0	R1330D
1207.052	1.383	445860	REC_START	n/a	n/a	n/a	-999	1	[0, 0, 0]	n/a	FR1	0	R1330D
1208.435	0.755	447243	REC_WORD	0.755	n/a	GRASS	4	1	[0, 0, 0]	n/a	FR1	0	R1330D
1209.19	2.127	447998	REC_WORD	2.127	n/a	MAZE	5	1	[0, 0, 0]	n/a	FR1	0	R1330D
1211.317	25.748	450124	REC_WORD	25.748	n/a	SPOON	1	1	[0, 0, 0]	n/a	FR1	0	R1330D
1237.065	0.0	475871	TRIAL_END	n/a	n/a	n/a	-999	1	[0, 0, 0]	n/a	FR1	0	R1330D
1237.065	0.017	475871	REC_END	n/a	n/a	n/a	-999	1	[0, 0, 0]	n/a	FR1	0	R1330D
1237.082	0.0	475888	TRIAL	n/a	n/a	n/a	-999	2	[0, 0, 0]	n/a	FR1	0	R1330D
1237.082	0.001	475888	TRIAL_START	n/a	n/a	n/a	-999	2	[0, 0, 0]	n/a	FR1	0	R1330D
1237.083	2.426	475889	WAITING_START	n/a	n/a	n/a	-999	2	[0, 0, 0]	n/a	FR1	0	R1330D
1239.509	0.0	478315	WAITING_END	n/a	n/a	n/a	-999	2	[0, 0, 0]	n/a	FR1	0	R1330D
1239.509	10.429	478315	COUNTDOWN_START	n/a	n/a	n/a	-999	2	[0, 0, 0]	n/a	FR1	0	R1330D
1249.938	0.001	488744	COUNTDOWN_END	n/a	n/a	n/a	-999	2	[0, 0, 0]	n/a	FR1	0	R1330D
1249.939	1.254	488745	ORIENT_START	n/a	n/a	n/a	-999	2	[0, 0, 0]	n/a	FR1	0	R1330D
1251.193	0.001	489998	ORIENT_END	n/a	n/a	n/a	-999	2	[0, 0, 0]	n/a	FR1	0	R1330D
1251.194	0.822	489999	ENCODING_START	n/a	n/a	n/a	-999	2	[0, 0, 0]	n/a	FR1	0	R1330D
1252.016	1.612	490821	WORD	n/a	wordpools/wordpool_EN.txt	STRAW	1	2	[0, 0, 0]	n/a	FR1	0	R1330D
1253.628	0.95	492433	WORD_OFF	n/a	n/a	STRAW	1	2	[0, 0, 0]	n/a	FR1	0	R1330D
1254.578	1.633	493383	WORD	n/a	wordpools/wordpool_EN.txt	FOG	2	2	[0, 0, 0]	n/a	FR1	0	R1330D
1256.211	0.861	495016	WORD_OFF	n/a	n/a	FOG	2	2	[0, 0, 0]	n/a	FR1	0	R1330D
1257.072	1.623	495877	WORD	n/a	wordpools/wordpool_EN.txt	RUG	3	2	[0, 0, 0]	n/a	FR1	0	R1330D
1258.695	1.003	497500	WORD_OFF	n/a	n/a	RUG	3	2	[0, 0, 0]	n/a	FR1	0	R1330D
1259.698	1.63	498503	WORD	n/a	wordpools/wordpool_EN.txt	BRIDGE	4	2	[0, 0, 0]	n/a	FR1	0	R1330D
1261.328	1.037	500133	WORD_OFF	n/a	n/a	BRIDGE	4	2	[0, 0, 0]	n/a	FR1	0	R1330D
1262.365	1.631	501170	WORD	n/a	wordpools/wordpool_EN.txt	CLOCK	5	2	[0, 0, 0]	n/a	FR1	0	R1330D
1263.996	0.829	502801	WORD_OFF	n/a	n/a	CLOCK	5	2	[0, 0, 0]	n/a	FR1	0	R1330D
1264.825	1.622	503630	WORD	n/a	wordpools/wordpool_EN.txt	DRESS	6	2	[0, 0, 0]	n/a	FR1	0	R1330D
1266.447	0.844	505252	WORD_OFF	n/a	n/a	DRESS	6	2	[0, 0, 0]	n/a	FR1	0	R1330D
1267.291	1.639	506096	WORD	n/a	wordpools/wordpool_EN.txt	ROOM	7	2	[0, 0, 0]	n/a	FR1	0	R1330D
1268.93	0.956	507735	WORD_OFF	n/a	n/a	ROOM	7	2	[0, 0, 0]	n/a	FR1	0	R1330D
1269.886	1.612	508691	WORD	n/a	wordpools/wordpool_EN.txt	ROPE	8	2	[0, 0, 0]	n/a	FR1	0	R1330D
1271.498	0.792	510302	WORD_OFF	n/a	n/a	ROPE	8	2	[0, 0, 0]	n/a	FR1	0	R1330D
1272.29	1.624	511094	WORD	n/a	wordpools/wordpool_EN.txt	FACE	9	2	[0, 0, 0]	n/a	FR1	0	R1330D
1273.914	0.769	512718	WORD_OFF	n/a	n/a	FACE	9	2	[0, 0, 0]	n/a	FR1	0	R1330D
1274.683	1.631	513487	WORD	n/a	wordpools/wordpool_EN.txt	CORN	10	2	[0, 0, 0]	n/a	FR1	0	R1330D
1276.314	0.871	515118	WORD_OFF	n/a	n/a	CORN	10	2	[0, 0, 0]	n/a	FR1	0	R1330D
1277.185	1.63	515989	WORD	n/a	wordpools/wordpool_EN.txt	ROOF	11	2	[0, 0, 0]	n/a	FR1	0	R1330D
1278.815	0.935	517619	WORD_OFF	n/a	n/a	ROOF	11	2	[0, 0, 0]	n/a	FR1	0	R1330D
1279.75	1.632	518554	WORD	n/a	wordpools/wordpool_EN.txt	JUICE	12	2	[0, 0, 0]	n/a	FR1	0	R1330D
1281.382	0.0	520186	WORD_OFF	n/a	n/a	JUICE	12	2	[0, 0, 0]	n/a	FR1	0	R1330D
1281.382	0.0	520186	ENCODING_END	n/a	n/a	n/a	-999	2	[0, 0, 0]	n/a	FR1	0	R1330D
1281.382	0.001	520186	DISTRACT_START	n/a	n/a	n/a	-999	2	[0, 0, 0]	n/a	FR1	0	R1330D
1281.383	0.015	520187	START	n/a	n/a	n/a	-999	2	[-999, -999, -999]	n/a	FR1	0	R1330D
1281.398	5.136	520202	PROB	5.136	n/a	n/a	-999	2	[3, 8, 7]	19	FR1	0	R1330D
1286.534	6.617	525338	PROB	6.617	n/a	n/a	-999	2	[6, 5, 9]	20	FR1	0	R1330D
1293.151	5.751	531954	PROB	5.751	n/a	n/a	-999	2	[9, 7, 2]	18	FR1	0	R1330D
1298.902	5.92	537705	PROB	5.92	n/a	n/a	-999	2	[6, 9, 6]	21	FR1	0	R1330D
1304.822	0.014	543625	STOP	n/a	n/a	n/a	-999	2	[-999, -999, -999]	n/a	FR1	0	R1330D
1304.836	0.686	543639	DISTRACT_END	n/a	n/a	n/a	-999	2	[0, 0, 0]	n/a	FR1	0	R1330D
1305.522	1.598	544325	RETRIEVAL_ORIENT_START	n/a	n/a	n/a	-999	2	[0, 0, 0]	n/a	FR1	0	R1330D
1307.12	0.0	545923	RETRIEVAL_ORIENT_END	n/a	n/a	n/a	-999	2	[0, 0, 0]	n/a	FR1	0	R1330D
1307.12	0.87	545923	REC_START	n/a	n/a	n/a	-999	2	[0, 0, 0]	n/a	FR1	0	R1330D
1307.99	2.068	546793	REC_WORD_VV	2.068	n/a	<>	-999	2	[0, 0, 0]	n/a	FR1	0	R1330D
1310.058	0.708	548861	REC_WORD	0.708	n/a	BRIDGE	4	2	[0, 0, 0]	n/a	FR1	0	R1330D
1310.766	2.445	549568	REC_WORD	2.445	n/a	FOG	2	2	[0, 0, 0]	n/a	FR1	0	R1330D
1313.211	1.112	552013	REC_WORD	1.112	n/a	ROOF	11	2	[0, 0, 0]	n/a	FR1	0	R1330D
1314.323	22.81	553125	REC_WORD	22.81	n/a	RUG	3	2	[0, 0, 0]	n/a	FR1	0	R1330D
1337.133	0.0	575934	REC_END	n/a	n/a	n/a	-999	2	[0, 0, 0]	n/a	FR1	0	R1330D
1337.133	0.015	575934	TRIAL_END	n/a	n/a	n/a	-999	2	[0, 0, 0]	n/a	FR1	0	R1330D
1337.148	0.0	575949	TRIAL	n/a	n/a	n/a	-999	3	[0, 0, 0]	n/a	FR1	0	R1330D
1337.148	0.0	575949	WAITING_START	n/a	n/a	n/a	-999	3	[0, 0, 0]	n/a	FR1	0	R1330D
1337.148	2.095	575949	TRIAL_START	n/a	n/a	n/a	-999	3	[0, 0, 0]	n/a	FR1	0	R1330D
1339.243	0.0	578044	WAITING_END	n/a	n/a	n/a	-999	3	[0, 0, 0]	n/a	FR1	0	R1330D
1339.243	10.429	578044	COUNTDOWN_START	n/a	n/a	n/a	-999	3	[0, 0, 0]	n/a	FR1	0	R1330D
1349.672	0.0	588473	COUNTDOWN_END	n/a	n/a	n/a	-999	3	[0, 0, 0]	n/a	FR1	0	R1330D
1349.672	1.123	588473	ORIENT_START	n/a	n/a	n/a	-999	3	[0, 0, 0]	n/a	FR1	0	R1330D
1350.795	0.0	589595	ORIENT_END	n/a	n/a	n/a	-999	3	[0, 0, 0]	n/a	FR1	0	R1330D
1350.795	0.809	589595	ENCODING_START	n/a	n/a	n/a	-999	3	[0, 0, 0]	n/a	FR1	0	R1330D
1351.604	1.624	590404	WORD	n/a	wordpools/wordpool_EN.txt	RIB	1	3	[0, 0, 0]	n/a	FR1	0	R1330D
1353.228	1.119	592028	WORD_OFF	n/a	n/a	RIB	1	3	[0, 0, 0]	n/a	FR1	0	R1330D
1354.347	1.632	593147	WORD	n/a	wordpools/wordpool_EN.txt	BED	2	3	[0, 0, 0]	n/a	FR1	0	R1330D
1355.979	0.785	594779	WORD_OFF	n/a	n/a	BED	2	3	[0, 0, 0]	n/a	FR1	0	R1330D
1356.764	1.632	595564	WORD	n/a	wordpools/wordpool_EN.txt	PLANE	3	3	[0, 0, 0]	n/a	FR1	0	R1330D
1358.396	1.002	597196	WORD_OFF	n/a	n/a	PLANE	3	3	[0, 0, 0]	n/a	FR1	0	R1330D
1359.398	1.632	598198	WORD	n/a	wordpools/wordpool_EN.txt	CLAY	4	3	[0, 0, 0]	n/a	FR1	0	R1330D
1361.03	0.891	599830	WORD_OFF	n/a	n/a	CLAY	4	3	[0, 0, 0]	n/a	FR1	0	R1330D
1361.921	1.627	600721	WORD	n/a	wordpools/wordpool_EN.txt	SHIP	5	3	[0, 0, 0]	n/a	FR1	0	R1330D
1363.548	1.064	602348	WORD_OFF	n/a	n/a	SHIP	5	3	[0, 0, 0]	n/a	FR1	0	R1330D
1364.612	1.635	603412	WORD	n/a	wordpools/wordpool_EN.txt	BOARD	6	3	[0, 0, 0]	n/a	FR1	0	R1330D
1366.247	0.773	605047	WORD_OFF	n/a	n/a	BOARD	6	3	[0, 0, 0]	n/a	FR1	0	R1330D
1367.02	1.612	605820	WORD	n/a	wordpools/wordpool_EN.txt	APE	7	3	[0, 0, 0]	n/a	FR1	0	R1330D
1368.632	0.859	607432	WORD_OFF	n/a	n/a	APE	7	3	[0, 0, 0]	n/a	FR1	0	R1330D
1369.491	1.624	608291	WORD	n/a	wordpools/wordpool_EN.txt	LEG	8	3	[0, 0, 0]	n/a	FR1	0	R1330D
1371.115	0.891	609914	WORD_OFF	n/a	n/a	LEG	8	3	[0, 0, 0]	n/a	FR1	0	R1330D
1372.006	1.627	610805	WORD	n/a	wordpools/wordpool_EN.txt	CHIEF	9	3	[0, 0, 0]	n/a	FR1	0	R1330D
1373.633	0.796	612432	WORD_OFF	n/a	n/a	CHIEF	9	3	[0, 0, 0]	n/a	FR1	0	R1330D
1374.429	1.637	613228	WORD	n/a	wordpools/wordpool_EN.txt	TRUCK	10	3	[0, 0, 0]	n/a	FR1	0	R1330D
1376.066	0.954	614865	WORD_OFF	n/a	n/a	TRUCK	10	3	[0, 0, 0]	n/a	FR1	0	R1330D
1377.02	1.631	615819	WORD	n/a	wordpools/wordpool_EN.txt	BOOK	11	3	[0, 0, 0]	n/a	FR1	0	R1330D
1378.651	1.003	617450	WORD_OFF	n/a	n/a	BOOK	11	3	[0, 0, 0]	n/a	FR1	0	R1330D
1379.654	1.63	618453	WORD	n/a	wordpools/wordpool_EN.txt	PLATE	12	3	[0, 0, 0]	n/a	FR1	0	R1330D
1381.284	0.0	620083	WORD_OFF	n/a	n/a	PLATE	12	3	[0, 0, 0]	n/a	FR1	0	R1330D
1381.284	0.001	620083	ENCODING_END	n/a	n/a	n/a	-999	3	[0, 0, 0]	n/a	FR1	0	R1330D
1381.285	0.0	620084	DISTRACT_START	n/a	n/a	n/a	-999	3	[0, 0, 0]	n/a	FR1	0	R1330D
1381.285	0.015	620084	START	n/a	n/a	n/a	-999	3	[-999, -999, -999]	n/a	FR1	0	R1330D
1381.3	15.519	620099	PROB	15.519	n/a	n/a	-999	3	[2, 3, 8]	13	FR1	0	R1330D
1396.819	7.811	635617	PROB	7.811	n/a	n/a	-999	3	[7, 9, 5]	22	FR1	0	R1330D
1404.63	0.009	643428	STOP	n/a	n/a	n/a	-999	3	[-999, -999, -999]	n/a	FR1	0	R1330D
1404.639	0.636	643437	DISTRACT_END	n/a	n/a	n/a	-999	3	[0, 0, 0]	n/a	FR1	0	R1330D
1405.275	1.58	644073	RETRIEVAL_ORIENT_START	n/a	n/a	n/a	-999	3	[0, 0, 0]	n/a	FR1	0	R1330D
1406.855	0.0	645653	RETRIEVAL_ORIENT_END	n/a	n/a	n/a	-999	3	[0, 0, 0]	n/a	FR1	0	R1330D
1406.855	1.143	645653	REC_START	n/a	n/a	n/a	-999	3	[0, 0, 0]	n/a	FR1	0	R1330D
1407.998	1.903	646796	REC_WORD_VV	1.903	n/a	<>	-999	3	[0, 0, 0]	n/a	FR1	0	R1330D
1409.901	5.065	648699	REC_WORD	5.065	n/a	ROOM	-999	3	[0, 0, 0]	n/a	FR1	0	R1330D
1414.966	5.319	653763	REC_WORD	5.319	n/a	JUICE	-999	3	[0, 0, 0]	n/a	FR1	0	R1330D
1420.285	4.26	659082	REC_WORD	4.26	n/a	ROOF	-999	3	[0, 0, 0]	n/a	FR1	0	R1330D
1424.545	11.105	663342	REC_WORD	11.105	n/a	LEG	8	3	[0, 0, 0]	n/a	FR1	0	R1330D
1435.65	0.904	674446	REC_WORD	0.904	n/a	TRUCK	10	3	[0, 0, 0]	n/a	FR1	0	R1330D
1436.554	0.314	675350	REC_WORD	0.314	n/a	CHIEF	9	3	[0, 0, 0]	n/a	FR1	0	R1330D
1436.868	0.0	675664	TRIAL_END	n/a	n/a	n/a	-999	3	[0, 0, 0]	n/a	FR1	0	R1330D
1436.868	0.014	675664	REC_END	n/a	n/a	n/a	-999	3	[0, 0, 0]	n/a	FR1	0	R1330D
1436.882	0.0	675678	WAITING_START	n/a	n/a	n/a	-999	4	[0, 0, 0]	n/a	FR1	0	R1330D
1436.882	0.0	675678	TRIAL_START	n/a	n/a	n/a	-999	4	[0, 0, 0]	n/a	FR1	0	R1330D
1436.882	5.614	675678	TRIAL	n/a	n/a	n/a	-999	4	[0, 0, 0]	n/a	FR1	0	R1330D
1442.496	0.0	681292	WAITING_END	n/a	n/a	n/a	-999	4	[0, 0, 0]	n/a	FR1	0	R1330D
1442.496	10.428	681292	COUNTDOWN_START	n/a	n/a	n/a	-999	4	[0, 0, 0]	n/a	FR1	0	R1330D
1452.924	0.001	691719	COUNTDOWN_END	n/a	n/a	n/a	-999	4	[0, 0, 0]	n/a	FR1	0	R1330D
1452.925	1.155	691720	ORIENT_START	n/a	n/a	n/a	-999	4	[0, 0, 0]	n/a	FR1	0	R1330D
1454.08	0.001	692875	ORIENT_END	n/a	n/a	n/a	-999	4	[0, 0, 0]	n/a	FR1	0	R1330D
1454.081	0.862	692876	ENCODING_START	n/a	n/a	n/a	-999	4	[0, 0, 0]	n/a	FR1	0	R1330D
1454.943	1.622	693738	WORD	n/a	wordpools/wordpool_EN.txt	HOSE	1	4	[0, 0, 0]	n/a	FR1	0	R1330D
1456.565	0.886	695360	WORD_OFF	n/a	n/a	HOSE	1	4	[0, 0, 0]	n/a	FR1	0	R1330D
1457.451	1.63	696246	WORD	n/a	wordpools/wordpool_EN.txt	AXE	2	4	[0, 0, 0]	n/a	FR1	0	R1330D
1459.081	0.782	697876	WORD_OFF	n/a	n/a	AXE	2	4	[0, 0, 0]	n/a	FR1	0	R1330D
1459.863	1.636	698658	WORD	n/a	wordpools/wordpool_EN.txt	CONE	3	4	[0, 0, 0]	n/a	FR1	0	R1330D
1461.499	0.924	700294	WORD_OFF	n/a	n/a	CONE	3	4	[0, 0, 0]	n/a	FR1	0	R1330D
1462.423	1.626	701218	WORD	n/a	wordpools/wordpool_EN.txt	SLIME	4	4	[0, 0, 0]	n/a	FR1	0	R1330D
1464.049	1.097	702844	WORD_OFF	n/a	n/a	SLIME	4	4	[0, 0, 0]	n/a	FR1	0	R1330D
1465.146	1.636	703941	WORD	n/a	wordpools/wordpool_EN.txt	SPRING	5	4	[0, 0, 0]	n/a	FR1	0	R1330D
1466.782	0.944	705577	WORD_OFF	n/a	n/a	SPRING	5	4	[0, 0, 0]	n/a	FR1	0	R1330D
1467.726	1.624	706521	WORD	n/a	wordpools/wordpool_EN.txt	SMOKE	6	4	[0, 0, 0]	n/a	FR1	0	R1330D
1469.35	0.942	708145	WORD_OFF	n/a	n/a	SMOKE	6	4	[0, 0, 0]	n/a	FR1	0	R1330D
1470.292	1.625	709086	WORD	n/a	wordpools/wordpool_EN.txt	PIE	7	4	[0, 0, 0]	n/a	FR1	0	R1330D
1471.917	0.873	710711	WORD_OFF	n/a	n/a	PIE	7	4	[0, 0, 0]	n/a	FR1	0	R1330D
1472.79	1.628	711584	WORD	n/a	wordpools/wordpool_EN.txt	DOCK	8	4	[0, 0, 0]	n/a	FR1	0	R1330D
1474.418	1.022	713212	WORD_OFF	n/a	n/a	DOCK	8	4	[0, 0, 0]	n/a	FR1	0	R1330D
1475.44	1.628	714234	WORD	n/a	wordpools/wordpool_EN.txt	FAN	9	4	[0, 0, 0]	n/a	FR1	0	R1330D
1477.068	0.955	715862	WORD_OFF	n/a	n/a	FAN	9	4	[0, 0, 0]	n/a	FR1	0	R1330D
1478.023	1.613	716817	WORD	n/a	wordpools/wordpool_EN.txt	BREAD	10	4	[0, 0, 0]	n/a	FR1	0	R1330D
1479.636	0.813	718430	WORD_OFF	n/a	n/a	BREAD	10	4	[0, 0, 0]	n/a	FR1	0	R1330D
1480.449	1.636	719243	WORD	n/a	wordpools/wordpool_EN.txt	FROG	11	4	[0, 0, 0]	n/a	FR1	0	R1330D
1482.085	0.796	720879	WORD_OFF	n/a	n/a	FROG	11	4	[0, 0, 0]	n/a	FR1	0	R1330D
1482.881	1.639	721675	WORD	n/a	wordpools/wordpool_EN.txt	BOWL	12	4	[0, 0, 0]	n/a	FR1	0	R1330D
1484.52	0.001	723314	WORD_OFF	n/a	n/a	BOWL	12	4	[0, 0, 0]	n/a	FR1	0	R1330D
1484.521	0.0	723315	ENCODING_END	n/a	n/a	n/a	-999	4	[0, 0, 0]	n/a	FR1	0	R1330D
1484.521	0.0	723315	DISTRACT_START	n/a	n/a	n/a	-999	4	[0, 0, 0]	n/a	FR1	0	R1330D
1484.521	0.015	723315	START	n/a	n/a	n/a	-999	4	[-999, -999, -999]	n/a	FR1	0	R1330D
1484.536	5.284	723330	PROB	5.284	n/a	n/a	-999	4	[9, 6, 1]	16	FR1	0	R1330D
1489.82	3.834	728614	PROB	3.834	n/a	n/a	-999	4	[4, 4, 4]	12	FR1	0	R1330D
1493.654	10.535	732447	PROB	10.535	n/a	n/a	-999	4	[6, 9, 6]	22	FR1	0	R1330D
1504.189	3.308	742982	PROB	3.308	n/a	n/a	-999	4	[1, 1, 7]	9	FR1	0	R1330D
1507.497	0.011	746290	STOP	n/a	n/a	n/a	-999	4	[-999, -999, -999]	n/a	FR1	0	R1330D
1507.508	0.659	746301	DISTRACT_END	n/a	n/a	n/a	-999	4	[0, 0, 0]	n/a	FR1	0	R1330D
1508.167	1.59	746960	RETRIEVAL_ORIENT_START	n/a	n/a	n/a	-999	4	[0, 0, 0]	n/a	FR1	0	R1330D
1509.757	0.0	748550	REC_START	n/a	n/a	n/a	-999	4	[0, 0, 0]	n/a	FR1	0	R1330D
1509.757	2.186	748550	RETRIEVAL_ORIENT_END	n/a	n/a	n/a	-999	4	[0, 0, 0]	n/a	FR1	0	R1330D
1511.943	0.972	750735	REC_WORD	0.972	n/a	FROG	11	4	[0, 0, 0]	n/a	FR1	0	R1330D
1512.915	1.414	751707	REC_WORD	1.414	n/a	BOWL	12	4	[0, 0, 0]	n/a	FR1	0	R1330D
1514.329	3.991	753121	REC_WORD	3.991	n/a	AXE	2	4	[0, 0, 0]	n/a	FR1	0	R1330D
1518.32	3.038	757112	REC_WORD	3.038	n/a	SMOKE	6	4	[0, 0, 0]	n/a	FR1	0	R1330D
1521.358	3.737	760150	REC_WORD	3.737	n/a	SLIME	4	4	[0, 0, 0]	n/a	FR1	0	R1330D
1525.095	6.563	763887	REC_WORD	6.563	n/a	CONE	3	4	[0, 0, 0]	n/a	FR1	0	R1330D
1531.658	8.114	770449	REC_WORD	8.114	n/a	FAN	9	4	[0, 0, 0]	n/a	FR1	0	R1330D
1539.772	0.001	778563	REC_END	n/a	n/a	n/a	-999	4	[0, 0, 0]	n/a	FR1	0	R1330D
1539.773	0.015	778564	TRIAL_END	n/a	n/a	n/a	-999	4	[0, 0, 0]	n/a	FR1	0	R1330D
1539.788	0.0	778579	WAITING_START	n/a	n/a	n/a	-999	5	[0, 0, 0]	n/a	FR1	0	R1330D
1539.788	0.0	778579	TRIAL_START	n/a	n/a	n/a	-999	5	[0, 0, 0]	n/a	FR1	0	R1330D
1539.788	2.643	778579	TRIAL	n/a	n/a	n/a	-999	5	[0, 0, 0]	n/a	FR1	0	R1330D
1542.431	0.0	781222	WAITING_END	n/a	n/a	n/a	-999	5	[0, 0, 0]	n/a	FR1	0	R1330D
1542.431	10.429	781222	COUNTDOWN_START	n/a	n/a	n/a	-999	5	[0, 0, 0]	n/a	FR1	0	R1330D
1552.86	0.0	791650	COUNTDOWN_END	n/a	n/a	n/a	-999	5	[0, 0, 0]	n/a	FR1	0	R1330D
1552.86	1.255	791650	ORIENT_START	n/a	n/a	n/a	-999	5	[0, 0, 0]	n/a	FR1	0	R1330D
1554.115	0.001	792905	ORIENT_END	n/a	n/a	n/a	-999	5	[0, 0, 0]	n/a	FR1	0	R1330D
1554.116	1.078	792906	ENCODING_START	n/a	n/a	n/a	-999	5	[0, 0, 0]	n/a	FR1	0	R1330D
1555.194	1.622	793984	WORD	n/a	wordpools/wordpool_EN.txt	FLAG	1	5	[0, 0, 0]	n/a	FR1	0	R1330D
1556.816	0.824	795606	WORD_OFF	n/a	n/a	FLAG	1	5	[0, 0, 0]	n/a	FR1	0	R1330D
1557.64	1.626	796430	WORD	n/a	wordpools/wordpool_EN.txt	CART	2	5	[0, 0, 0]	n/a	FR1	0	R1330D
1559.266	0.802	798056	WORD_OFF	n/a	n/a	CART	2	5	[0, 0, 0]	n/a	FR1	0	R1330D
1560.068	1.633	798858	WORD	n/a	wordpools/wordpool_EN.txt	CALF	3	5	[0, 0, 0]	n/a	FR1	0	R1330D
1561.701	1.045	800491	WORD_OFF	n/a	n/a	CALF	3	5	[0, 0, 0]	n/a	FR1	0	R1330D
1562.746	1.638	801536	WORD	n/a	wordpools/wordpool_EN.txt	WHALE	4	5	[0, 0, 0]	n/a	FR1	0	R1330D
1564.384	1.077	803174	WORD_OFF	n/a	n/a	WHALE	4	5	[0, 0, 0]	n/a	FR1	0	R1330D
1565.461	1.623	804251	WORD	n/a	wordpools/wordpool_EN.txt	SPONGE	5	5	[0, 0, 0]	n/a	FR1	0	R1330D
1567.084	1.013	805874	WORD_OFF	n/a	n/a	SPONGE	5	5	[0, 0, 0]	n/a	FR1	0	R1330D
1568.097	1.621	806887	WORD	n/a	wordpools/wordpool_EN.txt	CUP	6	5	[0, 0, 0]	n/a	FR1	0	R1330D
1569.718	1.125	808508	WORD_OFF	n/a	n/a	CUP	6	5	[0, 0, 0]	n/a	FR1	0	R1330D
1570.843	1.626	809632	WORD	n/a	wordpools/wordpool_EN.txt	CAT	7	5	[0, 0, 0]	n/a	FR1	0	R1330D
1572.469	0.85	811258	WORD_OFF	n/a	n/a	CAT	7	5	[0, 0, 0]	n/a	FR1	0	R1330D
1573.319	1.633	812108	WORD	n/a	wordpools/wordpool_EN.txt	LEAF	8	5	[0, 0, 0]	n/a	FR1	0	R1330D
1574.952	0.972	813741	WORD_OFF	n/a	n/a	LEAF	8	5	[0, 0, 0]	n/a	FR1	0	R1330D
1575.924	1.63	814713	WORD	n/a	wordpools/wordpool_EN.txt	DEER	9	5	[0, 0, 0]	n/a	FR1	0	R1330D
1577.554	0.749	816343	WORD_OFF	n/a	n/a	DEER	9	5	[0, 0, 0]	n/a	FR1	0	R1330D
1578.303	1.633	817092	WORD	n/a	wordpools/wordpool_EN.txt	LAWN	10	5	[0, 0, 0]	n/a	FR1	0	R1330D
1579.936	1.011	818725	WORD_OFF	n/a	n/a	LAWN	10	5	[0, 0, 0]	n/a	FR1	0	R1330D
1580.947	1.624	819736	WORD	n/a	wordpools/wordpool_EN.txt	MOUTH	11	5	[0, 0, 0]	n/a	FR1	0	R1330D
1582.571	0.756	821360	WORD_OFF	n/a	n/a	MOUTH	11	5	[0, 0, 0]	n/a	FR1	0	R1330D
1583.327	1.627	822116	WORD	n/a	wordpools/wordpool_EN.txt	STOVE	12	5	[0, 0, 0]	n/a	FR1	0	R1330D
1584.954	0.001	823743	WORD_OFF	n/a	n/a	STOVE	12	5	[0, 0, 0]	n/a	FR1	0	R1330D
1584.955	0.0	823744	DISTRACT_START	n/a	n/a	n/a	-999	5	[0, 0, 0]	n/a	FR1	0	R1330D
1584.955	0.0	823744	ENCODING_END	n/a	n/a	n/a	-999	5	[0, 0, 0]	n/a	FR1	0	R1330D
1584.955	0.015	823744	START	n/a	n/a	n/a	-999	5	[-999, -999, -999]	n/a	FR1	0	R1330D
1584.97	4.652	823759	PROB	4.652	n/a	n/a	-999	5	[5, 8, 6]	19	FR1	0	R1330D
1589.622	5.868	828411	PROB	5.868	n/a	n/a	-999	5	[3, 8, 4]	15	FR1	0	R1330D
1595.49	4.984	834278	PROB	4.984	n/a	n/a	-999	5	[2, 8, 7]	17	FR1	0	R1330D
1600.474	7.246	839262	PROB	7.246	n/a	n/a	-999	5	[5, 9, 7]	21	FR1	0	R1330D
1607.72	0.022	846508	STOP	n/a	n/a	n/a	-999	5	[-999, -999, -999]	n/a	FR1	0	R1330D
1607.742	0.693	846530	DISTRACT_END	n/a	n/a	n/a	-999	5	[0, 0, 0]	n/a	FR1	0	R1330D
1608.435	1.557	847223	RETRIEVAL_ORIENT_START	n/a	n/a	n/a	-999	5	[0, 0, 0]	n/a	FR1	0	R1330D
1609.992	0.0	848780	RETRIEVAL_ORIENT_END	n/a	n/a	n/a	-999	5	[0, 0, 0]	n/a	FR1	0	R1330D
1609.992	3.712	848780	REC_START	n/a	n/a	n/a	-999	5	[0, 0, 0]	n/a	FR1	0	R1330D
1613.704	3.563	852491	REC_WORD	3.563	n/a	MOUTH	11	5	[0, 0, 0]	n/a	FR1	0	R1330D
1617.267	0.949	856054	REC_WORD	0.949	n/a	DEER	9	5	[0, 0, 0]	n/a	FR1	0	R1330D
1618.216	4.169	857003	REC_WORD	4.169	n/a	CALF	3	5	[0, 0, 0]	n/a	FR1	0	R1330D
1622.385	5.623	861172	REC_WORD	5.623	n/a	STOVE	12	5	[0, 0, 0]	n/a	FR1	0	R1330D
1628.008	1.968	866795	REC_WORD	1.968	n/a	WHALE	4	5	[0, 0, 0]	n/a	FR1	0	R1330D
1629.976	1.0	868763	REC_WORD	1.0	n/a	SPONGE	5	5	[0, 0, 0]	n/a	FR1	0	R1330D
1630.976	8.609	869762	REC_WORD_VV	8.609	n/a	<>	-999	5	[0, 0, 0]	n/a	FR1	0	R1330D
1639.585	0.42	878371	REC_WORD_VV	0.42	n/a	<>	-999	5	[0, 0, 0]	n/a	FR1	0	R1330D
1640.005	0.0	878791	TRIAL_END	n/a	n/a	n/a	-999	5	[0, 0, 0]	n/a	FR1	0	R1330D
1640.005	0.015	878791	REC_END	n/a	n/a	n/a	-999	5	[0, 0, 0]	n/a	FR1	0	R1330D
1640.02	0.001	878806	TRIAL_START	n/a	n/a	n/a	-999	6	[0, 0, 0]	n/a	FR1	0	R1330D
1640.021	0.0	878807	TRIAL	n/a	n/a	n/a	-999	6	[0, 0, 0]	n/a	FR1	0	R1330D
1640.021	2.944	878807	WAITING_START	n/a	n/a	n/a	-999	6	[0, 0, 0]	n/a	FR1	0	R1330D
1642.965	0.0	881751	WAITING_END	n/a	n/a	n/a	-999	6	[0, 0, 0]	n/a	FR1	0	R1330D
1642.965	10.43	881751	COUNTDOWN_START	n/a	n/a	n/a	-999	6	[0, 0, 0]	n/a	FR1	0	R1330D
1653.395	0.0	892180	COUNTDOWN_END	n/a	n/a	n/a	-999	6	[0, 0, 0]	n/a	FR1	0	R1330D
1653.395	1.106	892180	ORIENT_START	n/a	n/a	n/a	-999	6	[0, 0, 0]	n/a	FR1	0	R1330D
1654.501	0.001	893286	ORIENT_END	n/a	n/a	n/a	-999	6	[0, 0, 0]	n/a	FR1	0	R1330D
1654.502	0.909	893287	ENCODING_START	n/a	n/a	n/a	-999	6	[0, 0, 0]	n/a	FR1	0	R1330D
1655.411	1.623	894196	WORD	n/a	wordpools/wordpool_EN.txt	STEAK	1	6	[0, 0, 0]	n/a	FR1	0	R1330D
1657.034	1.054	895819	WORD_OFF	n/a	n/a	STEAK	1	6	[0, 0, 0]	n/a	FR1	0	R1330D
1658.088	1.629	896873	WORD	n/a	wordpools/wordpool_EN.txt	SNAKE	2	6	[0, 0, 0]	n/a	FR1	0	R1330D
1659.717	0.831	898502	WORD_OFF	n/a	n/a	SNAKE	2	6	[0, 0, 0]	n/a	FR1	0	R1330D
1660.548	1.637	899333	WORD	n/a	wordpools/wordpool_EN.txt	DART	3	6	[0, 0, 0]	n/a	FR1	0	R1330D
1662.185	0.907	900970	WORD_OFF	n/a	n/a	DART	3	6	[0, 0, 0]	n/a	FR1	0	R1330D
1663.092	1.627	901877	WORD	n/a	wordpools/wordpool_EN.txt	SWORD	4	6	[0, 0, 0]	n/a	FR1	0	R1330D
1664.719	1.005	903504	WORD_OFF	n/a	n/a	SWORD	4	6	[0, 0, 0]	n/a	FR1	0	R1330D
1665.724	1.628	904509	WORD	n/a	wordpools/wordpool_EN.txt	DIME	5	6	[0, 0, 0]	n/a	FR1	0	R1330D
1667.352	1.072	906137	WORD_OFF	n/a	n/a	DIME	5	6	[0, 0, 0]	n/a	FR1	0	R1330D
1668.424	1.629	907209	WORD	n/a	wordpools/wordpool_EN.txt	HOOK	6	6	[0, 0, 0]	n/a	FR1	0	R1330D
1670.053	1.103	908837	WORD_OFF	n/a	n/a	HOOK	6	6	[0, 0, 0]	n/a	FR1	0	R1330D
1671.156	1.631	909940	WORD	n/a	wordpools/wordpool_EN.txt	HORSE	7	6	[0, 0, 0]	n/a	FR1	0	R1330D
1672.787	0.875	911571	WORD_OFF	n/a	n/a	HORSE	7	6	[0, 0, 0]	n/a	FR1	0	R1330D
1673.662	1.625	912446	WORD	n/a	wordpools/wordpool_EN.txt	PIT	8	6	[0, 0, 0]	n/a	FR1	0	R1330D
1675.287	1.023	914071	WORD_OFF	n/a	n/a	PIT	8	6	[0, 0, 0]	n/a	FR1	0	R1330D
1676.31	1.628	915094	WORD	n/a	wordpools/wordpool_EN.txt	CLOUD	9	6	[0, 0, 0]	n/a	FR1	0	R1330D
1677.938	0.906	916722	WORD_OFF	n/a	n/a	CLOUD	9	6	[0, 0, 0]	n/a	FR1	0	R1330D
1678.844	1.612	917628	WORD	n/a	wordpools/wordpool_EN.txt	MOOSE	10	6	[0, 0, 0]	n/a	FR1	0	R1330D
1680.456	0.811	919240	WORD_OFF	n/a	n/a	MOOSE	10	6	[0, 0, 0]	n/a	FR1	0	R1330D
1681.267	1.622	920051	WORD	n/a	wordpools/wordpool_EN.txt	HOLE	11	6	[0, 0, 0]	n/a	FR1	0	R1330D
1682.889	1.141	921673	WORD_OFF	n/a	n/a	HOLE	11	6	[0, 0, 0]	n/a	FR1	0	R1330D
1684.03	1.627	922814	WORD	n/a	wordpools/wordpool_EN.txt	POND	12	6	[0, 0, 0]	n/a	FR1	0	R1330D
1685.657	0.0	924441	ENCODING_END	n/a	n/a	n/a	-999	6	[0, 0, 0]	n/a	FR1	0	R1330D
1685.657	0.001	924441	WORD_OFF	n/a	n/a	POND	12	6	[0, 0, 0]	n/a	FR1	0	R1330D
1685.658	0.0	924442	DISTRACT_START	n/a	n/a	n/a	-999	6	[0, 0, 0]	n/a	FR1	0	R1330D
1685.658	0.015	924442	START	n/a	n/a	n/a	-999	6	[-999, -999, -999]	n/a	FR1	0	R1330D
1685.673	5.05	924457	PROB	5.05	n/a	n/a	-999	6	[5, 2, 7]	14	FR1	0	R1330D
1690.723	5.084	929506	PROB	5.084	n/a	n/a	-999	6	[8, 4, 4]	16	FR1	0	R1330D
1695.807	3.735	934590	PROB	3.735	n/a	n/a	-999	6	[1, 2, 1]	4	FR1	0	R1330D
1699.542	4.968	938325	PROB	4.968	n/a	n/a	-999	6	[8, 7, 3]	18	FR1	0	R1330D
1704.51	4.423	943293	PROB	4.423	n/a	n/a	-999	6	[5, 6, 3]	14	FR1	0	R1330D
1708.933	0.01	947716	STOP	n/a	n/a	n/a	-999	6	[-999, -999, -999]	n/a	FR1	0	R1330D
1708.943	0.669	947726	DISTRACT_END	n/a	n/a	n/a	-999	6	[0, 0, 0]	n/a	FR1	0	R1330D
1709.612	1.665	948395	RETRIEVAL_ORIENT_START	n/a	n/a	n/a	-999	6	[0, 0, 0]	n/a	FR1	0	R1330D
1711.277	0.0	950059	RETRIEVAL_ORIENT_END	n/a	n/a	n/a	-999	6	[0, 0, 0]	n/a	FR1	0	R1330D
1711.277	2.674	950059	REC_START	n/a	n/a	n/a	-999	6	[0, 0, 0]	n/a	FR1	0	R1330D
1713.951	1.0	952733	REC_WORD_VV	1.0	n/a	<>	-999	6	[0, 0, 0]	n/a	FR1	0	R1330D
1714.951	0.698	953733	REC_WORD_VV	0.698	n/a	<>	-999	6	[0, 0, 0]	n/a	FR1	0	R1330D
1715.649	0.779	954431	REC_WORD	0.779	n/a	PIT	8	6	[0, 0, 0]	n/a	FR1	0	R1330D
1716.428	3.066	955210	REC_WORD	3.066	n/a	HORSE	7	6	[0, 0, 0]	n/a	FR1	0	R1330D
1719.494	1.0	958276	REC_WORD_VV	1.0	n/a	<>	-999	6	[0, 0, 0]	n/a	FR1	0	R1330D
1720.494	4.414	959276	REC_WORD_VV	4.414	n/a	<>	-999	6	[0, 0, 0]	n/a	FR1	0	R1330D
1724.908	5.955	963690	REC_WORD	5.955	n/a	DOCK	-999	6	[0, 0, 0]	n/a	FR1	0	R1330D
1730.863	7.226	969644	REC_WORD	7.226	n/a	HOLE	11	6	[0, 0, 0]	n/a	FR1	0	R1330D
1738.089	1.052	976870	REC_WORD	1.052	n/a	SWORD	4	6	[0, 0, 0]	n/a	FR1	0	R1330D
1739.141	1.655	977922	REC_WORD	1.655	n/a	STEAK	1	6	[0, 0, 0]	n/a	FR1	0	R1330D
1740.796	0.495	979577	REC_WORD	0.495	n/a	SNAKE	2	6	[0, 0, 0]	n/a	FR1	0	R1330D
1741.291	0.001	980072	REC_END	n/a	n/a	n/a	-999	6	[0, 0, 0]	n/a	FR1	0	R1330D
1741.292	0.014	980073	TRIAL_END	n/a	n/a	n/a	-999	6	[0, 0, 0]	n/a	FR1	0	R1330D
1741.306	0.0	980087	TRIAL_START	n/a	n/a	n/a	-999	7	[0, 0, 0]	n/a	FR1	0	R1330D
1741.306	0.0	980087	TRIAL	n/a	n/a	n/a	-999	7	[0, 0, 0]	n/a	FR1	0	R1330D
1741.306	2.944	980087	WAITING_START	n/a	n/a	n/a	-999	7	[0, 0, 0]	n/a	FR1	0	R1330D
1744.25	0.0	983031	COUNTDOWN_START	n/a	n/a	n/a	-999	7	[0, 0, 0]	n/a	FR1	0	R1330D
1744.25	10.429	983031	WAITING_END	n/a	n/a	n/a	-999	7	[0, 0, 0]	n/a	FR1	0	R1330D
1754.679	0.0	993459	COUNTDOWN_END	n/a	n/a	n/a	-999	7	[0, 0, 0]	n/a	FR1	0	R1330D
1754.679	1.09	993459	ORIENT_START	n/a	n/a	n/a	-999	7	[0, 0, 0]	n/a	FR1	0	R1330D
1755.769	0.0	994549	ORIENT_END	n/a	n/a	n/a	-999	7	[0, 0, 0]	n/a	FR1	0	R1330D
1755.769	1.058	994549	ENCODING_START	n/a	n/a	n/a	-999	7	[0, 0, 0]	n/a	FR1	0	R1330D
1756.827	1.609	995607	WORD	n/a	wordpools/wordpool_EN.txt	SNOW	1	7	[0, 0, 0]	n/a	FR1	0	R1330D
1758.436	0.813	997216	WORD_OFF	n/a	n/a	SNOW	1	7	[0, 0, 0]	n/a	FR1	0	R1330D
1759.249	1.637	998029	WORD	n/a	wordpools/wordpool_EN.txt	BADGE	2	7	[0, 0, 0]	n/a	FR1	0	R1330D
1760.886	0.826	999666	WORD_OFF	n/a	n/a	BADGE	2	7	[0, 0, 0]	n/a	FR1	0	R1330D
1761.712	1.625	1000492	WORD	n/a	wordpools/wordpool_EN.txt	FILM	3	7	[0, 0, 0]	n/a	FR1	0	R1330D
1763.337	0.915	1002117	WORD_OFF	n/a	n/a	FILM	3	7	[0, 0, 0]	n/a	FR1	0	R1330D
1764.252	1.635	1003032	WORD	n/a	wordpools/wordpool_EN.txt	SCHOOL	4	7	[0, 0, 0]	n/a	FR1	0	R1330D
1765.887	0.992	1004667	WORD_OFF	n/a	n/a	SCHOOL	4	7	[0, 0, 0]	n/a	FR1	0	R1330D
1766.879	1.609	1005659	WORD	n/a	wordpools/wordpool_EN.txt	BALL	5	7	[0, 0, 0]	n/a	FR1	0	R1330D
1768.488	0.898	1007268	WORD_OFF	n/a	n/a	BALL	5	7	[0, 0, 0]	n/a	FR1	0	R1330D
1769.386	1.635	1008166	WORD	n/a	wordpools/wordpool_EN.txt	OWL	6	7	[0, 0, 0]	n/a	FR1	0	R1330D
1771.021	0.961	1009800	WORD_OFF	n/a	n/a	OWL	6	7	[0, 0, 0]	n/a	FR1	0	R1330D
1771.982	1.624	1010761	WORD	n/a	wordpools/wordpool_EN.txt	LAMB	7	7	[0, 0, 0]	n/a	FR1	0	R1330D
1773.606	0.807	1012385	WORD_OFF	n/a	n/a	LAMB	7	7	[0, 0, 0]	n/a	FR1	0	R1330D
1774.413	1.626	1013192	WORD	n/a	wordpools/wordpool_EN.txt	STORE	8	7	[0, 0, 0]	n/a	FR1	0	R1330D
1776.039	0.892	1014818	WORD_OFF	n/a	n/a	STORE	8	7	[0, 0, 0]	n/a	FR1	0	R1330D
1776.931	1.609	1015710	WORD	n/a	wordpools/wordpool_EN.txt	PIN	9	7	[0, 0, 0]	n/a	FR1	0	R1330D
1778.54	0.759	1017319	WORD_OFF	n/a	n/a	PIN	9	7	[0, 0, 0]	n/a	FR1	0	R1330D
1779.299	1.624	1018078	WORD	n/a	wordpools/wordpool_EN.txt	BRICK	10	7	[0, 0, 0]	n/a	FR1	0	R1330D
1780.923	1.037	1019702	WORD_OFF	n/a	n/a	BRICK	10	7	[0, 0, 0]	n/a	FR1	0	R1330D
1781.96	1.614	1020739	WORD	n/a	wordpools/wordpool_EN.txt	SHEET	11	7	[0, 0, 0]	n/a	FR1	0	R1330D
1783.574	0.798	1022353	WORD_OFF	n/a	n/a	SHEET	11	7	[0, 0, 0]	n/a	FR1	0	R1330D
1784.372	1.635	1023151	WORD	n/a	wordpools/wordpool_EN.txt	TOOTH	12	7	[0, 0, 0]	n/a	FR1	0	R1330D
1786.007	0.001	1024786	WORD_OFF	n/a	n/a	TOOTH	12	7	[0, 0, 0]	n/a	FR1	0	R1330D
1786.008	0.0	1024787	ENCODING_END	n/a	n/a	n/a	-999	7	[0, 0, 0]	n/a	FR1	0	R1330D
1786.008	0.0	1024787	DISTRACT_START	n/a	n/a	n/a	-999	7	[0, 0, 0]	n/a	FR1	0	R1330D
1786.008	0.016	1024787	START	n/a	n/a	n/a	-999	7	[-999, -999, -999]	n/a	FR1	0	R1330D
1786.024	3.601	1024803	PROB	3.601	n/a	n/a	-999	7	[1, 5, 5]	11	FR1	0	R1330D
1789.625	4.935	1028404	PROB	4.935	n/a	n/a	-999	7	[9, 8, 7]	23	FR1	0	R1330D
1794.56	3.117	1033338	PROB	3.117	n/a	n/a	-999	7	[1, 3, 4]	8	FR1	0	R1330D
1797.677	5.533	1036455	PROB	5.533	n/a	n/a	-999	7	[3, 6, 9]	18	FR1	0	R1330D
1803.21	4.163	1041988	PROB	4.163	n/a	n/a	-999	7	[1, 1, 8]	10	FR1	0	R1330D
1807.373	0.022	1046151	STOP	n/a	n/a	n/a	-999	7	[-999, -999, -999]	n/a	FR1	0	R1330D
1807.395	0.677	1046173	DISTRACT_END	n/a	n/a	n/a	-999	7	[0, 0, 0]	n/a	FR1	0	R1330D
1808.072	1.69	1046850	RETRIEVAL_ORIENT_START	n/a	n/a	n/a	-999	7	[0, 0, 0]	n/a	FR1	0	R1330D
1809.762	0.0	1048540	REC_START	n/a	n/a	n/a	-999	7	[0, 0, 0]	n/a	FR1	0	R1330D
1809.762	2.91	1048540	RETRIEVAL_ORIENT_END	n/a	n/a	n/a	-999	7	[0, 0, 0]	n/a	FR1	0	R1330D
1812.672	0.595	1051449	REC_WORD_VV	0.595	n/a	<>	-999	7	[0, 0, 0]	n/a	FR1	0	R1330D
1813.267	2.739	1052044	REC_WORD	2.739	n/a	OWL	6	7	[0, 0, 0]	n/a	FR1	0	R1330D
1816.006	3.214	1054783	REC_WORD	3.214	n/a	LAMB	7	7	[0, 0, 0]	n/a	FR1	0	R1330D
1819.22	20.555	1057997	REC_WORD	20.555	n/a	PIT	-999	7	[0, 0, 0]	n/a	FR1	0	R1330D
1839.775	0.0	1078551	REC_END	n/a	n/a	n/a	-999	7	[0, 0, 0]	n/a	FR1	0	R1330D
1839.775	0.015	1078551	TRIAL_END	n/a	n/a	n/a	-999	7	[0, 0, 0]	n/a	FR1	0	R1330D
1839.79	0.0	1078566	TRIAL_START	n/a	n/a	n/a	-999	8	[0, 0, 0]	n/a	FR1	0	R1330D
1839.79	0.0	1078566	TRIAL	n/a	n/a	n/a	-999	8	[0, 0, 0]	n/a	FR1	0	R1330D
1839.79	2.394	1078566	WAITING_START	n/a	n/a	n/a	-999	8	[0, 0, 0]	n/a	FR1	0	R1330D
1842.184	0.001	1080960	WAITING_END	n/a	n/a	n/a	-999	8	[0, 0, 0]	n/a	FR1	0	R1330D
1842.185	10.428	1080961	COUNTDOWN_START	n/a	n/a	n/a	-999	8	[0, 0, 0]	n/a	FR1	0	R1330D
1852.613	0.001	1091388	COUNTDOWN_END	n/a	n/a	n/a	-999	8	[0, 0, 0]	n/a	FR1	0	R1330D
1852.614	1.057	1091389	ORIENT_START	n/a	n/a	n/a	-999	8	[0, 0, 0]	n/a	FR1	0	R1330D
1853.671	0.0	1092446	ORIENT_END	n/a	n/a	n/a	-999	8	[0, 0, 0]	n/a	FR1	0	R1330D
1853.671	0.832	1092446	ENCODING_START	n/a	n/a	n/a	-999	8	[0, 0, 0]	n/a	FR1	0	R1330D
1854.503	1.634	1093278	WORD	n/a	wordpools/wordpool_EN.txt	BEAN	1	8	[0, 0, 0]	n/a	FR1	0	R1330D
1856.137	1.011	1094912	WORD_OFF	n/a	n/a	BEAN	1	8	[0, 0, 0]	n/a	FR1	0	R1330D
1857.148	1.623	1095923	WORD	n/a	wordpools/wordpool_EN.txt	CROW	2	8	[0, 0, 0]	n/a	FR1	0	R1330D
1858.771	0.866	1097546	WORD_OFF	n/a	n/a	CROW	2	8	[0, 0, 0]	n/a	FR1	0	R1330D
1859.637	1.634	1098412	WORD	n/a	wordpools/wordpool_EN.txt	RICE	3	8	[0, 0, 0]	n/a	FR1	0	R1330D
1861.271	1.119	1100046	WORD_OFF	n/a	n/a	RICE	3	8	[0, 0, 0]	n/a	FR1	0	R1330D
1862.39	1.632	1101165	WORD	n/a	wordpools/wordpool_EN.txt	HEART	4	8	[0, 0, 0]	n/a	FR1	0	R1330D
1864.022	0.893	1102797	WORD_OFF	n/a	n/a	HEART	4	8	[0, 0, 0]	n/a	FR1	0	R1330D
1864.915	1.625	1103690	WORD	n/a	wordpools/wordpool_EN.txt	GEESE	5	8	[0, 0, 0]	n/a	FR1	0	R1330D
1866.54	0.941	1105315	WORD_OFF	n/a	n/a	GEESE	5	8	[0, 0, 0]	n/a	FR1	0	R1330D
1867.481	1.625	1106256	WORD	n/a	wordpools/wordpool_EN.txt	MUG	6	8	[0, 0, 0]	n/a	FR1	0	R1330D
1869.106	0.967	1107881	WORD_OFF	n/a	n/a	MUG	6	8	[0, 0, 0]	n/a	FR1	0	R1330D
1870.073	1.634	1108847	WORD	n/a	wordpools/wordpool_EN.txt	VAN	7	8	[0, 0, 0]	n/a	FR1	0	R1330D
1871.707	0.828	1110481	WORD_OFF	n/a	n/a	VAN	7	8	[0, 0, 0]	n/a	FR1	0	R1330D
1872.535	1.622	1111309	WORD	n/a	wordpools/wordpool_EN.txt	STORM	8	8	[0, 0, 0]	n/a	FR1	0	R1330D
1874.157	0.888	1112931	WORD_OFF	n/a	n/a	STORM	8	8	[0, 0, 0]	n/a	FR1	0	R1330D
1875.045	1.63	1113819	WORD	n/a	wordpools/wordpool_EN.txt	FLEA	9	8	[0, 0, 0]	n/a	FR1	0	R1330D
1876.675	0.979	1115449	WORD_OFF	n/a	n/a	FLEA	9	8	[0, 0, 0]	n/a	FR1	0	R1330D
1877.654	1.62	1116428	WORD	n/a	wordpools/wordpool_EN.txt	TOOL	10	8	[0, 0, 0]	n/a	FR1	0	R1330D
1879.274	0.946	1118048	WORD_OFF	n/a	n/a	TOOL	10	8	[0, 0, 0]	n/a	FR1	0	R1330D
1880.22	1.622	1118994	WORD	n/a	wordpools/wordpool_EN.txt	ICE	11	8	[0, 0, 0]	n/a	FR1	0	R1330D
1881.842	1.052	1120616	WORD_OFF	n/a	n/a	ICE	11	8	[0, 0, 0]	n/a	FR1	0	R1330D
1882.894	1.616	1121668	WORD	n/a	wordpools/wordpool_EN.txt	CANE	12	8	[0, 0, 0]	n/a	FR1	0	R1330D
1884.51	0.0	1123284	WORD_OFF	n/a	n/a	CANE	12	8	[0, 0, 0]	n/a	FR1	0	R1330D
1884.51	0.001	1123284	ENCODING_END	n/a	n/a	n/a	-999	8	[0, 0, 0]	n/a	FR1	0	R1330D
1884.511	0.0	1123285	DISTRACT_START	n/a	n/a	n/a	-999	8	[0, 0, 0]	n/a	FR1	0	R1330D
1884.511	0.015	1123285	START	n/a	n/a	n/a	-999	8	[-999, -999, -999]	n/a	FR1	0	R1330D
1884.526	3.833	1123300	PROB	3.833	n/a	n/a	-999	8	[1, 2, 4]	7	FR1	0	R1330D
1888.359	4.319	1127133	PROB	4.319	n/a	n/a	-999	8	[3, 5, 2]	10	FR1	0	R1330D
1892.678	4.316	1131451	PROB	4.316	n/a	n/a	-999	8	[8, 6, 3]	17	FR1	0	R1330D
1896.994	4.519	1135767	PROB	4.519	n/a	n/a	-999	8	[4, 5, 4]	13	FR1	0	R1330D
1901.513	3.075	1140286	PROB	3.075	n/a	n/a	-999	8	[3, 3, 2]	8	FR1	0	R1330D
1904.588	0.009	1143361	STOP	n/a	n/a	n/a	-999	8	[-999, -999, -999]	n/a	FR1	0	R1330D
1904.597	0.626	1143370	DISTRACT_END	n/a	n/a	n/a	-999	8	[0, 0, 0]	n/a	FR1	0	R1330D
1905.223	1.556	1143996	RETRIEVAL_ORIENT_START	n/a	n/a	n/a	-999	8	[0, 0, 0]	n/a	FR1	0	R1330D
1906.779	0.001	1145552	RETRIEVAL_ORIENT_END	n/a	n/a	n/a	-999	8	[0, 0, 0]	n/a	FR1	0	R1330D
1906.78	0.904	1145553	REC_START	n/a	n/a	n/a	-999	8	[0, 0, 0]	n/a	FR1	0	R1330D
1907.684	1.666	1146457	REC_WORD_VV	1.666	n/a	<>	-999	8	[0, 0, 0]	n/a	FR1	0	R1330D
1909.35	0.705	1148123	REC_WORD	0.705	n/a	CANE	12	8	[0, 0, 0]	n/a	FR1	0	R1330D
1910.055	1.628	1148827	REC_WORD	1.628	n/a	BEAN	1	8	[0, 0, 0]	n/a	FR1	0	R1330D
1911.683	5.477	1150455	REC_WORD	5.477	n/a	GEESE	5	8	[0, 0, 0]	n/a	FR1	0	R1330D
1917.16	19.632	1155932	REC_WORD_VV	19.632	n/a	<>	-999	8	[0, 0, 0]	n/a	FR1	0	R1330D
1936.792	0.0	1175563	REC_END	n/a	n/a	n/a	-999	8	[0, 0, 0]	n/a	FR1	0	R1330D
1936.792	0.014	1175563	TRIAL_END	n/a	n/a	n/a	-999	8	[0, 0, 0]	n/a	FR1	0	R1330D
1936.806	0.0	1175577	TRIAL_START	n/a	n/a	n/a	-999	9	[0, 0, 0]	n/a	FR1	0	R1330D
1936.806	0.0	1175577	TRIAL	n/a	n/a	n/a	-999	9	[0, 0, 0]	n/a	FR1	0	R1330D
1936.806	3.631	1175577	WAITING_START	n/a	n/a	n/a	-999	9	[0, 0, 0]	n/a	FR1	0	R1330D
1940.437	0.0	1179208	WAITING_END	n/a	n/a	n/a	-999	9	[0, 0, 0]	n/a	FR1	0	R1330D
1940.437	10.428	1179208	COUNTDOWN_START	n/a	n/a	n/a	-999	9	[0, 0, 0]	n/a	FR1	0	R1330D
1950.865	0.001	1189635	COUNTDOWN_END	n/a	n/a	n/a	-999	9	[0, 0, 0]	n/a	FR1	0	R1330D
1950.866	1.072	1189636	ORIENT_START	n/a	n/a	n/a	-999	9	[0, 0, 0]	n/a	FR1	0	R1330D
1951.938	0.0	1190708	ENCODING_START	n/a	n/a	n/a	-999	9	[0, 0, 0]	n/a	FR1	0	R1330D
1951.938	1.082	1190708	ORIENT_END	n/a	n/a	n/a	-999	9	[0, 0, 0]	n/a	FR1	0	R1330D
1953.02	1.636	1191790	WORD	n/a	wordpools/wordpool_EN.txt	BEAK	1	9	[0, 0, 0]	n/a	FR1	0	R1330D
1954.656	0.915	1193426	WORD_OFF	n/a	n/a	BEAK	1	9	[0, 0, 0]	n/a	FR1	0	R1330D
1955.571	1.634	1194341	WORD	n/a	wordpools/wordpool_EN.txt	TOY	2	9	[0, 0, 0]	n/a	FR1	0	R1330D
1957.205	1.133	1195975	WORD_OFF	n/a	n/a	TOY	2	9	[0, 0, 0]	n/a	FR1	0	R1330D
1958.338	1.635	1197108	WORD	n/a	wordpools/wordpool_EN.txt	FOX	3	9	[0, 0, 0]	n/a	FR1	0	R1330D
1959.973	0.939	1198743	WORD_OFF	n/a	n/a	FOX	3	9	[0, 0, 0]	n/a	FR1	0	R1330D
1960.912	1.629	1199682	WORD	n/a	wordpools/wordpool_EN.txt	CASH	4	9	[0, 0, 0]	n/a	FR1	0	R1330D
1962.541	1.09	1201311	WORD_OFF	n/a	n/a	CASH	4	9	[0, 0, 0]	n/a	FR1	0	R1330D
1963.631	1.626	1202401	WORD	n/a	wordpools/wordpool_EN.txt	KEY	5	9	[0, 0, 0]	n/a	FR1	0	R1330D
1965.257	0.802	1204027	WORD_OFF	n/a	n/a	KEY	5	9	[0, 0, 0]	n/a	FR1	0	R1330D
1966.059	1.616	1204829	WORD	n/a	wordpools/wordpool_EN.txt	SEAL	6	9	[0, 0, 0]	n/a	FR1	0	R1330D
1967.675	0.897	1206445	WORD_OFF	n/a	n/a	SEAL	6	9	[0, 0, 0]	n/a	FR1	0	R1330D
1968.572	1.636	1207342	WORD	n/a	wordpools/wordpool_EN.txt	RAIN	7	9	[0, 0, 0]	n/a	FR1	0	R1330D
1970.208	0.795	1208977	WORD_OFF	n/a	n/a	RAIN	7	9	[0, 0, 0]	n/a	FR1	0	R1330D
1971.003	1.606	1209772	WORD	n/a	wordpools/wordpool_EN.txt	SALT	8	9	[0, 0, 0]	n/a	FR1	0	R1330D
1972.609	0.789	1211378	WORD_OFF	n/a	n/a	SALT	8	9	[0, 0, 0]	n/a	FR1	0	R1330D
1973.398	1.627	1212167	WORD	n/a	wordpools/wordpool_EN.txt	JAR	9	9	[0, 0, 0]	n/a	FR1	0	R1330D
1975.025	0.798	1213794	WORD_OFF	n/a	n/a	JAR	9	9	[0, 0, 0]	n/a	FR1	0	R1330D
1975.823	1.637	1214592	WORD	n/a	wordpools/wordpool_EN.txt	STEAM	10	9	[0, 0, 0]	n/a	FR1	0	R1330D
1977.46	1.147	1216229	WORD_OFF	n/a	n/a	STEAM	10	9	[0, 0, 0]	n/a	FR1	0	R1330D
1978.607	1.636	1217376	WORD	n/a	wordpools/wordpool_EN.txt	TRAY	11	9	[0, 0, 0]	n/a	FR1	0	R1330D
1980.243	1.138	1219012	WORD_OFF	n/a	n/a	TRAY	11	9	[0, 0, 0]	n/a	FR1	0	R1330D
1981.381	1.629	1220150	WORD	n/a	wordpools/wordpool_EN.txt	KITE	12	9	[0, 0, 0]	n/a	FR1	0	R1330D
1983.01	0.001	1221779	WORD_OFF	n/a	n/a	KITE	12	9	[0, 0, 0]	n/a	FR1	0	R1330D
1983.011	0.0	1221780	ENCODING_END	n/a	n/a	n/a	-999	9	[0, 0, 0]	n/a	FR1	0	R1330D
1983.011	0.0	1221780	DISTRACT_START	n/a	n/a	n/a	-999	9	[0, 0, 0]	n/a	FR1	0	R1330D
1983.011	0.016	1221780	START	n/a	n/a	n/a	-999	9	[-999, -999, -999]	n/a	FR1	0	R1330D
1983.027	4.95	1221796	PROB	4.95	n/a	n/a	-999	9	[2, 8, 1]	11	FR1	0	R1330D
1987.977	5.636	1226746	PROB	5.636	n/a	n/a	-999	9	[9, 8, 3]	21	FR1	0	R1330D
1993.613	4.366	1232381	PROB	4.366	n/a	n/a	-999	9	[3, 6, 5]	14	FR1	0	R1330D
1997.979	6.201	1236747	PROB	6.201	n/a	n/a	-999	9	[7, 6, 9]	22	FR1	0	R1330D
2004.18	0.017	1242948	STOP	n/a	n/a	n/a	-999	9	[-999, -999, -999]	n/a	FR1	0	R1330D
2004.197	0.526	1242965	DISTRACT_END	n/a	n/a	n/a	-999	9	[0, 0, 0]	n/a	FR1	0	R1330D
2004.723	1.658	1243491	RETRIEVAL_ORIENT_START	n/a	n/a	n/a	-999	9	[0, 0, 0]	n/a	FR1	0	R1330D
2006.381	0.0	1245149	RETRIEVAL_ORIENT_END	n/a	n/a	n/a	-999	9	[0, 0, 0]	n/a	FR1	0	R1330D
2006.381	0.965	1245149	REC_START	n/a	n/a	n/a	-999	9	[0, 0, 0]	n/a	FR1	0	R1330D
2007.346	1.0	1246114	REC_WORD_VV	1.0	n/a	<>	-999	9	[0, 0, 0]	n/a	FR1	0	R1330D
2008.346	1.75	1247114	REC_WORD_VV	1.75	n/a	<>	-999	9	[0, 0, 0]	n/a	FR1	0	R1330D
2010.096	4.755	1248863	REC_WORD	4.755	n/a	BEAK	1	9	[0, 0, 0]	n/a	FR1	0	R1330D
2014.851	10.978	1253618	REC_WORD	10.978	n/a	RAIN	7	9	[0, 0, 0]	n/a	FR1	0	R1330D
2025.829	10.566	1264596	REC_WORD	10.566	n/a	BRIDGE	-999	9	[0, 0, 0]	n/a	FR1	0	R1330D
2036.395	0.0	1275161	REC_END	n/a	n/a	n/a	-999	9	[0, 0, 0]	n/a	FR1	0	R1330D
2036.395	0.016	1275161	TRIAL_END	n/a	n/a	n/a	-999	9	[0, 0, 0]	n/a	FR1	0	R1330D
2036.411	0.0	1275177	TRIAL_START	n/a	n/a	n/a	-999	10	[0, 0, 0]	n/a	FR1	0	R1330D
2036.411	0.001	1275177	TRIAL	n/a	n/a	n/a	-999	10	[0, 0, 0]	n/a	FR1	0	R1330D
2036.412	17.245	1275178	WAITING_START	n/a	n/a	n/a	-999	10	[0, 0, 0]	n/a	FR1	0	R1330D
2053.657	0.001	1292422	WAITING_END	n/a	n/a	n/a	-999	10	[0, 0, 0]	n/a	FR1	0	R1330D
2053.658	10.428	1292423	COUNTDOWN_START	n/a	n/a	n/a	-999	10	[0, 0, 0]	n/a	FR1	0	R1330D
2064.086	0.001	1302851	COUNTDOWN_END	n/a	n/a	n/a	-999	10	[0, 0, 0]	n/a	FR1	0	R1330D
2064.087	1.071	1302852	ORIENT_START	n/a	n/a	n/a	-999	10	[0, 0, 0]	n/a	FR1	0	R1330D
2065.158	0.001	1303923	ORIENT_END	n/a	n/a	n/a	-999	10	[0, 0, 0]	n/a	FR1	0	R1330D
2065.159	0.998	1303924	ENCODING_START	n/a	n/a	n/a	-999	10	[0, 0, 0]	n/a	FR1	0	R1330D
2066.157	1.635	1304922	WORD	n/a	wordpools/wordpool_EN.txt	BOMB	1	10	[0, 0, 0]	n/a	FR1	0	R1330D
2067.792	0.957	1306557	WORD_OFF	n/a	n/a	BOMB	1	10	[0, 0, 0]	n/a	FR1	0	R1330D
2068.749	1.627	1307514	WORD	n/a	wordpools/wordpool_EN.txt	SEA	2	10	[0, 0, 0]	n/a	FR1	0	R1330D
2070.376	1.073	1309140	WORD_OFF	n/a	n/a	SEA	2	10	[0, 0, 0]	n/a	FR1	0	R1330D
2071.449	1.628	1310213	WORD	n/a	wordpools/wordpool_EN.txt	PARK	3	10	[0, 0, 0]	n/a	FR1	0	R1330D
2073.077	0.935	1311841	WORD_OFF	n/a	n/a	PARK	3	10	[0, 0, 0]	n/a	FR1	0	R1330D
2074.012	1.616	1312776	WORD	n/a	wordpools/wordpool_EN.txt	BAT	4	10	[0, 0, 0]	n/a	FR1	0	R1330D
2075.628	0.869	1314392	WORD_OFF	n/a	n/a	BAT	4	10	[0, 0, 0]	n/a	FR1	0	R1330D
2076.497	1.63	1315261	WORD	n/a	wordpools/wordpool_EN.txt	JUDGE	5	10	[0, 0, 0]	n/a	FR1	0	R1330D
2078.127	0.769	1316891	WORD_OFF	n/a	n/a	JUDGE	5	10	[0, 0, 0]	n/a	FR1	0	R1330D
2078.896	1.633	1317660	WORD	n/a	wordpools/wordpool_EN.txt	ROSE	6	10	[0, 0, 0]	n/a	FR1	0	R1330D
2080.529	0.86	1319293	WORD_OFF	n/a	n/a	ROSE	6	10	[0, 0, 0]	n/a	FR1	0	R1330D
2081.389	1.623	1320153	WORD	n/a	wordpools/wordpool_EN.txt	WALL	7	10	[0, 0, 0]	n/a	FR1	0	R1330D
2083.012	0.949	1321776	WORD_OFF	n/a	n/a	WALL	7	10	[0, 0, 0]	n/a	FR1	0	R1330D
2083.961	1.619	1322725	WORD	n/a	wordpools/wordpool_EN.txt	JEEP	8	10	[0, 0, 0]	n/a	FR1	0	R1330D
2085.58	0.803	1324344	WORD_OFF	n/a	n/a	JEEP	8	10	[0, 0, 0]	n/a	FR1	0	R1330D
2086.383	1.63	1325147	WORD	n/a	wordpools/wordpool_EN.txt	JET	9	10	[0, 0, 0]	n/a	FR1	0	R1330D
2088.013	1.11	1326777	WORD_OFF	n/a	n/a	JET	9	10	[0, 0, 0]	n/a	FR1	0	R1330D
2089.123	1.624	1327887	WORD	n/a	wordpools/wordpool_EN.txt	SIGN	10	10	[0, 0, 0]	n/a	FR1	0	R1330D
2090.747	0.809	1329510	WORD_OFF	n/a	n/a	SIGN	10	10	[0, 0, 0]	n/a	FR1	0	R1330D
2091.556	1.624	1330319	WORD	n/a	wordpools/wordpool_EN.txt	SOUP	11	10	[0, 0, 0]	n/a	FR1	0	R1330D
2093.18	0.769	1331943	WORD_OFF	n/a	n/a	SOUP	11	10	[0, 0, 0]	n/a	FR1	0	R1330D
2093.949	1.616	1332712	WORD	n/a	wordpools/wordpool_EN.txt	STAIR	12	10	[0, 0, 0]	n/a	FR1	0	R1330D
2095.565	0.0	1334328	DISTRACT_START	n/a	n/a	n/a	-999	10	[0, 0, 0]	n/a	FR1	0	R1330D
2095.565	0.0	1334328	WORD_OFF	n/a	n/a	STAIR	12	10	[0, 0, 0]	n/a	FR1	0	R1330D
2095.565	0.0	1334328	ENCODING_END	n/a	n/a	n/a	-999	10	[0, 0, 0]	n/a	FR1	0	R1330D
2095.565	0.016	1334328	START	n/a	n/a	n/a	-999	10	[-999, -999, -999]	n/a	FR1	0	R1330D
2095.581	3.767	1334344	PROB	3.767	n/a	n/a	-999	10	[2, 3, 3]	8	FR1	0	R1330D
2099.348	6.102	1338111	PROB	6.102	n/a	n/a	-999	10	[9, 6, 8]	24	FR1	0	R1330D
2105.45	4.3	1344213	PROB	4.3	n/a	n/a	-999	10	[2, 4, 1]	7	FR1	0	R1330D
2109.75	2.818	1348512	PROB	2.818	n/a	n/a	-999	10	[7, 1, 1]	9	FR1	0	R1330D
2112.568	4.656	1351330	PROB	4.656	n/a	n/a	-999	10	[5, 9, 5]	19	FR1	0	R1330D
2117.224	0.011	1355986	STOP	n/a	n/a	n/a	-999	10	[-999, -999, -999]	n/a	FR1	0	R1330D
2117.235	0.555	1355997	DISTRACT_END	n/a	n/a	n/a	-999	10	[0, 0, 0]	n/a	FR1	0	R1330D
2117.79	1.679	1356552	RETRIEVAL_ORIENT_START	n/a	n/a	n/a	-999	10	[0, 0, 0]	n/a	FR1	0	R1330D
2119.469	0.001	1358231	RETRIEVAL_ORIENT_END	n/a	n/a	n/a	-999	10	[0, 0, 0]	n/a	FR1	0	R1330D
2119.47	4.307	1358232	REC_START	n/a	n/a	n/a	-999	10	[0, 0, 0]	n/a	FR1	0	R1330D
2123.777	1.34	1362539	REC_WORD	1.34	n/a	BEAN	-999	10	[0, 0, 0]	n/a	FR1	0	R1330D
2125.117	4.61	1363879	REC_WORD	4.61	n/a	STAIR	12	10	[0, 0, 0]	n/a	FR1	0	R1330D
2129.727	1.587	1368488	REC_WORD_VV	1.587	n/a	<>	-999	10	[0, 0, 0]	n/a	FR1	0	R1330D
2131.314	5.158	1370075	REC_WORD	5.158	n/a	ROSE	6	10	[0, 0, 0]	n/a	FR1	0	R1330D
2136.472	0.84	1375233	REC_WORD	0.84	n/a	JET	9	10	[0, 0, 0]	n/a	FR1	0	R1330D
2137.312	12.17	1376073	REC_WORD	12.17	n/a	JEEP	8	10	[0, 0, 0]	n/a	FR1	0	R1330D
2149.482	0.0	1388243	REC_END	n/a	n/a	n/a	-999	10	[0, 0, 0]	n/a	FR1	0	R1330D
2149.482	0.014	1388243	TRIAL_END	n/a	n/a	n/a	-999	10	[0, 0, 0]	n/a	FR1	0	R1330D
2149.496	0.0	1388257	TRIAL_START	n/a	n/a	n/a	-999	11	[0, 0, 0]	n/a	FR1	0	R1330D
2149.496	0.0	1388257	TRIAL	n/a	n/a	n/a	-999	11	[0, 0, 0]	n/a	FR1	0	R1330D
2149.496	1.946	1388257	WAITING_START	n/a	n/a	n/a	-999	11	[0, 0, 0]	n/a	FR1	0	R1330D
2151.442	0.0	1390202	WAITING_END	n/a	n/a	n/a	-999	11	[0, 0, 0]	n/a	FR1	0	R1330D
2151.442	10.429	1390202	COUNTDOWN_START	n/a	n/a	n/a	-999	11	[0, 0, 0]	n/a	FR1	0	R1330D
2161.871	0.001	1400631	COUNTDOWN_END	n/a	n/a	n/a	-999	11	[0, 0, 0]	n/a	FR1	0	R1330D
2161.872	1.054	1400632	ORIENT_START	n/a	n/a	n/a	-999	11	[0, 0, 0]	n/a	FR1	0	R1330D
2162.926	0.001	1401686	ORIENT_END	n/a	n/a	n/a	-999	11	[0, 0, 0]	n/a	FR1	0	R1330D
2162.927	1.026	1401687	ENCODING_START	n/a	n/a	n/a	-999	11	[0, 0, 0]	n/a	FR1	0	R1330D
2163.953	1.625	1402713	WORD	n/a	wordpools/wordpool_EN.txt	SUIT	1	11	[0, 0, 0]	n/a	FR1	0	R1330D
2165.578	0.849	1404338	WORD_OFF	n/a	n/a	SUIT	1	11	[0, 0, 0]	n/a	FR1	0	R1330D
2166.427	1.634	1405187	WORD	n/a	wordpools/wordpool_EN.txt	FENCE	2	11	[0, 0, 0]	n/a	FR1	0	R1330D
2168.061	0.872	1406821	WORD_OFF	n/a	n/a	FENCE	2	11	[0, 0, 0]	n/a	FR1	0	R1330D
2168.933	1.629	1407693	WORD	n/a	wordpools/wordpool_EN.txt	CHAIR	3	11	[0, 0, 0]	n/a	FR1	0	R1330D
2170.562	0.986	1409321	WORD_OFF	n/a	n/a	CHAIR	3	11	[0, 0, 0]	n/a	FR1	0	R1330D
2171.548	1.63	1410307	WORD	n/a	wordpools/wordpool_EN.txt	ROCK	4	11	[0, 0, 0]	n/a	FR1	0	R1330D
2173.178	0.975	1411937	WORD_OFF	n/a	n/a	ROCK	4	11	[0, 0, 0]	n/a	FR1	0	R1330D
2174.153	1.626	1412912	WORD	n/a	wordpools/wordpool_EN.txt	HORN	5	11	[0, 0, 0]	n/a	FR1	0	R1330D
2175.779	1.037	1414538	WORD_OFF	n/a	n/a	HORN	5	11	[0, 0, 0]	n/a	FR1	0	R1330D
2176.816	1.631	1415575	WORD	n/a	wordpools/wordpool_EN.txt	MOON	6	11	[0, 0, 0]	n/a	FR1	0	R1330D
2178.447	0.999	1417206	WORD_OFF	n/a	n/a	MOON	6	11	[0, 0, 0]	n/a	FR1	0	R1330D
2179.446	1.634	1418205	WORD	n/a	wordpools/wordpool_EN.txt	CAR	7	11	[0, 0, 0]	n/a	FR1	0	R1330D
2181.08	1.099	1419839	WORD_OFF	n/a	n/a	CAR	7	11	[0, 0, 0]	n/a	FR1	0	R1330D
2182.179	1.634	1420938	WORD	n/a	wordpools/wordpool_EN.txt	SPARK	8	11	[0, 0, 0]	n/a	FR1	0	R1330D
2183.813	1.081	1422572	WORD_OFF	n/a	n/a	SPARK	8	11	[0, 0, 0]	n/a	FR1	0	R1330D
2184.894	1.638	1423653	WORD	n/a	wordpools/wordpool_EN.txt	ANT	9	11	[0, 0, 0]	n/a	FR1	0	R1330D
2186.532	1.1	1425291	WORD_OFF	n/a	n/a	ANT	9	11	[0, 0, 0]	n/a	FR1	0	R1330D
2187.632	1.632	1426391	WORD	n/a	wordpools/wordpool_EN.txt	GRAPE	10	11	[0, 0, 0]	n/a	FR1	0	R1330D
2189.264	1.135	1428023	WORD_OFF	n/a	n/a	GRAPE	10	11	[0, 0, 0]	n/a	FR1	0	R1330D
2190.399	1.633	1429157	WORD	n/a	wordpools/wordpool_EN.txt	STREET	11	11	[0, 0, 0]	n/a	FR1	0	R1330D
2192.032	1.083	1430790	WORD_OFF	n/a	n/a	STREET	11	11	[0, 0, 0]	n/a	FR1	0	R1330D
2193.115	1.634	1431873	WORD	n/a	wordpools/wordpool_EN.txt	TEETH	12	11	[0, 0, 0]	n/a	FR1	0	R1330D
2194.749	0.0	1433507	ENCODING_END	n/a	n/a	n/a	-999	11	[0, 0, 0]	n/a	FR1	0	R1330D
2194.749	0.001	1433507	WORD_OFF	n/a	n/a	TEETH	12	11	[0, 0, 0]	n/a	FR1	0	R1330D
2194.75	0.0	1433508	DISTRACT_START	n/a	n/a	n/a	-999	11	[0, 0, 0]	n/a	FR1	0	R1330D
2194.75	0.015	1433508	START	n/a	n/a	n/a	-999	11	[-999, -999, -999]	n/a	FR1	0	R1330D
2194.765	4.584	1433523	PROB	4.584	n/a	n/a	-999	11	[5, 6, 4]	15	FR1	0	R1330D
2199.349	4.136	1438107	PROB	4.136	n/a	n/a	-999	11	[4, 9, 4]	17	FR1	0	R1330D
2203.485	4.616	1442243	PROB	4.616	n/a	n/a	-999	11	[8, 7, 4]	19	FR1	0	R1330D
2208.101	3.817	1446859	PROB	3.817	n/a	n/a	-999	11	[9, 1, 5]	15	FR1	0	R1330D
2211.918	4.847	1450675	PROB	4.847	n/a	n/a	-999	11	[3, 7, 8]	18	FR1	0	R1330D
2216.765	0.021	1455522	STOP	n/a	n/a	n/a	-999	11	[-999, -999, -999]	n/a	FR1	0	R1330D
2216.786	0.669	1455543	DISTRACT_END	n/a	n/a	n/a	-999	11	[0, 0, 0]	n/a	FR1	0	R1330D
2217.455	1.715	1456212	RETRIEVAL_ORIENT_START	n/a	n/a	n/a	-999	11	[0, 0, 0]	n/a	FR1	0	R1330D
2219.17	0.0	1457927	RETRIEVAL_ORIENT_END	n/a	n/a	n/a	-999	11	[0, 0, 0]	n/a	FR1	0	R1330D
2219.17	0.783	1457927	REC_START	n/a	n/a	n/a	-999	11	[0, 0, 0]	n/a	FR1	0	R1330D
2219.953	2.281	1458710	REC_WORD_VV	2.281	n/a	<>	-999	11	[0, 0, 0]	n/a	FR1	0	R1330D
2222.234	0.82	1460991	REC_WORD	0.82	n/a	SPARK	8	11	[0, 0, 0]	n/a	FR1	0	R1330D
2223.054	1.45	1461811	REC_WORD	1.45	n/a	ANT	9	11	[0, 0, 0]	n/a	FR1	0	R1330D
2224.504	1.576	1463261	REC_WORD	1.576	n/a	CAR	7	11	[0, 0, 0]	n/a	FR1	0	R1330D
2226.08	12.487	1464837	REC_WORD	12.487	n/a	STREET	11	11	[0, 0, 0]	n/a	FR1	0	R1330D
2238.567	1.174	1477323	REC_WORD	1.174	n/a	JEEP	-999	11	[0, 0, 0]	n/a	FR1	0	R1330D
2239.741	9.443	1478497	REC_WORD	9.443	n/a	JEEP	-999	11	[0, 0, 0]	n/a	FR1	0	R1330D
2249.184	0.0	1487940	REC_END	n/a	n/a	n/a	-999	11	[0, 0, 0]	n/a	FR1	0	R1330D
2249.184	0.016	1487940	TRIAL_END	n/a	n/a	n/a	-999	11	[0, 0, 0]	n/a	FR1	0	R1330D
2249.2	0.0	1487956	TRIAL_START	n/a	n/a	n/a	-999	12	[0, 0, 0]	n/a	FR1	0	R1330D
2249.2	0.0	1487956	TRIAL	n/a	n/a	n/a	-999	12	[0, 0, 0]	n/a	FR1	0	R1330D
2249.2	2.693	1487956	WAITING_START	n/a	n/a	n/a	-999	12	[0, 0, 0]	n/a	FR1	0	R1330D
2251.893	0.0	1490648	WAITING_END	n/a	n/a	n/a	-999	12	[0, 0, 0]	n/a	FR1	0	R1330D
2251.893	10.43	1490648	COUNTDOWN_START	n/a	n/a	n/a	-999	12	[0, 0, 0]	n/a	FR1	0	R1330D
2262.323	0.001	1501078	COUNTDOWN_END	n/a	n/a	n/a	-999	12	[0, 0, 0]	n/a	FR1	0	R1330D
2262.324	1.021	1501079	ORIENT_START	n/a	n/a	n/a	-999	12	[0, 0, 0]	n/a	FR1	0	R1330D
2263.345	0.0	1502100	ENCODING_START	n/a	n/a	n/a	-999	12	[0, 0, 0]	n/a	FR1	0	R1330D
2263.345	0.853	1502100	ORIENT_END	n/a	n/a	n/a	-999	12	[0, 0, 0]	n/a	FR1	0	R1330D
2264.198	1.631	1502953	WORD	n/a	wordpools/wordpool_EN.txt	SEED	1	12	[0, 0, 0]	n/a	FR1	0	R1330D
2265.829	1.145	1504584	WORD_OFF	n/a	n/a	SEED	1	12	[0, 0, 0]	n/a	FR1	0	R1330D
2266.974	1.606	1505729	WORD	n/a	wordpools/wordpool_EN.txt	FOAM	2	12	[0, 0, 0]	n/a	FR1	0	R1330D
2268.58	1.023	1507335	WORD_OFF	n/a	n/a	FOAM	2	12	[0, 0, 0]	n/a	FR1	0	R1330D
2269.603	1.626	1508357	WORD	n/a	wordpools/wordpool_EN.txt	TRASH	3	12	[0, 0, 0]	n/a	FR1	0	R1330D
2271.229	1.06	1509983	WORD_OFF	n/a	n/a	TRASH	3	12	[0, 0, 0]	n/a	FR1	0	R1330D
2272.289	1.624	1511043	WORD	n/a	wordpools/wordpool_EN.txt	STONE	4	12	[0, 0, 0]	n/a	FR1	0	R1330D
2273.913	1.119	1512667	WORD_OFF	n/a	n/a	STONE	4	12	[0, 0, 0]	n/a	FR1	0	R1330D
2275.032	1.633	1513786	WORD	n/a	wordpools/wordpool_EN.txt	BIRD	5	12	[0, 0, 0]	n/a	FR1	0	R1330D
2276.665	1.148	1515419	WORD_OFF	n/a	n/a	BIRD	5	12	[0, 0, 0]	n/a	FR1	0	R1330D
2277.813	1.619	1516567	WORD	n/a	wordpools/wordpool_EN.txt	BEE	6	12	[0, 0, 0]	n/a	FR1	0	R1330D
2279.432	0.851	1518186	WORD_OFF	n/a	n/a	BEE	6	12	[0, 0, 0]	n/a	FR1	0	R1330D
2280.283	1.632	1519037	WORD	n/a	wordpools/wordpool_EN.txt	STRING	7	12	[0, 0, 0]	n/a	FR1	0	R1330D
2281.915	0.769	1520669	WORD_OFF	n/a	n/a	STRING	7	12	[0, 0, 0]	n/a	FR1	0	R1330D
2282.684	1.631	1521438	WORD	n/a	wordpools/wordpool_EN.txt	PRINCE	8	12	[0, 0, 0]	n/a	FR1	0	R1330D
2284.315	0.803	1523069	WORD_OFF	n/a	n/a	PRINCE	8	12	[0, 0, 0]	n/a	FR1	0	R1330D
2285.118	1.631	1523872	WORD	n/a	wordpools/wordpool_EN.txt	MAP	9	12	[0, 0, 0]	n/a	FR1	0	R1330D
2286.749	0.763	1525503	WORD_OFF	n/a	n/a	MAP	9	12	[0, 0, 0]	n/a	FR1	0	R1330D
2287.512	1.621	1526266	WORD	n/a	wordpools/wordpool_EN.txt	PALM	10	12	[0, 0, 0]	n/a	FR1	0	R1330D
2289.133	1.103	1527887	WORD_OFF	n/a	n/a	PALM	10	12	[0, 0, 0]	n/a	FR1	0	R1330D
2290.236	1.631	1528989	WORD	n/a	wordpools/wordpool_EN.txt	MOLE	11	12	[0, 0, 0]	n/a	FR1	0	R1330D
2291.867	0.767	1530620	WORD_OFF	n/a	n/a	MOLE	11	12	[0, 0, 0]	n/a	FR1	0	R1330D
2292.634	1.633	1531387	WORD	n/a	wordpools/wordpool_EN.txt	FLOOR	12	12	[0, 0, 0]	n/a	FR1	0	R1330D
2294.267	0.0	1533020	ENCODING_END	n/a	n/a	n/a	-999	12	[0, 0, 0]	n/a	FR1	0	R1330D
2294.267	0.001	1533020	WORD_OFF	n/a	n/a	FLOOR	12	12	[0, 0, 0]	n/a	FR1	0	R1330D
2294.268	0.0	1533021	DISTRACT_START	n/a	n/a	n/a	-999	12	[0, 0, 0]	n/a	FR1	0	R1330D
2294.268	0.015	1533021	START	n/a	n/a	n/a	-999	12	[-999, -999, -999]	n/a	FR1	0	R1330D
2294.283	6.118	1533036	PROB	6.118	n/a	n/a	-999	12	[8, 6, 7]	21	FR1	0	R1330D
2300.401	5.951	1539154	PROB	5.951	n/a	n/a	-999	12	[4, 5, 6]	15	FR1	0	R1330D
2306.352	4.384	1545105	PROB	4.384	n/a	n/a	-999	12	[7, 2, 8]	17	FR1	0	R1330D
2310.736	3.849	1549488	PROB	3.849	n/a	n/a	-999	12	[8, 3, 3]	14	FR1	0	R1330D
2314.585	0.02	1553337	STOP	n/a	n/a	n/a	-999	12	[-999, -999, -999]	n/a	FR1	0	R1330D
2314.605	0.616	1553357	DISTRACT_END	n/a	n/a	n/a	-999	12	[0, 0, 0]	n/a	FR1	0	R1330D
2315.221	1.567	1553973	RETRIEVAL_ORIENT_START	n/a	n/a	n/a	-999	12	[0, 0, 0]	n/a	FR1	0	R1330D
2316.788	0.0	1555540	RETRIEVAL_ORIENT_END	n/a	n/a	n/a	-999	12	[0, 0, 0]	n/a	FR1	0	R1330D
2316.788	9.582	1555540	REC_START	n/a	n/a	n/a	-999	12	[0, 0, 0]	n/a	FR1	0	R1330D
2326.37	11.095	1565122	REC_WORD	11.095	n/a	FOAM	2	12	[0, 0, 0]	n/a	FR1	0	R1330D
2337.465	1.914	1576216	REC_WORD	1.914	n/a	BEE	6	12	[0, 0, 0]	n/a	FR1	0	R1330D
2339.379	4.338	1578130	REC_WORD	4.338	n/a	BIRD	5	12	[0, 0, 0]	n/a	FR1	0	R1330D
2343.717	3.082	1582468	REC_WORD	3.082	n/a	FLOOR	12	12	[0, 0, 0]	n/a	FR1	0	R1330D
2346.799	0.0	1585550	TRIAL_END	n/a	n/a	n/a	-999	12	[0, 0, 0]	n/a	FR1	0	R1330D
2346.799	0.014	1585550	REC_END	n/a	n/a	n/a	-999	12	[0, 0, 0]	n/a	FR1	0	R1330D
2346.813	0.001	1585564	TRIAL_START	n/a	n/a	n/a	-999	13	[0, 0, 0]	n/a	FR1	0	R1330D
2346.814	0.0	1585565	TRIAL	n/a	n/a	n/a	-999	13	[0, 0, 0]	n/a	FR1	0	R1330D
2346.814	2.396	1585565	WAITING_START	n/a	n/a	n/a	-999	13	[0, 0, 0]	n/a	FR1	0	R1330D
2349.21	0.001	1587961	WAITING_END	n/a	n/a	n/a	-999	13	[0, 0, 0]	n/a	FR1	0	R1330D
2349.211	10.428	1587962	COUNTDOWN_START	n/a	n/a	n/a	-999	13	[0, 0, 0]	n/a	FR1	0	R1330D
2359.639	0.001	1598389	COUNTDOWN_END	n/a	n/a	n/a	-999	13	[0, 0, 0]	n/a	FR1	0	R1330D
2359.64	1.139	1598390	ORIENT_START	n/a	n/a	n/a	-999	13	[0, 0, 0]	n/a	FR1	0	R1330D
2360.779	0.001	1599529	ORIENT_END	n/a	n/a	n/a	-999	13	[0, 0, 0]	n/a	FR1	0	R1330D
2360.78	1.056	1599530	ENCODING_START	n/a	n/a	n/a	-999	13	[0, 0, 0]	n/a	FR1	0	R1330D
2361.836	1.628	1600586	WORD	n/a	wordpools/wordpool_EN.txt	HAT	1	13	[0, 0, 0]	n/a	FR1	0	R1330D
2363.464	0.855	1602214	WORD_OFF	n/a	n/a	HAT	1	13	[0, 0, 0]	n/a	FR1	0	R1330D
2364.319	1.628	1603069	WORD	n/a	wordpools/wordpool_EN.txt	PHONE	2	13	[0, 0, 0]	n/a	FR1	0	R1330D
2365.947	0.821	1604697	WORD_OFF	n/a	n/a	PHONE	2	13	[0, 0, 0]	n/a	FR1	0	R1330D
2366.768	1.629	1605518	WORD	n/a	wordpools/wordpool_EN.txt	SHIRT	3	13	[0, 0, 0]	n/a	FR1	0	R1330D
2368.397	1.002	1607147	WORD_OFF	n/a	n/a	SHIRT	3	13	[0, 0, 0]	n/a	FR1	0	R1330D
2369.399	1.632	1608149	WORD	n/a	wordpools/wordpool_EN.txt	PIPE	4	13	[0, 0, 0]	n/a	FR1	0	R1330D
2371.031	1.118	1609780	WORD_OFF	n/a	n/a	PIPE	4	13	[0, 0, 0]	n/a	FR1	0	R1330D
2372.149	1.633	1610898	WORD	n/a	wordpools/wordpool_EN.txt	ARM	5	13	[0, 0, 0]	n/a	FR1	0	R1330D
2373.782	0.91	1612531	WORD_OFF	n/a	n/a	ARM	5	13	[0, 0, 0]	n/a	FR1	0	R1330D
2374.692	1.623	1613441	WORD	n/a	wordpools/wordpool_EN.txt	TOAST	6	13	[0, 0, 0]	n/a	FR1	0	R1330D
2376.315	0.989	1615064	WORD_OFF	n/a	n/a	TOAST	6	13	[0, 0, 0]	n/a	FR1	0	R1330D
2377.304	1.629	1616053	WORD	n/a	wordpools/wordpool_EN.txt	CUBE	7	13	[0, 0, 0]	n/a	FR1	0	R1330D
2378.933	1.14	1617682	WORD_OFF	n/a	n/a	CUBE	7	13	[0, 0, 0]	n/a	FR1	0	R1330D
2380.073	1.611	1618822	WORD	n/a	wordpools/wordpool_EN.txt	PEARL	8	13	[0, 0, 0]	n/a	FR1	0	R1330D
2381.684	1.135	1620433	WORD_OFF	n/a	n/a	PEARL	8	13	[0, 0, 0]	n/a	FR1	0	R1330D
2382.819	1.632	1621568	WORD	n/a	wordpools/wordpool_EN.txt	SHARK	9	13	[0, 0, 0]	n/a	FR1	0	R1330D
2384.451	0.897	1623200	WORD_OFF	n/a	n/a	SHARK	9	13	[0, 0, 0]	n/a	FR1	0	R1330D
2385.348	1.636	1624097	WORD	n/a	wordpools/wordpool_EN.txt	FOOT	10	13	[0, 0, 0]	n/a	FR1	0	R1330D
2386.984	1.1	1625733	WORD_OFF	n/a	n/a	FOOT	10	13	[0, 0, 0]	n/a	FR1	0	R1330D
2388.084	1.634	1626833	WORD	n/a	wordpools/wordpool_EN.txt	TAIL	11	13	[0, 0, 0]	n/a	FR1	0	R1330D
2389.718	0.841	1628466	WORD_OFF	n/a	n/a	TAIL	11	13	[0, 0, 0]	n/a	FR1	0	R1330D
2390.559	1.626	1629307	WORD	n/a	wordpools/wordpool_EN.txt	ARK	12	13	[0, 0, 0]	n/a	FR1	0	R1330D
2392.185	0.0	1630933	ENCODING_END	n/a	n/a	n/a	-999	13	[0, 0, 0]	n/a	FR1	0	R1330D
2392.185	0.001	1630933	WORD_OFF	n/a	n/a	ARK	12	13	[0, 0, 0]	n/a	FR1	0	R1330D
2392.186	0.0	1630934	DISTRACT_START	n/a	n/a	n/a	-999	13	[0, 0, 0]	n/a	FR1	0	R1330D
2392.186	0.015	1630934	START	n/a	n/a	n/a	-999	13	[-999, -999, -999]	n/a	FR1	0	R1330D
2392.201	4.868	1630949	PROB	4.868	n/a	n/a	-999	13	[4, 6, 5]	15	FR1	0	R1330D
2397.069	3.351	1635817	PROB	3.351	n/a	n/a	-999	13	[7, 3, 2]	12	FR1	0	R1330D
2400.42	6.384	1639168	PROB	6.384	n/a	n/a	-999	13	[6, 5, 8]	19	FR1	0	R1330D
2406.804	3.501	1645552	PROB	3.501	n/a	n/a	-999	13	[9, 1, 5]	15	FR1	0	R1330D
2410.305	3.644	1649052	PROB	3.644	n/a	n/a	-999	13	[8, 1, 1]	10	FR1	0	R1330D
2413.949	0.006	1652696	STOP	n/a	n/a	n/a	-999	13	[-999, -999, -999]	n/a	FR1	0	R1330D
2413.955	0.515	1652702	DISTRACT_END	n/a	n/a	n/a	-999	13	[0, 0, 0]	n/a	FR1	0	R1330D
2414.47	1.619	1653217	RETRIEVAL_ORIENT_START	n/a	n/a	n/a	-999	13	[0, 0, 0]	n/a	FR1	0	R1330D
2416.089	0.001	1654836	RETRIEVAL_ORIENT_END	n/a	n/a	n/a	-999	13	[0, 0, 0]	n/a	FR1	0	R1330D
2416.09	1.054	1654837	REC_START	n/a	n/a	n/a	-999	13	[0, 0, 0]	n/a	FR1	0	R1330D
2417.144	1.073	1655891	REC_WORD_VV	1.073	n/a	<>	-999	13	[0, 0, 0]	n/a	FR1	0	R1330D
2418.217	1.637	1656964	REC_WORD	1.637	n/a	SHARK	9	13	[0, 0, 0]	n/a	FR1	0	R1330D
2419.854	1.433	1658601	REC_WORD	1.433	n/a	FOOT	10	13	[0, 0, 0]	n/a	FR1	0	R1330D
2421.287	14.954	1660034	REC_WORD	14.954	n/a	TAIL	11	13	[0, 0, 0]	n/a	FR1	0	R1330D
2436.241	3.406	1674987	REC_WORD	3.406	n/a	FLOOR	-999	13	[0, 0, 0]	n/a	FR1	0	R1330D
2439.647	6.456	1678393	REC_WORD	6.456	n/a	DOOR	-999	13	[0, 0, 0]	n/a	FR1	0	R1330D
2446.103	0.0	1684849	TRIAL_END	n/a	n/a	n/a	-999	13	[0, 0, 0]	n/a	FR1	0	R1330D
2446.103	0.014	1684849	REC_END	n/a	n/a	n/a	-999	13	[0, 0, 0]	n/a	FR1	0	R1330D
2446.117	0.0	1684863	TRIAL_START	n/a	n/a	n/a	-999	14	[0, 0, 0]	n/a	FR1	0	R1330D
2446.117	0.001	1684863	TRIAL	n/a	n/a	n/a	-999	14	[0, 0, 0]	n/a	FR1	0	R1330D
2446.118	2.094	1684864	WAITING_START	n/a	n/a	n/a	-999	14	[0, 0, 0]	n/a	FR1	0	R1330D
2448.212	0.0	1686958	WAITING_END	n/a	n/a	n/a	-999	14	[0, 0, 0]	n/a	FR1	0	R1330D
2448.212	10.429	1686958	COUNTDOWN_START	n/a	n/a	n/a	-999	14	[0, 0, 0]	n/a	FR1	0	R1330D
2458.641	0.0	1697386	COUNTDOWN_END	n/a	n/a	n/a	-999	14	[0, 0, 0]	n/a	FR1	0	R1330D
2458.641	1.106	1697386	ORIENT_START	n/a	n/a	n/a	-999	14	[0, 0, 0]	n/a	FR1	0	R1330D
2459.747	0.001	1698492	ORIENT_END	n/a	n/a	n/a	-999	14	[0, 0, 0]	n/a	FR1	0	R1330D
2459.748	0.967	1698493	ENCODING_START	n/a	n/a	n/a	-999	14	[0, 0, 0]	n/a	FR1	0	R1330D
2460.715	1.633	1699460	WORD	n/a	wordpools/wordpool_EN.txt	BLUSH	1	14	[0, 0, 0]	n/a	FR1	0	R1330D
2462.348	1.086	1701093	WORD_OFF	n/a	n/a	BLUSH	1	14	[0, 0, 0]	n/a	FR1	0	R1330D
2463.434	1.631	1702179	WORD	n/a	wordpools/wordpool_EN.txt	MILK	2	14	[0, 0, 0]	n/a	FR1	0	R1330D
2465.065	0.969	1703810	WORD_OFF	n/a	n/a	MILK	2	14	[0, 0, 0]	n/a	FR1	0	R1330D
2466.034	1.616	1704779	WORD	n/a	wordpools/wordpool_EN.txt	PLANT	3	14	[0, 0, 0]	n/a	FR1	0	R1330D
2467.65	1.027	1706395	WORD_OFF	n/a	n/a	PLANT	3	14	[0, 0, 0]	n/a	FR1	0	R1330D
2468.677	1.622	1707422	WORD	n/a	wordpools/wordpool_EN.txt	CLOWN	4	14	[0, 0, 0]	n/a	FR1	0	R1330D
2470.299	0.841	1709043	WORD_OFF	n/a	n/a	CLOWN	4	14	[0, 0, 0]	n/a	FR1	0	R1330D
2471.14	1.626	1709884	WORD	n/a	wordpools/wordpool_EN.txt	PASTE	5	14	[0, 0, 0]	n/a	FR1	0	R1330D
2472.766	1.04	1711510	WORD_OFF	n/a	n/a	PASTE	5	14	[0, 0, 0]	n/a	FR1	0	R1330D
2473.806	1.628	1712550	WORD	n/a	wordpools/wordpool_EN.txt	FORK	6	14	[0, 0, 0]	n/a	FR1	0	R1330D
2475.434	1.008	1714178	WORD_OFF	n/a	n/a	FORK	6	14	[0, 0, 0]	n/a	FR1	0	R1330D
2476.442	1.625	1715186	WORD	n/a	wordpools/wordpool_EN.txt	TEA	7	14	[0, 0, 0]	n/a	FR1	0	R1330D
2478.067	0.806	1716811	WORD_OFF	n/a	n/a	TEA	7	14	[0, 0, 0]	n/a	FR1	0	R1330D
2478.873	1.629	1717617	WORD	n/a	wordpools/wordpool_EN.txt	FORT	8	14	[0, 0, 0]	n/a	FR1	0	R1330D
2480.502	1.052	1719246	WORD_OFF	n/a	n/a	FORT	8	14	[0, 0, 0]	n/a	FR1	0	R1330D
2481.554	1.631	1720298	WORD	n/a	wordpools/wordpool_EN.txt	NOSE	9	14	[0, 0, 0]	n/a	FR1	0	R1330D
2483.185	0.967	1721929	WORD_OFF	n/a	n/a	NOSE	9	14	[0, 0, 0]	n/a	FR1	0	R1330D
2484.152	1.633	1722896	WORD	n/a	wordpools/wordpool_EN.txt	ROAD	10	14	[0, 0, 0]	n/a	FR1	0	R1330D
2485.785	0.959	1724529	WORD_OFF	n/a	n/a	ROAD	10	14	[0, 0, 0]	n/a	FR1	0	R1330D
2486.744	1.625	1725488	WORD	n/a	wordpools/wordpool_EN.txt	LOCK	11	14	[0, 0, 0]	n/a	FR1	0	R1330D
2488.369	0.786	1727113	WORD_OFF	n/a	n/a	LOCK	11	14	[0, 0, 0]	n/a	FR1	0	R1330D
2489.155	1.631	1727899	WORD	n/a	wordpools/wordpool_EN.txt	DRUM	12	14	[0, 0, 0]	n/a	FR1	0	R1330D
2490.786	0.001	1729529	WORD_OFF	n/a	n/a	DRUM	12	14	[0, 0, 0]	n/a	FR1	0	R1330D
2490.787	0.0	1729530	DISTRACT_START	n/a	n/a	n/a	-999	14	[0, 0, 0]	n/a	FR1	0	R1330D
2490.787	0.0	1729530	ENCODING_END	n/a	n/a	n/a	-999	14	[0, 0, 0]	n/a	FR1	0	R1330D
2490.787	0.016	1729530	START	n/a	n/a	n/a	-999	14	[-999, -999, -999]	n/a	FR1	0	R1330D
2490.803	4.484	1729546	PROB	4.484	n/a	n/a	-999	14	[3, 1, 2]	6	FR1	0	R1330D
2495.287	5.101	1734030	PROB	5.101	n/a	n/a	-999	14	[7, 9, 6]	22	FR1	0	R1330D
2500.388	4.235	1739131	PROB	4.235	n/a	n/a	-999	14	[5, 5, 7]	17	FR1	0	R1330D
2504.623	3.283	1743366	PROB	3.283	n/a	n/a	-999	14	[6, 4, 2]	12	FR1	0	R1330D
2507.906	5.763	1746649	PROB	5.763	n/a	n/a	-999	14	[2, 8, 9]	19	FR1	0	R1330D
2513.669	0.006	1752411	STOP	n/a	n/a	n/a	-999	14	[-999, -999, -999]	n/a	FR1	0	R1330D
2513.675	0.633	1752417	DISTRACT_END	n/a	n/a	n/a	-999	14	[0, 0, 0]	n/a	FR1	0	R1330D
2514.308	1.666	1753050	RETRIEVAL_ORIENT_START	n/a	n/a	n/a	-999	14	[0, 0, 0]	n/a	FR1	0	R1330D
2515.974	0.001	1754716	RETRIEVAL_ORIENT_END	n/a	n/a	n/a	-999	14	[0, 0, 0]	n/a	FR1	0	R1330D
2515.975	1.475	1754717	REC_START	n/a	n/a	n/a	-999	14	[0, 0, 0]	n/a	FR1	0	R1330D
2517.45	0.795	1756192	REC_WORD	0.795	n/a	BLUSH	1	14	[0, 0, 0]	n/a	FR1	0	R1330D
2518.245	1.775	1756987	REC_WORD	1.775	n/a	CLOWN	4	14	[0, 0, 0]	n/a	FR1	0	R1330D
2520.02	12.35	1758762	REC_WORD	12.35	n/a	NOSE	9	14	[0, 0, 0]	n/a	FR1	0	R1330D
2532.37	13.619	1771111	REC_WORD	13.619	n/a	SHIRT	-999	14	[0, 0, 0]	n/a	FR1	0	R1330D
2545.989	0.0	1784730	REC_END	n/a	n/a	n/a	-999	14	[0, 0, 0]	n/a	FR1	0	R1330D
2545.989	0.014	1784730	TRIAL_END	n/a	n/a	n/a	-999	14	[0, 0, 0]	n/a	FR1	0	R1330D
2546.003	0.0	1784744	WAITING_START	n/a	n/a	n/a	-999	15	[0, 0, 0]	n/a	FR1	0	R1330D
2546.003	0.0	1784744	TRIAL	n/a	n/a	n/a	-999	15	[0, 0, 0]	n/a	FR1	0	R1330D
2546.003	2.377	1784744	TRIAL_START	n/a	n/a	n/a	-999	15	[0, 0, 0]	n/a	FR1	0	R1330D
2548.38	0.0	1787121	WAITING_END	n/a	n/a	n/a	-999	15	[0, 0, 0]	n/a	FR1	0	R1330D
2548.38	10.43	1787121	COUNTDOWN_START	n/a	n/a	n/a	-999	15	[0, 0, 0]	n/a	FR1	0	R1330D
2558.81	0.0	1797550	COUNTDOWN_END	n/a	n/a	n/a	-999	15	[0, 0, 0]	n/a	FR1	0	R1330D
2558.81	1.172	1797550	ORIENT_START	n/a	n/a	n/a	-999	15	[0, 0, 0]	n/a	FR1	0	R1330D
2559.982	0.001	1798722	ORIENT_END	n/a	n/a	n/a	-999	15	[0, 0, 0]	n/a	FR1	0	R1330D
2559.983	1.13	1798723	ENCODING_START	n/a	n/a	n/a	-999	15	[0, 0, 0]	n/a	FR1	0	R1330D
2561.113	1.636	1799853	WORD	n/a	wordpools/wordpool_EN.txt	LAKE	1	15	[0, 0, 0]	n/a	FR1	0	R1330D
2562.749	1.0	1801489	WORD_OFF	n/a	n/a	LAKE	1	15	[0, 0, 0]	n/a	FR1	0	R1330D
2563.749	1.634	1802489	WORD	n/a	wordpools/wordpool_EN.txt	SHELL	2	15	[0, 0, 0]	n/a	FR1	0	R1330D
2565.383	1.02	1804123	WORD_OFF	n/a	n/a	SHELL	2	15	[0, 0, 0]	n/a	FR1	0	R1330D
2566.403	1.631	1805143	WORD	n/a	wordpools/wordpool_EN.txt	SHEEP	3	15	[0, 0, 0]	n/a	FR1	0	R1330D
2568.034	1.009	1806774	WORD_OFF	n/a	n/a	SHEEP	3	15	[0, 0, 0]	n/a	FR1	0	R1330D
2569.043	1.609	1807783	WORD	n/a	wordpools/wordpool_EN.txt	SAIL	4	15	[0, 0, 0]	n/a	FR1	0	R1330D
2570.652	0.836	1809391	WORD_OFF	n/a	n/a	SAIL	4	15	[0, 0, 0]	n/a	FR1	0	R1330D
2571.488	1.63	1810227	WORD	n/a	wordpools/wordpool_EN.txt	MAIL	5	15	[0, 0, 0]	n/a	FR1	0	R1330D
2573.118	0.871	1811857	WORD_OFF	n/a	n/a	MAIL	5	15	[0, 0, 0]	n/a	FR1	0	R1330D
2573.989	1.63	1812728	WORD	n/a	wordpools/wordpool_EN.txt	MOUSE	6	15	[0, 0, 0]	n/a	FR1	0	R1330D
2575.619	0.884	1814358	WORD_OFF	n/a	n/a	MOUSE	6	15	[0, 0, 0]	n/a	FR1	0	R1330D
2576.503	1.632	1815242	WORD	n/a	wordpools/wordpool_EN.txt	DESK	7	15	[0, 0, 0]	n/a	FR1	0	R1330D
2578.135	0.998	1816874	WORD_OFF	n/a	n/a	DESK	7	15	[0, 0, 0]	n/a	FR1	0	R1330D
2579.133	1.636	1817872	WORD	n/a	wordpools/wordpool_EN.txt	CLIFF	8	15	[0, 0, 0]	n/a	FR1	0	R1330D
2580.769	0.816	1819508	WORD_OFF	n/a	n/a	CLIFF	8	15	[0, 0, 0]	n/a	FR1	0	R1330D
2581.585	1.635	1820324	WORD	n/a	wordpools/wordpool_EN.txt	SKY	9	15	[0, 0, 0]	n/a	FR1	0	R1330D
2583.22	0.85	1821959	WORD_OFF	n/a	n/a	SKY	9	15	[0, 0, 0]	n/a	FR1	0	R1330D
2584.07	1.635	1822809	WORD	n/a	wordpools/wordpool_EN.txt	WAND	10	15	[0, 0, 0]	n/a	FR1	0	R1330D
2585.705	0.824	1824444	WORD_OFF	n/a	n/a	WAND	10	15	[0, 0, 0]	n/a	FR1	0	R1330D
2586.529	1.625	1825268	WORD	n/a	wordpools/wordpool_EN.txt	FLAME	11	15	[0, 0, 0]	n/a	FR1	0	R1330D
2588.154	1.098	1826893	WORD_OFF	n/a	n/a	FLAME	11	15	[0, 0, 0]	n/a	FR1	0	R1330D
2589.252	1.636	1827991	WORD	n/a	wordpools/wordpool_EN.txt	PURSE	12	15	[0, 0, 0]	n/a	FR1	0	R1330D
2590.888	0.0	1829626	ENCODING_END	n/a	n/a	n/a	-999	15	[0, 0, 0]	n/a	FR1	0	R1330D
2590.888	0.001	1829626	WORD_OFF	n/a	n/a	PURSE	12	15	[0, 0, 0]	n/a	FR1	0	R1330D
2590.889	0.0	1829627	DISTRACT_START	n/a	n/a	n/a	-999	15	[0, 0, 0]	n/a	FR1	0	R1330D
2590.889	0.015	1829627	START	n/a	n/a	n/a	-999	15	[-999, -999, -999]	n/a	FR1	0	R1330D
2590.904	5.468	1829642	PROB	5.468	n/a	n/a	-999	15	[3, 2, 9]	14	FR1	0	R1330D
2596.372	6.651	1835110	PROB	6.651	n/a	n/a	-999	15	[7, 9, 9]	25	FR1	0	R1330D
2603.023	4.801	1841761	PROB	4.801	n/a	n/a	-999	15	[8, 2, 1]	11	FR1	0	R1330D
2607.824	4.425	1846562	PROB	4.425	n/a	n/a	-999	15	[8, 6, 3]	17	FR1	0	R1330D
2612.249	0.009	1850986	STOP	n/a	n/a	n/a	-999	15	[-999, -999, -999]	n/a	FR1	0	R1330D
2612.258	0.571	1850995	DISTRACT_END	n/a	n/a	n/a	-999	15	[0, 0, 0]	n/a	FR1	0	R1330D
2612.829	1.697	1851566	RETRIEVAL_ORIENT_START	n/a	n/a	n/a	-999	15	[0, 0, 0]	n/a	FR1	0	R1330D
2614.526	0.001	1853263	RETRIEVAL_ORIENT_END	n/a	n/a	n/a	-999	15	[0, 0, 0]	n/a	FR1	0	R1330D
2614.527	0.981	1853264	REC_START	n/a	n/a	n/a	-999	15	[0, 0, 0]	n/a	FR1	0	R1330D
2615.508	2.292	1854245	REC_WORD_VV	2.292	n/a	<>	-999	15	[0, 0, 0]	n/a	FR1	0	R1330D
2617.8	5.489	1856537	REC_WORD	5.489	n/a	WAND	10	15	[0, 0, 0]	n/a	FR1	0	R1330D
2623.289	3.521	1862026	REC_WORD	3.521	n/a	SEA	-999	15	[0, 0, 0]	n/a	FR1	0	R1330D
2626.81	2.647	1865547	REC_WORD	2.647	n/a	SNAIL	-999	15	[0, 0, 0]	n/a	FR1	0	R1330D
2629.457	15.081	1868193	REC_WORD	15.081	n/a	LAKE	1	15	[0, 0, 0]	n/a	FR1	0	R1330D
2644.538	0.0	1883274	REC_END	n/a	n/a	n/a	-999	15	[0, 0, 0]	n/a	FR1	0	R1330D
2644.538	0.016	1883274	TRIAL_END	n/a	n/a	n/a	-999	15	[0, 0, 0]	n/a	FR1	0	R1330D
2644.554	0.0	1883290	TRIAL	n/a	n/a	n/a	-999	16	[0, 0, 0]	n/a	FR1	0	R1330D
2644.554	0.001	1883290	TRIAL_START	n/a	n/a	n/a	-999	16	[0, 0, 0]	n/a	FR1	0	R1330D
2644.555	0.0	1883291	WAITING_START	n/a	n/a	n/a	-999	16	[0, 0, 0]	n/a	FR1	0	R1330D
