onset	duration	sample	trial_type	response_time	stim_file	item_name	serialpos	list	test	answer	experiment	session	subject
0.0	205.112	50895	SESS_START	n/a	n/a	n/a	-999	-999	[0, 0, 0]	n/a	FR1	0	R1108J
205.112	10.428	256004	COUNTDOWN_START	n/a	n/a	n/a	-999	-999	[0, 0, 0]	n/a	FR1	0	R1108J
215.54	0.008	266432	COUNTDOWN_END	n/a	n/a	n/a	-999	-999	[0, 0, 0]	n/a	FR1	0	R1108J
215.548	3.583	266440	PRACTICE_ORIENT	n/a	n/a	n/a	-999	-999	[0, 0, 0]	n/a	FR1	0	R1108J
219.131	2.551	270023	PRACTICE_WORD	n/a	n/a	CHEST	1	-1	[0, 0, 0]	n/a	FR1	0	R1108J
221.682	2.633	272574	PRACTICE_WORD	n/a	n/a	CAMEL	2	-1	[0, 0, 0]	n/a	FR1	0	R1108J
224.315	2.567	275207	PRACTICE_WORD	n/a	n/a	RING	3	-1	[0, 0, 0]	n/a	FR1	0	R1108J
226.882	2.55	277774	PRACTICE_WORD	n/a	n/a	FLOOD	4	-1	[0, 0, 0]	n/a	FR1	0	R1108J
229.432	2.45	280324	PRACTICE_WORD	n/a	n/a	BEAM	5	-1	[0, 0, 0]	n/a	FR1	0	R1108J
231.882	2.568	282774	PRACTICE_WORD	n/a	n/a	WATCH	6	-1	[0, 0, 0]	n/a	FR1	0	R1108J
234.45	2.467	285342	PRACTICE_WORD	n/a	n/a	IRON	7	-1	[0, 0, 0]	n/a	FR1	0	R1108J
236.917	2.483	287809	PRACTICE_WORD	n/a	n/a	WAGON	8	-1	[0, 0, 0]	n/a	FR1	0	R1108J
239.4	2.484	290292	PRACTICE_WORD	n/a	n/a	RHINO	9	-1	[0, 0, 0]	n/a	FR1	0	R1108J
241.884	2.55	292776	PRACTICE_WORD	n/a	n/a	COTTON	10	-1	[0, 0, 0]	n/a	FR1	0	R1108J
244.434	2.567	295326	PRACTICE_WORD	n/a	n/a	TONGUE	11	-1	[0, 0, 0]	n/a	FR1	0	R1108J
247.001	1.601	297893	PRACTICE_WORD	n/a	n/a	ATTIC	12	-1	[0, 0, 0]	n/a	FR1	0	R1108J
248.602	0.0	299494	PRACTICE_DISTRACT_START	n/a	n/a	n/a	-999	-1	[0, 0, 0]	n/a	FR1	0	R1108J
248.602	0.017	299494	START	n/a	n/a	n/a	-999	-1	[-999, -999, -999]	n/a	FR1	0	R1108J
248.619	13.919	299511	PROB	13.919	n/a	n/a	-999	-1	[8, 1, 4]	12	FR1	0	R1108J
262.538	11.512	313429	PROB	11.512	n/a	n/a	-999	-1	[1, 5, 8]	13	FR1	0	R1108J
274.05	0.689	324941	STOP	n/a	n/a	n/a	-999	-1	[-999, -999, -999]	n/a	FR1	0	R1108J
274.739	30.516	325630	PRACTICE_REC_START	n/a	n/a	n/a	-999	-1	[0, 0, 0]	n/a	FR1	0	R1108J
305.255	18.14	356146	PRACTICE_REC_END	n/a	n/a	n/a	-999	-1	[0, 0, 0]	n/a	FR1	0	R1108J
323.395	0.0	374286	COUNTDOWN_START	n/a	n/a	n/a	-999	1	[0, 0, 0]	n/a	FR1	0	R1108J
323.395	10.428	374286	TRIAL	n/a	n/a	n/a	-999	1	[0, 0, 0]	n/a	FR1	0	R1108J
333.823	0.006	384713	COUNTDOWN_END	n/a	n/a	n/a	-999	1	[0, 0, 0]	n/a	FR1	0	R1108J
333.829	3.617	384719	ORIENT	n/a	n/a	n/a	-999	1	[0, 0, 0]	n/a	FR1	0	R1108J
337.446	2.518	388336	WORD	n/a	wordpools/wordpool_EN.txt	PEARL	1	1	[0, 0, 0]	n/a	FR1	0	R1108J
339.964	2.534	390854	WORD	n/a	wordpools/wordpool_EN.txt	HOOF	2	1	[0, 0, 0]	n/a	FR1	0	R1108J
342.498	2.45	393388	WORD	n/a	wordpools/wordpool_EN.txt	LAKE	3	1	[0, 0, 0]	n/a	FR1	0	R1108J
344.948	2.4	395838	WORD	n/a	wordpools/wordpool_EN.txt	SHELL	4	1	[0, 0, 0]	n/a	FR1	0	R1108J
347.348	2.385	398238	WORD	n/a	wordpools/wordpool_EN.txt	PHONE	5	1	[0, 0, 0]	n/a	FR1	0	R1108J
349.733	2.616	400623	WORD	n/a	wordpools/wordpool_EN.txt	MAP	6	1	[0, 0, 0]	n/a	FR1	0	R1108J
352.349	2.384	403239	WORD	n/a	wordpools/wordpool_EN.txt	JUDGE	7	1	[0, 0, 0]	n/a	FR1	0	R1108J
354.733	2.4	405623	WORD	n/a	wordpools/wordpool_EN.txt	FRUIT	8	1	[0, 0, 0]	n/a	FR1	0	R1108J
357.133	2.568	408023	WORD	n/a	wordpools/wordpool_EN.txt	SEA	9	1	[0, 0, 0]	n/a	FR1	0	R1108J
359.701	2.382	410591	WORD	n/a	wordpools/wordpool_EN.txt	POND	10	1	[0, 0, 0]	n/a	FR1	0	R1108J
362.083	2.384	412973	WORD	n/a	wordpools/wordpool_EN.txt	SHEET	11	1	[0, 0, 0]	n/a	FR1	0	R1108J
364.467	1.617	415357	WORD	n/a	wordpools/wordpool_EN.txt	FILM	12	1	[0, 0, 0]	n/a	FR1	0	R1108J
366.084	0.0	416974	DISTRACT_START	n/a	n/a	n/a	-999	1	[0, 0, 0]	n/a	FR1	0	R1108J
366.084	0.017	416974	START	n/a	n/a	n/a	-999	1	[-999, -999, -999]	n/a	FR1	0	R1108J
366.101	4.2	416991	PROB	4.2	n/a	n/a	-999	1	[1, 2, 8]	11	FR1	0	R1108J
370.301	6.951	421191	PROB	6.951	n/a	n/a	-999	1	[1, 1, 3]	5	FR1	0	R1108J
377.252	18.089	428142	PROB	18.089	n/a	n/a	-999	1	[3, 7, 8]	16	FR1	0	R1108J
395.341	0.013	446231	STOP	n/a	n/a	n/a	-999	1	[-999, -999, -999]	n/a	FR1	0	R1108J
395.354	1.088	446244	DISTRACT_END	n/a	n/a	n/a	-999	1	[0, 0, 0]	n/a	FR1	0	R1108J
396.442	1.939	447332	REC_START	n/a	n/a	n/a	-999	1	[0, 0, 0]	n/a	FR1	0	R1108J
398.381	1.0	449271	REC_WORD_VV	1.0	n/a	<>	-999	1	[0, 0, 0]	n/a	FR1	0	R1108J
399.381	0.665	450271	REC_WORD_VV	0.665	n/a	<>	-999	1	[0, 0, 0]	n/a	FR1	0	R1108J
400.046	0.56	450936	REC_WORD	0.56	n/a	PEARL	-999	1	[0, 0, 0]	n/a	FR1	0	R1108J
400.606	0.839	451496	REC_WORD	0.839	n/a	HOOF	-999	1	[0, 0, 0]	n/a	FR1	0	R1108J
401.445	7.605	452334	REC_WORD_VV	7.605	n/a	<>	-999	1	[0, 0, 0]	n/a	FR1	0	R1108J
409.05	1.313	459939	REC_WORD	1.313	n/a	LAKE	-999	1	[0, 0, 0]	n/a	FR1	0	R1108J
410.363	1.972	461252	REC_WORD_VV	1.972	n/a	<>	-999	1	[0, 0, 0]	n/a	FR1	0	R1108J
412.335	3.273	463224	REC_WORD	3.273	n/a	POND	-999	1	[0, 0, 0]	n/a	FR1	0	R1108J
415.608	1.594	466497	REC_WORD	1.594	n/a	FILM	-999	1	[0, 0, 0]	n/a	FR1	0	R1108J
417.202	1.849	468091	REC_WORD_VV	1.849	n/a	<>	-999	1	[0, 0, 0]	n/a	FR1	0	R1108J
419.051	7.395	469940	REC_WORD	7.395	n/a	SHEET	-999	1	[0, 0, 0]	n/a	FR1	0	R1108J
426.446	9.265	477335	REC_END	n/a	n/a	n/a	-999	1	[0, 0, 0]	n/a	FR1	0	R1108J
435.711	0.0	486600	COUNTDOWN_START	n/a	n/a	n/a	-999	2	[0, 0, 0]	n/a	FR1	0	R1108J
435.711	10.428	486600	TRIAL	n/a	n/a	n/a	-999	2	[0, 0, 0]	n/a	FR1	0	R1108J
446.139	0.006	497028	COUNTDOWN_END	n/a	n/a	n/a	-999	2	[0, 0, 0]	n/a	FR1	0	R1108J
446.145	3.9	497034	ORIENT	n/a	n/a	n/a	-999	2	[0, 0, 0]	n/a	FR1	0	R1108J
450.045	2.501	500934	WORD	n/a	wordpools/wordpool_EN.txt	CRANE	1	2	[0, 0, 0]	n/a	FR1	0	R1108J
452.546	2.383	503435	WORD	n/a	wordpools/wordpool_EN.txt	DRESS	2	2	[0, 0, 0]	n/a	FR1	0	R1108J
454.929	2.55	505818	WORD	n/a	wordpools/wordpool_EN.txt	DIME	3	2	[0, 0, 0]	n/a	FR1	0	R1108J
457.479	2.551	508368	WORD	n/a	wordpools/wordpool_EN.txt	PURSE	4	2	[0, 0, 0]	n/a	FR1	0	R1108J
460.03	2.601	510919	WORD	n/a	wordpools/wordpool_EN.txt	SEAT	5	2	[0, 0, 0]	n/a	FR1	0	R1108J
462.631	2.433	513520	WORD	n/a	wordpools/wordpool_EN.txt	CANE	6	2	[0, 0, 0]	n/a	FR1	0	R1108J
465.064	2.4	515953	WORD	n/a	wordpools/wordpool_EN.txt	PIE	7	2	[0, 0, 0]	n/a	FR1	0	R1108J
467.464	2.551	518353	WORD	n/a	wordpools/wordpool_EN.txt	SMILE	8	2	[0, 0, 0]	n/a	FR1	0	R1108J
470.015	2.4	520904	WORD	n/a	wordpools/wordpool_EN.txt	HOSE	9	2	[0, 0, 0]	n/a	FR1	0	R1108J
472.415	2.484	523303	WORD	n/a	wordpools/wordpool_EN.txt	SHARK	10	2	[0, 0, 0]	n/a	FR1	0	R1108J
474.899	2.433	525787	WORD	n/a	wordpools/wordpool_EN.txt	SUIT	11	2	[0, 0, 0]	n/a	FR1	0	R1108J
477.332	1.617	528220	WORD	n/a	wordpools/wordpool_EN.txt	DITCH	12	2	[0, 0, 0]	n/a	FR1	0	R1108J
478.949	0.0	529837	DISTRACT_START	n/a	n/a	n/a	-999	2	[0, 0, 0]	n/a	FR1	0	R1108J
478.949	0.017	529837	START	n/a	n/a	n/a	-999	2	[-999, -999, -999]	n/a	FR1	0	R1108J
478.966	11.468	529854	PROB	11.468	n/a	n/a	-999	2	[7, 5, 7]	19	FR1	0	R1108J
490.434	14.248	541322	PROB	14.248	n/a	n/a	-999	2	[8, 2, 4]	14	FR1	0	R1108J
504.682	0.005	555570	STOP	n/a	n/a	n/a	-999	2	[-999, -999, -999]	n/a	FR1	0	R1108J
504.687	1.166	555575	DISTRACT_END	n/a	n/a	n/a	-999	2	[0, 0, 0]	n/a	FR1	0	R1108J
505.853	1.709	556741	REC_START	n/a	n/a	n/a	-999	2	[0, 0, 0]	n/a	FR1	0	R1108J
507.562	0.678	558450	REC_WORD_VV	0.678	n/a	<>	-999	2	[0, 0, 0]	n/a	FR1	0	R1108J
508.24	1.234	559128	REC_WORD	1.234	n/a	CRANE	-999	2	[0, 0, 0]	n/a	FR1	0	R1108J
509.474	2.484	560362	REC_WORD_VV	2.484	n/a	<>	-999	2	[0, 0, 0]	n/a	FR1	0	R1108J
511.958	23.909	562846	REC_WORD	23.909	n/a	HOSE	-999	2	[0, 0, 0]	n/a	FR1	0	R1108J
535.867	3.223	586755	REC_END	n/a	n/a	n/a	-999	2	[0, 0, 0]	n/a	FR1	0	R1108J
539.09	0.0	589978	TRIAL	n/a	n/a	n/a	-999	3	[0, 0, 0]	n/a	FR1	0	R1108J
539.09	10.428	589978	COUNTDOWN_START	n/a	n/a	n/a	-999	3	[0, 0, 0]	n/a	FR1	0	R1108J
549.518	0.008	600405	COUNTDOWN_END	n/a	n/a	n/a	-999	3	[0, 0, 0]	n/a	FR1	0	R1108J
549.526	3.466	600413	ORIENT	n/a	n/a	n/a	-999	3	[0, 0, 0]	n/a	FR1	0	R1108J
552.992	2.417	603879	WORD	n/a	wordpools/wordpool_EN.txt	BRIDGE	1	3	[0, 0, 0]	n/a	FR1	0	R1108J
555.409	2.385	606296	WORD	n/a	wordpools/wordpool_EN.txt	DART	2	3	[0, 0, 0]	n/a	FR1	0	R1108J
557.794	2.532	608681	WORD	n/a	wordpools/wordpool_EN.txt	BEE	3	3	[0, 0, 0]	n/a	FR1	0	R1108J
560.326	2.469	611213	WORD	n/a	wordpools/wordpool_EN.txt	BEACH	4	3	[0, 0, 0]	n/a	FR1	0	R1108J
562.795	2.449	613682	WORD	n/a	wordpools/wordpool_EN.txt	MOUSE	5	3	[0, 0, 0]	n/a	FR1	0	R1108J
565.244	2.384	616131	WORD	n/a	wordpools/wordpool_EN.txt	BAND	6	3	[0, 0, 0]	n/a	FR1	0	R1108J
567.628	2.45	618515	WORD	n/a	wordpools/wordpool_EN.txt	BOARD	7	3	[0, 0, 0]	n/a	FR1	0	R1108J
570.078	2.384	620965	WORD	n/a	wordpools/wordpool_EN.txt	STORM	8	3	[0, 0, 0]	n/a	FR1	0	R1108J
572.462	2.55	623349	WORD	n/a	wordpools/wordpool_EN.txt	HOOK	9	3	[0, 0, 0]	n/a	FR1	0	R1108J
575.012	2.585	625899	WORD	n/a	wordpools/wordpool_EN.txt	FLAG	10	3	[0, 0, 0]	n/a	FR1	0	R1108J
577.597	2.566	628484	WORD	n/a	wordpools/wordpool_EN.txt	ROOM	11	3	[0, 0, 0]	n/a	FR1	0	R1108J
580.163	1.618	631050	WORD	n/a	wordpools/wordpool_EN.txt	SPARK	12	3	[0, 0, 0]	n/a	FR1	0	R1108J
581.781	0.0	632668	DISTRACT_START	n/a	n/a	n/a	-999	3	[0, 0, 0]	n/a	FR1	0	R1108J
581.781	0.016	632668	START	n/a	n/a	n/a	-999	3	[-999, -999, -999]	n/a	FR1	0	R1108J
581.797	9.567	632684	PROB	9.567	n/a	n/a	-999	3	[8, 8, 7]	23	FR1	0	R1108J
591.364	7.135	642251	PROB	7.135	n/a	n/a	-999	3	[3, 6, 6]	15	FR1	0	R1108J
598.499	11.555	649386	PROB	11.555	n/a	n/a	-999	3	[8, 4, 3]	15	FR1	0	R1108J
610.054	0.013	660941	STOP	n/a	n/a	n/a	-999	3	[-999, -999, -999]	n/a	FR1	0	R1108J
610.067	1.217	660954	DISTRACT_END	n/a	n/a	n/a	-999	3	[0, 0, 0]	n/a	FR1	0	R1108J
611.284	4.596	662171	REC_START	n/a	n/a	n/a	-999	3	[0, 0, 0]	n/a	FR1	0	R1108J
615.88	0.971	666766	REC_WORD	0.971	n/a	MOUSE	-999	3	[0, 0, 0]	n/a	FR1	0	R1108J
616.851	24.446	667737	REC_WORD_VV	24.446	n/a	<>	-999	3	[0, 0, 0]	n/a	FR1	0	R1108J
641.297	18.327	692183	REC_END	n/a	n/a	n/a	-999	3	[0, 0, 0]	n/a	FR1	0	R1108J
659.624	0.0	710510	TRIAL	n/a	n/a	n/a	-999	4	[0, 0, 0]	n/a	FR1	0	R1108J
659.624	10.428	710510	COUNTDOWN_START	n/a	n/a	n/a	-999	4	[0, 0, 0]	n/a	FR1	0	R1108J
670.052	0.006	720938	COUNTDOWN_END	n/a	n/a	n/a	-999	4	[0, 0, 0]	n/a	FR1	0	R1108J
670.058	3.502	720944	ORIENT	n/a	n/a	n/a	-999	4	[0, 0, 0]	n/a	FR1	0	R1108J
673.56	2.432	724446	WORD	n/a	wordpools/wordpool_EN.txt	SLIME	1	4	[0, 0, 0]	n/a	FR1	0	R1108J
675.992	2.367	726878	WORD	n/a	wordpools/wordpool_EN.txt	SQUARE	2	4	[0, 0, 0]	n/a	FR1	0	R1108J
678.359	2.385	729245	WORD	n/a	wordpools/wordpool_EN.txt	BRICK	3	4	[0, 0, 0]	n/a	FR1	0	R1108J
680.744	2.616	731630	WORD	n/a	wordpools/wordpool_EN.txt	STRAW	4	4	[0, 0, 0]	n/a	FR1	0	R1108J
683.36	2.385	734245	WORD	n/a	wordpools/wordpool_EN.txt	MOTH	5	4	[0, 0, 0]	n/a	FR1	0	R1108J
685.745	2.399	736630	WORD	n/a	wordpools/wordpool_EN.txt	SWAMP	6	4	[0, 0, 0]	n/a	FR1	0	R1108J
688.144	2.434	739029	WORD	n/a	wordpools/wordpool_EN.txt	DUCK	7	4	[0, 0, 0]	n/a	FR1	0	R1108J
690.578	2.4	741463	WORD	n/a	wordpools/wordpool_EN.txt	DESK	8	4	[0, 0, 0]	n/a	FR1	0	R1108J
692.978	2.551	743863	WORD	n/a	wordpools/wordpool_EN.txt	BOAT	9	4	[0, 0, 0]	n/a	FR1	0	R1108J
695.529	2.45	746414	WORD	n/a	wordpools/wordpool_EN.txt	FLAME	10	4	[0, 0, 0]	n/a	FR1	0	R1108J
697.979	2.45	748864	WORD	n/a	wordpools/wordpool_EN.txt	JEEP	11	4	[0, 0, 0]	n/a	FR1	0	R1108J
700.429	1.617	751314	WORD	n/a	wordpools/wordpool_EN.txt	SLEEVE	12	4	[0, 0, 0]	n/a	FR1	0	R1108J
702.046	0.0	752931	DISTRACT_START	n/a	n/a	n/a	-999	4	[0, 0, 0]	n/a	FR1	0	R1108J
702.046	0.017	752931	START	n/a	n/a	n/a	-999	4	[-999, -999, -999]	n/a	FR1	0	R1108J
702.063	4.784	752948	PROB	4.784	n/a	n/a	-999	4	[6, 1, 3]	10	FR1	0	R1108J
706.847	8.101	757732	PROB	8.101	n/a	n/a	-999	4	[3, 4, 7]	14	FR1	0	R1108J
714.948	4.933	765833	PROB	4.933	n/a	n/a	-999	4	[4, 2, 1]	7	FR1	0	R1108J
719.881	4.241	770766	PROB	4.241	n/a	n/a	-999	4	[2, 8, 1]	11	FR1	0	R1108J
724.122	0.01	775007	STOP	n/a	n/a	n/a	-999	4	[-999, -999, -999]	n/a	FR1	0	R1108J
724.132	1.168	775017	DISTRACT_END	n/a	n/a	n/a	-999	4	[0, 0, 0]	n/a	FR1	0	R1108J
725.3	1.76	776185	REC_START	n/a	n/a	n/a	-999	4	[0, 0, 0]	n/a	FR1	0	R1108J
727.06	1.329	777945	REC_WORD	1.329	n/a	SLEEVE	-999	4	[0, 0, 0]	n/a	FR1	0	R1108J
728.389	1.41	779274	REC_WORD	1.41	n/a	STRAW	-999	4	[0, 0, 0]	n/a	FR1	0	R1108J
729.799	3.595	780684	REC_WORD_VV	3.595	n/a	<>	-999	4	[0, 0, 0]	n/a	FR1	0	R1108J
733.394	1.179	784279	REC_WORD	1.179	n/a	BRICK	-999	4	[0, 0, 0]	n/a	FR1	0	R1108J
734.573	2.063	785458	REC_WORD	2.063	n/a	SLIME	-999	4	[0, 0, 0]	n/a	FR1	0	R1108J
736.636	11.339	787521	REC_WORD_VV	11.339	n/a	<>	-999	4	[0, 0, 0]	n/a	FR1	0	R1108J
747.975	7.332	798860	REC_WORD	7.332	n/a	DUCK	-999	4	[0, 0, 0]	n/a	FR1	0	R1108J
755.307	4.513	806191	REC_END	n/a	n/a	n/a	-999	4	[0, 0, 0]	n/a	FR1	0	R1108J
759.82	0.0	810704	TRIAL	n/a	n/a	n/a	-999	5	[0, 0, 0]	n/a	FR1	0	R1108J
759.82	10.428	810704	COUNTDOWN_START	n/a	n/a	n/a	-999	5	[0, 0, 0]	n/a	FR1	0	R1108J
770.248	0.007	821132	COUNTDOWN_END	n/a	n/a	n/a	-999	5	[0, 0, 0]	n/a	FR1	0	R1108J
770.255	3.502	821139	ORIENT	n/a	n/a	n/a	-999	5	[0, 0, 0]	n/a	FR1	0	R1108J
773.757	2.582	824641	WORD	n/a	wordpools/wordpool_EN.txt	SWORD	1	5	[0, 0, 0]	n/a	FR1	0	R1108J
776.339	2.418	827223	WORD	n/a	wordpools/wordpool_EN.txt	HAND	2	5	[0, 0, 0]	n/a	FR1	0	R1108J
778.757	2.516	829641	WORD	n/a	wordpools/wordpool_EN.txt	LAWN	3	5	[0, 0, 0]	n/a	FR1	0	R1108J
781.273	2.567	832157	WORD	n/a	wordpools/wordpool_EN.txt	WING	4	5	[0, 0, 0]	n/a	FR1	0	R1108J
783.84	2.567	834724	WORD	n/a	wordpools/wordpool_EN.txt	STONE	5	5	[0, 0, 0]	n/a	FR1	0	R1108J
786.407	2.584	837291	WORD	n/a	wordpools/wordpool_EN.txt	BLOOM	6	5	[0, 0, 0]	n/a	FR1	0	R1108J
788.991	2.534	839875	WORD	n/a	wordpools/wordpool_EN.txt	SPEAR	7	5	[0, 0, 0]	n/a	FR1	0	R1108J
791.525	2.383	842409	WORD	n/a	wordpools/wordpool_EN.txt	BLUSH	8	5	[0, 0, 0]	n/a	FR1	0	R1108J
793.908	2.401	844792	WORD	n/a	wordpools/wordpool_EN.txt	FACE	9	5	[0, 0, 0]	n/a	FR1	0	R1108J
796.309	2.583	847193	WORD	n/a	wordpools/wordpool_EN.txt	PIN	10	5	[0, 0, 0]	n/a	FR1	0	R1108J
798.892	2.484	849776	WORD	n/a	wordpools/wordpool_EN.txt	CROWN	11	5	[0, 0, 0]	n/a	FR1	0	R1108J
801.376	1.617	852260	WORD	n/a	wordpools/wordpool_EN.txt	PRINCE	12	5	[0, 0, 0]	n/a	FR1	0	R1108J
802.993	0.0	853877	DISTRACT_START	n/a	n/a	n/a	-999	5	[0, 0, 0]	n/a	FR1	0	R1108J
802.993	0.016	853877	START	n/a	n/a	n/a	-999	5	[-999, -999, -999]	n/a	FR1	0	R1108J
803.009	13.336	853893	PROB	13.336	n/a	n/a	-999	5	[4, 5, 9]	18	FR1	0	R1108J
816.345	12.262	867229	PROB	12.262	n/a	n/a	-999	5	[4, 3, 8]	15	FR1	0	R1108J
828.607	0.007	879490	STOP	n/a	n/a	n/a	-999	5	[-999, -999, -999]	n/a	FR1	0	R1108J
828.614	1.068	879497	DISTRACT_END	n/a	n/a	n/a	-999	5	[0, 0, 0]	n/a	FR1	0	R1108J
829.682	1.256	880565	REC_START	n/a	n/a	n/a	-999	5	[0, 0, 0]	n/a	FR1	0	R1108J
830.938	2.886	881821	REC_WORD_VV	2.886	n/a	<>	-999	5	[0, 0, 0]	n/a	FR1	0	R1108J
833.824	1.737	884707	REC_WORD	1.737	n/a	BLUSH	-999	5	[0, 0, 0]	n/a	FR1	0	R1108J
835.561	1.309	886444	REC_WORD	1.309	n/a	PIN	-999	5	[0, 0, 0]	n/a	FR1	0	R1108J
836.87	4.008	887753	REC_WORD_VV	4.008	n/a	<>	-999	5	[0, 0, 0]	n/a	FR1	0	R1108J
840.878	1.26	891761	REC_WORD	1.26	n/a	FACE	-999	5	[0, 0, 0]	n/a	FR1	0	R1108J
842.138	1.125	893021	REC_WORD	1.125	n/a	SWORD	-999	5	[0, 0, 0]	n/a	FR1	0	R1108J
843.263	1.704	894146	REC_WORD	1.704	n/a	HAND	-999	5	[0, 0, 0]	n/a	FR1	0	R1108J
844.967	14.724	895850	REC_WORD_VV	14.724	n/a	<>	-999	5	[0, 0, 0]	n/a	FR1	0	R1108J
859.691	3.293	910574	REC_END	n/a	n/a	n/a	-999	5	[0, 0, 0]	n/a	FR1	0	R1108J
862.984	0.0	913867	TRIAL	n/a	n/a	n/a	-999	6	[0, 0, 0]	n/a	FR1	0	R1108J
862.984	10.428	913867	COUNTDOWN_START	n/a	n/a	n/a	-999	6	[0, 0, 0]	n/a	FR1	0	R1108J
873.412	0.007	924295	COUNTDOWN_END	n/a	n/a	n/a	-999	6	[0, 0, 0]	n/a	FR1	0	R1108J
873.419	3.784	924302	ORIENT	n/a	n/a	n/a	-999	6	[0, 0, 0]	n/a	FR1	0	R1108J
877.203	2.501	928086	WORD	n/a	wordpools/wordpool_EN.txt	HAT	1	6	[0, 0, 0]	n/a	FR1	0	R1108J
879.704	2.4	930587	WORD	n/a	wordpools/wordpool_EN.txt	CART	2	6	[0, 0, 0]	n/a	FR1	0	R1108J
882.104	2.534	932987	WORD	n/a	wordpools/wordpool_EN.txt	WALL	3	6	[0, 0, 0]	n/a	FR1	0	R1108J
884.638	2.533	935521	WORD	n/a	wordpools/wordpool_EN.txt	GATE	4	6	[0, 0, 0]	n/a	FR1	0	R1108J
887.171	2.551	938054	WORD	n/a	wordpools/wordpool_EN.txt	WORM	5	6	[0, 0, 0]	n/a	FR1	0	R1108J
889.722	2.466	940605	WORD	n/a	wordpools/wordpool_EN.txt	HILL	6	6	[0, 0, 0]	n/a	FR1	0	R1108J
892.188	2.585	943071	WORD	n/a	wordpools/wordpool_EN.txt	PET	7	6	[0, 0, 0]	n/a	FR1	0	R1108J
894.773	2.566	945655	WORD	n/a	wordpools/wordpool_EN.txt	PEACH	8	6	[0, 0, 0]	n/a	FR1	0	R1108J
897.339	2.567	948221	WORD	n/a	wordpools/wordpool_EN.txt	TOAD	9	6	[0, 0, 0]	n/a	FR1	0	R1108J
899.906	2.534	950788	WORD	n/a	wordpools/wordpool_EN.txt	WORLD	10	6	[0, 0, 0]	n/a	FR1	0	R1108J
902.44	2.517	953322	WORD	n/a	wordpools/wordpool_EN.txt	BAG	11	6	[0, 0, 0]	n/a	FR1	0	R1108J
904.957	1.618	955839	WORD	n/a	wordpools/wordpool_EN.txt	VEST	12	6	[0, 0, 0]	n/a	FR1	0	R1108J
906.575	0.0	957457	DISTRACT_START	n/a	n/a	n/a	-999	6	[0, 0, 0]	n/a	FR1	0	R1108J
906.575	0.016	957457	START	n/a	n/a	n/a	-999	6	[-999, -999, -999]	n/a	FR1	0	R1108J
906.591	9.651	957473	PROB	9.651	n/a	n/a	-999	6	[5, 3, 5]	13	FR1	0	R1108J
916.242	4.133	967124	PROB	4.133	n/a	n/a	-999	6	[4, 4, 1]	9	FR1	0	R1108J
920.375	8.06	971257	PROB	8.06	n/a	n/a	-999	6	[8, 1, 1]	10	FR1	0	R1108J
928.435	0.008	979317	STOP	n/a	n/a	n/a	-999	6	[-999, -999, -999]	n/a	FR1	0	R1108J
928.443	1.185	979325	DISTRACT_END	n/a	n/a	n/a	-999	6	[0, 0, 0]	n/a	FR1	0	R1108J
929.628	1.011	980510	REC_START	n/a	n/a	n/a	-999	6	[0, 0, 0]	n/a	FR1	0	R1108J
930.639	0.742	981521	REC_WORD_VV	0.742	n/a	<>	-999	6	[0, 0, 0]	n/a	FR1	0	R1108J
931.381	0.705	982263	REC_WORD	0.705	n/a	WORM	-999	6	[0, 0, 0]	n/a	FR1	0	R1108J
932.086	1.021	982968	REC_WORD	1.021	n/a	PET	-999	6	[0, 0, 0]	n/a	FR1	0	R1108J
933.107	1.286	983989	REC_WORD	1.286	n/a	TOAD	-999	6	[0, 0, 0]	n/a	FR1	0	R1108J
934.393	5.163	985275	REC_WORD_VV	5.163	n/a	<>	-999	6	[0, 0, 0]	n/a	FR1	0	R1108J
939.556	1.957	990438	REC_WORD	1.957	n/a	PEACH	-999	6	[0, 0, 0]	n/a	FR1	0	R1108J
941.513	1.332	992395	REC_WORD_VV	1.332	n/a	<>	-999	6	[0, 0, 0]	n/a	FR1	0	R1108J
942.845	1.639	993727	REC_WORD	1.639	n/a	HAT	-999	6	[0, 0, 0]	n/a	FR1	0	R1108J
944.484	1.993	995366	REC_WORD	1.993	n/a	VEST	-999	6	[0, 0, 0]	n/a	FR1	0	R1108J
946.477	13.161	997359	REC_WORD_VV	13.161	n/a	<>	-999	6	[0, 0, 0]	n/a	FR1	0	R1108J
959.638	3.56	1010520	REC_END	n/a	n/a	n/a	-999	6	[0, 0, 0]	n/a	FR1	0	R1108J
963.198	0.0	1014080	TRIAL	n/a	n/a	n/a	-999	7	[0, 0, 0]	n/a	FR1	0	R1108J
963.198	10.428	1014080	COUNTDOWN_START	n/a	n/a	n/a	-999	7	[0, 0, 0]	n/a	FR1	0	R1108J
973.626	0.008	1024507	COUNTDOWN_END	n/a	n/a	n/a	-999	7	[0, 0, 0]	n/a	FR1	0	R1108J
973.634	3.749	1024515	ORIENT	n/a	n/a	n/a	-999	7	[0, 0, 0]	n/a	FR1	0	R1108J
977.383	2.517	1028264	WORD	n/a	wordpools/wordpool_EN.txt	PEAR	1	7	[0, 0, 0]	n/a	FR1	0	R1108J
979.9	2.467	1030781	WORD	n/a	wordpools/wordpool_EN.txt	FOAM	2	7	[0, 0, 0]	n/a	FR1	0	R1108J
982.367	2.55	1033248	WORD	n/a	wordpools/wordpool_EN.txt	SNAKE	3	7	[0, 0, 0]	n/a	FR1	0	R1108J
984.917	2.45	1035798	WORD	n/a	wordpools/wordpool_EN.txt	GRAPE	4	7	[0, 0, 0]	n/a	FR1	0	R1108J
987.367	2.501	1038248	WORD	n/a	wordpools/wordpool_EN.txt	INK	5	7	[0, 0, 0]	n/a	FR1	0	R1108J
989.868	2.45	1040749	WORD	n/a	wordpools/wordpool_EN.txt	BOY	6	7	[0, 0, 0]	n/a	FR1	0	R1108J
992.318	2.452	1043199	WORD	n/a	wordpools/wordpool_EN.txt	CLOCK	7	7	[0, 0, 0]	n/a	FR1	0	R1108J
994.77	2.632	1045651	WORD	n/a	wordpools/wordpool_EN.txt	FLUTE	8	7	[0, 0, 0]	n/a	FR1	0	R1108J
997.402	2.601	1048283	WORD	n/a	wordpools/wordpool_EN.txt	BRUSH	9	7	[0, 0, 0]	n/a	FR1	0	R1108J
1000.003	2.585	1050884	WORD	n/a	wordpools/wordpool_EN.txt	RAIN	10	7	[0, 0, 0]	n/a	FR1	0	R1108J
1002.588	2.482	1053469	WORD	n/a	wordpools/wordpool_EN.txt	BED	11	7	[0, 0, 0]	n/a	FR1	0	R1108J
1005.07	1.601	1055951	WORD	n/a	wordpools/wordpool_EN.txt	TOOL	12	7	[0, 0, 0]	n/a	FR1	0	R1108J
1006.671	0.001	1057552	DISTRACT_START	n/a	n/a	n/a	-999	7	[0, 0, 0]	n/a	FR1	0	R1108J
1006.672	0.016	1057553	START	n/a	n/a	n/a	-999	7	[-999, -999, -999]	n/a	FR1	0	R1108J
1006.688	5.3	1057569	PROB	5.3	n/a	n/a	-999	7	[1, 1, 2]	4	FR1	0	R1108J
1011.988	8.535	1062869	PROB	8.535	n/a	n/a	-999	7	[7, 4, 6]	17	FR1	0	R1108J
1020.523	22.876	1071404	PROB	22.876	n/a	n/a	-999	7	[6, 9, 5]	20	FR1	0	R1108J
1043.399	0.01	1094279	STOP	n/a	n/a	n/a	-999	7	[-999, -999, -999]	n/a	FR1	0	R1108J
1043.409	1.201	1094289	DISTRACT_END	n/a	n/a	n/a	-999	7	[0, 0, 0]	n/a	FR1	0	R1108J
1044.61	1.182	1095490	REC_START	n/a	n/a	n/a	-999	7	[0, 0, 0]	n/a	FR1	0	R1108J
1045.792	0.782	1096672	REC_WORD_VV	0.782	n/a	<>	-999	7	[0, 0, 0]	n/a	FR1	0	R1108J
1046.574	1.152	1097454	REC_WORD	1.152	n/a	BOY	-999	7	[0, 0, 0]	n/a	FR1	0	R1108J
1047.726	19.469	1098606	REC_WORD_VV	19.469	n/a	<>	-999	7	[0, 0, 0]	n/a	FR1	0	R1108J
1067.195	1.469	1118075	REC_WORD	1.469	n/a	RAIN	-999	7	[0, 0, 0]	n/a	FR1	0	R1108J
1068.664	5.96	1119544	REC_WORD_VV	5.96	n/a	<>	-999	7	[0, 0, 0]	n/a	FR1	0	R1108J
1074.624	4.256	1125504	REC_END	n/a	n/a	n/a	-999	7	[0, 0, 0]	n/a	FR1	0	R1108J
1078.88	0.0	1129760	TRIAL	n/a	n/a	n/a	-999	8	[0, 0, 0]	n/a	FR1	0	R1108J
1078.88	10.428	1129760	COUNTDOWN_START	n/a	n/a	n/a	-999	8	[0, 0, 0]	n/a	FR1	0	R1108J
1089.308	0.007	1140188	COUNTDOWN_END	n/a	n/a	n/a	-999	8	[0, 0, 0]	n/a	FR1	0	R1108J
1089.315	3.717	1140195	ORIENT	n/a	n/a	n/a	-999	8	[0, 0, 0]	n/a	FR1	0	R1108J
1093.032	2.417	1143912	WORD	n/a	wordpools/wordpool_EN.txt	HORSE	1	8	[0, 0, 0]	n/a	FR1	0	R1108J
1095.449	2.6	1146329	WORD	n/a	wordpools/wordpool_EN.txt	AXE	2	8	[0, 0, 0]	n/a	FR1	0	R1108J
1098.049	2.501	1148929	WORD	n/a	wordpools/wordpool_EN.txt	FOOT	3	8	[0, 0, 0]	n/a	FR1	0	R1108J
1100.55	2.383	1151430	WORD	n/a	wordpools/wordpool_EN.txt	SALT	4	8	[0, 0, 0]	n/a	FR1	0	R1108J
1102.933	2.568	1153813	WORD	n/a	wordpools/wordpool_EN.txt	WEB	5	8	[0, 0, 0]	n/a	FR1	0	R1108J
1105.501	2.566	1156380	WORD	n/a	wordpools/wordpool_EN.txt	SEED	6	8	[0, 0, 0]	n/a	FR1	0	R1108J
1108.067	2.485	1158946	WORD	n/a	wordpools/wordpool_EN.txt	GEESE	7	8	[0, 0, 0]	n/a	FR1	0	R1108J
1110.552	2.582	1161431	WORD	n/a	wordpools/wordpool_EN.txt	TOY	8	8	[0, 0, 0]	n/a	FR1	0	R1108J
1113.134	2.535	1164013	WORD	n/a	wordpools/wordpool_EN.txt	FUR	9	8	[0, 0, 0]	n/a	FR1	0	R1108J
1115.669	2.583	1166548	WORD	n/a	wordpools/wordpool_EN.txt	SHEEP	10	8	[0, 0, 0]	n/a	FR1	0	R1108J
1118.252	2.567	1169131	WORD	n/a	wordpools/wordpool_EN.txt	RICE	11	8	[0, 0, 0]	n/a	FR1	0	R1108J
1120.819	1.617	1171698	WORD	n/a	wordpools/wordpool_EN.txt	BANK	12	8	[0, 0, 0]	n/a	FR1	0	R1108J
1122.436	0.0	1173315	DISTRACT_START	n/a	n/a	n/a	-999	8	[0, 0, 0]	n/a	FR1	0	R1108J
1122.436	0.017	1173315	START	n/a	n/a	n/a	-999	8	[-999, -999, -999]	n/a	FR1	0	R1108J
1122.453	5.85	1173332	PROB	5.85	n/a	n/a	-999	8	[9, 5, 5]	19	FR1	0	R1108J
1128.303	8.052	1179182	PROB	8.052	n/a	n/a	-999	8	[4, 4, 5]	14	FR1	0	R1108J
1136.355	8.449	1187234	PROB	8.449	n/a	n/a	-999	8	[8, 8, 7]	23	FR1	0	R1108J
1144.804	0.018	1195683	STOP	n/a	n/a	n/a	-999	8	[-999, -999, -999]	n/a	FR1	0	R1108J
1144.822	1.135	1195701	DISTRACT_END	n/a	n/a	n/a	-999	8	[0, 0, 0]	n/a	FR1	0	R1108J
1145.957	1.038	1196836	REC_START	n/a	n/a	n/a	-999	8	[0, 0, 0]	n/a	FR1	0	R1108J
1146.995	1.052	1197874	REC_WORD_VV	1.052	n/a	<>	-999	8	[0, 0, 0]	n/a	FR1	0	R1108J
1148.047	0.886	1198926	REC_WORD	0.886	n/a	GEESE	-999	8	[0, 0, 0]	n/a	FR1	0	R1108J
1148.933	1.506	1199812	REC_WORD	1.506	n/a	HORSE	-999	8	[0, 0, 0]	n/a	FR1	0	R1108J
1150.439	7.425	1201318	REC_WORD_VV	7.425	n/a	<>	-999	8	[0, 0, 0]	n/a	FR1	0	R1108J
1157.864	2.04	1208743	REC_WORD	2.04	n/a	SHEEP	-999	8	[0, 0, 0]	n/a	FR1	0	R1108J
1159.904	16.063	1210783	REC_WORD_VV	16.063	n/a	<>	-999	8	[0, 0, 0]	n/a	FR1	0	R1108J
1175.967	3.31	1226845	REC_END	n/a	n/a	n/a	-999	8	[0, 0, 0]	n/a	FR1	0	R1108J
1179.277	0.0	1230155	TRIAL	n/a	n/a	n/a	-999	9	[0, 0, 0]	n/a	FR1	0	R1108J
1179.277	10.428	1230155	COUNTDOWN_START	n/a	n/a	n/a	-999	9	[0, 0, 0]	n/a	FR1	0	R1108J
1189.705	0.008	1240583	COUNTDOWN_END	n/a	n/a	n/a	-999	9	[0, 0, 0]	n/a	FR1	0	R1108J
1189.713	3.532	1240591	ORIENT	n/a	n/a	n/a	-999	9	[0, 0, 0]	n/a	FR1	0	R1108J
1193.245	2.402	1244123	WORD	n/a	wordpools/wordpool_EN.txt	BOX	1	9	[0, 0, 0]	n/a	FR1	0	R1108J
1195.647	2.499	1246525	WORD	n/a	wordpools/wordpool_EN.txt	CHIN	2	9	[0, 0, 0]	n/a	FR1	0	R1108J
1198.146	2.384	1249024	WORD	n/a	wordpools/wordpool_EN.txt	SPRING	3	9	[0, 0, 0]	n/a	FR1	0	R1108J
1200.53	2.484	1251408	WORD	n/a	wordpools/wordpool_EN.txt	KITE	4	9	[0, 0, 0]	n/a	FR1	0	R1108J
1203.014	2.584	1253892	WORD	n/a	wordpools/wordpool_EN.txt	TRUCK	5	9	[0, 0, 0]	n/a	FR1	0	R1108J
1205.598	2.516	1256476	WORD	n/a	wordpools/wordpool_EN.txt	BOWL	6	9	[0, 0, 0]	n/a	FR1	0	R1108J
1208.114	2.451	1258992	WORD	n/a	wordpools/wordpool_EN.txt	DOG	7	9	[0, 0, 0]	n/a	FR1	0	R1108J
1210.565	2.416	1261443	WORD	n/a	wordpools/wordpool_EN.txt	HORN	8	9	[0, 0, 0]	n/a	FR1	0	R1108J
1212.981	2.501	1263859	WORD	n/a	wordpools/wordpool_EN.txt	OAK	9	9	[0, 0, 0]	n/a	FR1	0	R1108J
1215.482	2.383	1266360	WORD	n/a	wordpools/wordpool_EN.txt	OWL	10	9	[0, 0, 0]	n/a	FR1	0	R1108J
1217.865	2.517	1268743	WORD	n/a	wordpools/wordpool_EN.txt	WHEEL	11	9	[0, 0, 0]	n/a	FR1	0	R1108J
1220.382	1.617	1271260	WORD	n/a	wordpools/wordpool_EN.txt	SHRIMP	12	9	[0, 0, 0]	n/a	FR1	0	R1108J
1221.999	0.001	1272877	DISTRACT_START	n/a	n/a	n/a	-999	9	[0, 0, 0]	n/a	FR1	0	R1108J
1222.0	0.016	1272878	START	n/a	n/a	n/a	-999	9	[-999, -999, -999]	n/a	FR1	0	R1108J
1222.016	3.117	1272894	PROB	3.117	n/a	n/a	-999	9	[2, 8, 1]	11	FR1	0	R1108J
1225.133	4.3	1276011	PROB	4.3	n/a	n/a	-999	9	[6, 4, 1]	11	FR1	0	R1108J
1229.433	5.485	1280311	PROB	5.485	n/a	n/a	-999	9	[6, 6, 2]	14	FR1	0	R1108J
1234.918	17.57	1285796	PROB	17.57	n/a	n/a	-999	9	[6, 9, 2]	17	FR1	0	R1108J
1252.488	0.017	1303365	STOP	n/a	n/a	n/a	-999	9	[-999, -999, -999]	n/a	FR1	0	R1108J
1252.505	1.117	1303382	DISTRACT_END	n/a	n/a	n/a	-999	9	[0, 0, 0]	n/a	FR1	0	R1108J
1253.622	1.063	1304499	REC_START	n/a	n/a	n/a	-999	9	[0, 0, 0]	n/a	FR1	0	R1108J
1254.685	0.771	1305562	REC_WORD	0.771	n/a	TRUCK	-999	9	[0, 0, 0]	n/a	FR1	0	R1108J
1255.456	0.732	1306333	REC_WORD	0.732	n/a	WHALE	-999	9	[0, 0, 0]	n/a	FR1	0	R1108J
1256.188	0.96	1307065	REC_WORD	0.96	n/a	HORN	-999	9	[0, 0, 0]	n/a	FR1	0	R1108J
1257.148	1.485	1308025	REC_WORD	1.485	n/a	DOG	-999	9	[0, 0, 0]	n/a	FR1	0	R1108J
1258.633	1.821	1309510	REC_WORD_VV	1.821	n/a	<>	-999	9	[0, 0, 0]	n/a	FR1	0	R1108J
1260.454	1.588	1311331	REC_WORD	1.588	n/a	SHRIMP	-999	9	[0, 0, 0]	n/a	FR1	0	R1108J
1262.042	6.189	1312919	REC_WORD_VV	6.189	n/a	<>	-999	9	[0, 0, 0]	n/a	FR1	0	R1108J
1268.231	2.09	1319108	REC_WORD	2.09	n/a	TIRE	-999	9	[0, 0, 0]	n/a	FR1	0	R1108J
1270.321	13.311	1321198	REC_WORD_VV	13.311	n/a	<>	-999	9	[0, 0, 0]	n/a	FR1	0	R1108J
1283.632	3.36	1334509	REC_END	n/a	n/a	n/a	-999	9	[0, 0, 0]	n/a	FR1	0	R1108J
1286.992	0.0	1337869	TRIAL	n/a	n/a	n/a	-999	10	[0, 0, 0]	n/a	FR1	0	R1108J
1286.992	10.428	1337869	COUNTDOWN_START	n/a	n/a	n/a	-999	10	[0, 0, 0]	n/a	FR1	0	R1108J
1297.42	0.006	1348297	COUNTDOWN_END	n/a	n/a	n/a	-999	10	[0, 0, 0]	n/a	FR1	0	R1108J
1297.426	3.651	1348303	ORIENT	n/a	n/a	n/a	-999	10	[0, 0, 0]	n/a	FR1	0	R1108J
1301.077	2.383	1351954	WORD	n/a	wordpools/wordpool_EN.txt	MUD	1	10	[0, 0, 0]	n/a	FR1	0	R1108J
1303.46	2.384	1354337	WORD	n/a	wordpools/wordpool_EN.txt	BREAD	2	10	[0, 0, 0]	n/a	FR1	0	R1108J
1305.844	2.467	1356721	WORD	n/a	wordpools/wordpool_EN.txt	LEG	3	10	[0, 0, 0]	n/a	FR1	0	R1108J
1308.311	2.517	1359188	WORD	n/a	wordpools/wordpool_EN.txt	BRANCH	4	10	[0, 0, 0]	n/a	FR1	0	R1108J
1310.828	2.567	1361705	WORD	n/a	wordpools/wordpool_EN.txt	NOSE	5	10	[0, 0, 0]	n/a	FR1	0	R1108J
1313.395	2.484	1364272	WORD	n/a	wordpools/wordpool_EN.txt	CAVE	6	10	[0, 0, 0]	n/a	FR1	0	R1108J
1315.879	2.483	1366756	WORD	n/a	wordpools/wordpool_EN.txt	SHIELD	7	10	[0, 0, 0]	n/a	FR1	0	R1108J
1318.362	2.501	1369238	WORD	n/a	wordpools/wordpool_EN.txt	BEAK	8	10	[0, 0, 0]	n/a	FR1	0	R1108J
1320.863	2.383	1371739	WORD	n/a	wordpools/wordpool_EN.txt	COUCH	9	10	[0, 0, 0]	n/a	FR1	0	R1108J
1323.246	2.502	1374122	WORD	n/a	wordpools/wordpool_EN.txt	TENT	10	10	[0, 0, 0]	n/a	FR1	0	R1108J
1325.748	2.582	1376624	WORD	n/a	wordpools/wordpool_EN.txt	FLOOR	11	10	[0, 0, 0]	n/a	FR1	0	R1108J
1328.33	1.617	1379206	WORD	n/a	wordpools/wordpool_EN.txt	TOAST	12	10	[0, 0, 0]	n/a	FR1	0	R1108J
1329.947	0.001	1380823	DISTRACT_START	n/a	n/a	n/a	-999	10	[0, 0, 0]	n/a	FR1	0	R1108J
1329.948	0.016	1380824	START	n/a	n/a	n/a	-999	10	[-999, -999, -999]	n/a	FR1	0	R1108J
1329.964	7.934	1380840	PROB	7.934	n/a	n/a	-999	10	[9, 9, 6]	24	FR1	0	R1108J
1337.898	5.268	1388774	PROB	5.268	n/a	n/a	-999	10	[2, 4, 4]	10	FR1	0	R1108J
1343.166	4.667	1394042	PROB	4.667	n/a	n/a	-999	10	[3, 5, 7]	15	FR1	0	R1108J
1347.833	4.459	1398709	PROB	4.459	n/a	n/a	-999	10	[2, 6, 6]	14	FR1	0	R1108J
1352.292	0.008	1403168	STOP	n/a	n/a	n/a	-999	10	[-999, -999, -999]	n/a	FR1	0	R1108J
1352.3	1.184	1403176	DISTRACT_END	n/a	n/a	n/a	-999	10	[0, 0, 0]	n/a	FR1	0	R1108J
1353.484	0.806	1404360	REC_START	n/a	n/a	n/a	-999	10	[0, 0, 0]	n/a	FR1	0	R1108J
1354.29	29.209	1405166	REC_WORD_VV	29.209	n/a	<>	-999	10	[0, 0, 0]	n/a	FR1	0	R1108J
1383.499	569.832	1434375	REC_END	n/a	n/a	n/a	-999	10	[0, 0, 0]	n/a	FR1	0	R1108J
1953.331	0.0	2004198	TRIAL	n/a	n/a	n/a	-999	11	[0, 0, 0]	n/a	FR1	0	R1108J
1953.331	10.428	2004198	COUNTDOWN_START	n/a	n/a	n/a	-999	11	[0, 0, 0]	n/a	FR1	0	R1108J
1963.759	0.008	2014626	COUNTDOWN_END	n/a	n/a	n/a	-999	11	[0, 0, 0]	n/a	FR1	0	R1108J
1963.767	3.649	2014634	ORIENT	n/a	n/a	n/a	-999	11	[0, 0, 0]	n/a	FR1	0	R1108J
1967.416	2.551	2018283	WORD	n/a	wordpools/wordpool_EN.txt	STAIR	1	11	[0, 0, 0]	n/a	FR1	0	R1108J
1969.967	2.434	2020834	WORD	n/a	wordpools/wordpool_EN.txt	SHOE	2	11	[0, 0, 0]	n/a	FR1	0	R1108J
1972.401	2.6	2023268	WORD	n/a	wordpools/wordpool_EN.txt	MAT	3	11	[0, 0, 0]	n/a	FR1	0	R1108J
1975.001	2.568	2025868	WORD	n/a	wordpools/wordpool_EN.txt	TIE	4	11	[0, 0, 0]	n/a	FR1	0	R1108J
1977.569	2.449	2028436	WORD	n/a	wordpools/wordpool_EN.txt	BOOT	5	11	[0, 0, 0]	n/a	FR1	0	R1108J
1980.018	2.45	2030885	WORD	n/a	wordpools/wordpool_EN.txt	CROW	6	11	[0, 0, 0]	n/a	FR1	0	R1108J
1982.468	2.618	2033335	WORD	n/a	wordpools/wordpool_EN.txt	CAR	7	11	[0, 0, 0]	n/a	FR1	0	R1108J
1985.086	2.534	2035953	WORD	n/a	wordpools/wordpool_EN.txt	SEAL	8	11	[0, 0, 0]	n/a	FR1	0	R1108J
1987.62	2.566	2038487	WORD	n/a	wordpools/wordpool_EN.txt	SOCK	9	11	[0, 0, 0]	n/a	FR1	0	R1108J
1990.186	2.585	2041053	WORD	n/a	wordpools/wordpool_EN.txt	LIP	10	11	[0, 0, 0]	n/a	FR1	0	R1108J
1992.771	2.533	2043638	WORD	n/a	wordpools/wordpool_EN.txt	STEAM	11	11	[0, 0, 0]	n/a	FR1	0	R1108J
1995.304	1.616	2046171	WORD	n/a	wordpools/wordpool_EN.txt	RIB	12	11	[0, 0, 0]	n/a	FR1	0	R1108J
1996.92	0.001	2047787	DISTRACT_START	n/a	n/a	n/a	-999	11	[0, 0, 0]	n/a	FR1	0	R1108J
1996.921	0.016	2047788	START	n/a	n/a	n/a	-999	11	[-999, -999, -999]	n/a	FR1	0	R1108J
1996.937	4.434	2047804	PROB	4.434	n/a	n/a	-999	11	[1, 3, 7]	11	FR1	0	R1108J
2001.371	4.268	2052238	PROB	4.268	n/a	n/a	-999	11	[4, 1, 6]	11	FR1	0	R1108J
2005.639	14.607	2056506	PROB	14.607	n/a	n/a	-999	11	[6, 7, 8]	21	FR1	0	R1108J
2020.246	0.011	2071112	STOP	n/a	n/a	n/a	-999	11	[-999, -999, -999]	n/a	FR1	0	R1108J
2020.257	1.218	2071123	DISTRACT_END	n/a	n/a	n/a	-999	11	[0, 0, 0]	n/a	FR1	0	R1108J
2021.475	1.166	2072341	REC_START	n/a	n/a	n/a	-999	11	[0, 0, 0]	n/a	FR1	0	R1108J
2022.641	0.87	2073507	REC_WORD	0.87	n/a	SHOE	-999	11	[0, 0, 0]	n/a	FR1	0	R1108J
2023.511	1.004	2074377	REC_WORD	1.004	n/a	BOOT	-999	11	[0, 0, 0]	n/a	FR1	0	R1108J
2024.515	1.63	2075381	REC_WORD	1.63	n/a	LIP	-999	11	[0, 0, 0]	n/a	FR1	0	R1108J
2026.145	0.589	2077011	REC_WORD_VV	0.589	n/a	<>	-999	11	[0, 0, 0]	n/a	FR1	0	R1108J
2026.734	1.422	2077600	REC_WORD	1.422	n/a	SOCK	-999	11	[0, 0, 0]	n/a	FR1	0	R1108J
2028.156	21.727	2079022	REC_WORD_VV	21.727	n/a	<>	-999	11	[0, 0, 0]	n/a	FR1	0	R1108J
2049.883	1.602	2100749	REC_WORD	1.602	n/a	SEAL	-999	11	[0, 0, 0]	n/a	FR1	0	R1108J
2051.485	7.061	2102351	REC_END	n/a	n/a	n/a	-999	11	[0, 0, 0]	n/a	FR1	0	R1108J
2058.546	0.0	2109412	TRIAL	n/a	n/a	n/a	-999	12	[0, 0, 0]	n/a	FR1	0	R1108J
2058.546	10.428	2109412	COUNTDOWN_START	n/a	n/a	n/a	-999	12	[0, 0, 0]	n/a	FR1	0	R1108J
2068.974	0.006	2119840	COUNTDOWN_END	n/a	n/a	n/a	-999	12	[0, 0, 0]	n/a	FR1	0	R1108J
2068.98	3.668	2119846	ORIENT	n/a	n/a	n/a	-999	12	[0, 0, 0]	n/a	FR1	0	R1108J
2072.648	2.55	2123514	WORD	n/a	wordpools/wordpool_EN.txt	JET	1	12	[0, 0, 0]	n/a	FR1	0	R1108J
2075.198	2.451	2126064	WORD	n/a	wordpools/wordpool_EN.txt	DEER	2	12	[0, 0, 0]	n/a	FR1	0	R1108J
2077.649	2.516	2128515	WORD	n/a	wordpools/wordpool_EN.txt	SPOON	3	12	[0, 0, 0]	n/a	FR1	0	R1108J
2080.165	2.618	2131031	WORD	n/a	wordpools/wordpool_EN.txt	BATH	4	12	[0, 0, 0]	n/a	FR1	0	R1108J
2082.783	2.6	2133649	WORD	n/a	wordpools/wordpool_EN.txt	STREET	5	12	[0, 0, 0]	n/a	FR1	0	R1108J
2085.383	2.516	2136249	WORD	n/a	wordpools/wordpool_EN.txt	LAMP	6	12	[0, 0, 0]	n/a	FR1	0	R1108J
2087.899	2.467	2138765	WORD	n/a	wordpools/wordpool_EN.txt	FOOD	7	12	[0, 0, 0]	n/a	FR1	0	R1108J
2090.366	2.517	2141231	WORD	n/a	wordpools/wordpool_EN.txt	LOCK	8	12	[0, 0, 0]	n/a	FR1	0	R1108J
2092.883	2.568	2143748	WORD	n/a	wordpools/wordpool_EN.txt	SHIP	9	12	[0, 0, 0]	n/a	FR1	0	R1108J
2095.451	2.483	2146316	WORD	n/a	wordpools/wordpool_EN.txt	WAND	10	12	[0, 0, 0]	n/a	FR1	0	R1108J
2097.934	2.585	2148799	WORD	n/a	wordpools/wordpool_EN.txt	FOG	11	12	[0, 0, 0]	n/a	FR1	0	R1108J
2100.519	1.616	2151384	WORD	n/a	wordpools/wordpool_EN.txt	GLOVE	12	12	[0, 0, 0]	n/a	FR1	0	R1108J
2102.135	0.0	2153000	DISTRACT_START	n/a	n/a	n/a	-999	12	[0, 0, 0]	n/a	FR1	0	R1108J
2102.135	0.016	2153000	START	n/a	n/a	n/a	-999	12	[-999, -999, -999]	n/a	FR1	0	R1108J
2102.151	5.051	2153016	PROB	5.051	n/a	n/a	-999	12	[3, 2, 4]	9	FR1	0	R1108J
2107.202	7.018	2158067	PROB	7.018	n/a	n/a	-999	12	[6, 7, 1]	14	FR1	0	R1108J
2114.22	5.65	2165085	PROB	5.65	n/a	n/a	-999	12	[3, 2, 2]	7	FR1	0	R1108J
2119.87	4.052	2170735	PROB	4.052	n/a	n/a	-999	12	[6, 5, 1]	12	FR1	0	R1108J
2123.922	0.015	2174787	STOP	n/a	n/a	n/a	-999	12	[-999, -999, -999]	n/a	FR1	0	R1108J
2123.937	1.101	2174802	DISTRACT_END	n/a	n/a	n/a	-999	12	[0, 0, 0]	n/a	FR1	0	R1108J
2125.038	4.007	2175903	REC_START	n/a	n/a	n/a	-999	12	[0, 0, 0]	n/a	FR1	0	R1108J
2129.045	1.766	2179910	REC_WORD	1.766	n/a	SPOON	-999	12	[0, 0, 0]	n/a	FR1	0	R1108J
2130.811	11.83	2181676	REC_WORD_VV	11.83	n/a	<>	-999	12	[0, 0, 0]	n/a	FR1	0	R1108J
2142.641	1.597	2193506	REC_WORD	1.597	n/a	SHIP	-999	12	[0, 0, 0]	n/a	FR1	0	R1108J
2144.238	1.201	2195103	REC_WORD	1.201	n/a	LOCK	-999	12	[0, 0, 0]	n/a	FR1	0	R1108J
2145.439	9.614	2196304	REC_WORD_VV	9.614	n/a	<>	-999	12	[0, 0, 0]	n/a	FR1	0	R1108J
2155.053	3.339	2205918	REC_END	n/a	n/a	n/a	-999	12	[0, 0, 0]	n/a	FR1	0	R1108J
2158.392	0.0	2209257	TRIAL	n/a	n/a	n/a	-999	13	[0, 0, 0]	n/a	FR1	0	R1108J
2158.392	10.428	2209257	COUNTDOWN_START	n/a	n/a	n/a	-999	13	[0, 0, 0]	n/a	FR1	0	R1108J
2168.82	0.007	2219684	COUNTDOWN_END	n/a	n/a	n/a	-999	13	[0, 0, 0]	n/a	FR1	0	R1108J
2168.827	3.65	2219691	ORIENT	n/a	n/a	n/a	-999	13	[0, 0, 0]	n/a	FR1	0	R1108J
2172.477	2.517	2223341	WORD	n/a	wordpools/wordpool_EN.txt	CHAIR	1	13	[0, 0, 0]	n/a	FR1	0	R1108J
2174.994	2.434	2225858	WORD	n/a	wordpools/wordpool_EN.txt	ROOF	2	13	[0, 0, 0]	n/a	FR1	0	R1108J
2177.428	2.5	2228292	WORD	n/a	wordpools/wordpool_EN.txt	TOE	3	13	[0, 0, 0]	n/a	FR1	0	R1108J
2179.928	2.501	2230792	WORD	n/a	wordpools/wordpool_EN.txt	LEAF	4	13	[0, 0, 0]	n/a	FR1	0	R1108J
2182.429	2.517	2233293	WORD	n/a	wordpools/wordpool_EN.txt	MULE	5	13	[0, 0, 0]	n/a	FR1	0	R1108J
2184.946	2.483	2235810	WORD	n/a	wordpools/wordpool_EN.txt	ANT	6	13	[0, 0, 0]	n/a	FR1	0	R1108J
2187.429	2.434	2238293	WORD	n/a	wordpools/wordpool_EN.txt	HAWK	7	13	[0, 0, 0]	n/a	FR1	0	R1108J
2189.863	2.584	2240727	WORD	n/a	wordpools/wordpool_EN.txt	NET	8	13	[0, 0, 0]	n/a	FR1	0	R1108J
2192.447	2.4	2243311	WORD	n/a	wordpools/wordpool_EN.txt	CLIFF	9	13	[0, 0, 0]	n/a	FR1	0	R1108J
2194.847	2.5	2245711	WORD	n/a	wordpools/wordpool_EN.txt	PEA	10	13	[0, 0, 0]	n/a	FR1	0	R1108J
2197.347	2.517	2248211	WORD	n/a	wordpools/wordpool_EN.txt	CHEEK	11	13	[0, 0, 0]	n/a	FR1	0	R1108J
2199.864	1.617	2250728	WORD	n/a	wordpools/wordpool_EN.txt	NEST	12	13	[0, 0, 0]	n/a	FR1	0	R1108J
2201.481	0.001	2252345	DISTRACT_START	n/a	n/a	n/a	-999	13	[0, 0, 0]	n/a	FR1	0	R1108J
2201.482	0.017	2252346	START	n/a	n/a	n/a	-999	13	[-999, -999, -999]	n/a	FR1	0	R1108J
2201.499	4.983	2252363	PROB	4.983	n/a	n/a	-999	13	[2, 8, 3]	14	FR1	0	R1108J
2206.482	8.252	2257346	PROB	8.252	n/a	n/a	-999	13	[4, 6, 9]	19	FR1	0	R1108J
2214.734	5.166	2265598	PROB	5.166	n/a	n/a	-999	13	[4, 6, 1]	11	FR1	0	R1108J
2219.9	5.019	2270764	PROB	5.019	n/a	n/a	-999	13	[5, 6, 2]	13	FR1	0	R1108J
2224.919	0.016	2275783	STOP	n/a	n/a	n/a	-999	13	[-999, -999, -999]	n/a	FR1	0	R1108J
2224.935	1.217	2275799	DISTRACT_END	n/a	n/a	n/a	-999	13	[0, 0, 0]	n/a	FR1	0	R1108J
2226.152	1.267	2277016	REC_START	n/a	n/a	n/a	-999	13	[0, 0, 0]	n/a	FR1	0	R1108J
2227.419	1.145	2278283	REC_WORD_VV	1.145	n/a	<>	-999	13	[0, 0, 0]	n/a	FR1	0	R1108J
2228.564	2.424	2279428	REC_WORD	2.424	n/a	ANT	-999	13	[0, 0, 0]	n/a	FR1	0	R1108J
2230.988	3.416	2281851	REC_WORD	3.416	n/a	CHAIR	-999	13	[0, 0, 0]	n/a	FR1	0	R1108J
2234.404	12.828	2285267	REC_WORD_VV	12.828	n/a	<>	-999	13	[0, 0, 0]	n/a	FR1	0	R1108J
2247.232	1.376	2298095	REC_WORD	1.376	n/a	MULE	-999	13	[0, 0, 0]	n/a	FR1	0	R1108J
2248.608	1.361	2299471	REC_WORD	1.361	n/a	DEER	-999	13	[0, 0, 0]	n/a	FR1	0	R1108J
2249.969	6.193	2300832	REC_WORD_VV	6.193	n/a	<>	-999	13	[0, 0, 0]	n/a	FR1	0	R1108J
2256.162	3.628	2307025	REC_END	n/a	n/a	n/a	-999	13	[0, 0, 0]	n/a	FR1	0	R1108J
2259.79	0.0	2310653	TRIAL	n/a	n/a	n/a	-999	14	[0, 0, 0]	n/a	FR1	0	R1108J
2259.79	10.428	2310653	COUNTDOWN_START	n/a	n/a	n/a	-999	14	[0, 0, 0]	n/a	FR1	0	R1108J
2270.218	0.006	2321081	COUNTDOWN_END	n/a	n/a	n/a	-999	14	[0, 0, 0]	n/a	FR1	0	R1108J
2270.224	3.85	2321087	ORIENT	n/a	n/a	n/a	-999	14	[0, 0, 0]	n/a	FR1	0	R1108J
2274.074	2.485	2324937	WORD	n/a	wordpools/wordpool_EN.txt	GLASS	1	14	[0, 0, 0]	n/a	FR1	0	R1108J
2276.559	2.449	2327422	WORD	n/a	wordpools/wordpool_EN.txt	GOLD	2	14	[0, 0, 0]	n/a	FR1	0	R1108J
2279.008	2.417	2329871	WORD	n/a	wordpools/wordpool_EN.txt	RAKE	3	14	[0, 0, 0]	n/a	FR1	0	R1108J
2281.425	2.4	2332288	WORD	n/a	wordpools/wordpool_EN.txt	GUARD	4	14	[0, 0, 0]	n/a	FR1	0	R1108J
2283.825	2.484	2334688	WORD	n/a	wordpools/wordpool_EN.txt	NAIL	5	14	[0, 0, 0]	n/a	FR1	0	R1108J
2286.309	2.5	2337172	WORD	n/a	wordpools/wordpool_EN.txt	STICK	6	14	[0, 0, 0]	n/a	FR1	0	R1108J
2288.809	2.534	2339672	WORD	n/a	wordpools/wordpool_EN.txt	STEAK	7	14	[0, 0, 0]	n/a	FR1	0	R1108J
2291.343	2.435	2342206	WORD	n/a	wordpools/wordpool_EN.txt	SIGN	8	14	[0, 0, 0]	n/a	FR1	0	R1108J
2293.778	2.399	2344641	WORD	n/a	wordpools/wordpool_EN.txt	TOOTH	9	14	[0, 0, 0]	n/a	FR1	0	R1108J
2296.177	2.451	2347040	WORD	n/a	wordpools/wordpool_EN.txt	BROOM	10	14	[0, 0, 0]	n/a	FR1	0	R1108J
2298.628	2.483	2349491	WORD	n/a	wordpools/wordpool_EN.txt	FORK	11	14	[0, 0, 0]	n/a	FR1	0	R1108J
2301.111	1.601	2351974	WORD	n/a	wordpools/wordpool_EN.txt	CUBE	12	14	[0, 0, 0]	n/a	FR1	0	R1108J
2302.712	0.0	2353574	DISTRACT_START	n/a	n/a	n/a	-999	14	[0, 0, 0]	n/a	FR1	0	R1108J
2302.712	0.017	2353574	START	n/a	n/a	n/a	-999	14	[-999, -999, -999]	n/a	FR1	0	R1108J
2302.729	5.867	2353591	PROB	5.867	n/a	n/a	-999	14	[5, 6, 5]	15	FR1	0	R1108J
2308.596	9.817	2359458	PROB	9.817	n/a	n/a	-999	14	[8, 9, 4]	21	FR1	0	R1108J
2318.413	12.335	2369275	PROB	12.335	n/a	n/a	-999	14	[1, 2, 7]	19	FR1	0	R1108J
2330.748	0.018	2381610	STOP	n/a	n/a	n/a	-999	14	[-999, -999, -999]	n/a	FR1	0	R1108J
2330.766	1.067	2381628	DISTRACT_END	n/a	n/a	n/a	-999	14	[0, 0, 0]	n/a	FR1	0	R1108J
2331.833	2.133	2382695	REC_START	n/a	n/a	n/a	-999	14	[0, 0, 0]	n/a	FR1	0	R1108J
2333.966	2.476	2384828	REC_WORD_VV	2.476	n/a	<>	-999	14	[0, 0, 0]	n/a	FR1	0	R1108J
2336.442	1.008	2387304	REC_WORD	1.008	n/a	FORK	-999	14	[0, 0, 0]	n/a	FR1	0	R1108J
2337.45	0.785	2388312	REC_WORD	0.785	n/a	NAIL	-999	14	[0, 0, 0]	n/a	FR1	0	R1108J
2338.235	1.435	2389097	REC_WORD	1.435	n/a	STICK	-999	14	[0, 0, 0]	n/a	FR1	0	R1108J
2339.67	10.251	2390532	REC_WORD_VV	10.251	n/a	<>	-999	14	[0, 0, 0]	n/a	FR1	0	R1108J
2349.921	1.567	2400783	REC_WORD	1.567	n/a	GOLD	-999	14	[0, 0, 0]	n/a	FR1	0	R1108J
2351.488	10.354	2402350	REC_WORD_VV	10.354	n/a	<>	-999	14	[0, 0, 0]	n/a	FR1	0	R1108J
2361.842	3.662	2412704	REC_END	n/a	n/a	n/a	-999	14	[0, 0, 0]	n/a	FR1	0	R1108J
2365.504	0.0	2416366	TRIAL	n/a	n/a	n/a	-999	15	[0, 0, 0]	n/a	FR1	0	R1108J
2365.504	10.428	2416366	COUNTDOWN_START	n/a	n/a	n/a	-999	15	[0, 0, 0]	n/a	FR1	0	R1108J
2375.932	0.006	2426793	COUNTDOWN_END	n/a	n/a	n/a	-999	15	[0, 0, 0]	n/a	FR1	0	R1108J
2375.938	3.785	2426799	ORIENT	n/a	n/a	n/a	-999	15	[0, 0, 0]	n/a	FR1	0	R1108J
2379.723	2.416	2430584	WORD	n/a	wordpools/wordpool_EN.txt	GRASS	1	15	[0, 0, 0]	n/a	FR1	0	R1108J
2382.139	2.501	2433000	WORD	n/a	wordpools/wordpool_EN.txt	MOLE	2	15	[0, 0, 0]	n/a	FR1	0	R1108J
2384.64	2.583	2435501	WORD	n/a	wordpools/wordpool_EN.txt	ARM	3	15	[0, 0, 0]	n/a	FR1	0	R1108J
2387.223	2.584	2438084	WORD	n/a	wordpools/wordpool_EN.txt	DOLL	4	15	[0, 0, 0]	n/a	FR1	0	R1108J
2389.807	2.6	2440668	WORD	n/a	wordpools/wordpool_EN.txt	MOOSE	5	15	[0, 0, 0]	n/a	FR1	0	R1108J
2392.407	2.401	2443268	WORD	n/a	wordpools/wordpool_EN.txt	PIT	6	15	[0, 0, 0]	n/a	FR1	0	R1108J
2394.808	2.382	2445669	WORD	n/a	wordpools/wordpool_EN.txt	FOX	7	15	[0, 0, 0]	n/a	FR1	0	R1108J
2397.19	2.452	2448051	WORD	n/a	wordpools/wordpool_EN.txt	KEY	8	15	[0, 0, 0]	n/a	FR1	0	R1108J
2399.642	2.466	2450503	WORD	n/a	wordpools/wordpool_EN.txt	TEA	9	15	[0, 0, 0]	n/a	FR1	0	R1108J
2402.108	2.568	2452969	WORD	n/a	wordpools/wordpool_EN.txt	DOOR	10	15	[0, 0, 0]	n/a	FR1	0	R1108J
2404.676	2.499	2455537	WORD	n/a	wordpools/wordpool_EN.txt	CAKE	11	15	[0, 0, 0]	n/a	FR1	0	R1108J
2407.175	1.601	2458036	WORD	n/a	wordpools/wordpool_EN.txt	MOON	12	15	[0, 0, 0]	n/a	FR1	0	R1108J
2408.776	0.001	2459637	DISTRACT_START	n/a	n/a	n/a	-999	15	[0, 0, 0]	n/a	FR1	0	R1108J
2408.777	0.016	2459638	START	n/a	n/a	n/a	-999	15	[-999, -999, -999]	n/a	FR1	0	R1108J
2408.793	7.001	2459654	PROB	7.001	n/a	n/a	-999	15	[6, 8, 6]	20	FR1	0	R1108J
2415.794	7.217	2466655	PROB	7.217	n/a	n/a	-999	15	[4, 7, 1]	12	FR1	0	R1108J
2423.011	6.02	2473872	PROB	6.02	n/a	n/a	-999	15	[4, 6, 2]	12	FR1	0	R1108J
2429.031	0.014	2479892	STOP	n/a	n/a	n/a	-999	15	[-999, -999, -999]	n/a	FR1	0	R1108J
2429.045	1.117	2479906	DISTRACT_END	n/a	n/a	n/a	-999	15	[0, 0, 0]	n/a	FR1	0	R1108J
2430.162	0.778	2481023	REC_START	n/a	n/a	n/a	-999	15	[0, 0, 0]	n/a	FR1	0	R1108J
2430.94	5.778	2481801	REC_WORD_VV	5.778	n/a	<>	-999	15	[0, 0, 0]	n/a	FR1	0	R1108J
2436.718	1.235	2487579	REC_WORD	1.235	n/a	PIT	-999	15	[0, 0, 0]	n/a	FR1	0	R1108J
2437.953	4.889	2488814	REC_WORD_VV	4.889	n/a	<>	-999	15	[0, 0, 0]	n/a	FR1	0	R1108J
2442.842	4.256	2493702	REC_WORD	4.256	n/a	BUS	-999	15	[0, 0, 0]	n/a	FR1	0	R1108J
2447.098	0.729	2497958	REC_WORD	0.729	n/a	MOLE	-999	15	[0, 0, 0]	n/a	FR1	0	R1108J
2447.827	1.485	2498687	REC_WORD	1.485	n/a	GRASS	-999	15	[0, 0, 0]	n/a	FR1	0	R1108J
2449.312	3.52	2500172	REC_WORD_VV	3.52	n/a	<>	-999	15	[0, 0, 0]	n/a	FR1	0	R1108J
2452.832	7.341	2503692	REC_WORD	7.341	n/a	ARM	-999	15	[0, 0, 0]	n/a	FR1	0	R1108J
2460.173	4.06	2511033	REC_END	n/a	n/a	n/a	-999	15	[0, 0, 0]	n/a	FR1	0	R1108J
2464.233	0.0	2515093	TRIAL	n/a	n/a	n/a	-999	16	[0, 0, 0]	n/a	FR1	0	R1108J
2464.233	10.428	2515093	COUNTDOWN_START	n/a	n/a	n/a	-999	16	[0, 0, 0]	n/a	FR1	0	R1108J
2474.661	0.008	2525521	COUNTDOWN_END	n/a	n/a	n/a	-999	16	[0, 0, 0]	n/a	FR1	0	R1108J
2474.669	3.799	2525529	ORIENT	n/a	n/a	n/a	-999	16	[0, 0, 0]	n/a	FR1	0	R1108J
2478.468	2.384	2529328	WORD	n/a	wordpools/wordpool_EN.txt	CLOTH	1	16	[0, 0, 0]	n/a	FR1	0	R1108J
2480.852	2.55	2531712	WORD	n/a	wordpools/wordpool_EN.txt	LAMB	2	16	[0, 0, 0]	n/a	FR1	0	R1108J
2483.402	2.601	2534262	WORD	n/a	wordpools/wordpool_EN.txt	SNAIL	3	16	[0, 0, 0]	n/a	FR1	0	R1108J
2486.003	2.383	2536863	WORD	n/a	wordpools/wordpool_EN.txt	CHALK	4	16	[0, 0, 0]	n/a	FR1	0	R1108J
2488.386	2.5	2539246	WORD	n/a	wordpools/wordpool_EN.txt	ARK	5	16	[0, 0, 0]	n/a	FR1	0	R1108J
2490.886	2.568	2541746	WORD	n/a	wordpools/wordpool_EN.txt	SHIRT	6	16	[0, 0, 0]	n/a	FR1	0	R1108J
2493.454	2.417	2544314	WORD	n/a	wordpools/wordpool_EN.txt	TREE	7	16	[0, 0, 0]	n/a	FR1	0	R1108J
2495.871	2.4	2546731	WORD	n/a	wordpools/wordpool_EN.txt	COW	8	16	[0, 0, 0]	n/a	FR1	0	R1108J
2498.271	2.535	2549131	WORD	n/a	wordpools/wordpool_EN.txt	ROPE	9	16	[0, 0, 0]	n/a	FR1	0	R1108J
2500.806	2.516	2551666	WORD	n/a	wordpools/wordpool_EN.txt	MAZE	10	16	[0, 0, 0]	n/a	FR1	0	R1108J
2503.322	2.401	2554182	WORD	n/a	wordpools/wordpool_EN.txt	CAGE	11	16	[0, 0, 0]	n/a	FR1	0	R1108J
2505.723	1.616	2556583	WORD	n/a	wordpools/wordpool_EN.txt	TRASH	12	16	[0, 0, 0]	n/a	FR1	0	R1108J
2507.339	0.0	2558199	DISTRACT_START	n/a	n/a	n/a	-999	16	[0, 0, 0]	n/a	FR1	0	R1108J
2507.339	0.016	2558199	START	n/a	n/a	n/a	-999	16	[-999, -999, -999]	n/a	FR1	0	R1108J
2507.355	4.568	2558215	PROB	4.568	n/a	n/a	-999	16	[1, 8, 1]	10	FR1	0	R1108J
2511.923	14.502	2562783	PROB	14.502	n/a	n/a	-999	16	[5, 8, 4]	17	FR1	0	R1108J
2526.425	6.835	2577284	PROB	6.835	n/a	n/a	-999	16	[6, 7, 1]	14	FR1	0	R1108J
2533.26	0.016	2584119	STOP	n/a	n/a	n/a	-999	16	[-999, -999, -999]	n/a	FR1	0	R1108J
2533.276	1.05	2584135	DISTRACT_END	n/a	n/a	n/a	-999	16	[0, 0, 0]	n/a	FR1	0	R1108J
2534.326	0.991	2585185	REC_START	n/a	n/a	n/a	-999	16	[0, 0, 0]	n/a	FR1	0	R1108J
2535.317	1.465	2586176	REC_WORD	1.465	n/a	SNAIL	-999	16	[0, 0, 0]	n/a	FR1	0	R1108J
2536.782	1.664	2587641	REC_WORD	1.664	n/a	COW	-999	16	[0, 0, 0]	n/a	FR1	0	R1108J
2538.446	1.046	2589305	REC_WORD_VV	1.046	n/a	<>	-999	16	[0, 0, 0]	n/a	FR1	0	R1108J
2539.492	2.83	2590351	REC_WORD	2.83	n/a	TRASH	-999	16	[0, 0, 0]	n/a	FR1	0	R1108J
2542.322	1.652	2593181	REC_WORD	1.652	n/a	ARK	-999	16	[0, 0, 0]	n/a	FR1	0	R1108J
2543.974	4.108	2594833	REC_WORD_VV	4.108	n/a	<>	-999	16	[0, 0, 0]	n/a	FR1	0	R1108J
2548.082	16.258	2598941	REC_WORD	16.258	n/a	CLOTH	-999	16	[0, 0, 0]	n/a	FR1	0	R1108J
2564.34	2.724	2615199	REC_END	n/a	n/a	n/a	-999	16	[0, 0, 0]	n/a	FR1	0	R1108J
2567.064	0.0	2617923	COUNTDOWN_START	n/a	n/a	n/a	-999	17	[0, 0, 0]	n/a	FR1	0	R1108J
2567.064	10.428	2617923	TRIAL	n/a	n/a	n/a	-999	17	[0, 0, 0]	n/a	FR1	0	R1108J
2577.492	0.007	2628351	COUNTDOWN_END	n/a	n/a	n/a	-999	17	[0, 0, 0]	n/a	FR1	0	R1108J
2577.499	3.65	2628358	ORIENT	n/a	n/a	n/a	-999	17	[0, 0, 0]	n/a	FR1	0	R1108J
2581.149	2.601	2632008	WORD	n/a	wordpools/wordpool_EN.txt	SOUP	1	17	[0, 0, 0]	n/a	FR1	0	R1108J
2583.75	2.466	2634608	WORD	n/a	wordpools/wordpool_EN.txt	FAN	2	17	[0, 0, 0]	n/a	FR1	0	R1108J
2586.216	2.485	2637074	WORD	n/a	wordpools/wordpool_EN.txt	WOLF	3	17	[0, 0, 0]	n/a	FR1	0	R1108J
2588.701	2.466	2639559	WORD	n/a	wordpools/wordpool_EN.txt	PLANT	4	17	[0, 0, 0]	n/a	FR1	0	R1108J
2591.167	2.518	2642025	WORD	n/a	wordpools/wordpool_EN.txt	PARK	5	17	[0, 0, 0]	n/a	FR1	0	R1108J
2593.685	2.583	2644543	WORD	n/a	wordpools/wordpool_EN.txt	BAT	6	17	[0, 0, 0]	n/a	FR1	0	R1108J
2596.268	2.534	2647126	WORD	n/a	wordpools/wordpool_EN.txt	SLUSH	7	17	[0, 0, 0]	n/a	FR1	0	R1108J
2598.802	2.383	2649660	WORD	n/a	wordpools/wordpool_EN.txt	VINE	8	17	[0, 0, 0]	n/a	FR1	0	R1108J
2601.185	2.484	2652043	WORD	n/a	wordpools/wordpool_EN.txt	BUSH	9	17	[0, 0, 0]	n/a	FR1	0	R1108J
2603.669	2.567	2654527	WORD	n/a	wordpools/wordpool_EN.txt	PASTE	10	17	[0, 0, 0]	n/a	FR1	0	R1108J
2606.236	2.434	2657094	WORD	n/a	wordpools/wordpool_EN.txt	JAR	11	17	[0, 0, 0]	n/a	FR1	0	R1108J
2608.67	1.616	2659528	WORD	n/a	wordpools/wordpool_EN.txt	CHIEF	12	17	[0, 0, 0]	n/a	FR1	0	R1108J
2610.286	0.0	2661144	DISTRACT_START	n/a	n/a	n/a	-999	17	[0, 0, 0]	n/a	FR1	0	R1108J
2610.286	0.017	2661144	START	n/a	n/a	n/a	-999	17	[-999, -999, -999]	n/a	FR1	0	R1108J
2610.303	12.286	2661161	PROB	12.286	n/a	n/a	-999	17	[6, 7, 8]	21	FR1	0	R1108J
2622.589	14.02	2673447	PROB	14.02	n/a	n/a	-999	17	[5, 1, 8]	14	FR1	0	R1108J
2636.609	0.015	2687467	STOP	n/a	n/a	n/a	-999	17	[-999, -999, -999]	n/a	FR1	0	R1108J
2636.624	1.134	2687482	DISTRACT_END	n/a	n/a	n/a	-999	17	[0, 0, 0]	n/a	FR1	0	R1108J
2637.758	0.892	2688616	REC_START	n/a	n/a	n/a	-999	17	[0, 0, 0]	n/a	FR1	0	R1108J
2638.65	1.335	2689508	REC_WORD_VV	1.335	n/a	<>	-999	17	[0, 0, 0]	n/a	FR1	0	R1108J
2639.985	0.916	2690843	REC_WORD	0.916	n/a	BUSH	-999	17	[0, 0, 0]	n/a	FR1	0	R1108J
2640.901	0.806	2691759	REC_WORD	0.806	n/a	PASTE	-999	17	[0, 0, 0]	n/a	FR1	0	R1108J
2641.707	1.489	2692565	REC_WORD	1.489	n/a	JAR	-999	17	[0, 0, 0]	n/a	FR1	0	R1108J
2643.196	1.646	2694054	REC_WORD_VV	1.646	n/a	<>	-999	17	[0, 0, 0]	n/a	FR1	0	R1108J
2644.842	1.827	2695700	REC_WORD	1.827	n/a	PLANT	-999	17	[0, 0, 0]	n/a	FR1	0	R1108J
2646.669	1.337	2697527	REC_WORD	1.337	n/a	BAT	-999	17	[0, 0, 0]	n/a	FR1	0	R1108J
2648.006	1.745	2698864	REC_WORD	1.745	n/a	SLUSH	-999	17	[0, 0, 0]	n/a	FR1	0	R1108J
2649.751	18.016	2700609	REC_WORD_VV	18.016	n/a	<>	-999	17	[0, 0, 0]	n/a	FR1	0	R1108J
2667.767	6.845	2718624	REC_END	n/a	n/a	n/a	-999	17	[0, 0, 0]	n/a	FR1	0	R1108J
2674.612	0.0	2725469	TRIAL	n/a	n/a	n/a	-999	18	[0, 0, 0]	n/a	FR1	0	R1108J
2674.612	10.428	2725469	COUNTDOWN_START	n/a	n/a	n/a	-999	18	[0, 0, 0]	n/a	FR1	0	R1108J
2685.04	0.006	2735897	COUNTDOWN_END	n/a	n/a	n/a	-999	18	[0, 0, 0]	n/a	FR1	0	R1108J
2685.046	3.752	2735903	ORIENT	n/a	n/a	n/a	-999	18	[0, 0, 0]	n/a	FR1	0	R1108J
2688.798	2.482	2739655	WORD	n/a	wordpools/wordpool_EN.txt	HEN	1	18	[0, 0, 0]	n/a	FR1	0	R1108J
2691.28	2.601	2742137	WORD	n/a	wordpools/wordpool_EN.txt	PALM	2	18	[0, 0, 0]	n/a	FR1	0	R1108J
2693.881	2.4	2744738	WORD	n/a	wordpools/wordpool_EN.txt	STRING	3	18	[0, 0, 0]	n/a	FR1	0	R1108J
2696.281	2.518	2747138	WORD	n/a	wordpools/wordpool_EN.txt	ELF	4	18	[0, 0, 0]	n/a	FR1	0	R1108J
2698.799	2.383	2749656	WORD	n/a	wordpools/wordpool_EN.txt	SUN	5	18	[0, 0, 0]	n/a	FR1	0	R1108J
2701.182	2.568	2752039	WORD	n/a	wordpools/wordpool_EN.txt	FENCE	6	18	[0, 0, 0]	n/a	FR1	0	R1108J
2703.75	2.516	2754607	WORD	n/a	wordpools/wordpool_EN.txt	BARN	7	18	[0, 0, 0]	n/a	FR1	0	R1108J
2706.266	2.617	2757123	WORD	n/a	wordpools/wordpool_EN.txt	FORT	8	18	[0, 0, 0]	n/a	FR1	0	R1108J
2708.883	2.6	2759740	WORD	n/a	wordpools/wordpool_EN.txt	SKI	9	18	[0, 0, 0]	n/a	FR1	0	R1108J
2711.483	2.55	2762340	WORD	n/a	wordpools/wordpool_EN.txt	CLAY	10	18	[0, 0, 0]	n/a	FR1	0	R1108J
2714.033	2.401	2764890	WORD	n/a	wordpools/wordpool_EN.txt	CAT	11	18	[0, 0, 0]	n/a	FR1	0	R1108J
2716.434	1.616	2767291	WORD	n/a	wordpools/wordpool_EN.txt	HOUSE	12	18	[0, 0, 0]	n/a	FR1	0	R1108J
2718.05	0.001	2768907	DISTRACT_START	n/a	n/a	n/a	-999	18	[0, 0, 0]	n/a	FR1	0	R1108J
2718.051	0.016	2768908	START	n/a	n/a	n/a	-999	18	[-999, -999, -999]	n/a	FR1	0	R1108J
2718.067	13.252	2768924	PROB	13.252	n/a	n/a	-999	18	[9, 7, 7]	23	FR1	0	R1108J
2731.319	6.909	2782175	PROB	6.909	n/a	n/a	-999	18	[3, 7, 2]	12	FR1	0	R1108J
2738.228	0.009	2789084	STOP	n/a	n/a	n/a	-999	18	[-999, -999, -999]	n/a	FR1	0	R1108J
2738.237	1.134	2789093	DISTRACT_END	n/a	n/a	n/a	-999	18	[0, 0, 0]	n/a	FR1	0	R1108J
2739.371	1.535	2790227	REC_START	n/a	n/a	n/a	-999	18	[0, 0, 0]	n/a	FR1	0	R1108J
2740.906	2.152	2791762	REC_WORD	2.152	n/a	CAT	-999	18	[0, 0, 0]	n/a	FR1	0	R1108J
2743.058	1.696	2793914	REC_WORD	1.696	n/a	BARN	-999	18	[0, 0, 0]	n/a	FR1	0	R1108J
2744.754	5.315	2795610	REC_WORD_VV	5.315	n/a	<>	-999	18	[0, 0, 0]	n/a	FR1	0	R1108J
2750.069	1.385	2800925	REC_WORD_VV	1.385	n/a	<>	-999	18	[0, 0, 0]	n/a	FR1	0	R1108J
2751.454	9.069	2802310	REC_WORD	9.069	n/a	HOME	-999	18	[0, 0, 0]	n/a	FR1	0	R1108J
2760.523	0.858	2811379	REC_WORD	0.858	n/a	ELF	-999	18	[0, 0, 0]	n/a	FR1	0	R1108J
2761.381	6.483	2812237	REC_WORD_VV	6.483	n/a	<>	-999	18	[0, 0, 0]	n/a	FR1	0	R1108J
2767.864	1.517	2818720	REC_WORD	1.517	n/a	SKI	-999	18	[0, 0, 0]	n/a	FR1	0	R1108J
2769.381	6.678	2820237	REC_END	n/a	n/a	n/a	-999	18	[0, 0, 0]	n/a	FR1	0	R1108J
2776.059	0.0	2826915	TRIAL	n/a	n/a	n/a	-999	19	[0, 0, 0]	n/a	FR1	0	R1108J
2776.059	10.428	2826915	COUNTDOWN_START	n/a	n/a	n/a	-999	19	[0, 0, 0]	n/a	FR1	0	R1108J
2786.487	0.007	2837343	COUNTDOWN_END	n/a	n/a	n/a	-999	19	[0, 0, 0]	n/a	FR1	0	R1108J
2786.494	3.766	2837350	ORIENT	n/a	n/a	n/a	-999	19	[0, 0, 0]	n/a	FR1	0	R1108J
2790.26	2.518	2841116	WORD	n/a	wordpools/wordpool_EN.txt	DOCK	1	19	[0, 0, 0]	n/a	FR1	0	R1108J
2792.778	2.416	2843634	WORD	n/a	wordpools/wordpool_EN.txt	ROSE	2	19	[0, 0, 0]	n/a	FR1	0	R1108J
2795.194	2.502	2846049	WORD	n/a	wordpools/wordpool_EN.txt	STOOL	3	19	[0, 0, 0]	n/a	FR1	0	R1108J
2797.696	2.482	2848551	WORD	n/a	wordpools/wordpool_EN.txt	JUICE	4	19	[0, 0, 0]	n/a	FR1	0	R1108J
2800.178	2.435	2851033	WORD	n/a	wordpools/wordpool_EN.txt	MAIL	5	19	[0, 0, 0]	n/a	FR1	0	R1108J
2802.613	2.433	2853468	WORD	n/a	wordpools/wordpool_EN.txt	TAIL	6	19	[0, 0, 0]	n/a	FR1	0	R1108J
2805.046	2.417	2855901	WORD	n/a	wordpools/wordpool_EN.txt	PLANE	7	19	[0, 0, 0]	n/a	FR1	0	R1108J
2807.463	2.433	2858318	WORD	n/a	wordpools/wordpool_EN.txt	BIRD	8	19	[0, 0, 0]	n/a	FR1	0	R1108J
2809.896	2.451	2860751	WORD	n/a	wordpools/wordpool_EN.txt	CALF	9	19	[0, 0, 0]	n/a	FR1	0	R1108J
2812.347	2.567	2863202	WORD	n/a	wordpools/wordpool_EN.txt	EAR	10	19	[0, 0, 0]	n/a	FR1	0	R1108J
2814.914	2.517	2865769	WORD	n/a	wordpools/wordpool_EN.txt	EEL	11	19	[0, 0, 0]	n/a	FR1	0	R1108J
2817.431	1.616	2868286	WORD	n/a	wordpools/wordpool_EN.txt	FISH	12	19	[0, 0, 0]	n/a	FR1	0	R1108J
2819.047	0.001	2869902	DISTRACT_START	n/a	n/a	n/a	-999	19	[0, 0, 0]	n/a	FR1	0	R1108J
2819.048	0.016	2869903	START	n/a	n/a	n/a	-999	19	[-999, -999, -999]	n/a	FR1	0	R1108J
2819.064	6.235	2869919	PROB	6.235	n/a	n/a	-999	19	[6, 3, 3]	12	FR1	0	R1108J
2825.299	18.782	2876154	PROB	18.782	n/a	n/a	-999	19	[5, 7, 9]	21	FR1	0	R1108J
2844.081	0.02	2894936	STOP	n/a	n/a	n/a	-999	19	[-999, -999, -999]	n/a	FR1	0	R1108J
2844.101	1.101	2894956	DISTRACT_END	n/a	n/a	n/a	-999	19	[0, 0, 0]	n/a	FR1	0	R1108J
2845.202	0.934	2896057	REC_START	n/a	n/a	n/a	-999	19	[0, 0, 0]	n/a	FR1	0	R1108J
2846.136	0.708	2896991	REC_WORD	0.708	n/a	BIRD	-999	19	[0, 0, 0]	n/a	FR1	0	R1108J
2846.844	1.131	2897699	REC_WORD	1.131	n/a	TAIL	-999	19	[0, 0, 0]	n/a	FR1	0	R1108J
2847.975	1.384	2898830	REC_WORD	1.384	n/a	FISH	-999	19	[0, 0, 0]	n/a	FR1	0	R1108J
2849.359	15.608	2900214	REC_WORD_VV	15.608	n/a	<>	-999	19	[0, 0, 0]	n/a	FR1	0	R1108J
2864.967	10.245	2915821	REC_WORD	10.245	n/a	HEN	-999	19	[0, 0, 0]	n/a	FR1	0	R1108J
2875.212	298.016	2926066	REC_END	n/a	n/a	n/a	-999	19	[0, 0, 0]	n/a	FR1	0	R1108J
3173.228	0.0	3224078	TRIAL	n/a	n/a	n/a	-999	20	[0, 0, 0]	n/a	FR1	0	R1108J
3173.228	10.428	3224078	COUNTDOWN_START	n/a	n/a	n/a	-999	20	[0, 0, 0]	n/a	FR1	0	R1108J
3183.656	0.008	3234506	COUNTDOWN_END	n/a	n/a	n/a	-999	20	[0, 0, 0]	n/a	FR1	0	R1108J
3183.664	3.616	3234514	ORIENT	n/a	n/a	n/a	-999	20	[0, 0, 0]	n/a	FR1	0	R1108J
3187.28	2.451	3238130	WORD	n/a	wordpools/wordpool_EN.txt	BOMB	1	20	[0, 0, 0]	n/a	FR1	0	R1108J
3189.731	2.433	3240581	WORD	n/a	wordpools/wordpool_EN.txt	SOAP	2	20	[0, 0, 0]	n/a	FR1	0	R1108J
3192.164	2.468	3243014	WORD	n/a	wordpools/wordpool_EN.txt	SMOKE	3	20	[0, 0, 0]	n/a	FR1	0	R1108J
3194.632	2.382	3245482	WORD	n/a	wordpools/wordpool_EN.txt	COIN	4	20	[0, 0, 0]	n/a	FR1	0	R1108J
3197.014	2.467	3247864	WORD	n/a	wordpools/wordpool_EN.txt	JAIL	5	20	[0, 0, 0]	n/a	FR1	0	R1108J
3199.481	2.484	3250331	WORD	n/a	wordpools/wordpool_EN.txt	PIPE	6	20	[0, 0, 0]	n/a	FR1	0	R1108J
3201.965	2.433	3252815	WORD	n/a	wordpools/wordpool_EN.txt	WEED	7	20	[0, 0, 0]	n/a	FR1	0	R1108J
3204.398	2.451	3255248	WORD	n/a	wordpools/wordpool_EN.txt	CLOWN	8	20	[0, 0, 0]	n/a	FR1	0	R1108J
3206.849	2.5	3257699	WORD	n/a	wordpools/wordpool_EN.txt	VAN	9	20	[0, 0, 0]	n/a	FR1	0	R1108J
3209.349	2.617	3260199	WORD	n/a	wordpools/wordpool_EN.txt	MILK	10	20	[0, 0, 0]	n/a	FR1	0	R1108J
3211.966	2.451	3262816	WORD	n/a	wordpools/wordpool_EN.txt	SNOW	11	20	[0, 0, 0]	n/a	FR1	0	R1108J
3214.417	1.617	3265267	WORD	n/a	wordpools/wordpool_EN.txt	FARM	12	20	[0, 0, 0]	n/a	FR1	0	R1108J
3216.034	0.0	3266884	DISTRACT_START	n/a	n/a	n/a	-999	20	[0, 0, 0]	n/a	FR1	0	R1108J
3216.034	0.016	3266884	START	n/a	n/a	n/a	-999	20	[-999, -999, -999]	n/a	FR1	0	R1108J
3216.05	11.368	3266899	PROB	11.368	n/a	n/a	-999	20	[9, 6, 8]	23	FR1	0	R1108J
3227.418	8.535	3278267	PROB	8.535	n/a	n/a	-999	20	[3, 9, 6]	18	FR1	0	R1108J
3235.953	9.49	3286802	PROB	9.49	n/a	n/a	-999	20	[4, 5, 8]	17	FR1	0	R1108J
3245.443	0.011	3296292	STOP	n/a	n/a	n/a	-999	20	[-999, -999, -999]	n/a	FR1	0	R1108J
3245.454	1.102	3296303	DISTRACT_END	n/a	n/a	n/a	-999	20	[0, 0, 0]	n/a	FR1	0	R1108J
3246.556	0.806	3297405	REC_START	n/a	n/a	n/a	-999	20	[0, 0, 0]	n/a	FR1	0	R1108J
3247.362	1.629	3298211	REC_WORD_VV	1.629	n/a	<>	-999	20	[0, 0, 0]	n/a	FR1	0	R1108J
3248.991	0.619	3299840	REC_WORD	0.619	n/a	SMOKE	-999	20	[0, 0, 0]	n/a	FR1	0	R1108J
3249.61	1.166	3300459	REC_WORD	1.166	n/a	BOMB	-999	20	[0, 0, 0]	n/a	FR1	0	R1108J
3250.776	0.934	3301625	REC_WORD	0.934	n/a	MILK	-999	20	[0, 0, 0]	n/a	FR1	0	R1108J
3251.71	23.278	3302559	REC_WORD_VV	23.278	n/a	<>	-999	20	[0, 0, 0]	n/a	FR1	0	R1108J
3274.988	1.581	3325837	REC_WORD	1.581	n/a	FARM	-999	20	[0, 0, 0]	n/a	FR1	0	R1108J
3276.569	4.257	3327418	REC_END	n/a	n/a	n/a	-999	20	[0, 0, 0]	n/a	FR1	0	R1108J
3280.826	0.0	3331675	TRIAL	n/a	n/a	n/a	-999	21	[0, 0, 0]	n/a	FR1	0	R1108J
3280.826	10.428	3331675	COUNTDOWN_START	n/a	n/a	n/a	-999	21	[0, 0, 0]	n/a	FR1	0	R1108J
3291.254	0.007	3342102	COUNTDOWN_END	n/a	n/a	n/a	-999	21	[0, 0, 0]	n/a	FR1	0	R1108J
3291.261	3.468	3342109	ORIENT	n/a	n/a	n/a	-999	21	[0, 0, 0]	n/a	FR1	0	R1108J
3294.729	2.399	3345577	WORD	n/a	wordpools/wordpool_EN.txt	TRAY	1	21	[0, 0, 0]	n/a	FR1	0	R1108J
3297.128	2.518	3347976	WORD	n/a	wordpools/wordpool_EN.txt	SCHOOL	2	21	[0, 0, 0]	n/a	FR1	0	R1108J
3299.646	2.566	3350494	WORD	n/a	wordpools/wordpool_EN.txt	PEN	3	21	[0, 0, 0]	n/a	FR1	0	R1108J
3302.212	2.435	3353060	WORD	n/a	wordpools/wordpool_EN.txt	CORD	4	21	[0, 0, 0]	n/a	FR1	0	R1108J
3304.647	2.466	3355495	WORD	n/a	wordpools/wordpool_EN.txt	SINK	5	21	[0, 0, 0]	n/a	FR1	0	R1108J
3307.113	2.451	3357961	WORD	n/a	wordpools/wordpool_EN.txt	LAND	6	21	[0, 0, 0]	n/a	FR1	0	R1108J
3309.564	2.466	3360412	WORD	n/a	wordpools/wordpool_EN.txt	WHALE	7	21	[0, 0, 0]	n/a	FR1	0	R1108J
3312.03	2.601	3362878	WORD	n/a	wordpools/wordpool_EN.txt	RAT	8	21	[0, 0, 0]	n/a	FR1	0	R1108J
3314.631	2.583	3365479	WORD	n/a	wordpools/wordpool_EN.txt	PLATE	9	21	[0, 0, 0]	n/a	FR1	0	R1108J
3317.214	2.518	3368062	WORD	n/a	wordpools/wordpool_EN.txt	ROAD	10	21	[0, 0, 0]	n/a	FR1	0	R1108J
3319.732	2.599	3370580	WORD	n/a	wordpools/wordpool_EN.txt	WOOD	11	21	[0, 0, 0]	n/a	FR1	0	R1108J
3322.331	1.617	3373179	WORD	n/a	wordpools/wordpool_EN.txt	SAIL	12	21	[0, 0, 0]	n/a	FR1	0	R1108J
3323.948	0.001	3374796	DISTRACT_START	n/a	n/a	n/a	-999	21	[0, 0, 0]	n/a	FR1	0	R1108J
3323.949	0.016	3374797	START	n/a	n/a	n/a	-999	21	[-999, -999, -999]	n/a	FR1	0	R1108J
3323.965	5.785	3374813	PROB	5.785	n/a	n/a	-999	21	[2, 4, 2]	8	FR1	0	R1108J
3329.75	13.634	3380598	PROB	13.634	n/a	n/a	-999	21	[2, 9, 5]	16	FR1	0	R1108J
3343.384	4.847	3394232	PROB	4.847	n/a	n/a	-999	21	[3, 7, 1]	11	FR1	0	R1108J
3348.231	0.003	3399079	STOP	n/a	n/a	n/a	-999	21	[-999, -999, -999]	n/a	FR1	0	R1108J
3348.234	1.152	3399082	DISTRACT_END	n/a	n/a	n/a	-999	21	[0, 0, 0]	n/a	FR1	0	R1108J
3349.386	1.155	3400234	REC_START	n/a	n/a	n/a	-999	21	[0, 0, 0]	n/a	FR1	0	R1108J
3350.541	1.518	3401389	REC_WORD_VV	1.518	n/a	<>	-999	21	[0, 0, 0]	n/a	FR1	0	R1108J
3352.059	0.934	3402907	REC_WORD	0.934	n/a	SCHOOL	-999	21	[0, 0, 0]	n/a	FR1	0	R1108J
3352.993	1.003	3403841	REC_WORD	1.003	n/a	TRAY	-999	21	[0, 0, 0]	n/a	FR1	0	R1108J
3353.996	2.038	3404844	REC_WORD	2.038	n/a	HEN	-999	21	[0, 0, 0]	n/a	FR1	0	R1108J
3356.034	12.135	3406882	REC_WORD_VV	12.135	n/a	<>	-999	21	[0, 0, 0]	n/a	FR1	0	R1108J
3368.169	8.96	3419016	REC_WORD	8.96	n/a	SINK	-999	21	[0, 0, 0]	n/a	FR1	0	R1108J
3377.129	2.265	3427976	REC_WORD	2.265	n/a	SNAIL	-999	21	[0, 0, 0]	n/a	FR1	0	R1108J
3379.394	3.263	3430241	REC_END	n/a	n/a	n/a	-999	21	[0, 0, 0]	n/a	FR1	0	R1108J
3382.657	0.0	3433504	TRIAL	n/a	n/a	n/a	-999	22	[0, 0, 0]	n/a	FR1	0	R1108J
3382.657	10.428	3433504	COUNTDOWN_START	n/a	n/a	n/a	-999	22	[0, 0, 0]	n/a	FR1	0	R1108J
3393.085	0.006	3443932	COUNTDOWN_END	n/a	n/a	n/a	-999	22	[0, 0, 0]	n/a	FR1	0	R1108J
3393.091	3.485	3443938	ORIENT	n/a	n/a	n/a	-999	22	[0, 0, 0]	n/a	FR1	0	R1108J
3396.576	2.466	3447423	WORD	n/a	wordpools/wordpool_EN.txt	MUG	1	22	[0, 0, 0]	n/a	FR1	0	R1108J
3399.042	2.383	3449889	WORD	n/a	wordpools/wordpool_EN.txt	FUDGE	2	22	[0, 0, 0]	n/a	FR1	0	R1108J
3401.425	2.501	3452272	WORD	n/a	wordpools/wordpool_EN.txt	BADGE	3	22	[0, 0, 0]	n/a	FR1	0	R1108J
3403.926	2.618	3454773	WORD	n/a	wordpools/wordpool_EN.txt	THREAD	4	22	[0, 0, 0]	n/a	FR1	0	R1108J
3406.544	2.566	3457391	WORD	n/a	wordpools/wordpool_EN.txt	ICE	5	22	[0, 0, 0]	n/a	FR1	0	R1108J
3409.11	2.451	3459957	WORD	n/a	wordpools/wordpool_EN.txt	BEAR	6	22	[0, 0, 0]	n/a	FR1	0	R1108J
3411.561	2.383	3462408	WORD	n/a	wordpools/wordpool_EN.txt	WAVE	7	22	[0, 0, 0]	n/a	FR1	0	R1108J
3413.944	2.568	3464791	WORD	n/a	wordpools/wordpool_EN.txt	TANK	8	22	[0, 0, 0]	n/a	FR1	0	R1108J
3416.512	2.499	3467359	WORD	n/a	wordpools/wordpool_EN.txt	BOOK	9	22	[0, 0, 0]	n/a	FR1	0	R1108J
3419.011	2.434	3469858	WORD	n/a	wordpools/wordpool_EN.txt	BALL	10	22	[0, 0, 0]	n/a	FR1	0	R1108J
3421.445	2.45	3472292	WORD	n/a	wordpools/wordpool_EN.txt	STEM	11	22	[0, 0, 0]	n/a	FR1	0	R1108J
3423.895	1.618	3474742	WORD	n/a	wordpools/wordpool_EN.txt	PIG	12	22	[0, 0, 0]	n/a	FR1	0	R1108J
3425.513	0.0	3476360	DISTRACT_START	n/a	n/a	n/a	-999	22	[0, 0, 0]	n/a	FR1	0	R1108J
3425.513	0.017	3476360	START	n/a	n/a	n/a	-999	22	[-999, -999, -999]	n/a	FR1	0	R1108J
3425.53	4.316	3476377	PROB	4.316	n/a	n/a	-999	22	[5, 5, 2]	12	FR1	0	R1108J
3429.846	4.835	3480692	PROB	4.835	n/a	n/a	-999	22	[4, 3, 1]	8	FR1	0	R1108J
3434.681	7.283	3485527	PROB	7.283	n/a	n/a	-999	22	[3, 6, 6]	15	FR1	0	R1108J
3441.964	5.431	3492810	PROB	5.431	n/a	n/a	-999	22	[4, 2, 5]	11	FR1	0	R1108J
3447.395	0.02	3498241	STOP	n/a	n/a	n/a	-999	22	[-999, -999, -999]	n/a	FR1	0	R1108J
3447.415	1.101	3498261	DISTRACT_END	n/a	n/a	n/a	-999	22	[0, 0, 0]	n/a	FR1	0	R1108J
3448.516	0.84	3499362	REC_START	n/a	n/a	n/a	-999	22	[0, 0, 0]	n/a	FR1	0	R1108J
3449.356	1.092	3500202	REC_WORD_VV	1.092	n/a	<>	-999	22	[0, 0, 0]	n/a	FR1	0	R1108J
3450.448	1.082	3501294	REC_WORD	1.082	n/a	BOOK	-999	22	[0, 0, 0]	n/a	FR1	0	R1108J
3451.53	1.48	3502376	REC_WORD	1.48	n/a	MUG	-999	22	[0, 0, 0]	n/a	FR1	0	R1108J
3453.01	2.265	3503856	REC_WORD	2.265	n/a	ICE	-999	22	[0, 0, 0]	n/a	FR1	0	R1108J
3455.275	1.557	3506121	REC_WORD_VV	1.557	n/a	<>	-999	22	[0, 0, 0]	n/a	FR1	0	R1108J
3456.832	15.635	3507678	REC_WORD_VV	15.635	n/a	<>	-999	22	[0, 0, 0]	n/a	FR1	0	R1108J
3472.467	6.061	3523313	REC_WORD	6.061	n/a	WHALE	-999	22	[0, 0, 0]	n/a	FR1	0	R1108J
3478.528	3.408	3529374	REC_END	n/a	n/a	n/a	-999	22	[0, 0, 0]	n/a	FR1	0	R1108J
3481.936	0.0	3532782	TRIAL	n/a	n/a	n/a	-999	23	[0, 0, 0]	n/a	FR1	0	R1108J
3481.936	10.428	3532782	COUNTDOWN_START	n/a	n/a	n/a	-999	23	[0, 0, 0]	n/a	FR1	0	R1108J
3492.364	0.007	3543210	COUNTDOWN_END	n/a	n/a	n/a	-999	23	[0, 0, 0]	n/a	FR1	0	R1108J
3492.371	3.55	3543217	ORIENT	n/a	n/a	n/a	-999	23	[0, 0, 0]	n/a	FR1	0	R1108J
3495.921	2.5	3546767	WORD	n/a	wordpools/wordpool_EN.txt	CORN	1	23	[0, 0, 0]	n/a	FR1	0	R1108J
3498.421	2.534	3549266	WORD	n/a	wordpools/wordpool_EN.txt	OAR	2	23	[0, 0, 0]	n/a	FR1	0	R1108J
3500.955	2.618	3551800	WORD	n/a	wordpools/wordpool_EN.txt	FLEA	3	23	[0, 0, 0]	n/a	FR1	0	R1108J
3503.573	2.6	3554418	WORD	n/a	wordpools/wordpool_EN.txt	POOL	4	23	[0, 0, 0]	n/a	FR1	0	R1108J
3506.173	2.434	3557018	WORD	n/a	wordpools/wordpool_EN.txt	TRAIN	5	23	[0, 0, 0]	n/a	FR1	0	R1108J
3508.607	2.433	3559452	WORD	n/a	wordpools/wordpool_EN.txt	THUMB	6	23	[0, 0, 0]	n/a	FR1	0	R1108J
3511.04	2.468	3561885	WORD	n/a	wordpools/wordpool_EN.txt	SKUNK	7	23	[0, 0, 0]	n/a	FR1	0	R1108J
3513.508	2.466	3564353	WORD	n/a	wordpools/wordpool_EN.txt	STOVE	8	23	[0, 0, 0]	n/a	FR1	0	R1108J
3515.974	2.551	3566819	WORD	n/a	wordpools/wordpool_EN.txt	ZOO	9	23	[0, 0, 0]	n/a	FR1	0	R1108J
3518.525	2.516	3569370	WORD	n/a	wordpools/wordpool_EN.txt	CUP	10	23	[0, 0, 0]	n/a	FR1	0	R1108J
3521.041	2.468	3571886	WORD	n/a	wordpools/wordpool_EN.txt	MOUTH	11	23	[0, 0, 0]	n/a	FR1	0	R1108J
3523.509	1.616	3574354	WORD	n/a	wordpools/wordpool_EN.txt	POLE	12	23	[0, 0, 0]	n/a	FR1	0	R1108J
3525.125	0.001	3575970	DISTRACT_START	n/a	n/a	n/a	-999	23	[0, 0, 0]	n/a	FR1	0	R1108J
3525.126	0.016	3575971	START	n/a	n/a	n/a	-999	23	[-999, -999, -999]	n/a	FR1	0	R1108J
3525.142	7.652	3575987	PROB	7.652	n/a	n/a	-999	23	[6, 7, 6]	19	FR1	0	R1108J
3532.794	5.399	3583639	PROB	5.399	n/a	n/a	-999	23	[1, 6, 3]	10	FR1	0	R1108J
3538.193	4.319	3589038	PROB	4.319	n/a	n/a	-999	23	[4, 1, 1]	6	FR1	0	R1108J
3542.512	4.328	3593357	PROB	4.328	n/a	n/a	-999	23	[6, 6, 1]	13	FR1	0	R1108J
3546.84	0.005	3597685	STOP	n/a	n/a	n/a	-999	23	[-999, -999, -999]	n/a	FR1	0	R1108J
3546.845	1.167	3597690	DISTRACT_END	n/a	n/a	n/a	-999	23	[0, 0, 0]	n/a	FR1	0	R1108J
3548.012	0.793	3598857	REC_START	n/a	n/a	n/a	-999	23	[0, 0, 0]	n/a	FR1	0	R1108J
3548.805	12.09	3599650	REC_WORD_VV	12.09	n/a	<>	-999	23	[0, 0, 0]	n/a	FR1	0	R1108J
3560.895	1.501	3611740	REC_WORD	1.501	n/a	CUP	-999	23	[0, 0, 0]	n/a	FR1	0	R1108J
3562.396	1.559	3613241	REC_WORD	1.559	n/a	OAR	-999	23	[0, 0, 0]	n/a	FR1	0	R1108J
3563.955	7.819	3614800	REC_WORD_VV	7.819	n/a	<>	-999	23	[0, 0, 0]	n/a	FR1	0	R1108J
3571.774	1.077	3622618	REC_WORD_VV	1.077	n/a	<>	-999	23	[0, 0, 0]	n/a	FR1	0	R1108J
3572.851	5.171	3623695	REC_WORD	5.171	n/a	POOL	-999	23	[0, 0, 0]	n/a	FR1	0	R1108J
3578.022	3.645	3628866	REC_END	n/a	n/a	n/a	-999	23	[0, 0, 0]	n/a	FR1	0	R1108J
3581.667	0.0	3632511	TRIAL	n/a	n/a	n/a	-999	24	[0, 0, 0]	n/a	FR1	0	R1108J
3581.667	10.428	3632511	COUNTDOWN_START	n/a	n/a	n/a	-999	24	[0, 0, 0]	n/a	FR1	0	R1108J
3592.095	0.006	3642939	COUNTDOWN_END	n/a	n/a	n/a	-999	24	[0, 0, 0]	n/a	FR1	0	R1108J
3592.101	3.733	3642945	ORIENT	n/a	n/a	n/a	-999	24	[0, 0, 0]	n/a	FR1	0	R1108J
3595.834	2.617	3646678	WORD	n/a	wordpools/wordpool_EN.txt	TEETH	1	24	[0, 0, 0]	n/a	FR1	0	R1108J
3598.451	2.501	3649295	WORD	n/a	wordpools/wordpool_EN.txt	STORE	2	24	[0, 0, 0]	n/a	FR1	0	R1108J
3600.952	2.534	3651796	WORD	n/a	wordpools/wordpool_EN.txt	CONE	3	24	[0, 0, 0]	n/a	FR1	0	R1108J
3603.486	2.4	3654330	WORD	n/a	wordpools/wordpool_EN.txt	VASE	4	24	[0, 0, 0]	n/a	FR1	0	R1108J
3605.886	2.383	3656730	WORD	n/a	wordpools/wordpool_EN.txt	APE	5	24	[0, 0, 0]	n/a	FR1	0	R1108J
3608.269	2.452	3659113	WORD	n/a	wordpools/wordpool_EN.txt	BENCH	6	24	[0, 0, 0]	n/a	FR1	0	R1108J
3610.721	2.616	3661565	WORD	n/a	wordpools/wordpool_EN.txt	ROCK	7	24	[0, 0, 0]	n/a	FR1	0	R1108J
3613.337	2.385	3664181	WORD	n/a	wordpools/wordpool_EN.txt	CASH	8	24	[0, 0, 0]	n/a	FR1	0	R1108J
3615.722	2.449	3666566	WORD	n/a	wordpools/wordpool_EN.txt	PANTS	9	24	[0, 0, 0]	n/a	FR1	0	R1108J
3618.171	2.418	3669015	WORD	n/a	wordpools/wordpool_EN.txt	YARD	10	24	[0, 0, 0]	n/a	FR1	0	R1108J
3620.589	2.416	3671433	WORD	n/a	wordpools/wordpool_EN.txt	GOAT	11	24	[0, 0, 0]	n/a	FR1	0	R1108J
3623.005	1.601	3673849	WORD	n/a	wordpools/wordpool_EN.txt	CLOUD	12	24	[0, 0, 0]	n/a	FR1	0	R1108J
3624.606	0.0	3675450	DISTRACT_START	n/a	n/a	n/a	-999	24	[0, 0, 0]	n/a	FR1	0	R1108J
3624.606	0.017	3675450	START	n/a	n/a	n/a	-999	24	[-999, -999, -999]	n/a	FR1	0	R1108J
3624.623	5.383	3675467	PROB	5.383	n/a	n/a	-999	24	[1, 3, 5]	9	FR1	0	R1108J
3630.006	9.719	3680850	PROB	9.719	n/a	n/a	-999	24	[7, 8, 4]	19	FR1	0	R1108J
3639.725	12.247	3690568	PROB	12.247	n/a	n/a	-999	24	[4, 4, 7]	15	FR1	0	R1108J
3651.972	0.02	3702815	STOP	n/a	n/a	n/a	-999	24	[-999, -999, -999]	n/a	FR1	0	R1108J
3651.992	1.152	3702835	DISTRACT_END	n/a	n/a	n/a	-999	24	[0, 0, 0]	n/a	FR1	0	R1108J
3653.144	0.742	3703987	REC_START	n/a	n/a	n/a	-999	24	[0, 0, 0]	n/a	FR1	0	R1108J
3653.886	0.952	3704729	REC_WORD	0.952	n/a	BOAT	-999	24	[0, 0, 0]	n/a	FR1	0	R1108J
3654.838	6.085	3705681	REC_WORD_VV	6.085	n/a	<>	-999	24	[0, 0, 0]	n/a	FR1	0	R1108J
3660.923	22.23	3711766	REC_WORD	22.23	n/a	APE	-999	24	[0, 0, 0]	n/a	FR1	0	R1108J
3683.153	5.244	3733996	REC_END	n/a	n/a	n/a	-999	24	[0, 0, 0]	n/a	FR1	0	R1108J
3688.397	0.0	3739240	TRIAL	n/a	n/a	n/a	-999	25	[0, 0, 0]	n/a	FR1	0	R1108J
3688.397	10.428	3739240	COUNTDOWN_START	n/a	n/a	n/a	-999	25	[0, 0, 0]	n/a	FR1	0	R1108J
3698.825	0.007	3749668	COUNTDOWN_END	n/a	n/a	n/a	-999	25	[0, 0, 0]	n/a	FR1	0	R1108J
3698.832	3.634	3749675	ORIENT	n/a	n/a	n/a	-999	25	[0, 0, 0]	n/a	FR1	0	R1108J
3702.466	2.383	3753309	WORD	n/a	wordpools/wordpool_EN.txt	CAPE	1	25	[0, 0, 0]	n/a	FR1	0	R1108J
3704.849	2.55	3755692	WORD	n/a	wordpools/wordpool_EN.txt	HEART	2	25	[0, 0, 0]	n/a	FR1	0	R1108J
3707.399	2.518	3758242	WORD	n/a	wordpools/wordpool_EN.txt	DRUM	3	25	[0, 0, 0]	n/a	FR1	0	R1108J
3709.917	2.567	3760759	WORD	n/a	wordpools/wordpool_EN.txt	RUG	4	25	[0, 0, 0]	n/a	FR1	0	R1108J
3712.484	2.433	3763326	WORD	n/a	wordpools/wordpool_EN.txt	EGG	5	25	[0, 0, 0]	n/a	FR1	0	R1108J
3714.917	2.551	3765759	WORD	n/a	wordpools/wordpool_EN.txt	SPONGE	6	25	[0, 0, 0]	n/a	FR1	0	R1108J
3717.468	2.466	3768310	WORD	n/a	wordpools/wordpool_EN.txt	FROG	7	25	[0, 0, 0]	n/a	FR1	0	R1108J
3719.934	2.602	3770776	WORD	n/a	wordpools/wordpool_EN.txt	STAR	8	25	[0, 0, 0]	n/a	FR1	0	R1108J
3722.536	2.599	3773378	WORD	n/a	wordpools/wordpool_EN.txt	ROOT	9	25	[0, 0, 0]	n/a	FR1	0	R1108J
3725.135	2.451	3775977	WORD	n/a	wordpools/wordpool_EN.txt	SKY	10	25	[0, 0, 0]	n/a	FR1	0	R1108J
3727.586	2.55	3778428	WORD	n/a	wordpools/wordpool_EN.txt	HOLE	11	25	[0, 0, 0]	n/a	FR1	0	R1108J
3730.136	1.618	3780978	WORD	n/a	wordpools/wordpool_EN.txt	BEAN	12	25	[0, 0, 0]	n/a	FR1	0	R1108J
3731.754	0.0	3782596	DISTRACT_START	n/a	n/a	n/a	-999	25	[0, 0, 0]	n/a	FR1	0	R1108J
3731.754	0.016	3782596	START	n/a	n/a	n/a	-999	25	[-999, -999, -999]	n/a	FR1	0	R1108J
3731.77	4.183	3782612	PROB	4.183	n/a	n/a	-999	25	[2, 5, 1]	8	FR1	0	R1108J
3735.953	4.317	3786795	PROB	4.317	n/a	n/a	-999	25	[2, 3, 8]	13	FR1	0	R1108J
3740.27	4.118	3791112	PROB	4.118	n/a	n/a	-999	25	[2, 7, 2]	11	FR1	0	R1108J
3744.388	4.667	3795230	PROB	4.667	n/a	n/a	-999	25	[3, 8, 2]	13	FR1	0	R1108J
3749.055	5.873	3799897	PROB	5.873	n/a	n/a	-999	25	[2, 9, 6]	17	FR1	0	R1108J
3754.928	0.011	3805770	STOP	n/a	n/a	n/a	-999	25	[-999, -999, -999]	n/a	FR1	0	R1108J
3754.939	1.118	3805781	DISTRACT_END	n/a	n/a	n/a	-999	25	[0, 0, 0]	n/a	FR1	0	R1108J
3756.057	1.023	3806899	REC_START	n/a	n/a	n/a	-999	25	[0, 0, 0]	n/a	FR1	0	R1108J
3757.08	1.186	3807922	REC_WORD_VV	1.186	n/a	<>	-999	25	[0, 0, 0]	n/a	FR1	0	R1108J
3758.266	1.177	3809108	REC_WORD	1.177	n/a	FROG	-999	25	[0, 0, 0]	n/a	FR1	0	R1108J
3759.443	1.759	3810285	REC_WORD	1.759	n/a	STAR	-999	25	[0, 0, 0]	n/a	FR1	0	R1108J
3761.202	24.864	3812044	REC_WORD_VV	24.864	n/a	<>	-999	25	[0, 0, 0]	n/a	FR1	0	R1108J
3786.066	0.0	3836907	REC_END	n/a	n/a	n/a	-999	25	[0, 0, 0]	n/a	FR1	0	R1108J
