onset	duration	sample	trial_type	response_time	stim_file	item_name	serialpos	list	test	answer	experiment	session	subject
0.0	18.426	144879	SESS_START	n/a	n/a	n/a	-999	-999	[0, 0, 0]	n/a	FR1	1	R1123C
18.426	10.428	154092	COUNTDOWN_START	n/a	n/a	n/a	-999	-999	[0, 0, 0]	n/a	FR1	1	R1123C
28.854	3.807	159305	COUNTDOWN_END	n/a	n/a	n/a	-999	-999	[0, 0, 0]	n/a	FR1	1	R1123C
32.661	2.4	161208	PRACTICE_WORD	n/a	n/a	FLOOD	1	-1	[0, 0, 0]	n/a	FR1	1	R1123C
35.061	2.584	162408	PRACTICE_WORD	n/a	n/a	TONGUE	2	-1	[0, 0, 0]	n/a	FR1	1	R1123C
37.645	2.55	163700	PRACTICE_WORD	n/a	n/a	RING	3	-1	[0, 0, 0]	n/a	FR1	1	R1123C
40.195	2.584	164975	PRACTICE_WORD	n/a	n/a	WATCH	4	-1	[0, 0, 0]	n/a	FR1	1	R1123C
42.779	2.502	166267	PRACTICE_WORD	n/a	n/a	CAMEL	5	-1	[0, 0, 0]	n/a	FR1	1	R1123C
45.281	2.382	167518	PRACTICE_WORD	n/a	n/a	ATTIC	6	-1	[0, 0, 0]	n/a	FR1	1	R1123C
47.663	2.484	168709	PRACTICE_WORD	n/a	n/a	BEAM	7	-1	[0, 0, 0]	n/a	FR1	1	R1123C
50.147	2.567	169951	PRACTICE_WORD	n/a	n/a	WAGON	8	-1	[0, 0, 0]	n/a	FR1	1	R1123C
52.714	2.401	171234	PRACTICE_WORD	n/a	n/a	IRON	9	-1	[0, 0, 0]	n/a	FR1	1	R1123C
55.115	2.468	172434	PRACTICE_WORD	n/a	n/a	CHEST	10	-1	[0, 0, 0]	n/a	FR1	1	R1123C
57.583	2.416	173668	PRACTICE_WORD	n/a	n/a	RHINO	11	-1	[0, 0, 0]	n/a	FR1	1	R1123C
59.999	1.618	174876	PRACTICE_WORD	n/a	n/a	COTTON	12	-1	[0, 0, 0]	n/a	FR1	1	R1123C
61.617	0.0	175685	PRACTICE_DISTRACT_START	n/a	n/a	n/a	-999	-1	[0, 0, 0]	n/a	FR1	1	R1123C
61.617	0.016	175685	START	n/a	n/a	n/a	-999	-1	[-999, -999, -999]	n/a	FR1	1	R1123C
61.633	3.5	175693	PROB	3.5	n/a	n/a	-999	-1	[5, 4, 1]	10	FR1	1	R1123C
65.133	5.035	177443	PROB	5.035	n/a	n/a	-999	-1	[8, 5, 4]	17	FR1	1	R1123C
70.168	4.218	179960	PROB	4.218	n/a	n/a	-999	-1	[6, 7, 1]	14	FR1	1	R1123C
74.386	4.55	182069	PROB	4.55	n/a	n/a	-999	-1	[9, 3, 1]	13	FR1	1	R1123C
78.936	5.674	184344	PROB	5.674	n/a	n/a	-999	-1	[6, 9, 5]	20	FR1	1	R1123C
84.61	0.011	187181	STOP	n/a	n/a	n/a	-999	-1	[-999, -999, -999]	n/a	FR1	1	R1123C
84.621	0.636	187186	PRACTICE_DISTRACT_END	n/a	n/a	n/a	-999	-1	[0, 0, 0]	n/a	FR1	1	R1123C
85.257	30.514	187504	PRACTICE_REC_START	n/a	n/a	n/a	-999	-1	[0, 0, 0]	n/a	FR1	1	R1123C
115.771	11.141	202760	PRACTICE_REC_END	n/a	n/a	n/a	-999	-1	[0, 0, 0]	n/a	FR1	1	R1123C
126.912	0.0	208330	TRIAL	n/a	n/a	n/a	-999	1	[0, 0, 0]	n/a	FR1	1	R1123C
126.912	10.428	208330	COUNTDOWN_START	n/a	n/a	n/a	-999	1	[0, 0, 0]	n/a	FR1	1	R1123C
137.34	0.008	213543	COUNTDOWN_END	n/a	n/a	n/a	-999	1	[0, 0, 0]	n/a	FR1	1	R1123C
137.348	2.583	213547	ORIENT	n/a	n/a	n/a	-999	1	[0, 0, 0]	n/a	FR1	1	R1123C
139.931	2.451	214839	WORD	n/a	wordpools/wordpool_EN.txt	POLE	1	1	[0, 0, 0]	n/a	FR1	1	R1123C
142.382	2.45	216064	WORD	n/a	wordpools/wordpool_EN.txt	CHEEK	2	1	[0, 0, 0]	n/a	FR1	1	R1123C
144.832	2.635	217289	WORD	n/a	wordpools/wordpool_EN.txt	PHONE	3	1	[0, 0, 0]	n/a	FR1	1	R1123C
147.467	2.549	218606	WORD	n/a	wordpools/wordpool_EN.txt	DIME	4	1	[0, 0, 0]	n/a	FR1	1	R1123C
150.016	2.535	219881	WORD	n/a	wordpools/wordpool_EN.txt	COIN	5	1	[0, 0, 0]	n/a	FR1	1	R1123C
152.551	2.483	221148	WORD	n/a	wordpools/wordpool_EN.txt	SPEAR	6	1	[0, 0, 0]	n/a	FR1	1	R1123C
155.034	2.633	222390	WORD	n/a	wordpools/wordpool_EN.txt	CONE	7	1	[0, 0, 0]	n/a	FR1	1	R1123C
157.667	2.535	223706	WORD	n/a	wordpools/wordpool_EN.txt	ARM	8	1	[0, 0, 0]	n/a	FR1	1	R1123C
160.202	2.616	224973	WORD	n/a	wordpools/wordpool_EN.txt	DRUM	9	1	[0, 0, 0]	n/a	FR1	1	R1123C
162.818	2.585	226281	WORD	n/a	wordpools/wordpool_EN.txt	GRAPE	10	1	[0, 0, 0]	n/a	FR1	1	R1123C
165.403	2.483	227574	WORD	n/a	wordpools/wordpool_EN.txt	HOSE	11	1	[0, 0, 0]	n/a	FR1	1	R1123C
167.886	1.601	228815	WORD	n/a	wordpools/wordpool_EN.txt	FROG	12	1	[0, 0, 0]	n/a	FR1	1	R1123C
169.487	0.001	229615	DISTRACT_START	n/a	n/a	n/a	-999	1	[0, 0, 0]	n/a	FR1	1	R1123C
169.488	0.016	229616	START	n/a	n/a	n/a	-999	1	[-999, -999, -999]	n/a	FR1	1	R1123C
169.504	5.018	229624	PROB	5.018	n/a	n/a	-999	1	[4, 7, 3]	14	FR1	1	R1123C
174.522	4.884	232133	PROB	4.884	n/a	n/a	-999	1	[5, 3, 8]	16	FR1	1	R1123C
179.406	5.901	234574	PROB	5.901	n/a	n/a	-999	1	[9, 8, 3]	20	FR1	1	R1123C
185.307	4.295	237525	PROB	4.295	n/a	n/a	-999	1	[4, 8, 2]	14	FR1	1	R1123C
189.602	0.006	239672	STOP	n/a	n/a	n/a	-999	1	[-999, -999, -999]	n/a	FR1	1	R1123C
189.608	1.154	239675	DISTRACT_END	n/a	n/a	n/a	-999	1	[0, 0, 0]	n/a	FR1	1	R1123C
190.762	0.557	240252	REC_START	n/a	n/a	n/a	-999	1	[0, 0, 0]	n/a	FR1	1	R1123C
191.319	1.33	240530	REC_WORD	1.33	n/a	COTTON	-999	1	[0, 0, 0]	n/a	FR1	1	R1123C
192.649	2.595	241195	REC_WORD	2.595	n/a	COIN	-999	1	[0, 0, 0]	n/a	FR1	1	R1123C
195.244	13.436	242493	REC_WORD	13.436	n/a	SKIN	-999	1	[0, 0, 0]	n/a	FR1	1	R1123C
208.68	12.089	249210	REC_WORD	12.089	n/a	CHEEK	-999	1	[0, 0, 0]	n/a	FR1	1	R1123C
220.769	3.094	255254	REC_END	n/a	n/a	n/a	-999	1	[0, 0, 0]	n/a	FR1	1	R1123C
223.863	0.001	256801	COUNTDOWN_START	n/a	n/a	n/a	-999	2	[0, 0, 0]	n/a	FR1	1	R1123C
223.864	10.427	256801	TRIAL	n/a	n/a	n/a	-999	2	[0, 0, 0]	n/a	FR1	1	R1123C
234.291	0.009	262015	COUNTDOWN_END	n/a	n/a	n/a	-999	2	[0, 0, 0]	n/a	FR1	1	R1123C
234.3	2.432	262019	ORIENT	n/a	n/a	n/a	-999	2	[0, 0, 0]	n/a	FR1	1	R1123C
236.732	2.519	263235	WORD	n/a	wordpools/wordpool_EN.txt	CORN	1	2	[0, 0, 0]	n/a	FR1	1	R1123C
239.251	2.399	264494	WORD	n/a	wordpools/wordpool_EN.txt	STRAW	2	2	[0, 0, 0]	n/a	FR1	1	R1123C
241.65	2.5	265694	WORD	n/a	wordpools/wordpool_EN.txt	STEAK	3	2	[0, 0, 0]	n/a	FR1	1	R1123C
244.15	2.601	266944	WORD	n/a	wordpools/wordpool_EN.txt	STOVE	4	2	[0, 0, 0]	n/a	FR1	1	R1123C
246.751	2.367	268244	WORD	n/a	wordpools/wordpool_EN.txt	COW	5	2	[0, 0, 0]	n/a	FR1	1	R1123C
249.118	2.435	269427	WORD	n/a	wordpools/wordpool_EN.txt	PANTS	6	2	[0, 0, 0]	n/a	FR1	1	R1123C
251.553	2.399	270645	WORD	n/a	wordpools/wordpool_EN.txt	BARN	7	2	[0, 0, 0]	n/a	FR1	1	R1123C
253.952	2.568	271844	WORD	n/a	wordpools/wordpool_EN.txt	PURSE	8	2	[0, 0, 0]	n/a	FR1	1	R1123C
256.52	2.467	273128	WORD	n/a	wordpools/wordpool_EN.txt	SEAT	9	2	[0, 0, 0]	n/a	FR1	1	R1123C
258.987	2.534	274361	WORD	n/a	wordpools/wordpool_EN.txt	GUARD	10	2	[0, 0, 0]	n/a	FR1	1	R1123C
261.521	2.517	275628	WORD	n/a	wordpools/wordpool_EN.txt	PEN	11	2	[0, 0, 0]	n/a	FR1	1	R1123C
264.038	1.617	276887	WORD	n/a	wordpools/wordpool_EN.txt	RIB	12	2	[0, 0, 0]	n/a	FR1	1	R1123C
265.655	0.0	277695	DISTRACT_START	n/a	n/a	n/a	-999	2	[0, 0, 0]	n/a	FR1	1	R1123C
265.655	0.016	277695	START	n/a	n/a	n/a	-999	2	[-999, -999, -999]	n/a	FR1	1	R1123C
265.671	22.219	277703	PROB	22.219	n/a	n/a	-999	2	[7, 7, 6]	20	FR1	1	R1123C
287.89	0.019	288812	STOP	n/a	n/a	n/a	-999	2	[-999, -999, -999]	n/a	FR1	1	R1123C
287.909	1.151	288821	DISTRACT_END	n/a	n/a	n/a	-999	2	[0, 0, 0]	n/a	FR1	1	R1123C
289.06	30.0	289397	REC_START	n/a	n/a	n/a	-999	2	[0, 0, 0]	n/a	FR1	1	R1123C
319.06	0.01	304395	REC_WORD_VV	0.01	n/a	<>	-999	2	[0, 0, 0]	n/a	FR1	1	R1123C
319.07	4.13	304400	REC_END	n/a	n/a	n/a	-999	2	[0, 0, 0]	n/a	FR1	1	R1123C
323.2	0.0	306465	COUNTDOWN_START	n/a	n/a	n/a	-999	3	[0, 0, 0]	n/a	FR1	1	R1123C
323.2	10.428	306465	TRIAL	n/a	n/a	n/a	-999	3	[0, 0, 0]	n/a	FR1	1	R1123C
333.628	0.006	311679	COUNTDOWN_END	n/a	n/a	n/a	-999	3	[0, 0, 0]	n/a	FR1	1	R1123C
333.634	2.5	311682	ORIENT	n/a	n/a	n/a	-999	3	[0, 0, 0]	n/a	FR1	1	R1123C
336.134	2.419	312931	WORD	n/a	wordpools/wordpool_EN.txt	NOSE	1	3	[0, 0, 0]	n/a	FR1	1	R1123C
338.553	2.516	314141	WORD	n/a	wordpools/wordpool_EN.txt	MAZE	2	3	[0, 0, 0]	n/a	FR1	1	R1123C
341.069	2.434	315399	WORD	n/a	wordpools/wordpool_EN.txt	BUSH	3	3	[0, 0, 0]	n/a	FR1	1	R1123C
343.503	2.5	316616	WORD	n/a	wordpools/wordpool_EN.txt	WEED	4	3	[0, 0, 0]	n/a	FR1	1	R1123C
346.003	2.468	317866	WORD	n/a	wordpools/wordpool_EN.txt	SWORD	5	3	[0, 0, 0]	n/a	FR1	1	R1123C
348.471	2.633	319099	WORD	n/a	wordpools/wordpool_EN.txt	SQUARE	6	3	[0, 0, 0]	n/a	FR1	1	R1123C
351.104	2.385	320416	WORD	n/a	wordpools/wordpool_EN.txt	LAND	7	3	[0, 0, 0]	n/a	FR1	1	R1123C
353.489	2.616	321608	WORD	n/a	wordpools/wordpool_EN.txt	HILL	8	3	[0, 0, 0]	n/a	FR1	1	R1123C
356.105	2.401	322916	WORD	n/a	wordpools/wordpool_EN.txt	CLIFF	9	3	[0, 0, 0]	n/a	FR1	1	R1123C
358.506	2.4	324117	WORD	n/a	wordpools/wordpool_EN.txt	BOY	10	3	[0, 0, 0]	n/a	FR1	1	R1123C
360.906	2.501	325316	WORD	n/a	wordpools/wordpool_EN.txt	LAKE	11	3	[0, 0, 0]	n/a	FR1	1	R1123C
363.407	1.616	326567	WORD	n/a	wordpools/wordpool_EN.txt	ROCK	12	3	[0, 0, 0]	n/a	FR1	1	R1123C
365.023	0.001	327375	DISTRACT_START	n/a	n/a	n/a	-999	3	[0, 0, 0]	n/a	FR1	1	R1123C
365.024	0.016	327375	START	n/a	n/a	n/a	-999	3	[-999, -999, -999]	n/a	FR1	1	R1123C
365.04	3.468	327383	PROB	3.468	n/a	n/a	-999	3	[6, 2, 1]	9	FR1	1	R1123C
368.508	2.366	329117	PROB	2.366	n/a	n/a	-999	3	[2, 5, 2]	9	FR1	1	R1123C
370.874	6.569	330300	PROB	6.569	n/a	n/a	-999	3	[6, 7, 2]	15	FR1	1	R1123C
377.443	4.934	333584	PROB	4.934	n/a	n/a	-999	3	[9, 1, 7]	17	FR1	1	R1123C
382.377	6.305	336051	PROB	6.305	n/a	n/a	-999	3	[9, 4, 6]	19	FR1	1	R1123C
388.682	0.012	339203	STOP	n/a	n/a	n/a	-999	3	[-999, -999, -999]	n/a	FR1	1	R1123C
388.694	1.134	339209	DISTRACT_END	n/a	n/a	n/a	-999	3	[0, 0, 0]	n/a	FR1	1	R1123C
389.828	0.766	339776	REC_START	n/a	n/a	n/a	-999	3	[0, 0, 0]	n/a	FR1	1	R1123C
390.594	0.754	340159	REC_WORD	0.754	n/a	WEED	-999	3	[0, 0, 0]	n/a	FR1	1	R1123C
391.348	1.523	340536	REC_WORD	1.523	n/a	SQUARE	-999	3	[0, 0, 0]	n/a	FR1	1	R1123C
392.871	1.087	341297	REC_WORD	1.087	n/a	ROCK	-999	3	[0, 0, 0]	n/a	FR1	1	R1123C
393.958	5.744	341841	REC_WORD	5.744	n/a	LAND	-999	3	[0, 0, 0]	n/a	FR1	1	R1123C
399.702	20.14	344713	REC_WORD	20.14	n/a	HILL	-999	3	[0, 0, 0]	n/a	FR1	1	R1123C
419.842	2.676	354782	REC_END	n/a	n/a	n/a	-999	3	[0, 0, 0]	n/a	FR1	1	R1123C
422.518	0.0	356120	TRIAL	n/a	n/a	n/a	-999	4	[0, 0, 0]	n/a	FR1	1	R1123C
422.518	10.428	356120	COUNTDOWN_START	n/a	n/a	n/a	-999	4	[0, 0, 0]	n/a	FR1	1	R1123C
432.946	0.023	361333	COUNTDOWN_END	n/a	n/a	n/a	-999	4	[0, 0, 0]	n/a	FR1	1	R1123C
432.969	2.552	361345	ORIENT	n/a	n/a	n/a	-999	4	[0, 0, 0]	n/a	FR1	1	R1123C
435.521	2.599	362621	WORD	n/a	wordpools/wordpool_EN.txt	CAR	1	4	[0, 0, 0]	n/a	FR1	1	R1123C
438.12	2.418	363920	WORD	n/a	wordpools/wordpool_EN.txt	EGG	2	4	[0, 0, 0]	n/a	FR1	1	R1123C
440.538	2.55	365129	WORD	n/a	wordpools/wordpool_EN.txt	TOAD	3	4	[0, 0, 0]	n/a	FR1	1	R1123C
443.088	2.584	366404	WORD	n/a	wordpools/wordpool_EN.txt	HEART	4	4	[0, 0, 0]	n/a	FR1	1	R1123C
445.672	2.517	367696	WORD	n/a	wordpools/wordpool_EN.txt	ICE	5	4	[0, 0, 0]	n/a	FR1	1	R1123C
448.189	2.6	368954	WORD	n/a	wordpools/wordpool_EN.txt	PLANT	6	4	[0, 0, 0]	n/a	FR1	1	R1123C
450.789	2.468	370254	WORD	n/a	wordpools/wordpool_EN.txt	SHARK	7	4	[0, 0, 0]	n/a	FR1	1	R1123C
453.257	2.617	371488	WORD	n/a	wordpools/wordpool_EN.txt	BOMB	8	4	[0, 0, 0]	n/a	FR1	1	R1123C
455.874	2.484	372796	WORD	n/a	wordpools/wordpool_EN.txt	ROOT	9	4	[0, 0, 0]	n/a	FR1	1	R1123C
458.358	2.55	374038	WORD	n/a	wordpools/wordpool_EN.txt	SHIP	10	4	[0, 0, 0]	n/a	FR1	1	R1123C
460.908	2.518	375313	WORD	n/a	wordpools/wordpool_EN.txt	FILM	11	4	[0, 0, 0]	n/a	FR1	1	R1123C
463.426	1.616	376572	WORD	n/a	wordpools/wordpool_EN.txt	STAR	12	4	[0, 0, 0]	n/a	FR1	1	R1123C
465.042	0.001	377380	DISTRACT_START	n/a	n/a	n/a	-999	4	[0, 0, 0]	n/a	FR1	1	R1123C
465.043	0.016	377380	START	n/a	n/a	n/a	-999	4	[-999, -999, -999]	n/a	FR1	1	R1123C
465.059	7.884	377388	PROB	7.884	n/a	n/a	-999	4	[6, 5, 9]	20	FR1	1	R1123C
472.943	5.151	381330	PROB	5.151	n/a	n/a	-999	4	[4, 5, 9]	18	FR1	1	R1123C
478.094	4.901	383905	PROB	4.901	n/a	n/a	-999	4	[9, 1, 7]	17	FR1	1	R1123C
482.995	4.814	386356	PROB	4.814	n/a	n/a	-999	4	[3, 1, 6]	10	FR1	1	R1123C
487.809	0.004	388762	STOP	n/a	n/a	n/a	-999	4	[-999, -999, -999]	n/a	FR1	1	R1123C
487.813	1.067	388764	DISTRACT_END	n/a	n/a	n/a	-999	4	[0, 0, 0]	n/a	FR1	1	R1123C
488.88	0.935	389298	REC_START	n/a	n/a	n/a	-999	4	[0, 0, 0]	n/a	FR1	1	R1123C
489.815	1.626	389765	REC_WORD	1.626	n/a	TOAD	-999	4	[0, 0, 0]	n/a	FR1	1	R1123C
491.441	2.471	390578	REC_WORD	2.471	n/a	ROCK	-999	4	[0, 0, 0]	n/a	FR1	1	R1123C
493.912	16.436	391814	REC_WORD	16.436	n/a	NOSE	-999	4	[0, 0, 0]	n/a	FR1	1	R1123C
510.348	8.546	400031	REC_WORD	8.546	n/a	PLANT	-999	4	[0, 0, 0]	n/a	FR1	1	R1123C
518.894	4.56	404303	REC_END	n/a	n/a	n/a	-999	4	[0, 0, 0]	n/a	FR1	1	R1123C
523.454	0.0	406583	COUNTDOWN_START	n/a	n/a	n/a	-999	5	[0, 0, 0]	n/a	FR1	1	R1123C
523.454	10.428	406583	TRIAL	n/a	n/a	n/a	-999	5	[0, 0, 0]	n/a	FR1	1	R1123C
533.882	0.006	411797	COUNTDOWN_END	n/a	n/a	n/a	-999	5	[0, 0, 0]	n/a	FR1	1	R1123C
533.888	2.535	411800	ORIENT	n/a	n/a	n/a	-999	5	[0, 0, 0]	n/a	FR1	1	R1123C
536.423	2.499	413067	WORD	n/a	wordpools/wordpool_EN.txt	SWAMP	1	5	[0, 0, 0]	n/a	FR1	1	R1123C
538.922	2.552	414317	WORD	n/a	wordpools/wordpool_EN.txt	TRASH	2	5	[0, 0, 0]	n/a	FR1	1	R1123C
541.474	2.616	415592	WORD	n/a	wordpools/wordpool_EN.txt	JAR	3	5	[0, 0, 0]	n/a	FR1	1	R1123C
544.09	2.601	416900	WORD	n/a	wordpools/wordpool_EN.txt	DITCH	4	5	[0, 0, 0]	n/a	FR1	1	R1123C
546.691	2.535	418201	WORD	n/a	wordpools/wordpool_EN.txt	ROSE	5	5	[0, 0, 0]	n/a	FR1	1	R1123C
549.226	2.416	419468	WORD	n/a	wordpools/wordpool_EN.txt	PIT	6	5	[0, 0, 0]	n/a	FR1	1	R1123C
551.642	2.417	420676	WORD	n/a	wordpools/wordpool_EN.txt	PARK	7	5	[0, 0, 0]	n/a	FR1	1	R1123C
554.059	2.435	421884	WORD	n/a	wordpools/wordpool_EN.txt	FLUTE	8	5	[0, 0, 0]	n/a	FR1	1	R1123C
556.494	2.616	423102	WORD	n/a	wordpools/wordpool_EN.txt	BREAD	9	5	[0, 0, 0]	n/a	FR1	1	R1123C
559.11	2.484	424410	WORD	n/a	wordpools/wordpool_EN.txt	PIE	10	5	[0, 0, 0]	n/a	FR1	1	R1123C
561.594	2.467	425652	WORD	n/a	wordpools/wordpool_EN.txt	CAKE	11	5	[0, 0, 0]	n/a	FR1	1	R1123C
564.061	1.617	426885	WORD	n/a	wordpools/wordpool_EN.txt	FENCE	12	5	[0, 0, 0]	n/a	FR1	1	R1123C
565.678	0.0	427693	DISTRACT_START	n/a	n/a	n/a	-999	5	[0, 0, 0]	n/a	FR1	1	R1123C
565.678	0.016	427693	START	n/a	n/a	n/a	-999	5	[-999, -999, -999]	n/a	FR1	1	R1123C
565.694	3.051	427701	PROB	3.051	n/a	n/a	-999	5	[2, 1, 2]	5	FR1	1	R1123C
568.745	3.45	429227	PROB	3.45	n/a	n/a	-999	5	[2, 9, 1]	12	FR1	1	R1123C
572.195	4.801	430952	PROB	4.801	n/a	n/a	-999	5	[4, 9, 2]	15	FR1	1	R1123C
576.996	4.419	433352	PROB	4.419	n/a	n/a	-999	5	[2, 7, 8]	17	FR1	1	R1123C
581.415	6.291	435561	PROB	6.291	n/a	n/a	-999	5	[8, 5, 1]	14	FR1	1	R1123C
587.706	0.009	438706	STOP	n/a	n/a	n/a	-999	5	[-999, -999, -999]	n/a	FR1	1	R1123C
587.715	1.218	438711	DISTRACT_END	n/a	n/a	n/a	-999	5	[0, 0, 0]	n/a	FR1	1	R1123C
588.933	7.241	439320	REC_START	n/a	n/a	n/a	-999	5	[0, 0, 0]	n/a	FR1	1	R1123C
596.174	2.332	442940	REC_WORD	2.332	n/a	TOAD	-999	5	[0, 0, 0]	n/a	FR1	1	R1123C
598.506	20.437	444106	REC_WORD	20.437	n/a	ROCK	-999	5	[0, 0, 0]	n/a	FR1	1	R1123C
618.943	2.878	454323	REC_END	n/a	n/a	n/a	-999	5	[0, 0, 0]	n/a	FR1	1	R1123C
621.821	0.0	455762	TRIAL	n/a	n/a	n/a	-999	6	[0, 0, 0]	n/a	FR1	1	R1123C
621.821	10.428	455762	COUNTDOWN_START	n/a	n/a	n/a	-999	6	[0, 0, 0]	n/a	FR1	1	R1123C
632.249	0.009	460976	COUNTDOWN_END	n/a	n/a	n/a	-999	6	[0, 0, 0]	n/a	FR1	1	R1123C
632.258	2.616	460980	ORIENT	n/a	n/a	n/a	-999	6	[0, 0, 0]	n/a	FR1	1	R1123C
634.874	2.451	462288	WORD	n/a	wordpools/wordpool_EN.txt	RAKE	1	6	[0, 0, 0]	n/a	FR1	1	R1123C
637.325	2.466	463514	WORD	n/a	wordpools/wordpool_EN.txt	EAR	2	6	[0, 0, 0]	n/a	FR1	1	R1123C
639.791	2.452	464747	WORD	n/a	wordpools/wordpool_EN.txt	HOLE	3	6	[0, 0, 0]	n/a	FR1	1	R1123C
642.243	2.499	465972	WORD	n/a	wordpools/wordpool_EN.txt	LEG	4	6	[0, 0, 0]	n/a	FR1	1	R1123C
644.742	2.434	467222	WORD	n/a	wordpools/wordpool_EN.txt	CORD	5	6	[0, 0, 0]	n/a	FR1	1	R1123C
647.176	2.435	468439	WORD	n/a	wordpools/wordpool_EN.txt	YARD	6	6	[0, 0, 0]	n/a	FR1	1	R1123C
649.611	2.483	469656	WORD	n/a	wordpools/wordpool_EN.txt	COUCH	7	6	[0, 0, 0]	n/a	FR1	1	R1123C
652.094	2.385	470898	WORD	n/a	wordpools/wordpool_EN.txt	ROPE	8	6	[0, 0, 0]	n/a	FR1	1	R1123C
654.479	2.499	472090	WORD	n/a	wordpools/wordpool_EN.txt	TAIL	9	6	[0, 0, 0]	n/a	FR1	1	R1123C
656.978	2.435	473339	WORD	n/a	wordpools/wordpool_EN.txt	LAWN	10	6	[0, 0, 0]	n/a	FR1	1	R1123C
659.413	2.383	474557	WORD	n/a	wordpools/wordpool_EN.txt	BAND	11	6	[0, 0, 0]	n/a	FR1	1	R1123C
661.796	1.617	475748	WORD	n/a	wordpools/wordpool_EN.txt	DART	12	6	[0, 0, 0]	n/a	FR1	1	R1123C
663.413	0.001	476557	DISTRACT_START	n/a	n/a	n/a	-999	6	[0, 0, 0]	n/a	FR1	1	R1123C
663.414	0.016	476557	START	n/a	n/a	n/a	-999	6	[-999, -999, -999]	n/a	FR1	1	R1123C
663.43	5.2	476565	PROB	5.2	n/a	n/a	-999	6	[3, 8, 5]	16	FR1	1	R1123C
668.63	4.384	479165	PROB	4.384	n/a	n/a	-999	6	[3, 7, 4]	14	FR1	1	R1123C
673.014	6.386	481357	PROB	6.386	n/a	n/a	-999	6	[3, 7, 9]	19	FR1	1	R1123C
679.4	5.665	484549	PROB	5.665	n/a	n/a	-999	6	[9, 4, 7]	20	FR1	1	R1123C
685.065	0.018	487382	STOP	n/a	n/a	n/a	-999	6	[-999, -999, -999]	n/a	FR1	1	R1123C
685.083	1.119	487391	DISTRACT_END	n/a	n/a	n/a	-999	6	[0, 0, 0]	n/a	FR1	1	R1123C
686.202	0.835	487950	REC_START	n/a	n/a	n/a	-999	6	[0, 0, 0]	n/a	FR1	1	R1123C
687.037	1.2	488367	REC_WORD	1.2	n/a	TOAD	-999	6	[0, 0, 0]	n/a	FR1	1	R1123C
688.237	1.13	488967	REC_WORD	1.13	n/a	EAR	-999	6	[0, 0, 0]	n/a	FR1	1	R1123C
689.367	1.526	489532	REC_WORD	1.526	n/a	HOLE	-999	6	[0, 0, 0]	n/a	FR1	1	R1123C
690.893	10.336	490295	REC_WORD	10.336	n/a	LEG	-999	6	[0, 0, 0]	n/a	FR1	1	R1123C
701.229	14.984	495463	REC_WORD	14.984	n/a	DITCH	-999	6	[0, 0, 0]	n/a	FR1	1	R1123C
716.213	2.843	502954	REC_END	n/a	n/a	n/a	-999	6	[0, 0, 0]	n/a	FR1	1	R1123C
719.056	0.001	504376	COUNTDOWN_START	n/a	n/a	n/a	-999	7	[0, 0, 0]	n/a	FR1	1	R1123C
719.057	10.427	504376	TRIAL	n/a	n/a	n/a	-999	7	[0, 0, 0]	n/a	FR1	1	R1123C
729.484	0.009	509589	COUNTDOWN_END	n/a	n/a	n/a	-999	7	[0, 0, 0]	n/a	FR1	1	R1123C
729.493	2.549	509594	ORIENT	n/a	n/a	n/a	-999	7	[0, 0, 0]	n/a	FR1	1	R1123C
732.042	2.502	510868	WORD	n/a	wordpools/wordpool_EN.txt	FLAME	1	7	[0, 0, 0]	n/a	FR1	1	R1123C
734.544	2.532	512119	WORD	n/a	wordpools/wordpool_EN.txt	STORM	2	7	[0, 0, 0]	n/a	FR1	1	R1123C
737.076	2.485	513385	WORD	n/a	wordpools/wordpool_EN.txt	SPARK	3	7	[0, 0, 0]	n/a	FR1	1	R1123C
739.561	2.483	514627	WORD	n/a	wordpools/wordpool_EN.txt	PASTE	4	7	[0, 0, 0]	n/a	FR1	1	R1123C
742.044	2.568	515869	WORD	n/a	wordpools/wordpool_EN.txt	INK	5	7	[0, 0, 0]	n/a	FR1	1	R1123C
744.612	2.433	517152	WORD	n/a	wordpools/wordpool_EN.txt	PEAR	6	7	[0, 0, 0]	n/a	FR1	1	R1123C
747.045	2.501	518369	WORD	n/a	wordpools/wordpool_EN.txt	BEAK	7	7	[0, 0, 0]	n/a	FR1	1	R1123C
749.546	2.433	519619	WORD	n/a	wordpools/wordpool_EN.txt	JUICE	8	7	[0, 0, 0]	n/a	FR1	1	R1123C
751.979	2.535	520836	WORD	n/a	wordpools/wordpool_EN.txt	FLAG	9	7	[0, 0, 0]	n/a	FR1	1	R1123C
754.514	2.583	522103	WORD	n/a	wordpools/wordpool_EN.txt	CLOTH	10	7	[0, 0, 0]	n/a	FR1	1	R1123C
757.097	2.385	523394	WORD	n/a	wordpools/wordpool_EN.txt	TANK	11	7	[0, 0, 0]	n/a	FR1	1	R1123C
759.482	1.616	524587	WORD	n/a	wordpools/wordpool_EN.txt	BOARD	12	7	[0, 0, 0]	n/a	FR1	1	R1123C
761.098	0.0	525395	DISTRACT_START	n/a	n/a	n/a	-999	7	[0, 0, 0]	n/a	FR1	1	R1123C
761.098	0.016	525395	START	n/a	n/a	n/a	-999	7	[-999, -999, -999]	n/a	FR1	1	R1123C
761.114	3.452	525403	PROB	3.452	n/a	n/a	-999	7	[1, 9, 2]	12	FR1	1	R1123C
764.566	5.417	527129	PROB	5.417	n/a	n/a	-999	7	[9, 4, 3]	16	FR1	1	R1123C
769.983	7.419	529837	PROB	7.419	n/a	n/a	-999	7	[5, 7, 1]	13	FR1	1	R1123C
777.402	5.719	533546	PROB	5.719	n/a	n/a	-999	7	[8, 1, 5]	14	FR1	1	R1123C
783.121	0.014	536405	STOP	n/a	n/a	n/a	-999	7	[-999, -999, -999]	n/a	FR1	1	R1123C
783.135	1.202	536412	DISTRACT_END	n/a	n/a	n/a	-999	7	[0, 0, 0]	n/a	FR1	1	R1123C
784.337	12.9	537013	REC_START	n/a	n/a	n/a	-999	7	[0, 0, 0]	n/a	FR1	1	R1123C
797.237	8.417	543463	REC_WORD	8.417	n/a	SHARK	-999	7	[0, 0, 0]	n/a	FR1	1	R1123C
805.654	8.695	547671	REC_WORD	8.695	n/a	STRAW	-999	7	[0, 0, 0]	n/a	FR1	1	R1123C
814.349	2.542	552018	REC_END	n/a	n/a	n/a	-999	7	[0, 0, 0]	n/a	FR1	1	R1123C
816.891	0.001	553289	COUNTDOWN_START	n/a	n/a	n/a	-999	8	[0, 0, 0]	n/a	FR1	1	R1123C
816.892	10.427	553289	TRIAL	n/a	n/a	n/a	-999	8	[0, 0, 0]	n/a	FR1	1	R1123C
827.319	0.009	558502	COUNTDOWN_END	n/a	n/a	n/a	-999	8	[0, 0, 0]	n/a	FR1	1	R1123C
827.328	2.566	558507	ORIENT	n/a	n/a	n/a	-999	8	[0, 0, 0]	n/a	FR1	1	R1123C
829.894	2.518	559790	WORD	n/a	wordpools/wordpool_EN.txt	MULE	1	8	[0, 0, 0]	n/a	FR1	1	R1123C
832.412	2.549	561049	WORD	n/a	wordpools/wordpool_EN.txt	HORSE	2	8	[0, 0, 0]	n/a	FR1	1	R1123C
834.961	2.602	562323	WORD	n/a	wordpools/wordpool_EN.txt	SLIME	3	8	[0, 0, 0]	n/a	FR1	1	R1123C
837.563	2.549	563624	WORD	n/a	wordpools/wordpool_EN.txt	STAIR	4	8	[0, 0, 0]	n/a	FR1	1	R1123C
840.112	2.618	564898	WORD	n/a	wordpools/wordpool_EN.txt	MILK	5	8	[0, 0, 0]	n/a	FR1	1	R1123C
842.73	2.417	566207	WORD	n/a	wordpools/wordpool_EN.txt	CLOUD	6	8	[0, 0, 0]	n/a	FR1	1	R1123C
845.147	2.6	567415	WORD	n/a	wordpools/wordpool_EN.txt	NAIL	7	8	[0, 0, 0]	n/a	FR1	1	R1123C
847.747	2.485	568715	WORD	n/a	wordpools/wordpool_EN.txt	RAIN	8	8	[0, 0, 0]	n/a	FR1	1	R1123C
850.232	2.599	569958	WORD	n/a	wordpools/wordpool_EN.txt	CUP	9	8	[0, 0, 0]	n/a	FR1	1	R1123C
852.831	2.519	571257	WORD	n/a	wordpools/wordpool_EN.txt	RICE	10	8	[0, 0, 0]	n/a	FR1	1	R1123C
855.35	2.466	572517	WORD	n/a	wordpools/wordpool_EN.txt	FOOT	11	8	[0, 0, 0]	n/a	FR1	1	R1123C
857.816	1.618	573749	WORD	n/a	wordpools/wordpool_EN.txt	SALT	12	8	[0, 0, 0]	n/a	FR1	1	R1123C
859.434	0.001	574558	DISTRACT_START	n/a	n/a	n/a	-999	8	[0, 0, 0]	n/a	FR1	1	R1123C
859.435	0.015	574559	START	n/a	n/a	n/a	-999	8	[-999, -999, -999]	n/a	FR1	1	R1123C
859.45	3.35	574566	PROB	3.35	n/a	n/a	-999	8	[1, 4, 4]	9	FR1	1	R1123C
862.8	3.685	576241	PROB	3.685	n/a	n/a	-999	8	[4, 3, 4]	11	FR1	1	R1123C
866.485	4.383	578084	PROB	4.383	n/a	n/a	-999	8	[6, 2, 1]	9	FR1	1	R1123C
870.868	5.736	580275	PROB	5.736	n/a	n/a	-999	8	[4, 8, 9]	21	FR1	1	R1123C
876.604	6.782	583143	PROB	6.782	n/a	n/a	-999	8	[4, 8, 7]	19	FR1	1	R1123C
883.386	0.019	586533	STOP	n/a	n/a	n/a	-999	8	[-999, -999, -999]	n/a	FR1	1	R1123C
883.405	1.117	586543	DISTRACT_END	n/a	n/a	n/a	-999	8	[0, 0, 0]	n/a	FR1	1	R1123C
884.522	0.724	587101	REC_START	n/a	n/a	n/a	-999	8	[0, 0, 0]	n/a	FR1	1	R1123C
885.246	1.687	587463	REC_WORD	1.687	n/a	STAR	-999	8	[0, 0, 0]	n/a	FR1	1	R1123C
886.933	11.199	588307	REC_WORD	11.199	n/a	ROCK	-999	8	[0, 0, 0]	n/a	FR1	1	R1123C
898.132	5.89	593906	REC_WORD	5.89	n/a	CUP	-999	8	[0, 0, 0]	n/a	FR1	1	R1123C
904.022	1.108	596850	REC_WORD	1.108	n/a	MULE	-999	8	[0, 0, 0]	n/a	FR1	1	R1123C
905.13	9.41	597404	REC_WORD	9.41	n/a	HORSE	-999	8	[0, 0, 0]	n/a	FR1	1	R1123C
914.54	2.503	602109	REC_END	n/a	n/a	n/a	-999	8	[0, 0, 0]	n/a	FR1	1	R1123C
917.043	0.001	603360	COUNTDOWN_START	n/a	n/a	n/a	-999	9	[0, 0, 0]	n/a	FR1	1	R1123C
917.044	10.427	603361	TRIAL	n/a	n/a	n/a	-999	9	[0, 0, 0]	n/a	FR1	1	R1123C
927.471	0.009	608574	COUNTDOWN_END	n/a	n/a	n/a	-999	9	[0, 0, 0]	n/a	FR1	1	R1123C
927.48	2.599	608578	ORIENT	n/a	n/a	n/a	-999	9	[0, 0, 0]	n/a	FR1	1	R1123C
930.079	2.452	609878	WORD	n/a	wordpools/wordpool_EN.txt	HOOK	1	9	[0, 0, 0]	n/a	FR1	1	R1123C
932.531	2.616	611104	WORD	n/a	wordpools/wordpool_EN.txt	SEAL	2	9	[0, 0, 0]	n/a	FR1	1	R1123C
935.147	2.584	612412	WORD	n/a	wordpools/wordpool_EN.txt	SHRIMP	3	9	[0, 0, 0]	n/a	FR1	1	R1123C
937.731	2.433	613703	WORD	n/a	wordpools/wordpool_EN.txt	CHAIR	4	9	[0, 0, 0]	n/a	FR1	1	R1123C
940.164	2.601	614920	WORD	n/a	wordpools/wordpool_EN.txt	GLOVE	5	9	[0, 0, 0]	n/a	FR1	1	R1123C
942.765	2.601	616220	WORD	n/a	wordpools/wordpool_EN.txt	GATE	6	9	[0, 0, 0]	n/a	FR1	1	R1123C
945.366	2.433	617521	WORD	n/a	wordpools/wordpool_EN.txt	PALM	7	9	[0, 0, 0]	n/a	FR1	1	R1123C
947.799	2.585	618737	WORD	n/a	wordpools/wordpool_EN.txt	HAT	8	9	[0, 0, 0]	n/a	FR1	1	R1123C
950.384	2.616	620029	WORD	n/a	wordpools/wordpool_EN.txt	MOUTH	9	9	[0, 0, 0]	n/a	FR1	1	R1123C
953.0	2.535	621337	WORD	n/a	wordpools/wordpool_EN.txt	THUMB	10	9	[0, 0, 0]	n/a	FR1	1	R1123C
955.535	2.516	622605	WORD	n/a	wordpools/wordpool_EN.txt	BATH	11	9	[0, 0, 0]	n/a	FR1	1	R1123C
958.051	1.617	623862	WORD	n/a	wordpools/wordpool_EN.txt	WORLD	12	9	[0, 0, 0]	n/a	FR1	1	R1123C
959.668	0.001	624671	DISTRACT_START	n/a	n/a	n/a	-999	9	[0, 0, 0]	n/a	FR1	1	R1123C
959.669	0.016	624671	START	n/a	n/a	n/a	-999	9	[-999, -999, -999]	n/a	FR1	1	R1123C
959.685	4.184	624679	PROB	4.184	n/a	n/a	-999	9	[5, 2, 3]	19	FR1	1	R1123C
963.869	3.034	626771	PROB	3.034	n/a	n/a	-999	9	[3, 7, 1]	11	FR1	1	R1123C
966.903	3.167	628288	PROB	3.167	n/a	n/a	-999	9	[1, 3, 5]	9	FR1	1	R1123C
970.07	5.369	629871	PROB	5.369	n/a	n/a	-999	9	[3, 6, 6]	15	FR1	1	R1123C
975.439	3.683	632556	PROB	3.683	n/a	n/a	-999	9	[1, 4, 5]	10	FR1	1	R1123C
979.122	3.031	634397	PROB	3.031	n/a	n/a	-999	9	[5, 3, 1]	9	FR1	1	R1123C
982.153	0.019	635912	STOP	n/a	n/a	n/a	-999	9	[-999, -999, -999]	n/a	FR1	1	R1123C
982.172	1.069	635922	DISTRACT_END	n/a	n/a	n/a	-999	9	[0, 0, 0]	n/a	FR1	1	R1123C
983.241	0.762	636456	REC_START	n/a	n/a	n/a	-999	9	[0, 0, 0]	n/a	FR1	1	R1123C
984.003	1.045	636837	REC_WORD	1.045	n/a	PALM	-999	9	[0, 0, 0]	n/a	FR1	1	R1123C
985.048	7.588	637360	REC_WORD	7.588	n/a	THUMB	-999	9	[0, 0, 0]	n/a	FR1	1	R1123C
992.636	5.804	641153	REC_WORD	5.804	n/a	HOOK	-999	9	[0, 0, 0]	n/a	FR1	1	R1123C
998.44	3.132	644055	REC_WORD	3.132	n/a	BATHE	-999	9	[0, 0, 0]	n/a	FR1	1	R1123C
1001.572	7.82	645621	REC_WORD	7.82	n/a	SHRIMP	-999	9	[0, 0, 0]	n/a	FR1	1	R1123C
1009.392	2.634	649531	REC_WORD	2.634	n/a	HAT	-999	9	[0, 0, 0]	n/a	FR1	1	R1123C
1012.026	1.228	650848	REC_WORD	1.228	n/a	GLOVE	-999	9	[0, 0, 0]	n/a	FR1	1	R1123C
1013.254	2.675	651462	REC_END	n/a	n/a	n/a	-999	9	[0, 0, 0]	n/a	FR1	1	R1123C
1015.929	0.0	652799	TRIAL	n/a	n/a	n/a	-999	10	[0, 0, 0]	n/a	FR1	1	R1123C
1015.929	10.428	652799	COUNTDOWN_START	n/a	n/a	n/a	-999	10	[0, 0, 0]	n/a	FR1	1	R1123C
1026.357	0.008	658012	COUNTDOWN_END	n/a	n/a	n/a	-999	10	[0, 0, 0]	n/a	FR1	1	R1123C
1026.365	2.533	658016	ORIENT	n/a	n/a	n/a	-999	10	[0, 0, 0]	n/a	FR1	1	R1123C
1028.898	2.585	659283	WORD	n/a	wordpools/wordpool_EN.txt	TENT	1	10	[0, 0, 0]	n/a	FR1	1	R1123C
1031.483	2.482	660575	WORD	n/a	wordpools/wordpool_EN.txt	SEA	2	10	[0, 0, 0]	n/a	FR1	1	R1123C
1033.965	2.602	661816	WORD	n/a	wordpools/wordpool_EN.txt	TOY	3	10	[0, 0, 0]	n/a	FR1	1	R1123C
1036.567	2.449	663117	WORD	n/a	wordpools/wordpool_EN.txt	HORN	4	10	[0, 0, 0]	n/a	FR1	1	R1123C
1039.016	2.385	664341	WORD	n/a	wordpools/wordpool_EN.txt	OAK	5	10	[0, 0, 0]	n/a	FR1	1	R1123C
1041.401	2.466	665534	WORD	n/a	wordpools/wordpool_EN.txt	BEACH	6	10	[0, 0, 0]	n/a	FR1	1	R1123C
1043.867	2.418	666767	WORD	n/a	wordpools/wordpool_EN.txt	ROOF	7	10	[0, 0, 0]	n/a	FR1	1	R1123C
1046.285	2.617	667976	WORD	n/a	wordpools/wordpool_EN.txt	WAVE	8	10	[0, 0, 0]	n/a	FR1	1	R1123C
1048.902	2.384	669284	WORD	n/a	wordpools/wordpool_EN.txt	BOAT	9	10	[0, 0, 0]	n/a	FR1	1	R1123C
1051.286	2.4	670476	WORD	n/a	wordpools/wordpool_EN.txt	CAVE	10	10	[0, 0, 0]	n/a	FR1	1	R1123C
1053.686	2.601	671676	WORD	n/a	wordpools/wordpool_EN.txt	SKY	11	10	[0, 0, 0]	n/a	FR1	1	R1123C
1056.287	1.616	672976	WORD	n/a	wordpools/wordpool_EN.txt	BRUSH	12	10	[0, 0, 0]	n/a	FR1	1	R1123C
1057.903	0.001	673784	DISTRACT_START	n/a	n/a	n/a	-999	10	[0, 0, 0]	n/a	FR1	1	R1123C
1057.904	0.016	673785	START	n/a	n/a	n/a	-999	10	[-999, -999, -999]	n/a	FR1	1	R1123C
1057.92	4.535	673793	PROB	4.535	n/a	n/a	-999	10	[6, 8, 1]	15	FR1	1	R1123C
1062.455	2.666	676060	PROB	2.666	n/a	n/a	-999	10	[2, 8, 2]	12	FR1	1	R1123C
1065.121	4.634	677393	PROB	4.634	n/a	n/a	-999	10	[9, 6, 9]	24	FR1	1	R1123C
1069.755	6.018	679710	PROB	6.018	n/a	n/a	-999	10	[2, 6, 5]	13	FR1	1	R1123C
1075.773	3.253	682718	PROB	3.253	n/a	n/a	-999	10	[1, 5, 3]	9	FR1	1	R1123C
1079.026	0.015	684345	STOP	n/a	n/a	n/a	-999	10	[-999, -999, -999]	n/a	FR1	1	R1123C
1079.041	1.151	684352	DISTRACT_END	n/a	n/a	n/a	-999	10	[0, 0, 0]	n/a	FR1	1	R1123C
1080.192	0.821	684928	REC_START	n/a	n/a	n/a	-999	10	[0, 0, 0]	n/a	FR1	1	R1123C
1081.013	0.995	685338	REC_WORD	0.995	n/a	BOAT	-999	10	[0, 0, 0]	n/a	FR1	1	R1123C
1082.008	0.929	685836	REC_WORD	0.929	n/a	LAKE	-999	10	[0, 0, 0]	n/a	FR1	1	R1123C
1082.937	1.27	686300	REC_WORD	1.27	n/a	SHORE	-999	10	[0, 0, 0]	n/a	FR1	1	R1123C
1084.207	16.154	686935	REC_WORD	16.154	n/a	TOE	-999	10	[0, 0, 0]	n/a	FR1	1	R1123C
1100.361	9.844	695011	REC_WORD	9.844	n/a	BEACH	-999	10	[0, 0, 0]	n/a	FR1	1	R1123C
1110.205	3.176	699933	REC_END	n/a	n/a	n/a	-999	10	[0, 0, 0]	n/a	FR1	1	R1123C
1113.381	0.001	701521	COUNTDOWN_START	n/a	n/a	n/a	-999	11	[0, 0, 0]	n/a	FR1	1	R1123C
1113.382	10.427	701521	TRIAL	n/a	n/a	n/a	-999	11	[0, 0, 0]	n/a	FR1	1	R1123C
1123.809	0.007	706734	COUNTDOWN_END	n/a	n/a	n/a	-999	11	[0, 0, 0]	n/a	FR1	1	R1123C
1123.816	2.534	706738	ORIENT	n/a	n/a	n/a	-999	11	[0, 0, 0]	n/a	FR1	1	R1123C
1126.35	2.583	708005	WORD	n/a	wordpools/wordpool_EN.txt	DUCK	1	11	[0, 0, 0]	n/a	FR1	1	R1123C
1128.933	2.602	709296	WORD	n/a	wordpools/wordpool_EN.txt	MUG	2	11	[0, 0, 0]	n/a	FR1	1	R1123C
1131.535	2.383	710597	WORD	n/a	wordpools/wordpool_EN.txt	PIPE	3	11	[0, 0, 0]	n/a	FR1	1	R1123C
1133.918	2.418	711788	WORD	n/a	wordpools/wordpool_EN.txt	APE	4	11	[0, 0, 0]	n/a	FR1	1	R1123C
1136.336	2.549	712997	WORD	n/a	wordpools/wordpool_EN.txt	WORM	5	11	[0, 0, 0]	n/a	FR1	1	R1123C
1138.885	2.452	714271	WORD	n/a	wordpools/wordpool_EN.txt	PLATE	6	11	[0, 0, 0]	n/a	FR1	1	R1123C
1141.337	2.449	715497	WORD	n/a	wordpools/wordpool_EN.txt	WEB	7	11	[0, 0, 0]	n/a	FR1	1	R1123C
1143.786	2.451	716722	WORD	n/a	wordpools/wordpool_EN.txt	DEER	8	11	[0, 0, 0]	n/a	FR1	1	R1123C
1146.237	2.4	717947	WORD	n/a	wordpools/wordpool_EN.txt	BEAN	9	11	[0, 0, 0]	n/a	FR1	1	R1123C
1148.637	2.568	719147	WORD	n/a	wordpools/wordpool_EN.txt	MOTH	10	11	[0, 0, 0]	n/a	FR1	1	R1123C
1151.205	2.616	720431	WORD	n/a	wordpools/wordpool_EN.txt	SEED	11	11	[0, 0, 0]	n/a	FR1	1	R1123C
1153.821	1.601	721739	WORD	n/a	wordpools/wordpool_EN.txt	MAT	12	11	[0, 0, 0]	n/a	FR1	1	R1123C
1155.422	0.001	722539	DISTRACT_START	n/a	n/a	n/a	-999	11	[0, 0, 0]	n/a	FR1	1	R1123C
1155.423	0.016	722540	START	n/a	n/a	n/a	-999	11	[-999, -999, -999]	n/a	FR1	1	R1123C
1155.439	2.767	722548	PROB	2.767	n/a	n/a	-999	11	[1, 3, 3]	7	FR1	1	R1123C
1158.206	5.717	723931	PROB	5.717	n/a	n/a	-999	11	[9, 6, 9]	24	FR1	1	R1123C
1163.923	4.485	726789	PROB	4.485	n/a	n/a	-999	11	[6, 4, 8]	18	FR1	1	R1123C
1168.408	4.517	729032	PROB	4.517	n/a	n/a	-999	11	[2, 8, 9]	19	FR1	1	R1123C
1172.925	8.012	731290	PROB	8.012	n/a	n/a	-999	11	[8, 9, 7]	24	FR1	1	R1123C
1180.937	0.006	735296	STOP	n/a	n/a	n/a	-999	11	[-999, -999, -999]	n/a	FR1	1	R1123C
1180.943	1.118	735299	DISTRACT_END	n/a	n/a	n/a	-999	11	[0, 0, 0]	n/a	FR1	1	R1123C
1182.061	0.895	735858	REC_START	n/a	n/a	n/a	-999	11	[0, 0, 0]	n/a	FR1	1	R1123C
1182.956	9.407	736305	REC_WORD	9.407	n/a	SEED	-999	11	[0, 0, 0]	n/a	FR1	1	R1123C
1192.363	2.696	741008	REC_WORD	2.696	n/a	BEAK	-999	11	[0, 0, 0]	n/a	FR1	1	R1123C
1195.059	17.012	742356	REC_WORD	17.012	n/a	DUCK	-999	11	[0, 0, 0]	n/a	FR1	1	R1123C
1212.071	2.812	750861	REC_END	n/a	n/a	n/a	-999	11	[0, 0, 0]	n/a	FR1	1	R1123C
1214.883	0.0	752267	TRIAL	n/a	n/a	n/a	-999	12	[0, 0, 0]	n/a	FR1	1	R1123C
1214.883	10.428	752267	COUNTDOWN_START	n/a	n/a	n/a	-999	12	[0, 0, 0]	n/a	FR1	1	R1123C
1225.311	0.008	757481	COUNTDOWN_END	n/a	n/a	n/a	-999	12	[0, 0, 0]	n/a	FR1	1	R1123C
1225.319	2.616	757485	ORIENT	n/a	n/a	n/a	-999	12	[0, 0, 0]	n/a	FR1	1	R1123C
1227.935	2.568	758793	WORD	n/a	wordpools/wordpool_EN.txt	JET	1	12	[0, 0, 0]	n/a	FR1	1	R1123C
1230.503	2.617	760076	WORD	n/a	wordpools/wordpool_EN.txt	PLANE	2	12	[0, 0, 0]	n/a	FR1	1	R1123C
1233.12	2.617	761385	WORD	n/a	wordpools/wordpool_EN.txt	OAR	3	12	[0, 0, 0]	n/a	FR1	1	R1123C
1235.737	2.468	762693	WORD	n/a	wordpools/wordpool_EN.txt	SHEET	4	12	[0, 0, 0]	n/a	FR1	1	R1123C
1238.205	2.549	763927	WORD	n/a	wordpools/wordpool_EN.txt	TRAIN	5	12	[0, 0, 0]	n/a	FR1	1	R1123C
1240.754	2.535	765201	WORD	n/a	wordpools/wordpool_EN.txt	PEARL	6	12	[0, 0, 0]	n/a	FR1	1	R1123C
1243.289	2.466	766469	WORD	n/a	wordpools/wordpool_EN.txt	BANK	7	12	[0, 0, 0]	n/a	FR1	1	R1123C
1245.755	2.401	767702	WORD	n/a	wordpools/wordpool_EN.txt	STEAM	8	12	[0, 0, 0]	n/a	FR1	1	R1123C
1248.156	2.584	768902	WORD	n/a	wordpools/wordpool_EN.txt	STORE	9	12	[0, 0, 0]	n/a	FR1	1	R1123C
1250.74	2.433	770194	WORD	n/a	wordpools/wordpool_EN.txt	MAIL	10	12	[0, 0, 0]	n/a	FR1	1	R1123C
1253.173	2.418	771410	WORD	n/a	wordpools/wordpool_EN.txt	CASH	11	12	[0, 0, 0]	n/a	FR1	1	R1123C
1255.591	1.617	772619	WORD	n/a	wordpools/wordpool_EN.txt	SCHOOL	12	12	[0, 0, 0]	n/a	FR1	1	R1123C
1257.208	0.001	773428	DISTRACT_START	n/a	n/a	n/a	-999	12	[0, 0, 0]	n/a	FR1	1	R1123C
1257.209	0.016	773428	START	n/a	n/a	n/a	-999	12	[-999, -999, -999]	n/a	FR1	1	R1123C
1257.225	5.817	773436	PROB	5.817	n/a	n/a	-999	12	[2, 4, 6]	12	FR1	1	R1123C
1263.042	7.785	776345	PROB	7.785	n/a	n/a	-999	12	[3, 7, 6]	16	FR1	1	R1123C
1270.827	4.535	780237	PROB	4.535	n/a	n/a	-999	12	[2, 7, 8]	17	FR1	1	R1123C
1275.362	5.512	782504	PROB	5.512	n/a	n/a	-999	12	[8, 6, 5]	19	FR1	1	R1123C
1280.874	0.004	785260	STOP	n/a	n/a	n/a	-999	12	[-999, -999, -999]	n/a	FR1	1	R1123C
1280.878	1.118	785262	DISTRACT_END	n/a	n/a	n/a	-999	12	[0, 0, 0]	n/a	FR1	1	R1123C
1281.996	11.103	785821	REC_START	n/a	n/a	n/a	-999	12	[0, 0, 0]	n/a	FR1	1	R1123C
1293.099	0.8	791372	REC_WORD	0.8	n/a	PLANE	-999	12	[0, 0, 0]	n/a	FR1	1	R1123C
1293.899	3.106	791772	REC_WORD	3.106	n/a	JET	-999	12	[0, 0, 0]	n/a	FR1	1	R1123C
1297.005	2.632	793325	REC_WORD	2.632	n/a	OAR	-999	12	[0, 0, 0]	n/a	FR1	1	R1123C
1299.637	12.371	794640	REC_WORD	12.371	n/a	BOAT	-999	12	[0, 0, 0]	n/a	FR1	1	R1123C
1312.008	2.261	800825	REC_END	n/a	n/a	n/a	-999	12	[0, 0, 0]	n/a	FR1	1	R1123C
1314.269	0.0	801956	TRIAL	n/a	n/a	n/a	-999	13	[0, 0, 0]	n/a	FR1	1	R1123C
1314.269	10.428	801956	COUNTDOWN_START	n/a	n/a	n/a	-999	13	[0, 0, 0]	n/a	FR1	1	R1123C
1324.697	0.006	807169	COUNTDOWN_END	n/a	n/a	n/a	-999	13	[0, 0, 0]	n/a	FR1	1	R1123C
1324.703	2.484	807172	ORIENT	n/a	n/a	n/a	-999	13	[0, 0, 0]	n/a	FR1	1	R1123C
1327.187	2.385	808414	WORD	n/a	wordpools/wordpool_EN.txt	ROAD	1	13	[0, 0, 0]	n/a	FR1	1	R1123C
1329.572	2.449	809607	WORD	n/a	wordpools/wordpool_EN.txt	DOG	2	13	[0, 0, 0]	n/a	FR1	1	R1123C
1332.021	2.385	810831	WORD	n/a	wordpools/wordpool_EN.txt	SKUNK	3	13	[0, 0, 0]	n/a	FR1	1	R1123C
1334.406	2.55	812023	WORD	n/a	wordpools/wordpool_EN.txt	FOG	4	13	[0, 0, 0]	n/a	FR1	1	R1123C
1336.956	2.584	813298	WORD	n/a	wordpools/wordpool_EN.txt	HEN	5	13	[0, 0, 0]	n/a	FR1	1	R1123C
1339.54	2.517	814590	WORD	n/a	wordpools/wordpool_EN.txt	LAMB	6	13	[0, 0, 0]	n/a	FR1	1	R1123C
1342.057	2.468	815849	WORD	n/a	wordpools/wordpool_EN.txt	FARM	7	13	[0, 0, 0]	n/a	FR1	1	R1123C
1344.525	2.466	817082	WORD	n/a	wordpools/wordpool_EN.txt	EEL	8	13	[0, 0, 0]	n/a	FR1	1	R1123C
1346.991	2.518	818315	WORD	n/a	wordpools/wordpool_EN.txt	CALF	9	13	[0, 0, 0]	n/a	FR1	1	R1123C
1349.509	2.549	819574	WORD	n/a	wordpools/wordpool_EN.txt	TRUCK	10	13	[0, 0, 0]	n/a	FR1	1	R1123C
1352.058	2.485	820849	WORD	n/a	wordpools/wordpool_EN.txt	VAN	11	13	[0, 0, 0]	n/a	FR1	1	R1123C
1354.543	1.616	822091	WORD	n/a	wordpools/wordpool_EN.txt	BRIDGE	12	13	[0, 0, 0]	n/a	FR1	1	R1123C
1356.159	0.001	822899	DISTRACT_START	n/a	n/a	n/a	-999	13	[0, 0, 0]	n/a	FR1	1	R1123C
1356.16	0.016	822899	START	n/a	n/a	n/a	-999	13	[-999, -999, -999]	n/a	FR1	1	R1123C
1356.176	5.319	822907	PROB	5.319	n/a	n/a	-999	13	[3, 8, 9]	20	FR1	1	R1123C
1361.495	5.3	825567	PROB	5.3	n/a	n/a	-999	13	[6, 8, 8]	20	FR1	1	R1123C
1366.795	5.418	828216	PROB	5.418	n/a	n/a	-999	13	[5, 4, 8]	17	FR1	1	R1123C
1372.213	2.267	830925	PROB	2.267	n/a	n/a	-999	13	[5, 4, 5]	14	FR1	1	R1123C
1374.48	3.354	832059	PROB	3.354	n/a	n/a	-999	13	[1, 7, 1]	9	FR1	1	R1123C
1377.834	0.013	833735	STOP	n/a	n/a	n/a	-999	13	[-999, -999, -999]	n/a	FR1	1	R1123C
1377.847	1.201	833742	DISTRACT_END	n/a	n/a	n/a	-999	13	[0, 0, 0]	n/a	FR1	1	R1123C
1379.048	1.218	834342	REC_START	n/a	n/a	n/a	-999	13	[0, 0, 0]	n/a	FR1	1	R1123C
1380.266	1.114	834951	REC_WORD	1.114	n/a	BOAT	-999	13	[0, 0, 0]	n/a	FR1	1	R1123C
1381.38	1.177	835508	REC_WORD	1.177	n/a	CAR	-999	13	[0, 0, 0]	n/a	FR1	1	R1123C
1382.557	6.15	836097	REC_WORD	6.15	n/a	TRUCK	-999	13	[0, 0, 0]	n/a	FR1	1	R1123C
1388.707	2.292	839171	REC_WORD	2.292	n/a	SKUNK	-999	13	[0, 0, 0]	n/a	FR1	1	R1123C
1390.999	18.061	840317	REC_WORD	18.061	n/a	FOG	-999	13	[0, 0, 0]	n/a	FR1	1	R1123C
1409.06	2.277	849347	REC_END	n/a	n/a	n/a	-999	13	[0, 0, 0]	n/a	FR1	1	R1123C
1411.337	0.001	850485	COUNTDOWN_START	n/a	n/a	n/a	-999	14	[0, 0, 0]	n/a	FR1	1	R1123C
1411.338	10.427	850486	TRIAL	n/a	n/a	n/a	-999	14	[0, 0, 0]	n/a	FR1	1	R1123C
1421.765	0.007	855699	COUNTDOWN_END	n/a	n/a	n/a	-999	14	[0, 0, 0]	n/a	FR1	1	R1123C
1421.772	2.501	855702	ORIENT	n/a	n/a	n/a	-999	14	[0, 0, 0]	n/a	FR1	1	R1123C
1424.273	2.433	856953	WORD	n/a	wordpools/wordpool_EN.txt	VEST	1	14	[0, 0, 0]	n/a	FR1	1	R1123C
1426.706	2.568	858169	WORD	n/a	wordpools/wordpool_EN.txt	CANE	2	14	[0, 0, 0]	n/a	FR1	1	R1123C
1429.274	2.383	859453	WORD	n/a	wordpools/wordpool_EN.txt	DRESS	3	14	[0, 0, 0]	n/a	FR1	1	R1123C
1431.657	2.45	860645	WORD	n/a	wordpools/wordpool_EN.txt	BLUSH	4	14	[0, 0, 0]	n/a	FR1	1	R1123C
1434.107	2.534	861869	WORD	n/a	wordpools/wordpool_EN.txt	BLOOM	5	14	[0, 0, 0]	n/a	FR1	1	R1123C
1436.641	2.602	863136	WORD	n/a	wordpools/wordpool_EN.txt	LIP	6	14	[0, 0, 0]	n/a	FR1	1	R1123C
1439.243	2.549	864437	WORD	n/a	wordpools/wordpool_EN.txt	AXE	7	14	[0, 0, 0]	n/a	FR1	1	R1123C
1441.792	2.452	865712	WORD	n/a	wordpools/wordpool_EN.txt	TIE	8	14	[0, 0, 0]	n/a	FR1	1	R1123C
1444.244	2.382	866937	WORD	n/a	wordpools/wordpool_EN.txt	SOCK	9	14	[0, 0, 0]	n/a	FR1	1	R1123C
1446.626	2.567	868128	WORD	n/a	wordpools/wordpool_EN.txt	POND	10	14	[0, 0, 0]	n/a	FR1	1	R1123C
1449.193	2.551	869412	WORD	n/a	wordpools/wordpool_EN.txt	HAND	11	14	[0, 0, 0]	n/a	FR1	1	R1123C
1451.744	1.601	870687	WORD	n/a	wordpools/wordpool_EN.txt	VASE	12	14	[0, 0, 0]	n/a	FR1	1	R1123C
1453.345	0.001	871488	DISTRACT_START	n/a	n/a	n/a	-999	14	[0, 0, 0]	n/a	FR1	1	R1123C
1453.346	0.016	871488	START	n/a	n/a	n/a	-999	14	[-999, -999, -999]	n/a	FR1	1	R1123C
1453.362	3.533	871496	PROB	3.533	n/a	n/a	-999	14	[4, 3, 4]	11	FR1	1	R1123C
1456.895	4.518	873262	PROB	4.518	n/a	n/a	-999	14	[6, 4, 1]	11	FR1	1	R1123C
1461.413	4.3	875521	PROB	4.3	n/a	n/a	-999	14	[5, 5, 9]	19	FR1	1	R1123C
1465.713	5.702	877671	PROB	5.702	n/a	n/a	-999	14	[9, 2, 4]	15	FR1	1	R1123C
1471.415	3.851	880522	PROB	3.851	n/a	n/a	-999	14	[8, 8, 3]	19	FR1	1	R1123C
1475.266	0.017	882447	STOP	n/a	n/a	n/a	-999	14	[-999, -999, -999]	n/a	FR1	1	R1123C
1475.283	1.084	882456	DISTRACT_END	n/a	n/a	n/a	-999	14	[0, 0, 0]	n/a	FR1	1	R1123C
1476.367	0.865	882998	REC_START	n/a	n/a	n/a	-999	14	[0, 0, 0]	n/a	FR1	1	R1123C
1477.232	29.146	883430	REC_WORD	29.146	n/a	VEST	-999	14	[0, 0, 0]	n/a	FR1	1	R1123C
1506.378	2.178	898002	REC_END	n/a	n/a	n/a	-999	14	[0, 0, 0]	n/a	FR1	1	R1123C
1508.556	0.0	899091	TRIAL	n/a	n/a	n/a	-999	15	[0, 0, 0]	n/a	FR1	1	R1123C
1508.556	10.428	899091	COUNTDOWN_START	n/a	n/a	n/a	-999	15	[0, 0, 0]	n/a	FR1	1	R1123C
1518.984	0.006	904304	COUNTDOWN_END	n/a	n/a	n/a	-999	15	[0, 0, 0]	n/a	FR1	1	R1123C
1518.99	2.551	904307	ORIENT	n/a	n/a	n/a	-999	15	[0, 0, 0]	n/a	FR1	1	R1123C
1521.541	2.433	905583	WORD	n/a	wordpools/wordpool_EN.txt	FISH	1	15	[0, 0, 0]	n/a	FR1	1	R1123C
1523.974	2.368	906799	WORD	n/a	wordpools/wordpool_EN.txt	FUR	2	15	[0, 0, 0]	n/a	FR1	1	R1123C
1526.342	2.616	907983	WORD	n/a	wordpools/wordpool_EN.txt	SINK	3	15	[0, 0, 0]	n/a	FR1	1	R1123C
1528.958	2.568	909291	WORD	n/a	wordpools/wordpool_EN.txt	MUD	4	15	[0, 0, 0]	n/a	FR1	1	R1123C
1531.526	2.517	910575	WORD	n/a	wordpools/wordpool_EN.txt	CROW	5	15	[0, 0, 0]	n/a	FR1	1	R1123C
1534.043	2.568	911833	WORD	n/a	wordpools/wordpool_EN.txt	STICK	6	15	[0, 0, 0]	n/a	FR1	1	R1123C
1536.611	2.549	913117	WORD	n/a	wordpools/wordpool_EN.txt	WAND	7	15	[0, 0, 0]	n/a	FR1	1	R1123C
1539.16	2.601	914391	WORD	n/a	wordpools/wordpool_EN.txt	GEESE	8	15	[0, 0, 0]	n/a	FR1	1	R1123C
1541.761	2.384	915692	WORD	n/a	wordpools/wordpool_EN.txt	SNAIL	9	15	[0, 0, 0]	n/a	FR1	1	R1123C
1544.145	2.451	916884	WORD	n/a	wordpools/wordpool_EN.txt	CAGE	10	15	[0, 0, 0]	n/a	FR1	1	R1123C
1546.596	2.483	918109	WORD	n/a	wordpools/wordpool_EN.txt	ZOO	11	15	[0, 0, 0]	n/a	FR1	1	R1123C
1549.079	1.617	919350	WORD	n/a	wordpools/wordpool_EN.txt	STOOL	12	15	[0, 0, 0]	n/a	FR1	1	R1123C
1550.696	0.001	920159	DISTRACT_START	n/a	n/a	n/a	-999	15	[0, 0, 0]	n/a	FR1	1	R1123C
1550.697	0.015	920159	START	n/a	n/a	n/a	-999	15	[-999, -999, -999]	n/a	FR1	1	R1123C
1550.712	4.819	920167	PROB	4.819	n/a	n/a	-999	15	[1, 7, 4]	12	FR1	1	R1123C
1555.531	5.984	922576	PROB	5.984	n/a	n/a	-999	15	[2, 7, 6]	15	FR1	1	R1123C
1561.515	6.667	925568	PROB	6.667	n/a	n/a	-999	15	[5, 4, 8]	18	FR1	1	R1123C
1568.182	3.181	928901	PROB	3.181	n/a	n/a	-999	15	[4, 1, 2]	7	FR1	1	R1123C
1571.363	0.004	930491	STOP	n/a	n/a	n/a	-999	15	[-999, -999, -999]	n/a	FR1	1	R1123C
1571.367	1.219	930493	DISTRACT_END	n/a	n/a	n/a	-999	15	[0, 0, 0]	n/a	FR1	1	R1123C
1572.586	1.716	931103	REC_START	n/a	n/a	n/a	-999	15	[0, 0, 0]	n/a	FR1	1	R1123C
1574.302	19.944	931961	REC_WORD	19.944	n/a	CROW	-999	15	[0, 0, 0]	n/a	FR1	1	R1123C
1594.246	1.324	941932	REC_WORD	1.324	n/a	FISH	-999	15	[0, 0, 0]	n/a	FR1	1	R1123C
1595.57	4.834	942594	REC_WORD	4.834	n/a	STICK	-999	15	[0, 0, 0]	n/a	FR1	1	R1123C
1600.404	2.193	945011	REC_WORD	2.193	n/a	CAVE	-999	15	[0, 0, 0]	n/a	FR1	1	R1123C
1602.597	3.143	946107	REC_END	n/a	n/a	n/a	-999	15	[0, 0, 0]	n/a	FR1	1	R1123C
1605.74	0.0	947678	TRIAL	n/a	n/a	n/a	-999	16	[0, 0, 0]	n/a	FR1	1	R1123C
1605.74	10.428	947678	COUNTDOWN_START	n/a	n/a	n/a	-999	16	[0, 0, 0]	n/a	FR1	1	R1123C
1616.168	0.007	952892	COUNTDOWN_END	n/a	n/a	n/a	-999	16	[0, 0, 0]	n/a	FR1	1	R1123C
1616.175	2.55	952895	ORIENT	n/a	n/a	n/a	-999	16	[0, 0, 0]	n/a	FR1	1	R1123C
1618.725	2.502	954170	WORD	n/a	wordpools/wordpool_EN.txt	SUN	1	16	[0, 0, 0]	n/a	FR1	1	R1123C
1621.227	2.384	955421	WORD	n/a	wordpools/wordpool_EN.txt	ROOM	2	16	[0, 0, 0]	n/a	FR1	1	R1123C
1623.611	2.582	956613	WORD	n/a	wordpools/wordpool_EN.txt	BADGE	3	16	[0, 0, 0]	n/a	FR1	1	R1123C
1626.193	2.567	957904	WORD	n/a	wordpools/wordpool_EN.txt	BOX	4	16	[0, 0, 0]	n/a	FR1	1	R1123C
1628.76	2.368	959187	WORD	n/a	wordpools/wordpool_EN.txt	SOAP	5	16	[0, 0, 0]	n/a	FR1	1	R1123C
1631.128	2.583	960371	WORD	n/a	wordpools/wordpool_EN.txt	FOAM	6	16	[0, 0, 0]	n/a	FR1	1	R1123C
1633.711	2.417	961663	WORD	n/a	wordpools/wordpool_EN.txt	SHIRT	7	16	[0, 0, 0]	n/a	FR1	1	R1123C
1636.128	2.568	962871	WORD	n/a	wordpools/wordpool_EN.txt	BAG	8	16	[0, 0, 0]	n/a	FR1	1	R1123C
1638.696	2.568	964155	WORD	n/a	wordpools/wordpool_EN.txt	CROWN	9	16	[0, 0, 0]	n/a	FR1	1	R1123C
1641.264	2.533	965439	WORD	n/a	wordpools/wordpool_EN.txt	STRING	10	16	[0, 0, 0]	n/a	FR1	1	R1123C
1643.797	2.501	966705	WORD	n/a	wordpools/wordpool_EN.txt	FAN	11	16	[0, 0, 0]	n/a	FR1	1	R1123C
1646.298	1.616	967956	WORD	n/a	wordpools/wordpool_EN.txt	WHALE	12	16	[0, 0, 0]	n/a	FR1	1	R1123C
1647.914	0.001	968763	DISTRACT_START	n/a	n/a	n/a	-999	16	[0, 0, 0]	n/a	FR1	1	R1123C
1647.915	0.016	968764	START	n/a	n/a	n/a	-999	16	[-999, -999, -999]	n/a	FR1	1	R1123C
1647.931	5.552	968772	PROB	5.552	n/a	n/a	-999	16	[6, 9, 6]	21	FR1	1	R1123C
1653.483	4.333	971548	PROB	4.333	n/a	n/a	-999	16	[5, 1, 7]	13	FR1	1	R1123C
1657.816	5.268	973714	PROB	5.268	n/a	n/a	-999	16	[9, 3, 3]	15	FR1	1	R1123C
1663.084	4.151	976348	PROB	4.151	n/a	n/a	-999	16	[6, 8, 8]	22	FR1	1	R1123C
1667.235	4.614	978423	PROB	4.614	n/a	n/a	-999	16	[6, 6, 5]	17	FR1	1	R1123C
1671.849	0.019	980730	STOP	n/a	n/a	n/a	-999	16	[-999, -999, -999]	n/a	FR1	1	R1123C
1671.868	1.185	980739	DISTRACT_END	n/a	n/a	n/a	-999	16	[0, 0, 0]	n/a	FR1	1	R1123C
1673.053	13.928	981332	REC_START	n/a	n/a	n/a	-999	16	[0, 0, 0]	n/a	FR1	1	R1123C
1686.981	12.345	988295	REC_WORD	12.345	n/a	SNAIL	-999	16	[0, 0, 0]	n/a	FR1	1	R1123C
1699.326	3.739	994467	REC_WORD	3.739	n/a	CAGE	-999	16	[0, 0, 0]	n/a	FR1	1	R1123C
1703.065	2.294	996337	REC_END	n/a	n/a	n/a	-999	16	[0, 0, 0]	n/a	FR1	1	R1123C
1705.359	0.0	997483	COUNTDOWN_START	n/a	n/a	n/a	-999	17	[0, 0, 0]	n/a	FR1	1	R1123C
1705.359	10.428	997483	TRIAL	n/a	n/a	n/a	-999	17	[0, 0, 0]	n/a	FR1	1	R1123C
1715.787	0.006	1002697	COUNTDOWN_END	n/a	n/a	n/a	-999	17	[0, 0, 0]	n/a	FR1	1	R1123C
1715.793	2.535	1002700	ORIENT	n/a	n/a	n/a	-999	17	[0, 0, 0]	n/a	FR1	1	R1123C
1718.328	2.583	1003967	WORD	n/a	wordpools/wordpool_EN.txt	GRASS	1	17	[0, 0, 0]	n/a	FR1	1	R1123C
1720.911	2.452	1005259	WORD	n/a	wordpools/wordpool_EN.txt	MOON	2	17	[0, 0, 0]	n/a	FR1	1	R1123C
1723.363	2.399	1006485	WORD	n/a	wordpools/wordpool_EN.txt	SLUSH	3	17	[0, 0, 0]	n/a	FR1	1	R1123C
1725.762	2.618	1007684	WORD	n/a	wordpools/wordpool_EN.txt	NEST	4	17	[0, 0, 0]	n/a	FR1	1	R1123C
1728.38	2.583	1008993	WORD	n/a	wordpools/wordpool_EN.txt	BALL	5	17	[0, 0, 0]	n/a	FR1	1	R1123C
1730.963	2.552	1010284	WORD	n/a	wordpools/wordpool_EN.txt	GOAT	6	17	[0, 0, 0]	n/a	FR1	1	R1123C
1733.515	2.516	1011560	WORD	n/a	wordpools/wordpool_EN.txt	BIRD	7	17	[0, 0, 0]	n/a	FR1	1	R1123C
1736.031	2.617	1012818	WORD	n/a	wordpools/wordpool_EN.txt	VINE	8	17	[0, 0, 0]	n/a	FR1	1	R1123C
1738.648	2.534	1014126	WORD	n/a	wordpools/wordpool_EN.txt	PRINCE	9	17	[0, 0, 0]	n/a	FR1	1	R1123C
1741.182	2.55	1015393	WORD	n/a	wordpools/wordpool_EN.txt	BAT	10	17	[0, 0, 0]	n/a	FR1	1	R1123C
1743.732	2.585	1016668	WORD	n/a	wordpools/wordpool_EN.txt	CAT	11	17	[0, 0, 0]	n/a	FR1	1	R1123C
1746.317	1.616	1017961	WORD	n/a	wordpools/wordpool_EN.txt	NET	12	17	[0, 0, 0]	n/a	FR1	1	R1123C
1747.933	0.001	1018769	DISTRACT_START	n/a	n/a	n/a	-999	17	[0, 0, 0]	n/a	FR1	1	R1123C
1747.934	0.015	1018769	START	n/a	n/a	n/a	-999	17	[-999, -999, -999]	n/a	FR1	1	R1123C
1747.949	9.136	1018777	PROB	9.136	n/a	n/a	-999	17	[3, 4, 8]	15	FR1	1	R1123C
1757.085	2.518	1023344	PROB	2.518	n/a	n/a	-999	17	[1, 1, 6]	8	FR1	1	R1123C
1759.603	3.133	1024603	PROB	3.133	n/a	n/a	-999	17	[6, 6, 1]	13	FR1	1	R1123C
1762.736	5.201	1026169	PROB	5.201	n/a	n/a	-999	17	[8, 7, 8]	23	FR1	1	R1123C
1767.937	3.321	1028770	PROB	3.321	n/a	n/a	-999	17	[8, 6, 2]	16	FR1	1	R1123C
1771.258	0.014	1030430	STOP	n/a	n/a	n/a	-999	17	[-999, -999, -999]	n/a	FR1	1	R1123C
1771.272	1.067	1030437	DISTRACT_END	n/a	n/a	n/a	-999	17	[0, 0, 0]	n/a	FR1	1	R1123C
1772.339	0.994	1030970	REC_START	n/a	n/a	n/a	-999	17	[0, 0, 0]	n/a	FR1	1	R1123C
1773.333	1.897	1031467	REC_WORD	1.897	n/a	PRINCE	-999	17	[0, 0, 0]	n/a	FR1	1	R1123C
1775.23	27.121	1032416	REC_WORD	27.121	n/a	COAT	-999	17	[0, 0, 0]	n/a	FR1	1	R1123C
1802.351	2.526	1045975	REC_END	n/a	n/a	n/a	-999	17	[0, 0, 0]	n/a	FR1	1	R1123C
1804.877	0.0	1047238	TRIAL	n/a	n/a	n/a	-999	18	[0, 0, 0]	n/a	FR1	1	R1123C
1804.877	10.428	1047238	COUNTDOWN_START	n/a	n/a	n/a	-999	18	[0, 0, 0]	n/a	FR1	1	R1123C
1815.305	0.008	1052452	COUNTDOWN_END	n/a	n/a	n/a	-999	18	[0, 0, 0]	n/a	FR1	1	R1123C
1815.313	2.383	1052456	ORIENT	n/a	n/a	n/a	-999	18	[0, 0, 0]	n/a	FR1	1	R1123C
1817.696	2.417	1053647	WORD	n/a	wordpools/wordpool_EN.txt	SKI	1	18	[0, 0, 0]	n/a	FR1	1	R1123C
1820.113	2.601	1054855	WORD	n/a	wordpools/wordpool_EN.txt	CRANE	2	18	[0, 0, 0]	n/a	FR1	1	R1123C
1822.714	2.484	1056156	WORD	n/a	wordpools/wordpool_EN.txt	OWL	3	18	[0, 0, 0]	n/a	FR1	1	R1123C
1825.198	2.6	1057398	WORD	n/a	wordpools/wordpool_EN.txt	WALL	4	18	[0, 0, 0]	n/a	FR1	1	R1123C
1827.798	2.568	1058698	WORD	n/a	wordpools/wordpool_EN.txt	BOOT	5	18	[0, 0, 0]	n/a	FR1	1	R1123C
1830.366	2.466	1059981	WORD	n/a	wordpools/wordpool_EN.txt	SNOW	6	18	[0, 0, 0]	n/a	FR1	1	R1123C
1832.832	2.452	1061214	WORD	n/a	wordpools/wordpool_EN.txt	THREAD	7	18	[0, 0, 0]	n/a	FR1	1	R1123C
1835.284	2.616	1062440	WORD	n/a	wordpools/wordpool_EN.txt	HOOF	8	18	[0, 0, 0]	n/a	FR1	1	R1123C
1837.9	2.551	1063748	WORD	n/a	wordpools/wordpool_EN.txt	TOE	9	18	[0, 0, 0]	n/a	FR1	1	R1123C
1840.451	2.5	1065023	WORD	n/a	wordpools/wordpool_EN.txt	DOOR	10	18	[0, 0, 0]	n/a	FR1	1	R1123C
1842.951	2.584	1066273	WORD	n/a	wordpools/wordpool_EN.txt	RUG	11	18	[0, 0, 0]	n/a	FR1	1	R1123C
1845.535	1.616	1067565	WORD	n/a	wordpools/wordpool_EN.txt	SPRING	12	18	[0, 0, 0]	n/a	FR1	1	R1123C
1847.151	0.001	1068373	DISTRACT_START	n/a	n/a	n/a	-999	18	[0, 0, 0]	n/a	FR1	1	R1123C
1847.152	0.016	1068374	START	n/a	n/a	n/a	-999	18	[-999, -999, -999]	n/a	FR1	1	R1123C
1847.168	4.534	1068382	PROB	4.534	n/a	n/a	-999	18	[6, 6, 3]	15	FR1	1	R1123C
1851.702	9.069	1070648	PROB	9.069	n/a	n/a	-999	18	[6, 5, 9]	20	FR1	1	R1123C
1860.771	5.984	1075183	PROB	5.984	n/a	n/a	-999	18	[5, 6, 9]	20	FR1	1	R1123C
1866.755	3.463	1078174	PROB	3.463	n/a	n/a	-999	18	[7, 3, 7]	17	FR1	1	R1123C
1870.218	0.005	1079906	STOP	n/a	n/a	n/a	-999	18	[-999, -999, -999]	n/a	FR1	1	R1123C
1870.223	1.035	1079908	DISTRACT_END	n/a	n/a	n/a	-999	18	[0, 0, 0]	n/a	FR1	1	R1123C
1871.258	0.429	1080426	REC_START	n/a	n/a	n/a	-999	18	[0, 0, 0]	n/a	FR1	1	R1123C
1871.687	1.366	1080640	REC_WORD	1.366	n/a	SNOW	-999	18	[0, 0, 0]	n/a	FR1	1	R1123C
1873.053	1.314	1081323	REC_WORD	1.314	n/a	COLD	-999	18	[0, 0, 0]	n/a	FR1	1	R1123C
1874.367	26.903	1081980	REC_WORD	26.903	n/a	TOE	-999	18	[0, 0, 0]	n/a	FR1	1	R1123C
1901.27	2.01	1095430	REC_END	n/a	n/a	n/a	-999	18	[0, 0, 0]	n/a	FR1	1	R1123C
1903.28	0.0	1096435	TRIAL	n/a	n/a	n/a	-999	19	[0, 0, 0]	n/a	FR1	1	R1123C
1903.28	10.428	1096435	COUNTDOWN_START	n/a	n/a	n/a	-999	19	[0, 0, 0]	n/a	FR1	1	R1123C
1913.708	0.006	1101649	COUNTDOWN_END	n/a	n/a	n/a	-999	19	[0, 0, 0]	n/a	FR1	1	R1123C
1913.714	2.551	1101652	ORIENT	n/a	n/a	n/a	-999	19	[0, 0, 0]	n/a	FR1	1	R1123C
1916.265	2.483	1102927	WORD	n/a	wordpools/wordpool_EN.txt	KEY	1	19	[0, 0, 0]	n/a	FR1	1	R1123C
1918.748	2.367	1104169	WORD	n/a	wordpools/wordpool_EN.txt	SHIELD	2	19	[0, 0, 0]	n/a	FR1	1	R1123C
1921.115	2.452	1105352	WORD	n/a	wordpools/wordpool_EN.txt	HOUSE	3	19	[0, 0, 0]	n/a	FR1	1	R1123C
1923.567	2.483	1106578	WORD	n/a	wordpools/wordpool_EN.txt	CHALK	4	19	[0, 0, 0]	n/a	FR1	1	R1123C
1926.05	2.468	1107819	WORD	n/a	wordpools/wordpool_EN.txt	WING	5	19	[0, 0, 0]	n/a	FR1	1	R1123C
1928.518	2.499	1109053	WORD	n/a	wordpools/wordpool_EN.txt	STREET	6	19	[0, 0, 0]	n/a	FR1	1	R1123C
1931.017	2.435	1110302	WORD	n/a	wordpools/wordpool_EN.txt	FORT	7	19	[0, 0, 0]	n/a	FR1	1	R1123C
1933.452	2.383	1111520	WORD	n/a	wordpools/wordpool_EN.txt	DOLL	8	19	[0, 0, 0]	n/a	FR1	1	R1123C
1935.835	2.601	1112711	WORD	n/a	wordpools/wordpool_EN.txt	DOCK	9	19	[0, 0, 0]	n/a	FR1	1	R1123C
1938.436	2.6	1114012	WORD	n/a	wordpools/wordpool_EN.txt	MAP	10	19	[0, 0, 0]	n/a	FR1	1	R1123C
1941.036	2.435	1115312	WORD	n/a	wordpools/wordpool_EN.txt	ELF	11	19	[0, 0, 0]	n/a	FR1	1	R1123C
1943.471	1.616	1116529	WORD	n/a	wordpools/wordpool_EN.txt	SHOE	12	19	[0, 0, 0]	n/a	FR1	1	R1123C
1945.087	0.0	1117337	DISTRACT_START	n/a	n/a	n/a	-999	19	[0, 0, 0]	n/a	FR1	1	R1123C
1945.087	0.016	1117337	START	n/a	n/a	n/a	-999	19	[-999, -999, -999]	n/a	FR1	1	R1123C
1945.103	4.051	1117345	PROB	4.051	n/a	n/a	-999	19	[8, 6, 2]	16	FR1	1	R1123C
1949.154	3.984	1119370	PROB	3.984	n/a	n/a	-999	19	[6, 3, 8]	17	FR1	1	R1123C
1953.138	5.352	1121362	PROB	5.352	n/a	n/a	-999	19	[9, 7, 7]	23	FR1	1	R1123C
1958.49	7.32	1124038	PROB	7.32	n/a	n/a	-999	19	[4, 5, 9]	18	FR1	1	R1123C
1965.81	0.014	1127697	STOP	n/a	n/a	n/a	-999	19	[-999, -999, -999]	n/a	FR1	1	R1123C
1965.824	1.1	1127704	DISTRACT_END	n/a	n/a	n/a	-999	19	[0, 0, 0]	n/a	FR1	1	R1123C
1966.924	0.669	1128254	REC_START	n/a	n/a	n/a	-999	19	[0, 0, 0]	n/a	FR1	1	R1123C
1967.593	3.754	1128589	REC_WORD	3.754	n/a	SHOE	-999	19	[0, 0, 0]	n/a	FR1	1	R1123C
1971.347	25.594	1130466	REC_WORD	25.594	n/a	HORN	-999	19	[0, 0, 0]	n/a	FR1	1	R1123C
1996.941	1.989	1143262	REC_END	n/a	n/a	n/a	-999	19	[0, 0, 0]	n/a	FR1	1	R1123C
1998.93	0.0	1144256	COUNTDOWN_START	n/a	n/a	n/a	-999	20	[0, 0, 0]	n/a	FR1	1	R1123C
1998.93	10.428	1144256	TRIAL	n/a	n/a	n/a	-999	20	[0, 0, 0]	n/a	FR1	1	R1123C
2009.358	0.008	1149470	COUNTDOWN_END	n/a	n/a	n/a	-999	20	[0, 0, 0]	n/a	FR1	1	R1123C
2009.366	2.483	1149474	ORIENT	n/a	n/a	n/a	-999	20	[0, 0, 0]	n/a	FR1	1	R1123C
2011.849	2.601	1150715	WORD	n/a	wordpools/wordpool_EN.txt	BOOK	1	20	[0, 0, 0]	n/a	FR1	1	R1123C
2014.45	2.433	1152015	WORD	n/a	wordpools/wordpool_EN.txt	WHEEL	2	20	[0, 0, 0]	n/a	FR1	1	R1123C
2016.883	2.418	1153232	WORD	n/a	wordpools/wordpool_EN.txt	CLOCK	3	20	[0, 0, 0]	n/a	FR1	1	R1123C
2019.301	2.583	1154441	WORD	n/a	wordpools/wordpool_EN.txt	TOOL	4	20	[0, 0, 0]	n/a	FR1	1	R1123C
2021.884	2.485	1155732	WORD	n/a	wordpools/wordpool_EN.txt	MOLE	5	20	[0, 0, 0]	n/a	FR1	1	R1123C
2024.369	2.583	1156974	WORD	n/a	wordpools/wordpool_EN.txt	RAT	6	20	[0, 0, 0]	n/a	FR1	1	R1123C
2026.952	2.468	1158266	WORD	n/a	wordpools/wordpool_EN.txt	FUDGE	7	20	[0, 0, 0]	n/a	FR1	1	R1123C
2029.42	2.533	1159500	WORD	n/a	wordpools/wordpool_EN.txt	GLASS	8	20	[0, 0, 0]	n/a	FR1	1	R1123C
2031.953	2.535	1160766	WORD	n/a	wordpools/wordpool_EN.txt	CLOWN	9	20	[0, 0, 0]	n/a	FR1	1	R1123C
2034.488	2.532	1162033	WORD	n/a	wordpools/wordpool_EN.txt	LAMP	10	20	[0, 0, 0]	n/a	FR1	1	R1123C
2037.02	2.585	1163299	WORD	n/a	wordpools/wordpool_EN.txt	JEEP	11	20	[0, 0, 0]	n/a	FR1	1	R1123C
2039.605	1.617	1164592	WORD	n/a	wordpools/wordpool_EN.txt	TRAY	12	20	[0, 0, 0]	n/a	FR1	1	R1123C
2041.222	0.001	1165400	DISTRACT_START	n/a	n/a	n/a	-999	20	[0, 0, 0]	n/a	FR1	1	R1123C
2041.223	0.016	1165401	START	n/a	n/a	n/a	-999	20	[-999, -999, -999]	n/a	FR1	1	R1123C
2041.239	3.75	1165409	PROB	3.75	n/a	n/a	-999	20	[8, 1, 8]	17	FR1	1	R1123C
2044.989	5.084	1167283	PROB	5.084	n/a	n/a	-999	20	[4, 4, 5]	13	FR1	1	R1123C
2050.073	6.968	1169825	PROB	6.968	n/a	n/a	-999	20	[1, 8, 6]	15	FR1	1	R1123C
2057.041	4.151	1173309	PROB	4.151	n/a	n/a	-999	20	[4, 3, 1]	8	FR1	1	R1123C
2061.192	5.809	1175384	PROB	5.809	n/a	n/a	-999	20	[6, 3, 9]	18	FR1	1	R1123C
2067.001	0.008	1178288	STOP	n/a	n/a	n/a	-999	20	[-999, -999, -999]	n/a	FR1	1	R1123C
2067.009	1.168	1178292	DISTRACT_END	n/a	n/a	n/a	-999	20	[0, 0, 0]	n/a	FR1	1	R1123C
2068.177	0.738	1178876	REC_START	n/a	n/a	n/a	-999	20	[0, 0, 0]	n/a	FR1	1	R1123C
2068.915	1.486	1179245	REC_WORD	1.486	n/a	JEEP	-999	20	[0, 0, 0]	n/a	FR1	1	R1123C
2070.401	1.613	1179988	REC_WORD	1.613	n/a	DIRT	-999	20	[0, 0, 0]	n/a	FR1	1	R1123C
2072.014	19.284	1180795	REC_WORD	19.284	n/a	CAR	-999	20	[0, 0, 0]	n/a	FR1	1	R1123C
2091.298	6.891	1190436	REC_WORD	6.891	n/a	ROOF	-999	20	[0, 0, 0]	n/a	FR1	1	R1123C
2098.189	1.76	1193881	REC_END	n/a	n/a	n/a	-999	20	[0, 0, 0]	n/a	FR1	1	R1123C
2099.949	0.0	1194761	TRIAL	n/a	n/a	n/a	-999	21	[0, 0, 0]	n/a	FR1	1	R1123C
2099.949	10.428	1194761	COUNTDOWN_START	n/a	n/a	n/a	-999	21	[0, 0, 0]	n/a	FR1	1	R1123C
2110.377	0.008	1199975	COUNTDOWN_END	n/a	n/a	n/a	-999	21	[0, 0, 0]	n/a	FR1	1	R1123C
2110.385	2.45	1199979	ORIENT	n/a	n/a	n/a	-999	21	[0, 0, 0]	n/a	FR1	1	R1123C
2112.835	2.584	1201203	WORD	n/a	wordpools/wordpool_EN.txt	SMOKE	1	21	[0, 0, 0]	n/a	FR1	1	R1123C
2115.419	2.617	1202495	WORD	n/a	wordpools/wordpool_EN.txt	SIGN	2	21	[0, 0, 0]	n/a	FR1	1	R1123C
2118.036	2.418	1203804	WORD	n/a	wordpools/wordpool_EN.txt	JAIL	3	21	[0, 0, 0]	n/a	FR1	1	R1123C
2120.454	2.566	1205013	WORD	n/a	wordpools/wordpool_EN.txt	JUDGE	4	21	[0, 0, 0]	n/a	FR1	1	R1123C
2123.02	2.435	1206295	WORD	n/a	wordpools/wordpool_EN.txt	TOAST	5	21	[0, 0, 0]	n/a	FR1	1	R1123C
2125.455	2.566	1207513	WORD	n/a	wordpools/wordpool_EN.txt	SOUP	6	21	[0, 0, 0]	n/a	FR1	1	R1123C
2128.021	2.434	1208796	WORD	n/a	wordpools/wordpool_EN.txt	DESK	7	21	[0, 0, 0]	n/a	FR1	1	R1123C
2130.455	2.633	1210013	WORD	n/a	wordpools/wordpool_EN.txt	SLEEVE	8	21	[0, 0, 0]	n/a	FR1	1	R1123C
2133.088	2.551	1211329	WORD	n/a	wordpools/wordpool_EN.txt	FACE	9	21	[0, 0, 0]	n/a	FR1	1	R1123C
2135.639	2.585	1212604	WORD	n/a	wordpools/wordpool_EN.txt	PIN	10	21	[0, 0, 0]	n/a	FR1	1	R1123C
2138.224	2.483	1213897	WORD	n/a	wordpools/wordpool_EN.txt	SMILE	11	21	[0, 0, 0]	n/a	FR1	1	R1123C
2140.707	1.618	1215138	WORD	n/a	wordpools/wordpool_EN.txt	ARK	12	21	[0, 0, 0]	n/a	FR1	1	R1123C
2142.325	0.0	1215947	DISTRACT_START	n/a	n/a	n/a	-999	21	[0, 0, 0]	n/a	FR1	1	R1123C
2142.325	0.016	1215947	START	n/a	n/a	n/a	-999	21	[-999, -999, -999]	n/a	FR1	1	R1123C
2142.341	3.984	1215955	PROB	3.984	n/a	n/a	-999	21	[9, 1, 6]	16	FR1	1	R1123C
2146.325	6.135	1217947	PROB	6.135	n/a	n/a	-999	21	[5, 6, 6]	17	FR1	1	R1123C
2152.46	8.051	1221014	PROB	8.051	n/a	n/a	-999	21	[6, 5, 8]	19	FR1	1	R1123C
2160.511	5.708	1225039	PROB	5.708	n/a	n/a	-999	21	[7, 1, 5]	13	FR1	1	R1123C
2166.219	0.01	1227893	STOP	n/a	n/a	n/a	-999	21	[-999, -999, -999]	n/a	FR1	1	R1123C
2166.229	1.084	1227898	DISTRACT_END	n/a	n/a	n/a	-999	21	[0, 0, 0]	n/a	FR1	1	R1123C
2167.313	2.568	1228440	REC_START	n/a	n/a	n/a	-999	21	[0, 0, 0]	n/a	FR1	1	R1123C
2169.881	1.452	1229724	REC_WORD	1.452	n/a	FACE	-999	21	[0, 0, 0]	n/a	FR1	1	R1123C
2171.333	11.898	1230450	REC_WORD	11.898	n/a	HILL	-999	21	[0, 0, 0]	n/a	FR1	1	R1123C
2183.231	14.099	1236398	REC_WORD	14.099	n/a	SMOKE	-999	21	[0, 0, 0]	n/a	FR1	1	R1123C
2197.33	2.172	1243447	REC_END	n/a	n/a	n/a	-999	21	[0, 0, 0]	n/a	FR1	1	R1123C
2199.502	0.0	1244533	TRIAL	n/a	n/a	n/a	-999	22	[0, 0, 0]	n/a	FR1	1	R1123C
2199.502	10.428	1244533	COUNTDOWN_START	n/a	n/a	n/a	-999	22	[0, 0, 0]	n/a	FR1	1	R1123C
2209.93	0.006	1249747	COUNTDOWN_END	n/a	n/a	n/a	-999	22	[0, 0, 0]	n/a	FR1	1	R1123C
2209.936	2.385	1249750	ORIENT	n/a	n/a	n/a	-999	22	[0, 0, 0]	n/a	FR1	1	R1123C
2212.321	2.433	1250942	WORD	n/a	wordpools/wordpool_EN.txt	FLEA	1	22	[0, 0, 0]	n/a	FR1	1	R1123C
2214.754	2.585	1252158	WORD	n/a	wordpools/wordpool_EN.txt	SNAKE	2	22	[0, 0, 0]	n/a	FR1	1	R1123C
2217.339	2.482	1253451	WORD	n/a	wordpools/wordpool_EN.txt	HAWK	3	22	[0, 0, 0]	n/a	FR1	1	R1123C
2219.821	2.519	1254692	WORD	n/a	wordpools/wordpool_EN.txt	BEE	4	22	[0, 0, 0]	n/a	FR1	1	R1123C
2222.34	2.416	1255951	WORD	n/a	wordpools/wordpool_EN.txt	FORK	5	22	[0, 0, 0]	n/a	FR1	1	R1123C
2224.756	2.433	1257159	WORD	n/a	wordpools/wordpool_EN.txt	BRICK	6	22	[0, 0, 0]	n/a	FR1	1	R1123C
2227.189	2.617	1258375	WORD	n/a	wordpools/wordpool_EN.txt	SHELL	7	22	[0, 0, 0]	n/a	FR1	1	R1123C
2229.806	2.469	1259684	WORD	n/a	wordpools/wordpool_EN.txt	SPONGE	8	22	[0, 0, 0]	n/a	FR1	1	R1123C
2232.275	2.616	1260918	WORD	n/a	wordpools/wordpool_EN.txt	CLAY	9	22	[0, 0, 0]	n/a	FR1	1	R1123C
2234.891	2.368	1262226	WORD	n/a	wordpools/wordpool_EN.txt	STONE	10	22	[0, 0, 0]	n/a	FR1	1	R1123C
2237.259	2.383	1263410	WORD	n/a	wordpools/wordpool_EN.txt	CUBE	11	22	[0, 0, 0]	n/a	FR1	1	R1123C
2239.642	1.618	1264601	WORD	n/a	wordpools/wordpool_EN.txt	PEACH	12	22	[0, 0, 0]	n/a	FR1	1	R1123C
2241.26	0.001	1265410	DISTRACT_START	n/a	n/a	n/a	-999	22	[0, 0, 0]	n/a	FR1	1	R1123C
2241.261	0.015	1265411	START	n/a	n/a	n/a	-999	22	[-999, -999, -999]	n/a	FR1	1	R1123C
2241.276	5.901	1265418	PROB	5.901	n/a	n/a	-999	22	[9, 3, 6]	18	FR1	1	R1123C
2247.177	4.368	1268368	PROB	4.368	n/a	n/a	-999	22	[5, 6, 6]	17	FR1	1	R1123C
2251.545	5.65	1270552	PROB	5.65	n/a	n/a	-999	22	[2, 8, 9]	19	FR1	1	R1123C
2257.195	4.511	1273377	PROB	4.511	n/a	n/a	-999	22	[7, 2, 4]	13	FR1	1	R1123C
2261.706	0.007	1275632	STOP	n/a	n/a	n/a	-999	22	[-999, -999, -999]	n/a	FR1	1	R1123C
2261.713	1.134	1275636	DISTRACT_END	n/a	n/a	n/a	-999	22	[0, 0, 0]	n/a	FR1	1	R1123C
2262.847	0.485	1276203	REC_START	n/a	n/a	n/a	-999	22	[0, 0, 0]	n/a	FR1	1	R1123C
2263.332	2.165	1276445	REC_WORD	2.165	n/a	STONE	-999	22	[0, 0, 0]	n/a	FR1	1	R1123C
2265.497	1.391	1277528	REC_WORD	1.391	n/a	BRICK	-999	22	[0, 0, 0]	n/a	FR1	1	R1123C
2266.888	9.906	1278223	REC_WORD	9.906	n/a	CLAY	-999	22	[0, 0, 0]	n/a	FR1	1	R1123C
2276.794	16.065	1283176	REC_WORD	16.065	n/a	FOOT	-999	22	[0, 0, 0]	n/a	FR1	1	R1123C
2292.859	2.91	1291207	REC_END	n/a	n/a	n/a	-999	22	[0, 0, 0]	n/a	FR1	1	R1123C
2295.769	0.0	1292662	TRIAL	n/a	n/a	n/a	-999	23	[0, 0, 0]	n/a	FR1	1	R1123C
2295.769	10.428	1292662	COUNTDOWN_START	n/a	n/a	n/a	-999	23	[0, 0, 0]	n/a	FR1	1	R1123C
2306.197	0.008	1297876	COUNTDOWN_END	n/a	n/a	n/a	-999	23	[0, 0, 0]	n/a	FR1	1	R1123C
2306.205	2.384	1297880	ORIENT	n/a	n/a	n/a	-999	23	[0, 0, 0]	n/a	FR1	1	R1123C
2308.589	2.617	1299072	WORD	n/a	wordpools/wordpool_EN.txt	GOLD	1	23	[0, 0, 0]	n/a	FR1	1	R1123C
2311.206	2.516	1300380	WORD	n/a	wordpools/wordpool_EN.txt	SHEEP	2	23	[0, 0, 0]	n/a	FR1	1	R1123C
2313.722	2.401	1301638	WORD	n/a	wordpools/wordpool_EN.txt	CAPE	3	23	[0, 0, 0]	n/a	FR1	1	R1123C
2316.123	2.418	1302838	WORD	n/a	wordpools/wordpool_EN.txt	MOOSE	4	23	[0, 0, 0]	n/a	FR1	1	R1123C
2318.541	2.55	1304047	WORD	n/a	wordpools/wordpool_EN.txt	TOOTH	5	23	[0, 0, 0]	n/a	FR1	1	R1123C
2321.091	2.501	1305322	WORD	n/a	wordpools/wordpool_EN.txt	TEETH	6	23	[0, 0, 0]	n/a	FR1	1	R1123C
2323.592	2.533	1306573	WORD	n/a	wordpools/wordpool_EN.txt	SAIL	7	23	[0, 0, 0]	n/a	FR1	1	R1123C
2326.125	2.5	1307839	WORD	n/a	wordpools/wordpool_EN.txt	FOX	8	23	[0, 0, 0]	n/a	FR1	1	R1123C
2328.625	2.5	1309089	WORD	n/a	wordpools/wordpool_EN.txt	LEAF	9	23	[0, 0, 0]	n/a	FR1	1	R1123C
2331.125	2.501	1310339	WORD	n/a	wordpools/wordpool_EN.txt	ANT	10	23	[0, 0, 0]	n/a	FR1	1	R1123C
2333.626	2.567	1311589	WORD	n/a	wordpools/wordpool_EN.txt	STEM	11	23	[0, 0, 0]	n/a	FR1	1	R1123C
2336.193	1.617	1312873	WORD	n/a	wordpools/wordpool_EN.txt	MOUSE	12	23	[0, 0, 0]	n/a	FR1	1	R1123C
2337.81	0.001	1313681	DISTRACT_START	n/a	n/a	n/a	-999	23	[0, 0, 0]	n/a	FR1	1	R1123C
2337.811	0.016	1313681	START	n/a	n/a	n/a	-999	23	[-999, -999, -999]	n/a	FR1	1	R1123C
2337.827	4.719	1313689	PROB	4.719	n/a	n/a	-999	23	[6, 4, 3]	13	FR1	1	R1123C
2342.546	3.149	1316049	PROB	3.149	n/a	n/a	-999	23	[2, 7, 2]	11	FR1	1	R1123C
2345.695	7.652	1317623	PROB	7.652	n/a	n/a	-999	23	[6, 8, 1]	15	FR1	1	R1123C
2353.347	4.912	1321449	PROB	4.912	n/a	n/a	-999	23	[7, 5, 3]	15	FR1	1	R1123C
2358.259	0.006	1323905	STOP	n/a	n/a	n/a	-999	23	[-999, -999, -999]	n/a	FR1	1	R1123C
2358.265	1.168	1323908	DISTRACT_END	n/a	n/a	n/a	-999	23	[0, 0, 0]	n/a	FR1	1	R1123C
2359.433	2.623	1324492	REC_START	n/a	n/a	n/a	-999	23	[0, 0, 0]	n/a	FR1	1	R1123C
2362.056	3.143	1325803	REC_WORD	3.143	n/a	MOTH	-999	23	[0, 0, 0]	n/a	FR1	1	R1123C
2365.199	2.874	1327374	REC_WORD	2.874	n/a	SNAKE	-999	23	[0, 0, 0]	n/a	FR1	1	R1123C
2368.073	1.907	1328811	REC_WORD	1.907	n/a	BOAT	-999	23	[0, 0, 0]	n/a	FR1	1	R1123C
2369.98	11.781	1329765	REC_WORD	11.781	n/a	SAIL	-999	23	[0, 0, 0]	n/a	FR1	1	R1123C
2381.761	7.684	1335655	REC_WORD	7.684	n/a	CHAIR	-999	23	[0, 0, 0]	n/a	FR1	1	R1123C
2389.445	2.076	1339496	REC_END	n/a	n/a	n/a	-999	23	[0, 0, 0]	n/a	FR1	1	R1123C
2391.521	0.001	1340534	COUNTDOWN_START	n/a	n/a	n/a	-999	24	[0, 0, 0]	n/a	FR1	1	R1123C
2391.522	10.427	1340535	TRIAL	n/a	n/a	n/a	-999	24	[0, 0, 0]	n/a	FR1	1	R1123C
2401.949	0.007	1345748	COUNTDOWN_END	n/a	n/a	n/a	-999	24	[0, 0, 0]	n/a	FR1	1	R1123C
2401.956	2.618	1345751	ORIENT	n/a	n/a	n/a	-999	24	[0, 0, 0]	n/a	FR1	1	R1123C
2404.574	2.483	1347060	WORD	n/a	wordpools/wordpool_EN.txt	BOWL	1	24	[0, 0, 0]	n/a	FR1	1	R1123C
2407.057	2.418	1348301	WORD	n/a	wordpools/wordpool_EN.txt	CART	2	24	[0, 0, 0]	n/a	FR1	1	R1123C
2409.475	2.433	1349510	WORD	n/a	wordpools/wordpool_EN.txt	LOCK	3	24	[0, 0, 0]	n/a	FR1	1	R1123C
2411.908	2.451	1350727	WORD	n/a	wordpools/wordpool_EN.txt	PEA	4	24	[0, 0, 0]	n/a	FR1	1	R1123C
2414.359	2.416	1351952	WORD	n/a	wordpools/wordpool_EN.txt	BROOM	5	24	[0, 0, 0]	n/a	FR1	1	R1123C
2416.775	2.401	1353160	WORD	n/a	wordpools/wordpool_EN.txt	FLOOR	6	24	[0, 0, 0]	n/a	FR1	1	R1123C
2419.176	2.517	1354360	WORD	n/a	wordpools/wordpool_EN.txt	BENCH	7	24	[0, 0, 0]	n/a	FR1	1	R1123C
2421.693	2.618	1355619	WORD	n/a	wordpools/wordpool_EN.txt	CHIN	8	24	[0, 0, 0]	n/a	FR1	1	R1123C
2424.311	2.583	1356928	WORD	n/a	wordpools/wordpool_EN.txt	TEA	9	24	[0, 0, 0]	n/a	FR1	1	R1123C
2426.894	2.518	1358219	WORD	n/a	wordpools/wordpool_EN.txt	SUIT	10	24	[0, 0, 0]	n/a	FR1	1	R1123C
2429.412	2.416	1359478	WORD	n/a	wordpools/wordpool_EN.txt	BED	11	24	[0, 0, 0]	n/a	FR1	1	R1123C
2431.828	1.618	1360686	WORD	n/a	wordpools/wordpool_EN.txt	POOL	12	24	[0, 0, 0]	n/a	FR1	1	R1123C
2433.446	0.001	1361495	DISTRACT_START	n/a	n/a	n/a	-999	24	[0, 0, 0]	n/a	FR1	1	R1123C
2433.447	0.016	1361495	START	n/a	n/a	n/a	-999	24	[-999, -999, -999]	n/a	FR1	1	R1123C
2433.463	4.633	1361503	PROB	4.633	n/a	n/a	-999	24	[4, 6, 2]	12	FR1	1	R1123C
2438.096	4.784	1363820	PROB	4.784	n/a	n/a	-999	24	[4, 6, 5]	14	FR1	1	R1123C
2442.88	3.535	1366211	PROB	3.535	n/a	n/a	-999	24	[5, 9, 5]	19	FR1	1	R1123C
2446.415	3.383	1367979	PROB	3.383	n/a	n/a	-999	24	[9, 9, 1]	19	FR1	1	R1123C
2449.798	3.201	1369670	PROB	3.201	n/a	n/a	-999	24	[1, 9, 3]	13	FR1	1	R1123C
2452.999	2.746	1371270	PROB	2.746	n/a	n/a	-999	24	[1, 2, 2]	5	FR1	1	R1123C
2455.745	0.004	1372643	STOP	n/a	n/a	n/a	-999	24	[-999, -999, -999]	n/a	FR1	1	R1123C
2455.749	1.151	1372645	DISTRACT_END	n/a	n/a	n/a	-999	24	[0, 0, 0]	n/a	FR1	1	R1123C
2456.9	1.613	1373221	REC_START	n/a	n/a	n/a	-999	24	[0, 0, 0]	n/a	FR1	1	R1123C
2458.513	1.022	1374027	REC_WORD	1.022	n/a	BOAT	-999	24	[0, 0, 0]	n/a	FR1	1	R1123C
2459.535	1.491	1374538	REC_WORD	1.491	n/a	FLOOR	-999	24	[0, 0, 0]	n/a	FR1	1	R1123C
2461.026	10.429	1375284	REC_WORD	10.429	n/a	CHIN	-999	24	[0, 0, 0]	n/a	FR1	1	R1123C
2471.455	15.455	1380498	REC_WORD	15.455	n/a	BED	-999	24	[0, 0, 0]	n/a	FR1	1	R1123C
2486.91	2.145	1388224	REC_END	n/a	n/a	n/a	-999	24	[0, 0, 0]	n/a	FR1	1	R1123C
2489.055	0.001	1389297	COUNTDOWN_START	n/a	n/a	n/a	-999	25	[0, 0, 0]	n/a	FR1	1	R1123C
2489.056	10.427	1389297	TRIAL	n/a	n/a	n/a	-999	25	[0, 0, 0]	n/a	FR1	1	R1123C
2499.483	0.009	1394510	COUNTDOWN_END	n/a	n/a	n/a	-999	25	[0, 0, 0]	n/a	FR1	1	R1123C
2499.492	2.616	1394515	ORIENT	n/a	n/a	n/a	-999	25	[0, 0, 0]	n/a	FR1	1	R1123C
2502.108	2.435	1395823	WORD	n/a	wordpools/wordpool_EN.txt	WOLF	1	25	[0, 0, 0]	n/a	FR1	1	R1123C
2504.543	2.416	1397040	WORD	n/a	wordpools/wordpool_EN.txt	SPOON	2	25	[0, 0, 0]	n/a	FR1	1	R1123C
2506.959	2.568	1398248	WORD	n/a	wordpools/wordpool_EN.txt	FOOD	3	25	[0, 0, 0]	n/a	FR1	1	R1123C
2509.527	2.483	1399532	WORD	n/a	wordpools/wordpool_EN.txt	KITE	4	25	[0, 0, 0]	n/a	FR1	1	R1123C
2512.01	2.418	1400773	WORD	n/a	wordpools/wordpool_EN.txt	PIG	5	25	[0, 0, 0]	n/a	FR1	1	R1123C
2514.428	2.399	1401982	WORD	n/a	wordpools/wordpool_EN.txt	WOOD	6	25	[0, 0, 0]	n/a	FR1	1	R1123C
2516.827	2.385	1403182	WORD	n/a	wordpools/wordpool_EN.txt	PET	7	25	[0, 0, 0]	n/a	FR1	1	R1123C
2519.212	2.45	1404374	WORD	n/a	wordpools/wordpool_EN.txt	BRANCH	8	25	[0, 0, 0]	n/a	FR1	1	R1123C
2521.662	2.416	1405599	WORD	n/a	wordpools/wordpool_EN.txt	BEAR	9	25	[0, 0, 0]	n/a	FR1	1	R1123C
2524.078	2.419	1406807	WORD	n/a	wordpools/wordpool_EN.txt	FRUIT	10	25	[0, 0, 0]	n/a	FR1	1	R1123C
2526.497	2.599	1408016	WORD	n/a	wordpools/wordpool_EN.txt	TREE	11	25	[0, 0, 0]	n/a	FR1	1	R1123C
2529.096	1.617	1409316	WORD	n/a	wordpools/wordpool_EN.txt	CHIEF	12	25	[0, 0, 0]	n/a	FR1	1	R1123C
2530.713	0.001	1410124	DISTRACT_START	n/a	n/a	n/a	-999	25	[0, 0, 0]	n/a	FR1	1	R1123C
2530.714	0.016	1410124	START	n/a	n/a	n/a	-999	25	[-999, -999, -999]	n/a	FR1	1	R1123C
2530.73	7.418	1410132	PROB	7.418	n/a	n/a	-999	25	[4, 7, 4]	15	FR1	1	R1123C
2538.148	4.884	1413841	PROB	4.884	n/a	n/a	-999	25	[8, 7, 8]	23	FR1	1	R1123C
2543.032	3.418	1416283	PROB	3.418	n/a	n/a	-999	25	[8, 7, 1]	18	FR1	1	R1123C
2546.45	8.231	1417992	PROB	8.231	n/a	n/a	-999	25	[6, 4, 7]	17	FR1	1	R1123C
2554.681	0.003	1422107	STOP	n/a	n/a	n/a	-999	25	[-999, -999, -999]	n/a	FR1	1	R1123C
2554.684	1.084	1422108	DISTRACT_END	n/a	n/a	n/a	-999	25	[0, 0, 0]	n/a	FR1	1	R1123C
2555.768	1.102	1422650	REC_START	n/a	n/a	n/a	-999	25	[0, 0, 0]	n/a	FR1	1	R1123C
2556.87	1.107	1423201	REC_WORD	1.107	n/a	BOAT	-999	25	[0, 0, 0]	n/a	FR1	1	R1123C
2557.977	16.458	1423755	REC_WORD	16.458	n/a	SHIELD	-999	25	[0, 0, 0]	n/a	FR1	1	R1123C
2574.435	1.523	1431983	REC_WORD	1.523	n/a	CHEST	-999	25	[0, 0, 0]	n/a	FR1	1	R1123C
2575.958	9.827	1432744	REC_WORD	9.827	n/a	FLOOR	-999	25	[0, 0, 0]	n/a	FR1	1	R1123C
2585.785	29.662	1437658	REC_END	n/a	n/a	n/a	-999	25	[0, 0, 0]	n/a	FR1	1	R1123C
2615.447	0.0	1452487	SESS_END	n/a	n/a	n/a	-999	25	[0, 0, 0]	n/a	FR1	1	R1123C
