onset	duration	sample	trial_type	response_time	stim_file	item_name	serialpos	list	test	answer	experiment	session	subject
0.0	29.418	2025	INSTRUCT_START	n/a	n/a	n/a	-999	-999	[0, 0, 0]	n/a	FR1	2	R1338T
29.418	22.388	31441	INSTRUCT_END	n/a	n/a	n/a	-999	-999	[0, 0, 0]	n/a	FR1	2	R1338T
51.806	6.834	53828	MIC TEST_START	n/a	n/a	n/a	-999	-999	[0, 0, 0]	n/a	FR1	2	R1338T
58.64	0.009	60662	MIC TEST_END	n/a	n/a	n/a	-999	-999	[0, 0, 0]	n/a	FR1	2	R1338T
58.649	0.0	60671	TRIAL_START	n/a	n/a	n/a	-999	-1	[0, 0, 0]	n/a	FR1	2	R1338T
58.649	0.0	60671	TRIAL	n/a	n/a	n/a	-999	-1	[0, 0, 0]	n/a	FR1	2	R1338T
58.649	8.793	60671	WAITING_START	n/a	n/a	n/a	-999	-1	[0, 0, 0]	n/a	FR1	2	R1338T
67.442	0.0	69463	WAITING_END	n/a	n/a	n/a	-999	-1	[0, 0, 0]	n/a	FR1	2	R1338T
67.442	10.429	69463	COUNTDOWN_START	n/a	n/a	n/a	-999	-1	[0, 0, 0]	n/a	FR1	2	R1338T
77.871	0.0	79892	COUNTDOWN_END	n/a	n/a	n/a	-999	-1	[0, 0, 0]	n/a	FR1	2	R1338T
77.871	1.139	79892	ORIENT_START	n/a	n/a	n/a	-999	-1	[0, 0, 0]	n/a	FR1	2	R1338T
79.01	0.001	81031	ORIENT_END	n/a	n/a	n/a	-999	-1	[0, 0, 0]	n/a	FR1	2	R1338T
79.011	1.054	81032	ENCODING_START	n/a	n/a	n/a	-999	-1	[0, 0, 0]	n/a	FR1	2	R1338T
80.065	1.629	82086	WORD	n/a	n/a	FLOOD	1	-1	[0, 0, 0]	n/a	FR1	2	R1338T
81.694	1.065	83715	WORD_OFF	n/a	n/a	FLOOD	1	-1	[0, 0, 0]	n/a	FR1	2	R1338T
82.759	1.635	84780	WORD	n/a	n/a	CHEST	2	-1	[0, 0, 0]	n/a	FR1	2	R1338T
84.394	1.045	86415	WORD_OFF	n/a	n/a	CHEST	2	-1	[0, 0, 0]	n/a	FR1	2	R1338T
85.439	1.623	87460	WORD	n/a	n/a	BEAM	3	-1	[0, 0, 0]	n/a	FR1	2	R1338T
87.062	1.09	89083	WORD_OFF	n/a	n/a	BEAM	3	-1	[0, 0, 0]	n/a	FR1	2	R1338T
88.152	1.627	90173	WORD	n/a	n/a	RHINO	4	-1	[0, 0, 0]	n/a	FR1	2	R1338T
89.779	1.075	91799	WORD_OFF	n/a	n/a	RHINO	4	-1	[0, 0, 0]	n/a	FR1	2	R1338T
90.854	1.625	92874	WORD	n/a	n/a	IMAGE	5	-1	[0, 0, 0]	n/a	FR1	2	R1338T
92.479	1.1	94499	WORD_OFF	n/a	n/a	IMAGE	5	-1	[0, 0, 0]	n/a	FR1	2	R1338T
93.579	1.634	95599	WORD	n/a	n/a	WATCH	6	-1	[0, 0, 0]	n/a	FR1	2	R1338T
95.213	1.033	97233	WORD_OFF	n/a	n/a	WATCH	6	-1	[0, 0, 0]	n/a	FR1	2	R1338T
96.246	1.634	98266	WORD	n/a	n/a	BABY	7	-1	[0, 0, 0]	n/a	FR1	2	R1338T
97.88	0.955	99900	WORD_OFF	n/a	n/a	BABY	7	-1	[0, 0, 0]	n/a	FR1	2	R1338T
98.835	1.629	100855	WORD	n/a	n/a	COTTON	8	-1	[0, 0, 0]	n/a	FR1	2	R1338T
100.464	1.017	102484	WORD_OFF	n/a	n/a	COTTON	8	-1	[0, 0, 0]	n/a	FR1	2	R1338T
101.481	1.634	103501	WORD	n/a	n/a	CAMEL	9	-1	[0, 0, 0]	n/a	FR1	2	R1338T
103.115	0.809	105135	WORD_OFF	n/a	n/a	CAMEL	9	-1	[0, 0, 0]	n/a	FR1	2	R1338T
103.924	1.625	105944	WORD	n/a	n/a	WAGON	10	-1	[0, 0, 0]	n/a	FR1	2	R1338T
105.549	0.79	107569	WORD_OFF	n/a	n/a	WAGON	10	-1	[0, 0, 0]	n/a	FR1	2	R1338T
106.339	1.627	108359	WORD	n/a	n/a	TONGUE	11	-1	[0, 0, 0]	n/a	FR1	2	R1338T
107.966	1.142	109986	WORD_OFF	n/a	n/a	TONGUE	11	-1	[0, 0, 0]	n/a	FR1	2	R1338T
109.108	1.625	111128	WORD	n/a	n/a	RING	12	-1	[0, 0, 0]	n/a	FR1	2	R1338T
110.733	0.0	112753	WORD_OFF	n/a	n/a	RING	12	-1	[0, 0, 0]	n/a	FR1	2	R1338T
110.733	0.001	112753	ENCODING_END	n/a	n/a	n/a	-999	-1	[0, 0, 0]	n/a	FR1	2	R1338T
110.734	0.0	112754	DISTRACT_START	n/a	n/a	n/a	-999	-1	[0, 0, 0]	n/a	FR1	2	R1338T
110.734	0.015	112754	START	n/a	n/a	n/a	-999	-1	[-999, -999, -999]	n/a	FR1	2	R1338T
110.749	8.468	112769	PROB	8.468	n/a	n/a	-999	-1	[6, 1, 6]	616	FR1	2	R1338T
119.217	8.303	121236	PROB	8.303	n/a	n/a	-999	-1	[1, 3, 2]	132	FR1	2	R1338T
127.52	8.615	129539	PROB	8.615	n/a	n/a	-999	-1	[6, 2, 3]	623	FR1	2	R1338T
136.135	0.019	138153	STOP	n/a	n/a	n/a	-999	-1	[-999, -999, -999]	n/a	FR1	2	R1338T
136.154	0.598	138172	DISTRACT_END	n/a	n/a	n/a	-999	-1	[0, 0, 0]	n/a	FR1	2	R1338T
136.752	1.603	138770	RETRIEVAL_ORIENT_START	n/a	n/a	n/a	-999	-1	[0, 0, 0]	n/a	FR1	2	R1338T
138.355	0.0	140373	RETRIEVAL_ORIENT_END	n/a	n/a	n/a	-999	-1	[0, 0, 0]	n/a	FR1	2	R1338T
138.355	5.887	140373	REC_START	n/a	n/a	n/a	-999	-1	[0, 0, 0]	n/a	FR1	2	R1338T
144.242	1.704	146260	REC_WORD_VV	1.704	n/a	<>	-999	-1	[0, 0, 0]	n/a	FR1	2	R1338T
145.946	1.735	147964	REC_WORD	1.735	n/a	COTTON	-999	-1	[0, 0, 0]	n/a	FR1	2	R1338T
147.681	2.942	149699	REC_WORD	2.942	n/a	WAGON	-999	-1	[0, 0, 0]	n/a	FR1	2	R1338T
150.623	3.367	152641	REC_WORD	3.367	n/a	TONGUE	-999	-1	[0, 0, 0]	n/a	FR1	2	R1338T
153.99	14.376	156008	REC_WORD	14.376	n/a	FLOOD	-999	-1	[0, 0, 0]	n/a	FR1	2	R1338T
168.366	0.0	170383	REC_END	n/a	n/a	n/a	-999	-1	[0, 0, 0]	n/a	FR1	2	R1338T
168.366	12.83	170383	PRACTICE_POST_INSTRUCT_START	n/a	n/a	n/a	-999	-1	[0, 0, 0]	n/a	FR1	2	R1338T
181.196	0.001	183212	PRACTICE_POST_INSTRUCT_END	n/a	n/a	n/a	-999	-1	[0, 0, 0]	n/a	FR1	2	R1338T
181.197	0.017	183213	TRIAL_END	n/a	n/a	n/a	-999	-1	[0, 0, 0]	n/a	FR1	2	R1338T
181.214	0.001	183230	TRIAL_START	n/a	n/a	n/a	-999	1	[0, 0, 0]	n/a	FR1	2	R1338T
181.215	0.0	183231	TRIAL	n/a	n/a	n/a	-999	1	[0, 0, 0]	n/a	FR1	2	R1338T
181.215	1.981	183231	WAITING_START	n/a	n/a	n/a	-999	1	[0, 0, 0]	n/a	FR1	2	R1338T
183.196	0.0	185212	WAITING_END	n/a	n/a	n/a	-999	1	[0, 0, 0]	n/a	FR1	2	R1338T
183.196	10.43	185212	COUNTDOWN_START	n/a	n/a	n/a	-999	1	[0, 0, 0]	n/a	FR1	2	R1338T
193.626	0.0	195642	COUNTDOWN_END	n/a	n/a	n/a	-999	1	[0, 0, 0]	n/a	FR1	2	R1338T
193.626	1.239	195642	ORIENT_START	n/a	n/a	n/a	-999	1	[0, 0, 0]	n/a	FR1	2	R1338T
194.865	0.0	196881	ENCODING_START	n/a	n/a	n/a	-999	1	[0, 0, 0]	n/a	FR1	2	R1338T
194.865	0.761	196881	ORIENT_END	n/a	n/a	n/a	-999	1	[0, 0, 0]	n/a	FR1	2	R1338T
195.626	1.622	197642	WORD	n/a	wordpools/wordpool_EN.txt	HOUSE	1	1	[0, 0, 0]	n/a	FR1	2	R1338T
197.248	1.091	199264	WORD_OFF	n/a	n/a	HOUSE	1	1	[0, 0, 0]	n/a	FR1	2	R1338T
198.339	1.627	200355	WORD	n/a	wordpools/wordpool_EN.txt	HOLE	2	1	[0, 0, 0]	n/a	FR1	2	R1338T
199.966	1.096	201982	WORD_OFF	n/a	n/a	HOLE	2	1	[0, 0, 0]	n/a	FR1	2	R1338T
201.062	1.621	203077	WORD	n/a	wordpools/wordpool_EN.txt	JAIL	3	1	[0, 0, 0]	n/a	FR1	2	R1338T
202.683	0.95	204698	WORD_OFF	n/a	n/a	JAIL	3	1	[0, 0, 0]	n/a	FR1	2	R1338T
203.633	1.633	205648	WORD	n/a	wordpools/wordpool_EN.txt	CART	4	1	[0, 0, 0]	n/a	FR1	2	R1338T
205.266	0.893	207281	WORD_OFF	n/a	n/a	CART	4	1	[0, 0, 0]	n/a	FR1	2	R1338T
206.159	1.625	208174	WORD	n/a	wordpools/wordpool_EN.txt	SNAIL	5	1	[0, 0, 0]	n/a	FR1	2	R1338T
207.784	0.954	209799	WORD_OFF	n/a	n/a	SNAIL	5	1	[0, 0, 0]	n/a	FR1	2	R1338T
208.738	1.629	210753	WORD	n/a	wordpools/wordpool_EN.txt	PIE	6	1	[0, 0, 0]	n/a	FR1	2	R1338T
210.367	1.047	212382	WORD_OFF	n/a	n/a	PIE	6	1	[0, 0, 0]	n/a	FR1	2	R1338T
211.414	1.637	213429	WORD	n/a	wordpools/wordpool_EN.txt	FORK	7	1	[0, 0, 0]	n/a	FR1	2	R1338T
213.051	1.083	215066	WORD_OFF	n/a	n/a	FORK	7	1	[0, 0, 0]	n/a	FR1	2	R1338T
214.134	1.634	216149	WORD	n/a	wordpools/wordpool_EN.txt	SEED	8	1	[0, 0, 0]	n/a	FR1	2	R1338T
215.768	1.0	217783	WORD_OFF	n/a	n/a	SEED	8	1	[0, 0, 0]	n/a	FR1	2	R1338T
216.768	1.634	218783	WORD	n/a	wordpools/wordpool_EN.txt	SPOON	9	1	[0, 0, 0]	n/a	FR1	2	R1338T
218.402	0.786	220417	WORD_OFF	n/a	n/a	SPOON	9	1	[0, 0, 0]	n/a	FR1	2	R1338T
219.188	1.631	221203	WORD	n/a	wordpools/wordpool_EN.txt	LAKE	10	1	[0, 0, 0]	n/a	FR1	2	R1338T
220.819	1.111	222834	WORD_OFF	n/a	n/a	LAKE	10	1	[0, 0, 0]	n/a	FR1	2	R1338T
221.93	1.607	223945	WORD	n/a	wordpools/wordpool_EN.txt	CAGE	11	1	[0, 0, 0]	n/a	FR1	2	R1338T
223.537	0.763	225551	WORD_OFF	n/a	n/a	CAGE	11	1	[0, 0, 0]	n/a	FR1	2	R1338T
224.3	1.637	226314	WORD	n/a	wordpools/wordpool_EN.txt	SUN	12	1	[0, 0, 0]	n/a	FR1	2	R1338T
225.937	0.0	227951	ENCODING_END	n/a	n/a	n/a	-999	1	[0, 0, 0]	n/a	FR1	2	R1338T
225.937	0.001	227951	WORD_OFF	n/a	n/a	SUN	12	1	[0, 0, 0]	n/a	FR1	2	R1338T
225.938	0.0	227952	DISTRACT_START	n/a	n/a	n/a	-999	1	[0, 0, 0]	n/a	FR1	2	R1338T
225.938	0.015	227952	START	n/a	n/a	n/a	-999	1	[-999, -999, -999]	n/a	FR1	2	R1338T
225.953	10.502	227967	PROB	10.502	n/a	n/a	-999	1	[3, 8, 6]	386	FR1	2	R1338T
236.455	6.668	238469	PROB	6.668	n/a	n/a	-999	1	[8, 5, 7]	857	FR1	2	R1338T
243.123	8.707	245137	PROB	8.707	n/a	n/a	-999	1	[7, 6, 2]	762	FR1	2	R1338T
251.83	0.012	253843	STOP	n/a	n/a	n/a	-999	1	[-999, -999, -999]	n/a	FR1	2	R1338T
251.842	0.502	253855	DISTRACT_END	n/a	n/a	n/a	-999	1	[0, 0, 0]	n/a	FR1	2	R1338T
252.344	1.581	254357	RETRIEVAL_ORIENT_START	n/a	n/a	n/a	-999	1	[0, 0, 0]	n/a	FR1	2	R1338T
253.925	0.001	255938	RETRIEVAL_ORIENT_END	n/a	n/a	n/a	-999	1	[0, 0, 0]	n/a	FR1	2	R1338T
253.926	1.571	255939	REC_START	n/a	n/a	n/a	-999	1	[0, 0, 0]	n/a	FR1	2	R1338T
255.497	1.792	257510	REC_WORD	1.792	n/a	SNAIL	5	1	[0, 0, 0]	n/a	FR1	2	R1338T
257.289	26.649	259302	REC_WORD	26.649	n/a	CAGE	11	1	[0, 0, 0]	n/a	FR1	2	R1338T
283.938	0.0	285950	REC_END	n/a	n/a	n/a	-999	1	[0, 0, 0]	n/a	FR1	2	R1338T
283.938	0.017	285950	TRIAL_END	n/a	n/a	n/a	-999	1	[0, 0, 0]	n/a	FR1	2	R1338T
283.955	0.0	285967	TRIAL_START	n/a	n/a	n/a	-999	2	[0, 0, 0]	n/a	FR1	2	R1338T
283.955	0.001	285967	TRIAL	n/a	n/a	n/a	-999	2	[0, 0, 0]	n/a	FR1	2	R1338T
283.956	2.159	285968	WAITING_START	n/a	n/a	n/a	-999	2	[0, 0, 0]	n/a	FR1	2	R1338T
286.115	0.0	288127	WAITING_END	n/a	n/a	n/a	-999	2	[0, 0, 0]	n/a	FR1	2	R1338T
286.115	10.429	288127	COUNTDOWN_START	n/a	n/a	n/a	-999	2	[0, 0, 0]	n/a	FR1	2	R1338T
296.544	0.0	298555	ORIENT_START	n/a	n/a	n/a	-999	2	[0, 0, 0]	n/a	FR1	2	R1338T
296.544	1.139	298555	COUNTDOWN_END	n/a	n/a	n/a	-999	2	[0, 0, 0]	n/a	FR1	2	R1338T
297.683	0.001	299694	ORIENT_END	n/a	n/a	n/a	-999	2	[0, 0, 0]	n/a	FR1	2	R1338T
297.684	0.987	299695	ENCODING_START	n/a	n/a	n/a	-999	2	[0, 0, 0]	n/a	FR1	2	R1338T
298.671	1.629	300682	WORD	n/a	wordpools/wordpool_EN.txt	OAK	1	2	[0, 0, 0]	n/a	FR1	2	R1338T
300.3	0.976	302311	WORD_OFF	n/a	n/a	OAK	1	2	[0, 0, 0]	n/a	FR1	2	R1338T
301.276	1.625	303287	WORD	n/a	wordpools/wordpool_EN.txt	THUMB	2	2	[0, 0, 0]	n/a	FR1	2	R1338T
302.901	0.963	304912	WORD_OFF	n/a	n/a	THUMB	2	2	[0, 0, 0]	n/a	FR1	2	R1338T
303.864	1.637	305875	WORD	n/a	wordpools/wordpool_EN.txt	PLATE	3	2	[0, 0, 0]	n/a	FR1	2	R1338T
305.501	1.082	307512	WORD_OFF	n/a	n/a	PLATE	3	2	[0, 0, 0]	n/a	FR1	2	R1338T
306.583	1.636	308594	WORD	n/a	wordpools/wordpool_EN.txt	BREAD	4	2	[0, 0, 0]	n/a	FR1	2	R1338T
308.219	1.001	310230	WORD_OFF	n/a	n/a	BREAD	4	2	[0, 0, 0]	n/a	FR1	2	R1338T
309.22	1.632	311231	WORD	n/a	wordpools/wordpool_EN.txt	BANK	5	2	[0, 0, 0]	n/a	FR1	2	R1338T
310.852	0.971	312863	WORD_OFF	n/a	n/a	BANK	5	2	[0, 0, 0]	n/a	FR1	2	R1338T
311.823	1.63	313833	WORD	n/a	wordpools/wordpool_EN.txt	PALM	6	2	[0, 0, 0]	n/a	FR1	2	R1338T
313.453	1.08	315463	WORD_OFF	n/a	n/a	PALM	6	2	[0, 0, 0]	n/a	FR1	2	R1338T
314.533	1.637	316543	WORD	n/a	wordpools/wordpool_EN.txt	HORSE	7	2	[0, 0, 0]	n/a	FR1	2	R1338T
316.17	1.107	318180	WORD_OFF	n/a	n/a	HORSE	7	2	[0, 0, 0]	n/a	FR1	2	R1338T
317.277	1.627	319287	WORD	n/a	wordpools/wordpool_EN.txt	BOMB	8	2	[0, 0, 0]	n/a	FR1	2	R1338T
318.904	1.099	320914	WORD_OFF	n/a	n/a	BOMB	8	2	[0, 0, 0]	n/a	FR1	2	R1338T
320.003	1.635	322013	WORD	n/a	wordpools/wordpool_EN.txt	SHIP	9	2	[0, 0, 0]	n/a	FR1	2	R1338T
321.638	0.947	323648	WORD_OFF	n/a	n/a	SHIP	9	2	[0, 0, 0]	n/a	FR1	2	R1338T
322.585	1.636	324595	WORD	n/a	wordpools/wordpool_EN.txt	KEY	10	2	[0, 0, 0]	n/a	FR1	2	R1338T
324.221	0.976	326231	WORD_OFF	n/a	n/a	KEY	10	2	[0, 0, 0]	n/a	FR1	2	R1338T
325.197	1.625	327207	WORD	n/a	wordpools/wordpool_EN.txt	POND	11	2	[0, 0, 0]	n/a	FR1	2	R1338T
326.822	1.043	328832	WORD_OFF	n/a	n/a	POND	11	2	[0, 0, 0]	n/a	FR1	2	R1338T
327.865	1.624	329875	WORD	n/a	wordpools/wordpool_EN.txt	PHONE	12	2	[0, 0, 0]	n/a	FR1	2	R1338T
329.489	0.001	331499	WORD_OFF	n/a	n/a	PHONE	12	2	[0, 0, 0]	n/a	FR1	2	R1338T
329.49	0.0	331500	DISTRACT_START	n/a	n/a	n/a	-999	2	[0, 0, 0]	n/a	FR1	2	R1338T
329.49	0.0	331500	ENCODING_END	n/a	n/a	n/a	-999	2	[0, 0, 0]	n/a	FR1	2	R1338T
329.49	0.017	331500	START	n/a	n/a	n/a	-999	2	[-999, -999, -999]	n/a	FR1	2	R1338T
329.507	9.65	331517	PROB	9.65	n/a	n/a	-999	2	[3, 2, 8]	328	FR1	2	R1338T
339.157	6.785	341166	PROB	6.785	n/a	n/a	-999	2	[6, 7, 3]	673	FR1	2	R1338T
345.942	5.551	347951	PROB	5.551	n/a	n/a	-999	2	[9, 1, 6]	916	FR1	2	R1338T
351.493	0.018	353502	STOP	n/a	n/a	n/a	-999	2	[-999, -999, -999]	n/a	FR1	2	R1338T
351.511	0.635	353520	DISTRACT_END	n/a	n/a	n/a	-999	2	[0, 0, 0]	n/a	FR1	2	R1338T
352.146	1.547	354155	RETRIEVAL_ORIENT_START	n/a	n/a	n/a	-999	2	[0, 0, 0]	n/a	FR1	2	R1338T
353.693	0.001	355702	RETRIEVAL_ORIENT_END	n/a	n/a	n/a	-999	2	[0, 0, 0]	n/a	FR1	2	R1338T
353.694	17.998	355703	REC_START	n/a	n/a	n/a	-999	2	[0, 0, 0]	n/a	FR1	2	R1338T
371.692	12.014	373700	REC_WORD_VV	12.014	n/a	<>	-999	2	[0, 0, 0]	n/a	FR1	2	R1338T
383.706	0.0	385713	TRIAL_END	n/a	n/a	n/a	-999	2	[0, 0, 0]	n/a	FR1	2	R1338T
383.706	0.014	385713	REC_END	n/a	n/a	n/a	-999	2	[0, 0, 0]	n/a	FR1	2	R1338T
383.72	0.001	385727	TRIAL_START	n/a	n/a	n/a	-999	3	[0, 0, 0]	n/a	FR1	2	R1338T
383.721	0.0	385728	WAITING_START	n/a	n/a	n/a	-999	3	[0, 0, 0]	n/a	FR1	2	R1338T
383.721	2.145	385728	TRIAL	n/a	n/a	n/a	-999	3	[0, 0, 0]	n/a	FR1	2	R1338T
385.866	0.0	387873	WAITING_END	n/a	n/a	n/a	-999	3	[0, 0, 0]	n/a	FR1	2	R1338T
385.866	10.429	387873	COUNTDOWN_START	n/a	n/a	n/a	-999	3	[0, 0, 0]	n/a	FR1	2	R1338T
396.295	0.0	398302	COUNTDOWN_END	n/a	n/a	n/a	-999	3	[0, 0, 0]	n/a	FR1	2	R1338T
396.295	1.073	398302	ORIENT_START	n/a	n/a	n/a	-999	3	[0, 0, 0]	n/a	FR1	2	R1338T
397.368	0.001	399375	ORIENT_END	n/a	n/a	n/a	-999	3	[0, 0, 0]	n/a	FR1	2	R1338T
397.369	0.754	399376	ENCODING_START	n/a	n/a	n/a	-999	3	[0, 0, 0]	n/a	FR1	2	R1338T
398.123	1.629	400130	WORD	n/a	wordpools/wordpool_EN.txt	WHEEL	1	3	[0, 0, 0]	n/a	FR1	2	R1338T
399.752	0.85	401759	WORD_OFF	n/a	n/a	WHEEL	1	3	[0, 0, 0]	n/a	FR1	2	R1338T
400.602	1.617	402608	WORD	n/a	wordpools/wordpool_EN.txt	STEM	2	3	[0, 0, 0]	n/a	FR1	2	R1338T
402.219	0.831	404225	WORD_OFF	n/a	n/a	STEM	2	3	[0, 0, 0]	n/a	FR1	2	R1338T
403.05	1.636	405056	WORD	n/a	wordpools/wordpool_EN.txt	MOLE	3	3	[0, 0, 0]	n/a	FR1	2	R1338T
404.686	0.957	406692	WORD_OFF	n/a	n/a	MOLE	3	3	[0, 0, 0]	n/a	FR1	2	R1338T
405.643	1.627	407649	WORD	n/a	wordpools/wordpool_EN.txt	SWAMP	4	3	[0, 0, 0]	n/a	FR1	2	R1338T
407.27	0.989	409276	WORD_OFF	n/a	n/a	SWAMP	4	3	[0, 0, 0]	n/a	FR1	2	R1338T
408.259	1.628	410265	WORD	n/a	wordpools/wordpool_EN.txt	SAIL	5	3	[0, 0, 0]	n/a	FR1	2	R1338T
409.887	0.843	411893	WORD_OFF	n/a	n/a	SAIL	5	3	[0, 0, 0]	n/a	FR1	2	R1338T
410.73	1.624	412736	WORD	n/a	wordpools/wordpool_EN.txt	APE	6	3	[0, 0, 0]	n/a	FR1	2	R1338T
412.354	1.132	414360	WORD_OFF	n/a	n/a	APE	6	3	[0, 0, 0]	n/a	FR1	2	R1338T
413.486	1.635	415492	WORD	n/a	wordpools/wordpool_EN.txt	EEL	7	3	[0, 0, 0]	n/a	FR1	2	R1338T
415.121	1.066	417127	WORD_OFF	n/a	n/a	EEL	7	3	[0, 0, 0]	n/a	FR1	2	R1338T
416.187	1.635	418193	WORD	n/a	wordpools/wordpool_EN.txt	ICE	8	3	[0, 0, 0]	n/a	FR1	2	R1338T
417.822	0.902	419828	WORD_OFF	n/a	n/a	ICE	8	3	[0, 0, 0]	n/a	FR1	2	R1338T
418.724	1.632	420730	WORD	n/a	wordpools/wordpool_EN.txt	CUBE	9	3	[0, 0, 0]	n/a	FR1	2	R1338T
420.356	0.853	422362	WORD_OFF	n/a	n/a	CUBE	9	3	[0, 0, 0]	n/a	FR1	2	R1338T
421.209	1.63	423215	WORD	n/a	wordpools/wordpool_EN.txt	BRIDGE	10	3	[0, 0, 0]	n/a	FR1	2	R1338T
422.839	0.984	424844	WORD_OFF	n/a	n/a	BRIDGE	10	3	[0, 0, 0]	n/a	FR1	2	R1338T
423.823	1.634	425828	WORD	n/a	wordpools/wordpool_EN.txt	FROG	11	3	[0, 0, 0]	n/a	FR1	2	R1338T
425.457	0.802	427462	WORD_OFF	n/a	n/a	FROG	11	3	[0, 0, 0]	n/a	FR1	2	R1338T
426.259	1.631	428264	WORD	n/a	wordpools/wordpool_EN.txt	BLOOM	12	3	[0, 0, 0]	n/a	FR1	2	R1338T
427.89	0.001	429895	WORD_OFF	n/a	n/a	BLOOM	12	3	[0, 0, 0]	n/a	FR1	2	R1338T
427.891	0.0	429896	ENCODING_END	n/a	n/a	n/a	-999	3	[0, 0, 0]	n/a	FR1	2	R1338T
427.891	0.0	429896	DISTRACT_START	n/a	n/a	n/a	-999	3	[0, 0, 0]	n/a	FR1	2	R1338T
427.891	0.016	429896	START	n/a	n/a	n/a	-999	3	[-999, -999, -999]	n/a	FR1	2	R1338T
427.907	12.919	429912	PROB	12.919	n/a	n/a	-999	3	[3, 9, 7]	397	FR1	2	R1338T
440.826	6.168	442831	PROB	6.168	n/a	n/a	-999	3	[3, 2, 8]	328	FR1	2	R1338T
446.994	4.667	448998	PROB	4.667	n/a	n/a	-999	3	[9, 9, 5]	995	FR1	2	R1338T
451.661	0.017	453665	STOP	n/a	n/a	n/a	-999	3	[-999, -999, -999]	n/a	FR1	2	R1338T
451.678	0.556	453682	DISTRACT_END	n/a	n/a	n/a	-999	3	[0, 0, 0]	n/a	FR1	2	R1338T
452.234	1.578	454238	RETRIEVAL_ORIENT_START	n/a	n/a	n/a	-999	3	[0, 0, 0]	n/a	FR1	2	R1338T
453.812	0.0	455816	RETRIEVAL_ORIENT_END	n/a	n/a	n/a	-999	3	[0, 0, 0]	n/a	FR1	2	R1338T
453.812	23.877	455816	REC_START	n/a	n/a	n/a	-999	3	[0, 0, 0]	n/a	FR1	2	R1338T
477.689	6.135	479692	REC_WORD_VV	6.135	n/a	<>	-999	3	[0, 0, 0]	n/a	FR1	2	R1338T
483.824	0.0	485827	REC_END	n/a	n/a	n/a	-999	3	[0, 0, 0]	n/a	FR1	2	R1338T
483.824	0.014	485827	TRIAL_END	n/a	n/a	n/a	-999	3	[0, 0, 0]	n/a	FR1	2	R1338T
483.838	0.0	485841	TRIAL_START	n/a	n/a	n/a	-999	4	[0, 0, 0]	n/a	FR1	2	R1338T
483.838	0.0	485841	TRIAL	n/a	n/a	n/a	-999	4	[0, 0, 0]	n/a	FR1	2	R1338T
483.838	2.363	485841	WAITING_START	n/a	n/a	n/a	-999	4	[0, 0, 0]	n/a	FR1	2	R1338T
486.201	0.0	488204	WAITING_END	n/a	n/a	n/a	-999	4	[0, 0, 0]	n/a	FR1	2	R1338T
486.201	10.43	488204	COUNTDOWN_START	n/a	n/a	n/a	-999	4	[0, 0, 0]	n/a	FR1	2	R1338T
496.631	0.0	498633	COUNTDOWN_END	n/a	n/a	n/a	-999	4	[0, 0, 0]	n/a	FR1	2	R1338T
496.631	1.072	498633	ORIENT_START	n/a	n/a	n/a	-999	4	[0, 0, 0]	n/a	FR1	2	R1338T
497.703	0.0	499705	ORIENT_END	n/a	n/a	n/a	-999	4	[0, 0, 0]	n/a	FR1	2	R1338T
497.703	1.146	499705	ENCODING_START	n/a	n/a	n/a	-999	4	[0, 0, 0]	n/a	FR1	2	R1338T
498.849	1.621	500851	WORD	n/a	wordpools/wordpool_EN.txt	DART	1	4	[0, 0, 0]	n/a	FR1	2	R1338T
500.47	1.043	502472	WORD_OFF	n/a	n/a	DART	1	4	[0, 0, 0]	n/a	FR1	2	R1338T
501.513	1.624	503515	WORD	n/a	wordpools/wordpool_EN.txt	PLANE	2	4	[0, 0, 0]	n/a	FR1	2	R1338T
503.137	0.766	505139	WORD_OFF	n/a	n/a	PLANE	2	4	[0, 0, 0]	n/a	FR1	2	R1338T
503.903	1.636	505905	WORD	n/a	wordpools/wordpool_EN.txt	MUG	3	4	[0, 0, 0]	n/a	FR1	2	R1338T
505.539	0.881	507541	WORD_OFF	n/a	n/a	MUG	3	4	[0, 0, 0]	n/a	FR1	2	R1338T
506.42	1.635	508422	WORD	n/a	wordpools/wordpool_EN.txt	STOVE	4	4	[0, 0, 0]	n/a	FR1	2	R1338T
508.055	0.893	510057	WORD_OFF	n/a	n/a	STOVE	4	4	[0, 0, 0]	n/a	FR1	2	R1338T
508.948	1.625	510950	WORD	n/a	wordpools/wordpool_EN.txt	CAVE	5	4	[0, 0, 0]	n/a	FR1	2	R1338T
510.573	0.813	512575	WORD_OFF	n/a	n/a	CAVE	5	4	[0, 0, 0]	n/a	FR1	2	R1338T
511.386	1.636	513388	WORD	n/a	wordpools/wordpool_EN.txt	BOOT	6	4	[0, 0, 0]	n/a	FR1	2	R1338T
513.022	1.127	515023	WORD_OFF	n/a	n/a	BOOT	6	4	[0, 0, 0]	n/a	FR1	2	R1338T
514.149	1.624	516150	WORD	n/a	wordpools/wordpool_EN.txt	PEN	7	4	[0, 0, 0]	n/a	FR1	2	R1338T
515.773	0.863	517774	WORD_OFF	n/a	n/a	PEN	7	4	[0, 0, 0]	n/a	FR1	2	R1338T
516.636	1.637	518637	WORD	n/a	wordpools/wordpool_EN.txt	DRUM	8	4	[0, 0, 0]	n/a	FR1	2	R1338T
518.273	1.038	520274	WORD_OFF	n/a	n/a	DRUM	8	4	[0, 0, 0]	n/a	FR1	2	R1338T
519.311	1.63	521312	WORD	n/a	wordpools/wordpool_EN.txt	ARM	9	4	[0, 0, 0]	n/a	FR1	2	R1338T
520.941	0.848	522942	WORD_OFF	n/a	n/a	ARM	9	4	[0, 0, 0]	n/a	FR1	2	R1338T
521.789	1.635	523790	WORD	n/a	wordpools/wordpool_EN.txt	JEEP	10	4	[0, 0, 0]	n/a	FR1	2	R1338T
523.424	0.977	525425	WORD_OFF	n/a	n/a	JEEP	10	4	[0, 0, 0]	n/a	FR1	2	R1338T
524.401	1.624	526402	WORD	n/a	wordpools/wordpool_EN.txt	FORT	11	4	[0, 0, 0]	n/a	FR1	2	R1338T
526.025	0.81	528026	WORD_OFF	n/a	n/a	FORT	11	4	[0, 0, 0]	n/a	FR1	2	R1338T
526.835	1.624	528836	WORD	n/a	wordpools/wordpool_EN.txt	PET	12	4	[0, 0, 0]	n/a	FR1	2	R1338T
528.459	0.0	530460	WORD_OFF	n/a	n/a	PET	12	4	[0, 0, 0]	n/a	FR1	2	R1338T
528.459	0.0	530460	ENCODING_END	n/a	n/a	n/a	-999	4	[0, 0, 0]	n/a	FR1	2	R1338T
528.459	0.0	530460	DISTRACT_START	n/a	n/a	n/a	-999	4	[0, 0, 0]	n/a	FR1	2	R1338T
528.459	0.016	530460	START	n/a	n/a	n/a	-999	4	[-999, -999, -999]	n/a	FR1	2	R1338T
528.475	10.935	530476	PROB	10.935	n/a	n/a	-999	4	[8, 9, 7]	897	FR1	2	R1338T
539.41	10.387	541410	PROB	10.387	n/a	n/a	-999	4	[8, 3, 6]	836	FR1	2	R1338T
549.797	0.015	551797	STOP	n/a	n/a	n/a	-999	4	[-999, -999, -999]	n/a	FR1	2	R1338T
549.812	0.634	551812	DISTRACT_END	n/a	n/a	n/a	-999	4	[0, 0, 0]	n/a	FR1	2	R1338T
550.446	1.7	552446	RETRIEVAL_ORIENT_START	n/a	n/a	n/a	-999	4	[0, 0, 0]	n/a	FR1	2	R1338T
552.146	0.0	554146	RETRIEVAL_ORIENT_END	n/a	n/a	n/a	-999	4	[0, 0, 0]	n/a	FR1	2	R1338T
552.146	9.404	554146	REC_START	n/a	n/a	n/a	-999	4	[0, 0, 0]	n/a	FR1	2	R1338T
561.55	20.609	563549	REC_WORD_VV	20.609	n/a	<>	-999	4	[0, 0, 0]	n/a	FR1	2	R1338T
582.159	0.001	584157	REC_END	n/a	n/a	n/a	-999	4	[0, 0, 0]	n/a	FR1	2	R1338T
582.16	0.016	584158	TRIAL_END	n/a	n/a	n/a	-999	4	[0, 0, 0]	n/a	FR1	2	R1338T
582.176	0.001	584174	TRIAL_START	n/a	n/a	n/a	-999	5	[0, 0, 0]	n/a	FR1	2	R1338T
582.177	0.0	584175	TRIAL	n/a	n/a	n/a	-999	5	[0, 0, 0]	n/a	FR1	2	R1338T
582.177	2.975	584175	WAITING_START	n/a	n/a	n/a	-999	5	[0, 0, 0]	n/a	FR1	2	R1338T
585.152	0.001	587150	WAITING_END	n/a	n/a	n/a	-999	5	[0, 0, 0]	n/a	FR1	2	R1338T
585.153	10.429	587151	COUNTDOWN_START	n/a	n/a	n/a	-999	5	[0, 0, 0]	n/a	FR1	2	R1338T
595.582	0.0	597580	COUNTDOWN_END	n/a	n/a	n/a	-999	5	[0, 0, 0]	n/a	FR1	2	R1338T
595.582	1.222	597580	ORIENT_START	n/a	n/a	n/a	-999	5	[0, 0, 0]	n/a	FR1	2	R1338T
596.804	0.001	598802	ORIENT_END	n/a	n/a	n/a	-999	5	[0, 0, 0]	n/a	FR1	2	R1338T
596.805	0.755	598803	ENCODING_START	n/a	n/a	n/a	-999	5	[0, 0, 0]	n/a	FR1	2	R1338T
597.56	1.628	599558	WORD	n/a	wordpools/wordpool_EN.txt	PLANT	1	5	[0, 0, 0]	n/a	FR1	2	R1338T
599.188	0.765	601186	WORD_OFF	n/a	n/a	PLANT	1	5	[0, 0, 0]	n/a	FR1	2	R1338T
599.953	1.62	601951	WORD	n/a	wordpools/wordpool_EN.txt	BENCH	2	5	[0, 0, 0]	n/a	FR1	2	R1338T
601.573	0.963	603570	WORD_OFF	n/a	n/a	BENCH	2	5	[0, 0, 0]	n/a	FR1	2	R1338T
602.536	1.636	604533	WORD	n/a	wordpools/wordpool_EN.txt	BED	3	5	[0, 0, 0]	n/a	FR1	2	R1338T
604.172	1.064	606169	WORD_OFF	n/a	n/a	BED	3	5	[0, 0, 0]	n/a	FR1	2	R1338T
605.236	1.637	607233	WORD	n/a	wordpools/wordpool_EN.txt	POLE	4	5	[0, 0, 0]	n/a	FR1	2	R1338T
606.873	0.864	608870	WORD_OFF	n/a	n/a	POLE	4	5	[0, 0, 0]	n/a	FR1	2	R1338T
607.737	1.636	609734	WORD	n/a	wordpools/wordpool_EN.txt	SHIELD	5	5	[0, 0, 0]	n/a	FR1	2	R1338T
609.373	1.037	611370	WORD_OFF	n/a	n/a	SHIELD	5	5	[0, 0, 0]	n/a	FR1	2	R1338T
610.41	1.631	612407	WORD	n/a	wordpools/wordpool_EN.txt	DOOR	6	5	[0, 0, 0]	n/a	FR1	2	R1338T
612.041	0.777	614038	WORD_OFF	n/a	n/a	DOOR	6	5	[0, 0, 0]	n/a	FR1	2	R1338T
612.818	1.623	614815	WORD	n/a	wordpools/wordpool_EN.txt	RAIN	7	5	[0, 0, 0]	n/a	FR1	2	R1338T
614.441	0.867	616438	WORD_OFF	n/a	n/a	RAIN	7	5	[0, 0, 0]	n/a	FR1	2	R1338T
615.308	1.633	617305	WORD	n/a	wordpools/wordpool_EN.txt	CLOUD	8	5	[0, 0, 0]	n/a	FR1	2	R1338T
616.941	0.924	618938	WORD_OFF	n/a	n/a	CLOUD	8	5	[0, 0, 0]	n/a	FR1	2	R1338T
617.865	1.627	619862	WORD	n/a	wordpools/wordpool_EN.txt	STREET	9	5	[0, 0, 0]	n/a	FR1	2	R1338T
619.492	1.031	621489	WORD_OFF	n/a	n/a	STREET	9	5	[0, 0, 0]	n/a	FR1	2	R1338T
620.523	1.636	622520	WORD	n/a	wordpools/wordpool_EN.txt	KITE	10	5	[0, 0, 0]	n/a	FR1	2	R1338T
622.159	1.127	624156	WORD_OFF	n/a	n/a	KITE	10	5	[0, 0, 0]	n/a	FR1	2	R1338T
623.286	1.623	625282	WORD	n/a	wordpools/wordpool_EN.txt	BEACH	11	5	[0, 0, 0]	n/a	FR1	2	R1338T
624.909	0.882	626905	WORD_OFF	n/a	n/a	BEACH	11	5	[0, 0, 0]	n/a	FR1	2	R1338T
625.791	1.636	627787	WORD	n/a	wordpools/wordpool_EN.txt	FOOD	12	5	[0, 0, 0]	n/a	FR1	2	R1338T
627.427	0.0	629423	WORD_OFF	n/a	n/a	FOOD	12	5	[0, 0, 0]	n/a	FR1	2	R1338T
627.427	0.0	629423	ENCODING_END	n/a	n/a	n/a	-999	5	[0, 0, 0]	n/a	FR1	2	R1338T
627.427	0.0	629423	DISTRACT_START	n/a	n/a	n/a	-999	5	[0, 0, 0]	n/a	FR1	2	R1338T
627.427	0.016	629423	START	n/a	n/a	n/a	-999	5	[-999, -999, -999]	n/a	FR1	2	R1338T
627.443	17.57	629439	PROB	17.57	n/a	n/a	-999	5	[6, 9, 9]	699	FR1	2	R1338T
645.013	5.216	647009	PROB	5.216	n/a	n/a	-999	5	[8, 6, 7]	867	FR1	2	R1338T
650.229	0.018	652224	STOP	n/a	n/a	n/a	-999	5	[-999, -999, -999]	n/a	FR1	2	R1338T
650.247	0.687	652242	DISTRACT_END	n/a	n/a	n/a	-999	5	[0, 0, 0]	n/a	FR1	2	R1338T
650.934	1.631	652929	RETRIEVAL_ORIENT_START	n/a	n/a	n/a	-999	5	[0, 0, 0]	n/a	FR1	2	R1338T
652.565	0.001	654560	RETRIEVAL_ORIENT_END	n/a	n/a	n/a	-999	5	[0, 0, 0]	n/a	FR1	2	R1338T
652.566	6.124	654561	REC_START	n/a	n/a	n/a	-999	5	[0, 0, 0]	n/a	FR1	2	R1338T
658.69	23.889	660685	REC_WORD_VV	23.889	n/a	<>	-999	5	[0, 0, 0]	n/a	FR1	2	R1338T
682.579	0.0	684573	REC_END	n/a	n/a	n/a	-999	5	[0, 0, 0]	n/a	FR1	2	R1338T
682.579	0.015	684573	TRIAL_END	n/a	n/a	n/a	-999	5	[0, 0, 0]	n/a	FR1	2	R1338T
682.594	0.0	684588	TRIAL_START	n/a	n/a	n/a	-999	6	[0, 0, 0]	n/a	FR1	2	R1338T
682.594	0.0	684588	TRIAL	n/a	n/a	n/a	-999	6	[0, 0, 0]	n/a	FR1	2	R1338T
682.594	4.277	684588	WAITING_START	n/a	n/a	n/a	-999	6	[0, 0, 0]	n/a	FR1	2	R1338T
686.871	0.0	688865	WAITING_END	n/a	n/a	n/a	-999	6	[0, 0, 0]	n/a	FR1	2	R1338T
686.871	10.429	688865	COUNTDOWN_START	n/a	n/a	n/a	-999	6	[0, 0, 0]	n/a	FR1	2	R1338T
697.3	0.0	699293	ORIENT_START	n/a	n/a	n/a	-999	6	[0, 0, 0]	n/a	FR1	2	R1338T
697.3	1.257	699293	COUNTDOWN_END	n/a	n/a	n/a	-999	6	[0, 0, 0]	n/a	FR1	2	R1338T
698.557	0.001	700550	ORIENT_END	n/a	n/a	n/a	-999	6	[0, 0, 0]	n/a	FR1	2	R1338T
698.558	1.044	700551	ENCODING_START	n/a	n/a	n/a	-999	6	[0, 0, 0]	n/a	FR1	2	R1338T
699.602	1.621	701595	WORD	n/a	wordpools/wordpool_EN.txt	TOE	1	6	[0, 0, 0]	n/a	FR1	2	R1338T
701.223	0.89	703216	WORD_OFF	n/a	n/a	TOE	1	6	[0, 0, 0]	n/a	FR1	2	R1338T
702.113	1.627	704106	WORD	n/a	wordpools/wordpool_EN.txt	OWL	2	6	[0, 0, 0]	n/a	FR1	2	R1338T
703.74	0.806	705733	WORD_OFF	n/a	n/a	OWL	2	6	[0, 0, 0]	n/a	FR1	2	R1338T
704.546	1.628	706539	WORD	n/a	wordpools/wordpool_EN.txt	FLAME	3	6	[0, 0, 0]	n/a	FR1	2	R1338T
706.174	1.046	708167	WORD_OFF	n/a	n/a	FLAME	3	6	[0, 0, 0]	n/a	FR1	2	R1338T
707.22	1.638	709213	WORD	n/a	wordpools/wordpool_EN.txt	WOLF	4	6	[0, 0, 0]	n/a	FR1	2	R1338T
708.858	1.114	710851	WORD_OFF	n/a	n/a	WOLF	4	6	[0, 0, 0]	n/a	FR1	2	R1338T
709.972	1.621	711965	WORD	n/a	wordpools/wordpool_EN.txt	SHARK	5	6	[0, 0, 0]	n/a	FR1	2	R1338T
711.593	0.887	713586	WORD_OFF	n/a	n/a	SHARK	5	6	[0, 0, 0]	n/a	FR1	2	R1338T
712.48	1.629	714472	WORD	n/a	wordpools/wordpool_EN.txt	FOX	6	6	[0, 0, 0]	n/a	FR1	2	R1338T
714.109	1.046	716101	WORD_OFF	n/a	n/a	FOX	6	6	[0, 0, 0]	n/a	FR1	2	R1338T
715.155	1.621	717147	WORD	n/a	wordpools/wordpool_EN.txt	AXE	7	6	[0, 0, 0]	n/a	FR1	2	R1338T
716.776	1.122	718768	WORD_OFF	n/a	n/a	AXE	7	6	[0, 0, 0]	n/a	FR1	2	R1338T
717.898	1.63	719890	WORD	n/a	wordpools/wordpool_EN.txt	BOWL	8	6	[0, 0, 0]	n/a	FR1	2	R1338T
719.528	0.902	721520	WORD_OFF	n/a	n/a	BOWL	8	6	[0, 0, 0]	n/a	FR1	2	R1338T
720.43	1.63	722422	WORD	n/a	wordpools/wordpool_EN.txt	CALF	9	6	[0, 0, 0]	n/a	FR1	2	R1338T
722.06	0.809	724052	WORD_OFF	n/a	n/a	CALF	9	6	[0, 0, 0]	n/a	FR1	2	R1338T
722.869	1.625	724861	WORD	n/a	wordpools/wordpool_EN.txt	EAR	10	6	[0, 0, 0]	n/a	FR1	2	R1338T
724.494	0.857	726486	WORD_OFF	n/a	n/a	EAR	10	6	[0, 0, 0]	n/a	FR1	2	R1338T
725.351	1.627	727343	WORD	n/a	wordpools/wordpool_EN.txt	ROAD	11	6	[0, 0, 0]	n/a	FR1	2	R1338T
726.978	0.85	728970	WORD_OFF	n/a	n/a	ROAD	11	6	[0, 0, 0]	n/a	FR1	2	R1338T
727.828	1.634	729820	WORD	n/a	wordpools/wordpool_EN.txt	RUG	12	6	[0, 0, 0]	n/a	FR1	2	R1338T
729.462	0.0	731454	ENCODING_END	n/a	n/a	n/a	-999	6	[0, 0, 0]	n/a	FR1	2	R1338T
729.462	0.001	731454	WORD_OFF	n/a	n/a	RUG	12	6	[0, 0, 0]	n/a	FR1	2	R1338T
729.463	0.0	731455	DISTRACT_START	n/a	n/a	n/a	-999	6	[0, 0, 0]	n/a	FR1	2	R1338T
729.463	0.015	731455	START	n/a	n/a	n/a	-999	6	[-999, -999, -999]	n/a	FR1	2	R1338T
729.478	14.42	731470	PROB	14.42	n/a	n/a	-999	6	[7, 1, 6]	716	FR1	2	R1338T
743.898	10.956	745889	PROB	10.956	n/a	n/a	-999	6	[3, 8, 3]	383	FR1	2	R1338T
754.854	0.012	756845	STOP	n/a	n/a	n/a	-999	6	[-999, -999, -999]	n/a	FR1	2	R1338T
754.866	0.611	756857	DISTRACT_END	n/a	n/a	n/a	-999	6	[0, 0, 0]	n/a	FR1	2	R1338T
755.477	1.656	757468	RETRIEVAL_ORIENT_START	n/a	n/a	n/a	-999	6	[0, 0, 0]	n/a	FR1	2	R1338T
757.133	0.001	759123	RETRIEVAL_ORIENT_END	n/a	n/a	n/a	-999	6	[0, 0, 0]	n/a	FR1	2	R1338T
757.134	16.022	759124	REC_START	n/a	n/a	n/a	-999	6	[0, 0, 0]	n/a	FR1	2	R1338T
773.156	13.99	775146	REC_WORD_VV	13.99	n/a	<>	-999	6	[0, 0, 0]	n/a	FR1	2	R1338T
787.146	0.0	789135	TRIAL_END	n/a	n/a	n/a	-999	6	[0, 0, 0]	n/a	FR1	2	R1338T
787.146	0.016	789135	REC_END	n/a	n/a	n/a	-999	6	[0, 0, 0]	n/a	FR1	2	R1338T
787.162	0.0	789151	TRIAL_START	n/a	n/a	n/a	-999	7	[0, 0, 0]	n/a	FR1	2	R1338T
787.162	0.001	789151	TRIAL	n/a	n/a	n/a	-999	7	[0, 0, 0]	n/a	FR1	2	R1338T
787.163	3.76	789152	WAITING_START	n/a	n/a	n/a	-999	7	[0, 0, 0]	n/a	FR1	2	R1338T
790.923	0.0	792912	WAITING_END	n/a	n/a	n/a	-999	7	[0, 0, 0]	n/a	FR1	2	R1338T
790.923	10.43	792912	COUNTDOWN_START	n/a	n/a	n/a	-999	7	[0, 0, 0]	n/a	FR1	2	R1338T
801.353	0.0	803341	COUNTDOWN_END	n/a	n/a	n/a	-999	7	[0, 0, 0]	n/a	FR1	2	R1338T
801.353	1.24	803341	ORIENT_START	n/a	n/a	n/a	-999	7	[0, 0, 0]	n/a	FR1	2	R1338T
802.593	0.0	804581	ORIENT_END	n/a	n/a	n/a	-999	7	[0, 0, 0]	n/a	FR1	2	R1338T
802.593	0.786	804581	ENCODING_START	n/a	n/a	n/a	-999	7	[0, 0, 0]	n/a	FR1	2	R1338T
803.379	1.63	805367	WORD	n/a	wordpools/wordpool_EN.txt	FLAG	1	7	[0, 0, 0]	n/a	FR1	2	R1338T
805.009	1.06	806997	WORD_OFF	n/a	n/a	FLAG	1	7	[0, 0, 0]	n/a	FR1	2	R1338T
806.069	1.624	808057	WORD	n/a	wordpools/wordpool_EN.txt	BRUSH	2	7	[0, 0, 0]	n/a	FR1	2	R1338T
807.693	0.819	809681	WORD_OFF	n/a	n/a	BRUSH	2	7	[0, 0, 0]	n/a	FR1	2	R1338T
808.512	1.631	810500	WORD	n/a	wordpools/wordpool_EN.txt	TOY	3	7	[0, 0, 0]	n/a	FR1	2	R1338T
810.143	1.053	812131	WORD_OFF	n/a	n/a	TOY	3	7	[0, 0, 0]	n/a	FR1	2	R1338T
811.196	1.631	813184	WORD	n/a	wordpools/wordpool_EN.txt	GATE	4	7	[0, 0, 0]	n/a	FR1	2	R1338T
812.827	0.994	814815	WORD_OFF	n/a	n/a	GATE	4	7	[0, 0, 0]	n/a	FR1	2	R1338T
813.821	1.623	815809	WORD	n/a	wordpools/wordpool_EN.txt	BAT	5	7	[0, 0, 0]	n/a	FR1	2	R1338T
815.444	0.811	817432	WORD_OFF	n/a	n/a	BAT	5	7	[0, 0, 0]	n/a	FR1	2	R1338T
816.255	1.623	818243	WORD	n/a	wordpools/wordpool_EN.txt	TRAY	6	7	[0, 0, 0]	n/a	FR1	2	R1338T
817.878	1.127	819866	WORD_OFF	n/a	n/a	TRAY	6	7	[0, 0, 0]	n/a	FR1	2	R1338T
819.005	1.623	820993	WORD	n/a	wordpools/wordpool_EN.txt	DEER	7	7	[0, 0, 0]	n/a	FR1	2	R1338T
820.628	1.121	822616	WORD_OFF	n/a	n/a	DEER	7	7	[0, 0, 0]	n/a	FR1	2	R1338T
821.749	1.63	823737	WORD	n/a	wordpools/wordpool_EN.txt	BEAK	8	7	[0, 0, 0]	n/a	FR1	2	R1338T
823.379	1.006	825366	WORD_OFF	n/a	n/a	BEAK	8	7	[0, 0, 0]	n/a	FR1	2	R1338T
824.385	1.627	826372	WORD	n/a	wordpools/wordpool_EN.txt	MAZE	9	7	[0, 0, 0]	n/a	FR1	2	R1338T
826.012	1.011	827999	WORD_OFF	n/a	n/a	MAZE	9	7	[0, 0, 0]	n/a	FR1	2	R1338T
827.023	1.623	829010	WORD	n/a	wordpools/wordpool_EN.txt	WOOD	10	7	[0, 0, 0]	n/a	FR1	2	R1338T
828.646	1.116	830633	WORD_OFF	n/a	n/a	WOOD	10	7	[0, 0, 0]	n/a	FR1	2	R1338T
829.762	1.635	831749	WORD	n/a	wordpools/wordpool_EN.txt	ROPE	11	7	[0, 0, 0]	n/a	FR1	2	R1338T
831.397	0.907	833384	WORD_OFF	n/a	n/a	ROPE	11	7	[0, 0, 0]	n/a	FR1	2	R1338T
832.304	1.627	834291	WORD	n/a	wordpools/wordpool_EN.txt	STEAM	12	7	[0, 0, 0]	n/a	FR1	2	R1338T
833.931	0.0	835918	WORD_OFF	n/a	n/a	STEAM	12	7	[0, 0, 0]	n/a	FR1	2	R1338T
833.931	0.001	835918	ENCODING_END	n/a	n/a	n/a	-999	7	[0, 0, 0]	n/a	FR1	2	R1338T
833.932	0.0	835919	DISTRACT_START	n/a	n/a	n/a	-999	7	[0, 0, 0]	n/a	FR1	2	R1338T
833.932	0.015	835919	START	n/a	n/a	n/a	-999	7	[-999, -999, -999]	n/a	FR1	2	R1338T
833.947	8.785	835934	PROB	8.785	n/a	n/a	-999	7	[6, 5, 9]	659	FR1	2	R1338T
842.732	12.634	844719	PROB	12.634	n/a	n/a	-999	7	[5, 7, 4]	574	FR1	2	R1338T
855.366	0.019	857352	STOP	n/a	n/a	n/a	-999	7	[-999, -999, -999]	n/a	FR1	2	R1338T
855.385	0.645	857371	DISTRACT_END	n/a	n/a	n/a	-999	7	[0, 0, 0]	n/a	FR1	2	R1338T
856.03	1.539	858016	RETRIEVAL_ORIENT_START	n/a	n/a	n/a	-999	7	[0, 0, 0]	n/a	FR1	2	R1338T
857.569	0.001	859555	RETRIEVAL_ORIENT_END	n/a	n/a	n/a	-999	7	[0, 0, 0]	n/a	FR1	2	R1338T
857.57	10.604	859556	REC_START	n/a	n/a	n/a	-999	7	[0, 0, 0]	n/a	FR1	2	R1338T
868.174	4.594	870159	REC_WORD_VV	4.594	n/a	<>	-999	7	[0, 0, 0]	n/a	FR1	2	R1338T
872.768	14.814	874753	REC_WORD_VV	14.814	n/a	<>	-999	7	[0, 0, 0]	n/a	FR1	2	R1338T
887.582	0.001	889567	REC_END	n/a	n/a	n/a	-999	7	[0, 0, 0]	n/a	FR1	2	R1338T
887.583	0.014	889568	TRIAL_END	n/a	n/a	n/a	-999	7	[0, 0, 0]	n/a	FR1	2	R1338T
887.597	0.0	889582	WAITING_START	n/a	n/a	n/a	-999	8	[0, 0, 0]	n/a	FR1	2	R1338T
887.597	0.0	889582	TRIAL	n/a	n/a	n/a	-999	8	[0, 0, 0]	n/a	FR1	2	R1338T
887.597	1.877	889582	TRIAL_START	n/a	n/a	n/a	-999	8	[0, 0, 0]	n/a	FR1	2	R1338T
889.474	0.001	891459	WAITING_END	n/a	n/a	n/a	-999	8	[0, 0, 0]	n/a	FR1	2	R1338T
889.475	10.428	891460	COUNTDOWN_START	n/a	n/a	n/a	-999	8	[0, 0, 0]	n/a	FR1	2	R1338T
899.903	0.001	901887	COUNTDOWN_END	n/a	n/a	n/a	-999	8	[0, 0, 0]	n/a	FR1	2	R1338T
899.904	1.256	901888	ORIENT_START	n/a	n/a	n/a	-999	8	[0, 0, 0]	n/a	FR1	2	R1338T
901.16	0.0	903144	ORIENT_END	n/a	n/a	n/a	-999	8	[0, 0, 0]	n/a	FR1	2	R1338T
901.16	1.145	903144	ENCODING_START	n/a	n/a	n/a	-999	8	[0, 0, 0]	n/a	FR1	2	R1338T
902.305	1.622	904289	WORD	n/a	wordpools/wordpool_EN.txt	CAKE	1	8	[0, 0, 0]	n/a	FR1	2	R1338T
903.927	0.963	905911	WORD_OFF	n/a	n/a	CAKE	1	8	[0, 0, 0]	n/a	FR1	2	R1338T
904.89	1.638	906874	WORD	n/a	wordpools/wordpool_EN.txt	WING	2	8	[0, 0, 0]	n/a	FR1	2	R1338T
906.528	0.884	908512	WORD_OFF	n/a	n/a	WING	2	8	[0, 0, 0]	n/a	FR1	2	R1338T
907.412	1.632	909396	WORD	n/a	wordpools/wordpool_EN.txt	STEAK	3	8	[0, 0, 0]	n/a	FR1	2	R1338T
909.044	1.075	911028	WORD_OFF	n/a	n/a	STEAK	3	8	[0, 0, 0]	n/a	FR1	2	R1338T
910.119	1.626	912103	WORD	n/a	wordpools/wordpool_EN.txt	FENCE	4	8	[0, 0, 0]	n/a	FR1	2	R1338T
911.745	0.915	913729	WORD_OFF	n/a	n/a	FENCE	4	8	[0, 0, 0]	n/a	FR1	2	R1338T
912.66	1.635	914643	WORD	n/a	wordpools/wordpool_EN.txt	STONE	5	8	[0, 0, 0]	n/a	FR1	2	R1338T
914.295	0.972	916278	WORD_OFF	n/a	n/a	STONE	5	8	[0, 0, 0]	n/a	FR1	2	R1338T
915.267	1.629	917250	WORD	n/a	wordpools/wordpool_EN.txt	MUD	6	8	[0, 0, 0]	n/a	FR1	2	R1338T
916.896	0.927	918879	WORD_OFF	n/a	n/a	MUD	6	8	[0, 0, 0]	n/a	FR1	2	R1338T
917.823	1.623	919806	WORD	n/a	wordpools/wordpool_EN.txt	FACE	7	8	[0, 0, 0]	n/a	FR1	2	R1338T
919.446	0.968	921429	WORD_OFF	n/a	n/a	FACE	7	8	[0, 0, 0]	n/a	FR1	2	R1338T
920.414	1.633	922397	WORD	n/a	wordpools/wordpool_EN.txt	VASE	8	8	[0, 0, 0]	n/a	FR1	2	R1338T
922.047	1.151	924030	WORD_OFF	n/a	n/a	VASE	8	8	[0, 0, 0]	n/a	FR1	2	R1338T
923.198	1.633	925181	WORD	n/a	wordpools/wordpool_EN.txt	STRING	9	8	[0, 0, 0]	n/a	FR1	2	R1338T
924.831	0.758	926814	WORD_OFF	n/a	n/a	STRING	9	8	[0, 0, 0]	n/a	FR1	2	R1338T
925.589	1.625	927572	WORD	n/a	wordpools/wordpool_EN.txt	MAP	10	8	[0, 0, 0]	n/a	FR1	2	R1338T
927.214	1.084	929197	WORD_OFF	n/a	n/a	MAP	10	8	[0, 0, 0]	n/a	FR1	2	R1338T
928.298	1.633	930281	WORD	n/a	wordpools/wordpool_EN.txt	BIRD	11	8	[0, 0, 0]	n/a	FR1	2	R1338T
929.931	0.983	931914	WORD_OFF	n/a	n/a	BIRD	11	8	[0, 0, 0]	n/a	FR1	2	R1338T
930.914	1.636	932897	WORD	n/a	wordpools/wordpool_EN.txt	ARK	12	8	[0, 0, 0]	n/a	FR1	2	R1338T
932.55	0.0	934533	WORD_OFF	n/a	n/a	ARK	12	8	[0, 0, 0]	n/a	FR1	2	R1338T
932.55	0.0	934533	ENCODING_END	n/a	n/a	n/a	-999	8	[0, 0, 0]	n/a	FR1	2	R1338T
932.55	0.0	934533	DISTRACT_START	n/a	n/a	n/a	-999	8	[0, 0, 0]	n/a	FR1	2	R1338T
932.55	0.016	934533	START	n/a	n/a	n/a	-999	8	[-999, -999, -999]	n/a	FR1	2	R1338T
932.566	13.818	934549	PROB	13.818	n/a	n/a	-999	8	[6, 9, 7]	697	FR1	2	R1338T
946.384	6.994	948366	PROB	6.994	n/a	n/a	-999	8	[4, 4, 1]	441	FR1	2	R1338T
953.378	0.008	955360	STOP	n/a	n/a	n/a	-999	8	[-999, -999, -999]	n/a	FR1	2	R1338T
953.386	0.687	955368	DISTRACT_END	n/a	n/a	n/a	-999	8	[0, 0, 0]	n/a	FR1	2	R1338T
954.073	1.647	956055	RETRIEVAL_ORIENT_START	n/a	n/a	n/a	-999	8	[0, 0, 0]	n/a	FR1	2	R1338T
955.72	0.0	957702	RETRIEVAL_ORIENT_END	n/a	n/a	n/a	-999	8	[0, 0, 0]	n/a	FR1	2	R1338T
955.72	18.988	957702	REC_START	n/a	n/a	n/a	-999	8	[0, 0, 0]	n/a	FR1	2	R1338T
974.708	11.023	976689	REC_WORD_VV	11.023	n/a	<>	-999	8	[0, 0, 0]	n/a	FR1	2	R1338T
985.731	0.0	987711	REC_END	n/a	n/a	n/a	-999	8	[0, 0, 0]	n/a	FR1	2	R1338T
985.731	0.015	987711	TRIAL_END	n/a	n/a	n/a	-999	8	[0, 0, 0]	n/a	FR1	2	R1338T
985.746	0.0	987726	TRIAL_START	n/a	n/a	n/a	-999	9	[0, 0, 0]	n/a	FR1	2	R1338T
985.746	0.0	987726	TRIAL	n/a	n/a	n/a	-999	9	[0, 0, 0]	n/a	FR1	2	R1338T
985.746	3.63	987726	WAITING_START	n/a	n/a	n/a	-999	9	[0, 0, 0]	n/a	FR1	2	R1338T
989.376	0.0	991356	WAITING_END	n/a	n/a	n/a	-999	9	[0, 0, 0]	n/a	FR1	2	R1338T
989.376	10.428	991356	COUNTDOWN_START	n/a	n/a	n/a	-999	9	[0, 0, 0]	n/a	FR1	2	R1338T
999.804	0.0	1001784	COUNTDOWN_END	n/a	n/a	n/a	-999	9	[0, 0, 0]	n/a	FR1	2	R1338T
999.804	1.14	1001784	ORIENT_START	n/a	n/a	n/a	-999	9	[0, 0, 0]	n/a	FR1	2	R1338T
1000.944	0.001	1002923	ORIENT_END	n/a	n/a	n/a	-999	9	[0, 0, 0]	n/a	FR1	2	R1338T
1000.945	0.978	1002924	ENCODING_START	n/a	n/a	n/a	-999	9	[0, 0, 0]	n/a	FR1	2	R1338T
1001.923	1.623	1003902	WORD	n/a	wordpools/wordpool_EN.txt	NAIL	1	9	[0, 0, 0]	n/a	FR1	2	R1338T
1003.546	0.971	1005525	WORD_OFF	n/a	n/a	NAIL	1	9	[0, 0, 0]	n/a	FR1	2	R1338T
1004.517	1.628	1006496	WORD	n/a	wordpools/wordpool_EN.txt	ROCK	2	9	[0, 0, 0]	n/a	FR1	2	R1338T
1006.145	0.975	1008124	WORD_OFF	n/a	n/a	ROCK	2	9	[0, 0, 0]	n/a	FR1	2	R1338T
1007.12	1.626	1009099	WORD	n/a	wordpools/wordpool_EN.txt	THREAD	3	9	[0, 0, 0]	n/a	FR1	2	R1338T
1008.746	1.004	1010725	WORD_OFF	n/a	n/a	THREAD	3	9	[0, 0, 0]	n/a	FR1	2	R1338T
1009.75	1.63	1011729	WORD	n/a	wordpools/wordpool_EN.txt	HEN	4	9	[0, 0, 0]	n/a	FR1	2	R1338T
1011.38	0.899	1013359	WORD_OFF	n/a	n/a	HEN	4	9	[0, 0, 0]	n/a	FR1	2	R1338T
1012.279	1.635	1014258	WORD	n/a	wordpools/wordpool_EN.txt	SALT	5	9	[0, 0, 0]	n/a	FR1	2	R1338T
1013.914	0.962	1015893	WORD_OFF	n/a	n/a	SALT	5	9	[0, 0, 0]	n/a	FR1	2	R1338T
1014.876	1.621	1016855	WORD	n/a	wordpools/wordpool_EN.txt	SOUP	6	9	[0, 0, 0]	n/a	FR1	2	R1338T
1016.497	1.076	1018476	WORD_OFF	n/a	n/a	SOUP	6	9	[0, 0, 0]	n/a	FR1	2	R1338T
1017.573	1.625	1019552	WORD	n/a	wordpools/wordpool_EN.txt	GEESE	7	9	[0, 0, 0]	n/a	FR1	2	R1338T
1019.198	0.908	1021177	WORD_OFF	n/a	n/a	GEESE	7	9	[0, 0, 0]	n/a	FR1	2	R1338T
1020.106	1.626	1022085	WORD	n/a	wordpools/wordpool_EN.txt	FLEA	8	9	[0, 0, 0]	n/a	FR1	2	R1338T
1021.732	1.088	1023711	WORD_OFF	n/a	n/a	FLEA	8	9	[0, 0, 0]	n/a	FR1	2	R1338T
1022.82	1.612	1024799	WORD	n/a	wordpools/wordpool_EN.txt	ROSE	9	9	[0, 0, 0]	n/a	FR1	2	R1338T
1024.432	0.798	1026410	WORD_OFF	n/a	n/a	ROSE	9	9	[0, 0, 0]	n/a	FR1	2	R1338T
1025.23	1.636	1027208	WORD	n/a	wordpools/wordpool_EN.txt	FAN	10	9	[0, 0, 0]	n/a	FR1	2	R1338T
1026.866	0.994	1028844	WORD_OFF	n/a	n/a	FAN	10	9	[0, 0, 0]	n/a	FR1	2	R1338T
1027.86	1.623	1029838	WORD	n/a	wordpools/wordpool_EN.txt	MOTH	11	9	[0, 0, 0]	n/a	FR1	2	R1338T
1029.483	0.944	1031461	WORD_OFF	n/a	n/a	MOTH	11	9	[0, 0, 0]	n/a	FR1	2	R1338T
1030.427	1.623	1032405	WORD	n/a	wordpools/wordpool_EN.txt	TOAST	12	9	[0, 0, 0]	n/a	FR1	2	R1338T
1032.05	0.001	1034028	WORD_OFF	n/a	n/a	TOAST	12	9	[0, 0, 0]	n/a	FR1	2	R1338T
1032.051	0.0	1034029	ENCODING_END	n/a	n/a	n/a	-999	9	[0, 0, 0]	n/a	FR1	2	R1338T
1032.051	0.0	1034029	DISTRACT_START	n/a	n/a	n/a	-999	9	[0, 0, 0]	n/a	FR1	2	R1338T
1032.051	0.015	1034029	START	n/a	n/a	n/a	-999	9	[-999, -999, -999]	n/a	FR1	2	R1338T
1032.066	15.237	1034044	PROB	15.237	n/a	n/a	-999	9	[5, 7, 4]	574	FR1	2	R1338T
1047.303	25.623	1049280	PROB	25.623	n/a	n/a	-999	9	[7, 8, 7]	787	FR1	2	R1338T
1072.926	0.015	1074902	STOP	n/a	n/a	n/a	-999	9	[-999, -999, -999]	n/a	FR1	2	R1338T
1072.941	0.557	1074917	DISTRACT_END	n/a	n/a	n/a	-999	9	[0, 0, 0]	n/a	FR1	2	R1338T
1073.498	1.543	1075474	RETRIEVAL_ORIENT_START	n/a	n/a	n/a	-999	9	[0, 0, 0]	n/a	FR1	2	R1338T
1075.041	0.001	1077017	RETRIEVAL_ORIENT_END	n/a	n/a	n/a	-999	9	[0, 0, 0]	n/a	FR1	2	R1338T
1075.042	16.47	1077018	REC_START	n/a	n/a	n/a	-999	9	[0, 0, 0]	n/a	FR1	2	R1338T
1091.512	13.541	1093487	REC_WORD_VV	13.541	n/a	<>	-999	9	[0, 0, 0]	n/a	FR1	2	R1338T
1105.053	0.0	1107028	REC_END	n/a	n/a	n/a	-999	9	[0, 0, 0]	n/a	FR1	2	R1338T
1105.053	0.014	1107028	TRIAL_END	n/a	n/a	n/a	-999	9	[0, 0, 0]	n/a	FR1	2	R1338T
1105.067	0.001	1107042	TRIAL_START	n/a	n/a	n/a	-999	10	[0, 0, 0]	n/a	FR1	2	R1338T
1105.068	0.0	1107043	TRIAL	n/a	n/a	n/a	-999	10	[0, 0, 0]	n/a	FR1	2	R1338T
1105.068	2.996	1107043	WAITING_START	n/a	n/a	n/a	-999	10	[0, 0, 0]	n/a	FR1	2	R1338T
1108.064	0.0	1110039	COUNTDOWN_START	n/a	n/a	n/a	-999	10	[0, 0, 0]	n/a	FR1	2	R1338T
1108.064	10.428	1110039	WAITING_END	n/a	n/a	n/a	-999	10	[0, 0, 0]	n/a	FR1	2	R1338T
1118.492	0.001	1120466	COUNTDOWN_END	n/a	n/a	n/a	-999	10	[0, 0, 0]	n/a	FR1	2	R1338T
1118.493	1.024	1120467	ORIENT_START	n/a	n/a	n/a	-999	10	[0, 0, 0]	n/a	FR1	2	R1338T
1119.517	0.0	1121491	ORIENT_END	n/a	n/a	n/a	-999	10	[0, 0, 0]	n/a	FR1	2	R1338T
1119.517	1.002	1121491	ENCODING_START	n/a	n/a	n/a	-999	10	[0, 0, 0]	n/a	FR1	2	R1338T
1120.519	1.631	1122493	WORD	n/a	wordpools/wordpool_EN.txt	MOUSE	1	10	[0, 0, 0]	n/a	FR1	2	R1338T
1122.15	0.773	1124124	WORD_OFF	n/a	n/a	MOUSE	1	10	[0, 0, 0]	n/a	FR1	2	R1338T
1122.923	1.611	1124897	WORD	n/a	wordpools/wordpool_EN.txt	HAT	2	10	[0, 0, 0]	n/a	FR1	2	R1338T
1124.534	1.134	1126508	WORD_OFF	n/a	n/a	HAT	2	10	[0, 0, 0]	n/a	FR1	2	R1338T
1125.668	1.633	1127642	WORD	n/a	wordpools/wordpool_EN.txt	ROOT	3	10	[0, 0, 0]	n/a	FR1	2	R1338T
1127.301	0.909	1129275	WORD_OFF	n/a	n/a	ROOT	3	10	[0, 0, 0]	n/a	FR1	2	R1338T
1128.21	1.624	1130184	WORD	n/a	wordpools/wordpool_EN.txt	FUR	4	10	[0, 0, 0]	n/a	FR1	2	R1338T
1129.834	0.99	1131808	WORD_OFF	n/a	n/a	FUR	4	10	[0, 0, 0]	n/a	FR1	2	R1338T
1130.824	1.628	1132798	WORD	n/a	wordpools/wordpool_EN.txt	CHALK	5	10	[0, 0, 0]	n/a	FR1	2	R1338T
1132.452	0.929	1134426	WORD_OFF	n/a	n/a	CHALK	5	10	[0, 0, 0]	n/a	FR1	2	R1338T
1133.381	1.638	1135355	WORD	n/a	wordpools/wordpool_EN.txt	ROOF	6	10	[0, 0, 0]	n/a	FR1	2	R1338T
1135.019	0.862	1136992	WORD_OFF	n/a	n/a	ROOF	6	10	[0, 0, 0]	n/a	FR1	2	R1338T
1135.881	1.639	1137854	WORD	n/a	wordpools/wordpool_EN.txt	SKUNK	7	10	[0, 0, 0]	n/a	FR1	2	R1338T
1137.52	0.867	1139493	WORD_OFF	n/a	n/a	SKUNK	7	10	[0, 0, 0]	n/a	FR1	2	R1338T
1138.387	1.633	1140360	WORD	n/a	wordpools/wordpool_EN.txt	STORE	8	10	[0, 0, 0]	n/a	FR1	2	R1338T
1140.02	1.011	1141993	WORD_OFF	n/a	n/a	STORE	8	10	[0, 0, 0]	n/a	FR1	2	R1338T
1141.031	1.622	1143004	WORD	n/a	wordpools/wordpool_EN.txt	COUCH	9	10	[0, 0, 0]	n/a	FR1	2	R1338T
1142.653	1.001	1144626	WORD_OFF	n/a	n/a	COUCH	9	10	[0, 0, 0]	n/a	FR1	2	R1338T
1143.654	1.633	1145627	WORD	n/a	wordpools/wordpool_EN.txt	CAT	10	10	[0, 0, 0]	n/a	FR1	2	R1338T
1145.287	0.835	1147260	WORD_OFF	n/a	n/a	CAT	10	10	[0, 0, 0]	n/a	FR1	2	R1338T
1146.122	1.632	1148095	WORD	n/a	wordpools/wordpool_EN.txt	FISH	11	10	[0, 0, 0]	n/a	FR1	2	R1338T
1147.754	1.042	1149727	WORD_OFF	n/a	n/a	FISH	11	10	[0, 0, 0]	n/a	FR1	2	R1338T
1148.796	1.625	1150769	WORD	n/a	wordpools/wordpool_EN.txt	SHELL	12	10	[0, 0, 0]	n/a	FR1	2	R1338T
1150.421	0.001	1152394	WORD_OFF	n/a	n/a	SHELL	12	10	[0, 0, 0]	n/a	FR1	2	R1338T
1150.422	0.0	1152395	ENCODING_END	n/a	n/a	n/a	-999	10	[0, 0, 0]	n/a	FR1	2	R1338T
1150.422	0.0	1152395	DISTRACT_START	n/a	n/a	n/a	-999	10	[0, 0, 0]	n/a	FR1	2	R1338T
1150.422	0.016	1152395	START	n/a	n/a	n/a	-999	10	[-999, -999, -999]	n/a	FR1	2	R1338T
1150.438	15.137	1152411	PROB	15.137	n/a	n/a	-999	10	[4, 9, 5]	495	FR1	2	R1338T
1165.575	5.85	1167547	PROB	5.85	n/a	n/a	-999	10	[4, 7, 5]	475	FR1	2	R1338T
1171.425	0.017	1173397	STOP	n/a	n/a	n/a	-999	10	[-999, -999, -999]	n/a	FR1	2	R1338T
1171.442	0.593	1173414	DISTRACT_END	n/a	n/a	n/a	-999	10	[0, 0, 0]	n/a	FR1	2	R1338T
1172.035	1.607	1174007	RETRIEVAL_ORIENT_START	n/a	n/a	n/a	-999	10	[0, 0, 0]	n/a	FR1	2	R1338T
1173.642	0.001	1175614	RETRIEVAL_ORIENT_END	n/a	n/a	n/a	-999	10	[0, 0, 0]	n/a	FR1	2	R1338T
1173.643	17.236	1175615	REC_START	n/a	n/a	n/a	-999	10	[0, 0, 0]	n/a	FR1	2	R1338T
1190.879	12.777	1192850	REC_WORD_VV	12.777	n/a	<>	-999	10	[0, 0, 0]	n/a	FR1	2	R1338T
1203.656	0.001	1205626	REC_END	n/a	n/a	n/a	-999	10	[0, 0, 0]	n/a	FR1	2	R1338T
1203.657	0.014	1205627	TRIAL_END	n/a	n/a	n/a	-999	10	[0, 0, 0]	n/a	FR1	2	R1338T
1203.671	0.0	1205641	TRIAL_START	n/a	n/a	n/a	-999	11	[0, 0, 0]	n/a	FR1	2	R1338T
1203.671	0.0	1205641	TRIAL	n/a	n/a	n/a	-999	11	[0, 0, 0]	n/a	FR1	2	R1338T
1203.671	11.812	1205641	WAITING_START	n/a	n/a	n/a	-999	11	[0, 0, 0]	n/a	FR1	2	R1338T
1215.483	0.001	1217453	WAITING_END	n/a	n/a	n/a	-999	11	[0, 0, 0]	n/a	FR1	2	R1338T
1215.484	10.429	1217454	COUNTDOWN_START	n/a	n/a	n/a	-999	11	[0, 0, 0]	n/a	FR1	2	R1338T
1225.913	0.001	1227882	COUNTDOWN_END	n/a	n/a	n/a	-999	11	[0, 0, 0]	n/a	FR1	2	R1338T
1225.914	1.238	1227883	ORIENT_START	n/a	n/a	n/a	-999	11	[0, 0, 0]	n/a	FR1	2	R1338T
1227.152	0.001	1229121	ORIENT_END	n/a	n/a	n/a	-999	11	[0, 0, 0]	n/a	FR1	2	R1338T
1227.153	0.847	1229122	ENCODING_START	n/a	n/a	n/a	-999	11	[0, 0, 0]	n/a	FR1	2	R1338T
1228.0	1.636	1229969	WORD	n/a	wordpools/wordpool_EN.txt	SLIME	1	11	[0, 0, 0]	n/a	FR1	2	R1338T
1229.636	1.037	1231605	WORD_OFF	n/a	n/a	SLIME	1	11	[0, 0, 0]	n/a	FR1	2	R1338T
1230.673	1.63	1232642	WORD	n/a	wordpools/wordpool_EN.txt	FUDGE	2	11	[0, 0, 0]	n/a	FR1	2	R1338T
1232.303	1.044	1234272	WORD_OFF	n/a	n/a	FUDGE	2	11	[0, 0, 0]	n/a	FR1	2	R1338T
1233.347	1.623	1235316	WORD	n/a	wordpools/wordpool_EN.txt	GUARD	3	11	[0, 0, 0]	n/a	FR1	2	R1338T
1234.97	0.9	1236939	WORD_OFF	n/a	n/a	GUARD	3	11	[0, 0, 0]	n/a	FR1	2	R1338T
1235.87	1.635	1237839	WORD	n/a	wordpools/wordpool_EN.txt	TRAIN	4	11	[0, 0, 0]	n/a	FR1	2	R1338T
1237.505	1.062	1239474	WORD_OFF	n/a	n/a	TRAIN	4	11	[0, 0, 0]	n/a	FR1	2	R1338T
1238.567	1.621	1240536	WORD	n/a	wordpools/wordpool_EN.txt	HEART	5	11	[0, 0, 0]	n/a	FR1	2	R1338T
1240.188	0.92	1242157	WORD_OFF	n/a	n/a	HEART	5	11	[0, 0, 0]	n/a	FR1	2	R1338T
1241.108	1.63	1243077	WORD	n/a	wordpools/wordpool_EN.txt	SKY	6	11	[0, 0, 0]	n/a	FR1	2	R1338T
1242.738	1.069	1244707	WORD_OFF	n/a	n/a	SKY	6	11	[0, 0, 0]	n/a	FR1	2	R1338T
1243.807	1.632	1245776	WORD	n/a	wordpools/wordpool_EN.txt	GOLD	7	11	[0, 0, 0]	n/a	FR1	2	R1338T
1245.439	1.112	1247408	WORD_OFF	n/a	n/a	GOLD	7	11	[0, 0, 0]	n/a	FR1	2	R1338T
1246.551	1.622	1248519	WORD	n/a	wordpools/wordpool_EN.txt	CORD	8	11	[0, 0, 0]	n/a	FR1	2	R1338T
1248.173	0.792	1250141	WORD_OFF	n/a	n/a	CORD	8	11	[0, 0, 0]	n/a	FR1	2	R1338T
1248.965	1.626	1250933	WORD	n/a	wordpools/wordpool_EN.txt	STICK	9	11	[0, 0, 0]	n/a	FR1	2	R1338T
1250.591	1.078	1252559	WORD_OFF	n/a	n/a	STICK	9	11	[0, 0, 0]	n/a	FR1	2	R1338T
1251.669	1.638	1253637	WORD	n/a	wordpools/wordpool_EN.txt	WAND	10	11	[0, 0, 0]	n/a	FR1	2	R1338T
1253.307	0.946	1255275	WORD_OFF	n/a	n/a	WAND	10	11	[0, 0, 0]	n/a	FR1	2	R1338T
1254.253	1.638	1256221	WORD	n/a	wordpools/wordpool_EN.txt	PEA	11	11	[0, 0, 0]	n/a	FR1	2	R1338T
1255.891	0.829	1257859	WORD_OFF	n/a	n/a	PEA	11	11	[0, 0, 0]	n/a	FR1	2	R1338T
1256.72	1.621	1258688	WORD	n/a	wordpools/wordpool_EN.txt	PIG	12	11	[0, 0, 0]	n/a	FR1	2	R1338T
1258.341	0.0	1260309	ENCODING_END	n/a	n/a	n/a	-999	11	[0, 0, 0]	n/a	FR1	2	R1338T
1258.341	0.001	1260309	WORD_OFF	n/a	n/a	PIG	12	11	[0, 0, 0]	n/a	FR1	2	R1338T
1258.342	0.0	1260310	DISTRACT_START	n/a	n/a	n/a	-999	11	[0, 0, 0]	n/a	FR1	2	R1338T
1258.342	0.016	1260310	START	n/a	n/a	n/a	-999	11	[-999, -999, -999]	n/a	FR1	2	R1338T
1258.358	10.518	1260326	PROB	10.518	n/a	n/a	-999	11	[8, 3, 7]	837	FR1	2	R1338T
1268.876	8.535	1270843	PROB	8.535	n/a	n/a	-999	11	[5, 3, 1]	531	FR1	2	R1338T
1277.411	9.524	1279378	PROB	9.524	n/a	n/a	-999	11	[9, 8, 9]	989	FR1	2	R1338T
1286.935	0.011	1288902	STOP	n/a	n/a	n/a	-999	11	[-999, -999, -999]	n/a	FR1	2	R1338T
1286.946	0.522	1288913	DISTRACT_END	n/a	n/a	n/a	-999	11	[0, 0, 0]	n/a	FR1	2	R1338T
1287.468	1.562	1289435	RETRIEVAL_ORIENT_START	n/a	n/a	n/a	-999	11	[0, 0, 0]	n/a	FR1	2	R1338T
1289.03	0.0	1290997	RETRIEVAL_ORIENT_END	n/a	n/a	n/a	-999	11	[0, 0, 0]	n/a	FR1	2	R1338T
1289.03	9.065	1290997	REC_START	n/a	n/a	n/a	-999	11	[0, 0, 0]	n/a	FR1	2	R1338T
1298.095	20.949	1300061	REC_WORD	20.949	n/a	CORD	8	11	[0, 0, 0]	n/a	FR1	2	R1338T
1319.044	0.0	1321009	REC_END	n/a	n/a	n/a	-999	11	[0, 0, 0]	n/a	FR1	2	R1338T
1319.044	0.014	1321009	TRIAL_END	n/a	n/a	n/a	-999	11	[0, 0, 0]	n/a	FR1	2	R1338T
1319.058	0.0	1321023	TRIAL_START	n/a	n/a	n/a	-999	12	[0, 0, 0]	n/a	FR1	2	R1338T
1319.058	0.0	1321023	TRIAL	n/a	n/a	n/a	-999	12	[0, 0, 0]	n/a	FR1	2	R1338T
1319.058	2.961	1321023	WAITING_START	n/a	n/a	n/a	-999	12	[0, 0, 0]	n/a	FR1	2	R1338T
1322.019	0.001	1323984	WAITING_END	n/a	n/a	n/a	-999	12	[0, 0, 0]	n/a	FR1	2	R1338T
1322.02	10.428	1323985	COUNTDOWN_START	n/a	n/a	n/a	-999	12	[0, 0, 0]	n/a	FR1	2	R1338T
1332.448	0.0	1334413	COUNTDOWN_END	n/a	n/a	n/a	-999	12	[0, 0, 0]	n/a	FR1	2	R1338T
1332.448	1.04	1334413	ORIENT_START	n/a	n/a	n/a	-999	12	[0, 0, 0]	n/a	FR1	2	R1338T
1333.488	0.001	1335453	ORIENT_END	n/a	n/a	n/a	-999	12	[0, 0, 0]	n/a	FR1	2	R1338T
1333.489	0.888	1335454	ENCODING_START	n/a	n/a	n/a	-999	12	[0, 0, 0]	n/a	FR1	2	R1338T
1334.377	1.628	1336342	WORD	n/a	wordpools/wordpool_EN.txt	CLOTH	1	12	[0, 0, 0]	n/a	FR1	2	R1338T
1336.005	0.864	1337969	WORD_OFF	n/a	n/a	CLOTH	1	12	[0, 0, 0]	n/a	FR1	2	R1338T
1336.869	1.638	1338833	WORD	n/a	wordpools/wordpool_EN.txt	LAND	2	12	[0, 0, 0]	n/a	FR1	2	R1338T
1338.507	0.927	1340471	WORD_OFF	n/a	n/a	LAND	2	12	[0, 0, 0]	n/a	FR1	2	R1338T
1339.434	1.622	1341398	WORD	n/a	wordpools/wordpool_EN.txt	CASH	3	12	[0, 0, 0]	n/a	FR1	2	R1338T
1341.056	0.985	1343020	WORD_OFF	n/a	n/a	CASH	3	12	[0, 0, 0]	n/a	FR1	2	R1338T
1342.041	1.632	1344005	WORD	n/a	wordpools/wordpool_EN.txt	SHRIMP	4	12	[0, 0, 0]	n/a	FR1	2	R1338T
1343.673	1.132	1345637	WORD_OFF	n/a	n/a	SHRIMP	4	12	[0, 0, 0]	n/a	FR1	2	R1338T
1344.805	1.635	1346769	WORD	n/a	wordpools/wordpool_EN.txt	BOY	5	12	[0, 0, 0]	n/a	FR1	2	R1338T
1346.44	0.97	1348404	WORD_OFF	n/a	n/a	BOY	5	12	[0, 0, 0]	n/a	FR1	2	R1338T
1347.41	1.631	1349374	WORD	n/a	wordpools/wordpool_EN.txt	VINE	6	12	[0, 0, 0]	n/a	FR1	2	R1338T
1349.041	0.903	1351005	WORD_OFF	n/a	n/a	VINE	6	12	[0, 0, 0]	n/a	FR1	2	R1338T
1349.944	1.615	1351908	WORD	n/a	wordpools/wordpool_EN.txt	STORM	7	12	[0, 0, 0]	n/a	FR1	2	R1338T
1351.559	0.795	1353523	WORD_OFF	n/a	n/a	STORM	7	12	[0, 0, 0]	n/a	FR1	2	R1338T
1352.354	1.621	1354318	WORD	n/a	wordpools/wordpool_EN.txt	CANE	8	12	[0, 0, 0]	n/a	FR1	2	R1338T
1353.975	1.097	1355939	WORD_OFF	n/a	n/a	CANE	8	12	[0, 0, 0]	n/a	FR1	2	R1338T
1355.072	1.637	1357036	WORD	n/a	wordpools/wordpool_EN.txt	CHIN	9	12	[0, 0, 0]	n/a	FR1	2	R1338T
1356.709	1.106	1358672	WORD_OFF	n/a	n/a	CHIN	9	12	[0, 0, 0]	n/a	FR1	2	R1338T
1357.815	1.628	1359778	WORD	n/a	wordpools/wordpool_EN.txt	VAN	10	12	[0, 0, 0]	n/a	FR1	2	R1338T
1359.443	0.965	1361406	WORD_OFF	n/a	n/a	VAN	10	12	[0, 0, 0]	n/a	FR1	2	R1338T
1360.408	1.635	1362371	WORD	n/a	wordpools/wordpool_EN.txt	TAIL	11	12	[0, 0, 0]	n/a	FR1	2	R1338T
1362.043	1.05	1364006	WORD_OFF	n/a	n/a	TAIL	11	12	[0, 0, 0]	n/a	FR1	2	R1338T
1363.093	1.634	1365056	WORD	n/a	wordpools/wordpool_EN.txt	RIB	12	12	[0, 0, 0]	n/a	FR1	2	R1338T
1364.727	0.0	1366690	WORD_OFF	n/a	n/a	RIB	12	12	[0, 0, 0]	n/a	FR1	2	R1338T
1364.727	0.001	1366690	ENCODING_END	n/a	n/a	n/a	-999	12	[0, 0, 0]	n/a	FR1	2	R1338T
1364.728	0.0	1366691	DISTRACT_START	n/a	n/a	n/a	-999	12	[0, 0, 0]	n/a	FR1	2	R1338T
1364.728	0.016	1366691	START	n/a	n/a	n/a	-999	12	[-999, -999, -999]	n/a	FR1	2	R1338T
1364.744	15.586	1366707	PROB	15.586	n/a	n/a	-999	12	[2, 3, 7]	237	FR1	2	R1338T
1380.33	6.655	1382292	PROB	6.655	n/a	n/a	-999	12	[8, 7, 4]	874	FR1	2	R1338T
1386.985	0.012	1388947	STOP	n/a	n/a	n/a	-999	12	[-999, -999, -999]	n/a	FR1	2	R1338T
1386.997	0.609	1388959	DISTRACT_END	n/a	n/a	n/a	-999	12	[0, 0, 0]	n/a	FR1	2	R1338T
1387.606	1.642	1389568	RETRIEVAL_ORIENT_START	n/a	n/a	n/a	-999	12	[0, 0, 0]	n/a	FR1	2	R1338T
1389.248	0.0	1391210	RETRIEVAL_ORIENT_END	n/a	n/a	n/a	-999	12	[0, 0, 0]	n/a	FR1	2	R1338T
1389.248	2.275	1391210	REC_START	n/a	n/a	n/a	-999	12	[0, 0, 0]	n/a	FR1	2	R1338T
1391.523	2.045	1393485	REC_WORD	2.045	n/a	SLIME	-999	12	[0, 0, 0]	n/a	FR1	2	R1338T
1393.568	25.693	1395530	REC_WORD	25.693	n/a	BOY	5	12	[0, 0, 0]	n/a	FR1	2	R1338T
1419.261	0.0	1421222	REC_END	n/a	n/a	n/a	-999	12	[0, 0, 0]	n/a	FR1	2	R1338T
1419.261	0.014	1421222	TRIAL_END	n/a	n/a	n/a	-999	12	[0, 0, 0]	n/a	FR1	2	R1338T
1419.275	0.0	1421236	TRIAL	n/a	n/a	n/a	-999	13	[0, 0, 0]	n/a	FR1	2	R1338T
1419.275	0.001	1421236	TRIAL_START	n/a	n/a	n/a	-999	13	[0, 0, 0]	n/a	FR1	2	R1338T
1419.276	3.412	1421237	WAITING_START	n/a	n/a	n/a	-999	13	[0, 0, 0]	n/a	FR1	2	R1338T
1422.688	0.0	1424649	WAITING_END	n/a	n/a	n/a	-999	13	[0, 0, 0]	n/a	FR1	2	R1338T
1422.688	10.428	1424649	COUNTDOWN_START	n/a	n/a	n/a	-999	13	[0, 0, 0]	n/a	FR1	2	R1338T
1433.116	0.0	1435076	COUNTDOWN_END	n/a	n/a	n/a	-999	13	[0, 0, 0]	n/a	FR1	2	R1338T
1433.116	1.157	1435076	ORIENT_START	n/a	n/a	n/a	-999	13	[0, 0, 0]	n/a	FR1	2	R1338T
1434.273	0.0	1436233	ORIENT_END	n/a	n/a	n/a	-999	13	[0, 0, 0]	n/a	FR1	2	R1338T
1434.273	1.026	1436233	ENCODING_START	n/a	n/a	n/a	-999	13	[0, 0, 0]	n/a	FR1	2	R1338T
1435.299	1.624	1437259	WORD	n/a	wordpools/wordpool_EN.txt	FOOT	1	13	[0, 0, 0]	n/a	FR1	2	R1338T
1436.923	0.851	1438883	WORD_OFF	n/a	n/a	FOOT	1	13	[0, 0, 0]	n/a	FR1	2	R1338T
1437.774	1.633	1439734	WORD	n/a	wordpools/wordpool_EN.txt	FRUIT	2	13	[0, 0, 0]	n/a	FR1	2	R1338T
1439.407	1.129	1441367	WORD_OFF	n/a	n/a	FRUIT	2	13	[0, 0, 0]	n/a	FR1	2	R1338T
1440.536	1.622	1442496	WORD	n/a	wordpools/wordpool_EN.txt	FILM	3	13	[0, 0, 0]	n/a	FR1	2	R1338T
1442.158	1.118	1444118	WORD_OFF	n/a	n/a	FILM	3	13	[0, 0, 0]	n/a	FR1	2	R1338T
1443.276	1.632	1445236	WORD	n/a	wordpools/wordpool_EN.txt	BOOK	4	13	[0, 0, 0]	n/a	FR1	2	R1338T
1444.908	0.794	1446868	WORD_OFF	n/a	n/a	BOOK	4	13	[0, 0, 0]	n/a	FR1	2	R1338T
1445.702	1.623	1447661	WORD	n/a	wordpools/wordpool_EN.txt	SNAKE	5	13	[0, 0, 0]	n/a	FR1	2	R1338T
1447.325	1.02	1449284	WORD_OFF	n/a	n/a	SNAKE	5	13	[0, 0, 0]	n/a	FR1	2	R1338T
1448.345	1.631	1450304	WORD	n/a	wordpools/wordpool_EN.txt	LAWN	6	13	[0, 0, 0]	n/a	FR1	2	R1338T
1449.976	1.088	1451935	WORD_OFF	n/a	n/a	LAWN	6	13	[0, 0, 0]	n/a	FR1	2	R1338T
1451.064	1.629	1453023	WORD	n/a	wordpools/wordpool_EN.txt	COW	7	13	[0, 0, 0]	n/a	FR1	2	R1338T
1452.693	1.0	1454652	WORD_OFF	n/a	n/a	COW	7	13	[0, 0, 0]	n/a	FR1	2	R1338T
1453.693	1.634	1455652	WORD	n/a	wordpools/wordpool_EN.txt	STOOL	8	13	[0, 0, 0]	n/a	FR1	2	R1338T
1455.327	0.837	1457286	WORD_OFF	n/a	n/a	STOOL	8	13	[0, 0, 0]	n/a	FR1	2	R1338T
1456.164	1.63	1458123	WORD	n/a	wordpools/wordpool_EN.txt	CHEEK	9	13	[0, 0, 0]	n/a	FR1	2	R1338T
1457.794	0.795	1459753	WORD_OFF	n/a	n/a	CHEEK	9	13	[0, 0, 0]	n/a	FR1	2	R1338T
1458.589	1.622	1460548	WORD	n/a	wordpools/wordpool_EN.txt	EGG	10	13	[0, 0, 0]	n/a	FR1	2	R1338T
1460.211	0.772	1462170	WORD_OFF	n/a	n/a	EGG	10	13	[0, 0, 0]	n/a	FR1	2	R1338T
1460.983	1.613	1462942	WORD	n/a	wordpools/wordpool_EN.txt	NEST	11	13	[0, 0, 0]	n/a	FR1	2	R1338T
1462.596	0.944	1464555	WORD_OFF	n/a	n/a	NEST	11	13	[0, 0, 0]	n/a	FR1	2	R1338T
1463.54	1.622	1465499	WORD	n/a	wordpools/wordpool_EN.txt	DOCK	12	13	[0, 0, 0]	n/a	FR1	2	R1338T
1465.162	0.0	1467121	WORD_OFF	n/a	n/a	DOCK	12	13	[0, 0, 0]	n/a	FR1	2	R1338T
1465.162	0.001	1467121	ENCODING_END	n/a	n/a	n/a	-999	13	[0, 0, 0]	n/a	FR1	2	R1338T
1465.163	0.0	1467122	DISTRACT_START	n/a	n/a	n/a	-999	13	[0, 0, 0]	n/a	FR1	2	R1338T
1465.163	0.015	1467122	START	n/a	n/a	n/a	-999	13	[-999, -999, -999]	n/a	FR1	2	R1338T
1465.178	10.403	1467137	PROB	10.403	n/a	n/a	-999	13	[5, 3, 2]	532	FR1	2	R1338T
1475.581	6.2	1477539	PROB	6.2	n/a	n/a	-999	13	[4, 9, 8]	498	FR1	2	R1338T
1481.781	12.384	1483739	PROB	12.384	n/a	n/a	-999	13	[2, 6, 9]	269	FR1	2	R1338T
1494.165	0.019	1496122	STOP	n/a	n/a	n/a	-999	13	[-999, -999, -999]	n/a	FR1	2	R1338T
1494.184	0.541	1496141	DISTRACT_END	n/a	n/a	n/a	-999	13	[0, 0, 0]	n/a	FR1	2	R1338T
1494.725	1.609	1496682	RETRIEVAL_ORIENT_START	n/a	n/a	n/a	-999	13	[0, 0, 0]	n/a	FR1	2	R1338T
1496.334	0.0	1498291	RETRIEVAL_ORIENT_END	n/a	n/a	n/a	-999	13	[0, 0, 0]	n/a	FR1	2	R1338T
1496.334	13.499	1498291	REC_START	n/a	n/a	n/a	-999	13	[0, 0, 0]	n/a	FR1	2	R1338T
1509.833	16.514	1511790	REC_WORD_VV	16.514	n/a	<>	-999	13	[0, 0, 0]	n/a	FR1	2	R1338T
1526.347	0.0	1528303	REC_END	n/a	n/a	n/a	-999	13	[0, 0, 0]	n/a	FR1	2	R1338T
1526.347	0.016	1528303	TRIAL_END	n/a	n/a	n/a	-999	13	[0, 0, 0]	n/a	FR1	2	R1338T
1526.363	0.0	1528319	TRIAL_START	n/a	n/a	n/a	-999	14	[0, 0, 0]	n/a	FR1	2	R1338T
1526.363	0.0	1528319	TRIAL	n/a	n/a	n/a	-999	14	[0, 0, 0]	n/a	FR1	2	R1338T
1526.363	3.677	1528319	WAITING_START	n/a	n/a	n/a	-999	14	[0, 0, 0]	n/a	FR1	2	R1338T
1530.04	0.001	1531996	WAITING_END	n/a	n/a	n/a	-999	14	[0, 0, 0]	n/a	FR1	2	R1338T
1530.041	10.429	1531997	COUNTDOWN_START	n/a	n/a	n/a	-999	14	[0, 0, 0]	n/a	FR1	2	R1338T
1540.47	0.0	1542425	COUNTDOWN_END	n/a	n/a	n/a	-999	14	[0, 0, 0]	n/a	FR1	2	R1338T
1540.47	1.09	1542425	ORIENT_START	n/a	n/a	n/a	-999	14	[0, 0, 0]	n/a	FR1	2	R1338T
1541.56	0.0	1543515	ORIENT_END	n/a	n/a	n/a	-999	14	[0, 0, 0]	n/a	FR1	2	R1338T
1541.56	0.789	1543515	ENCODING_START	n/a	n/a	n/a	-999	14	[0, 0, 0]	n/a	FR1	2	R1338T
1542.349	1.627	1544304	WORD	n/a	wordpools/wordpool_EN.txt	INK	1	14	[0, 0, 0]	n/a	FR1	2	R1338T
1543.976	1.046	1545931	WORD_OFF	n/a	n/a	INK	1	14	[0, 0, 0]	n/a	FR1	2	R1338T
1545.022	1.638	1546977	WORD	n/a	wordpools/wordpool_EN.txt	SQUARE	2	14	[0, 0, 0]	n/a	FR1	2	R1338T
1546.66	0.842	1548615	WORD_OFF	n/a	n/a	SQUARE	2	14	[0, 0, 0]	n/a	FR1	2	R1338T
1547.502	1.625	1549457	WORD	n/a	wordpools/wordpool_EN.txt	HORN	3	14	[0, 0, 0]	n/a	FR1	2	R1338T
1549.127	0.776	1551082	WORD_OFF	n/a	n/a	HORN	3	14	[0, 0, 0]	n/a	FR1	2	R1338T
1549.903	1.625	1551858	WORD	n/a	wordpools/wordpool_EN.txt	BAND	4	14	[0, 0, 0]	n/a	FR1	2	R1338T
1551.528	0.967	1553483	WORD_OFF	n/a	n/a	BAND	4	14	[0, 0, 0]	n/a	FR1	2	R1338T
1552.495	1.633	1554450	WORD	n/a	wordpools/wordpool_EN.txt	PASTE	5	14	[0, 0, 0]	n/a	FR1	2	R1338T
1554.128	1.103	1556083	WORD_OFF	n/a	n/a	PASTE	5	14	[0, 0, 0]	n/a	FR1	2	R1338T
1555.231	1.631	1557186	WORD	n/a	wordpools/wordpool_EN.txt	SEAL	6	14	[0, 0, 0]	n/a	FR1	2	R1338T
1556.862	0.789	1558816	WORD_OFF	n/a	n/a	SEAL	6	14	[0, 0, 0]	n/a	FR1	2	R1338T
1557.651	1.628	1559605	WORD	n/a	wordpools/wordpool_EN.txt	TREE	7	14	[0, 0, 0]	n/a	FR1	2	R1338T
1559.279	0.765	1561233	WORD_OFF	n/a	n/a	TREE	7	14	[0, 0, 0]	n/a	FR1	2	R1338T
1560.044	1.635	1561998	WORD	n/a	wordpools/wordpool_EN.txt	DUCK	8	14	[0, 0, 0]	n/a	FR1	2	R1338T
1561.679	1.098	1563633	WORD_OFF	n/a	n/a	DUCK	8	14	[0, 0, 0]	n/a	FR1	2	R1338T
1562.777	1.636	1564731	WORD	n/a	wordpools/wordpool_EN.txt	GRAPE	9	14	[0, 0, 0]	n/a	FR1	2	R1338T
1564.413	0.824	1566367	WORD_OFF	n/a	n/a	GRAPE	9	14	[0, 0, 0]	n/a	FR1	2	R1338T
1565.237	1.627	1567191	WORD	n/a	wordpools/wordpool_EN.txt	SEA	10	14	[0, 0, 0]	n/a	FR1	2	R1338T
1566.864	1.071	1568818	WORD_OFF	n/a	n/a	SEA	10	14	[0, 0, 0]	n/a	FR1	2	R1338T
1567.935	1.63	1569889	WORD	n/a	wordpools/wordpool_EN.txt	BALL	11	14	[0, 0, 0]	n/a	FR1	2	R1338T
1569.565	1.023	1571519	WORD_OFF	n/a	n/a	BALL	11	14	[0, 0, 0]	n/a	FR1	2	R1338T
1570.588	1.627	1572542	WORD	n/a	wordpools/wordpool_EN.txt	WHALE	12	14	[0, 0, 0]	n/a	FR1	2	R1338T
1572.215	0.0	1574169	WORD_OFF	n/a	n/a	WHALE	12	14	[0, 0, 0]	n/a	FR1	2	R1338T
1572.215	0.0	1574169	ENCODING_END	n/a	n/a	n/a	-999	14	[0, 0, 0]	n/a	FR1	2	R1338T
1572.215	0.001	1574169	DISTRACT_START	n/a	n/a	n/a	-999	14	[0, 0, 0]	n/a	FR1	2	R1338T
1572.216	0.015	1574170	START	n/a	n/a	n/a	-999	14	[-999, -999, -999]	n/a	FR1	2	R1338T
1572.231	8.635	1574185	PROB	8.635	n/a	n/a	-999	14	[4, 5, 8]	458	FR1	2	R1338T
1580.866	7.318	1582819	PROB	7.318	n/a	n/a	-999	14	[2, 7, 5]	275	FR1	2	R1338T
1588.184	6.884	1590137	PROB	6.884	n/a	n/a	-999	14	[3, 8, 5]	385	FR1	2	R1338T
1595.068	0.017	1597021	STOP	n/a	n/a	n/a	-999	14	[-999, -999, -999]	n/a	FR1	2	R1338T
1595.085	0.621	1597038	DISTRACT_END	n/a	n/a	n/a	-999	14	[0, 0, 0]	n/a	FR1	2	R1338T
1595.706	1.646	1597659	RETRIEVAL_ORIENT_START	n/a	n/a	n/a	-999	14	[0, 0, 0]	n/a	FR1	2	R1338T
1597.352	0.001	1599305	RETRIEVAL_ORIENT_END	n/a	n/a	n/a	-999	14	[0, 0, 0]	n/a	FR1	2	R1338T
1597.353	2.615	1599306	REC_START	n/a	n/a	n/a	-999	14	[0, 0, 0]	n/a	FR1	2	R1338T
1599.968	2.881	1601921	REC_WORD	2.881	n/a	DUCK	8	14	[0, 0, 0]	n/a	FR1	2	R1338T
1602.849	6.092	1604801	REC_WORD	6.092	n/a	GRAPE	9	14	[0, 0, 0]	n/a	FR1	2	R1338T
1608.941	13.834	1610893	REC_WORD	13.834	n/a	BALL	11	14	[0, 0, 0]	n/a	FR1	2	R1338T
1622.775	4.589	1624727	REC_WORD	4.589	n/a	INK	1	14	[0, 0, 0]	n/a	FR1	2	R1338T
1627.364	0.0	1629315	REC_END	n/a	n/a	n/a	-999	14	[0, 0, 0]	n/a	FR1	2	R1338T
1627.364	0.014	1629315	TRIAL_END	n/a	n/a	n/a	-999	14	[0, 0, 0]	n/a	FR1	2	R1338T
1627.378	0.001	1629329	TRIAL_START	n/a	n/a	n/a	-999	15	[0, 0, 0]	n/a	FR1	2	R1338T
1627.379	0.0	1629330	TRIAL	n/a	n/a	n/a	-999	15	[0, 0, 0]	n/a	FR1	2	R1338T
1627.379	3.363	1629330	WAITING_START	n/a	n/a	n/a	-999	15	[0, 0, 0]	n/a	FR1	2	R1338T
1630.742	0.0	1632693	WAITING_END	n/a	n/a	n/a	-999	15	[0, 0, 0]	n/a	FR1	2	R1338T
1630.742	10.429	1632693	COUNTDOWN_START	n/a	n/a	n/a	-999	15	[0, 0, 0]	n/a	FR1	2	R1338T
1641.171	0.0	1643122	COUNTDOWN_END	n/a	n/a	n/a	-999	15	[0, 0, 0]	n/a	FR1	2	R1338T
1641.171	1.173	1643122	ORIENT_START	n/a	n/a	n/a	-999	15	[0, 0, 0]	n/a	FR1	2	R1338T
1642.344	0.0	1644295	ORIENT_END	n/a	n/a	n/a	-999	15	[0, 0, 0]	n/a	FR1	2	R1338T
1642.344	1.14	1644295	ENCODING_START	n/a	n/a	n/a	-999	15	[0, 0, 0]	n/a	FR1	2	R1338T
1643.484	1.627	1645435	WORD	n/a	wordpools/wordpool_EN.txt	MOOSE	1	15	[0, 0, 0]	n/a	FR1	2	R1338T
1645.111	0.937	1647062	WORD_OFF	n/a	n/a	MOOSE	1	15	[0, 0, 0]	n/a	FR1	2	R1338T
1646.048	1.63	1647998	WORD	n/a	wordpools/wordpool_EN.txt	RAKE	2	15	[0, 0, 0]	n/a	FR1	2	R1338T
1647.678	0.797	1649628	WORD_OFF	n/a	n/a	RAKE	2	15	[0, 0, 0]	n/a	FR1	2	R1338T
1648.475	1.637	1650425	WORD	n/a	wordpools/wordpool_EN.txt	PANTS	3	15	[0, 0, 0]	n/a	FR1	2	R1338T
1650.112	1.059	1652062	WORD_OFF	n/a	n/a	PANTS	3	15	[0, 0, 0]	n/a	FR1	2	R1338T
1651.171	1.625	1653121	WORD	n/a	wordpools/wordpool_EN.txt	LOCK	4	15	[0, 0, 0]	n/a	FR1	2	R1338T
1652.796	0.853	1654746	WORD_OFF	n/a	n/a	LOCK	4	15	[0, 0, 0]	n/a	FR1	2	R1338T
1653.649	1.631	1655599	WORD	n/a	wordpools/wordpool_EN.txt	POOL	5	15	[0, 0, 0]	n/a	FR1	2	R1338T
1655.28	0.82	1657230	WORD_OFF	n/a	n/a	POOL	5	15	[0, 0, 0]	n/a	FR1	2	R1338T
1656.1	1.63	1658050	WORD	n/a	wordpools/wordpool_EN.txt	TENT	6	15	[0, 0, 0]	n/a	FR1	2	R1338T
1657.73	1.004	1659680	WORD_OFF	n/a	n/a	TENT	6	15	[0, 0, 0]	n/a	FR1	2	R1338T
1658.734	1.63	1660684	WORD	n/a	wordpools/wordpool_EN.txt	BEAR	7	15	[0, 0, 0]	n/a	FR1	2	R1338T
1660.364	0.959	1662314	WORD_OFF	n/a	n/a	BEAR	7	15	[0, 0, 0]	n/a	FR1	2	R1338T
1661.323	1.625	1663273	WORD	n/a	wordpools/wordpool_EN.txt	SMOKE	8	15	[0, 0, 0]	n/a	FR1	2	R1338T
1662.948	0.953	1664898	WORD_OFF	n/a	n/a	SMOKE	8	15	[0, 0, 0]	n/a	FR1	2	R1338T
1663.901	1.631	1665851	WORD	n/a	wordpools/wordpool_EN.txt	HOOF	9	15	[0, 0, 0]	n/a	FR1	2	R1338T
1665.532	1.067	1667482	WORD_OFF	n/a	n/a	HOOF	9	15	[0, 0, 0]	n/a	FR1	2	R1338T
1666.599	1.633	1668549	WORD	n/a	wordpools/wordpool_EN.txt	DESK	10	15	[0, 0, 0]	n/a	FR1	2	R1338T
1668.232	1.016	1670181	WORD_OFF	n/a	n/a	DESK	10	15	[0, 0, 0]	n/a	FR1	2	R1338T
1669.248	1.634	1671197	WORD	n/a	wordpools/wordpool_EN.txt	WORM	11	15	[0, 0, 0]	n/a	FR1	2	R1338T
1670.882	0.953	1672831	WORD_OFF	n/a	n/a	WORM	11	15	[0, 0, 0]	n/a	FR1	2	R1338T
1671.835	1.631	1673784	WORD	n/a	wordpools/wordpool_EN.txt	BARN	12	15	[0, 0, 0]	n/a	FR1	2	R1338T
1673.466	0.001	1675415	WORD_OFF	n/a	n/a	BARN	12	15	[0, 0, 0]	n/a	FR1	2	R1338T
1673.467	0.0	1675416	ENCODING_END	n/a	n/a	n/a	-999	15	[0, 0, 0]	n/a	FR1	2	R1338T
1673.467	0.0	1675416	DISTRACT_START	n/a	n/a	n/a	-999	15	[0, 0, 0]	n/a	FR1	2	R1338T
1673.467	0.016	1675416	START	n/a	n/a	n/a	-999	15	[-999, -999, -999]	n/a	FR1	2	R1338T
1673.483	14.436	1675432	PROB	14.436	n/a	n/a	-999	15	[5, 5, 1]	551	FR1	2	R1338T
1687.919	5.534	1689868	PROB	5.534	n/a	n/a	-999	15	[8, 1, 2]	812	FR1	2	R1338T
1693.453	4.529	1695401	PROB	4.529	n/a	n/a	-999	15	[9, 4, 5]	945	FR1	2	R1338T
1697.982	0.022	1699930	STOP	n/a	n/a	n/a	-999	15	[-999, -999, -999]	n/a	FR1	2	R1338T
1698.004	0.574	1699952	DISTRACT_END	n/a	n/a	n/a	-999	15	[0, 0, 0]	n/a	FR1	2	R1338T
1698.578	1.66	1700526	RETRIEVAL_ORIENT_START	n/a	n/a	n/a	-999	15	[0, 0, 0]	n/a	FR1	2	R1338T
1700.238	0.0	1702186	RETRIEVAL_ORIENT_END	n/a	n/a	n/a	-999	15	[0, 0, 0]	n/a	FR1	2	R1338T
1700.238	2.867	1702186	REC_START	n/a	n/a	n/a	-999	15	[0, 0, 0]	n/a	FR1	2	R1338T
1703.105	27.147	1705053	REC_WORD	27.147	n/a	DESK	10	15	[0, 0, 0]	n/a	FR1	2	R1338T
1730.252	0.0	1732199	REC_END	n/a	n/a	n/a	-999	15	[0, 0, 0]	n/a	FR1	2	R1338T
1730.252	0.014	1732199	TRIAL_END	n/a	n/a	n/a	-999	15	[0, 0, 0]	n/a	FR1	2	R1338T
1730.266	0.0	1732213	TRIAL	n/a	n/a	n/a	-999	16	[0, 0, 0]	n/a	FR1	2	R1338T
1730.266	0.0	1732213	WAITING_START	n/a	n/a	n/a	-999	16	[0, 0, 0]	n/a	FR1	2	R1338T
1730.266	3.044	1732213	TRIAL_START	n/a	n/a	n/a	-999	16	[0, 0, 0]	n/a	FR1	2	R1338T
1733.31	0.001	1735257	WAITING_END	n/a	n/a	n/a	-999	16	[0, 0, 0]	n/a	FR1	2	R1338T
1733.311	10.429	1735258	COUNTDOWN_START	n/a	n/a	n/a	-999	16	[0, 0, 0]	n/a	FR1	2	R1338T
1743.74	0.0	1745686	COUNTDOWN_END	n/a	n/a	n/a	-999	16	[0, 0, 0]	n/a	FR1	2	R1338T
1743.74	1.123	1745686	ORIENT_START	n/a	n/a	n/a	-999	16	[0, 0, 0]	n/a	FR1	2	R1338T
1744.863	0.0	1746809	ORIENT_END	n/a	n/a	n/a	-999	16	[0, 0, 0]	n/a	FR1	2	R1338T
1744.863	1.03	1746809	ENCODING_START	n/a	n/a	n/a	-999	16	[0, 0, 0]	n/a	FR1	2	R1338T
1745.893	1.638	1747839	WORD	n/a	wordpools/wordpool_EN.txt	DITCH	1	16	[0, 0, 0]	n/a	FR1	2	R1338T
1747.531	0.785	1749477	WORD_OFF	n/a	n/a	DITCH	1	16	[0, 0, 0]	n/a	FR1	2	R1338T
1748.316	1.631	1750262	WORD	n/a	wordpools/wordpool_EN.txt	SHEET	2	16	[0, 0, 0]	n/a	FR1	2	R1338T
1749.947	0.963	1751893	WORD_OFF	n/a	n/a	SHEET	2	16	[0, 0, 0]	n/a	FR1	2	R1338T
1750.91	1.622	1752856	WORD	n/a	wordpools/wordpool_EN.txt	PIT	3	16	[0, 0, 0]	n/a	FR1	2	R1338T
1752.532	1.051	1754478	WORD_OFF	n/a	n/a	PIT	3	16	[0, 0, 0]	n/a	FR1	2	R1338T
1753.583	1.631	1755529	WORD	n/a	wordpools/wordpool_EN.txt	DOLL	4	16	[0, 0, 0]	n/a	FR1	2	R1338T
1755.214	0.764	1757160	WORD_OFF	n/a	n/a	DOLL	4	16	[0, 0, 0]	n/a	FR1	2	R1338T
1755.978	1.637	1757924	WORD	n/a	wordpools/wordpool_EN.txt	DIME	5	16	[0, 0, 0]	n/a	FR1	2	R1338T
1757.615	0.992	1759560	WORD_OFF	n/a	n/a	DIME	5	16	[0, 0, 0]	n/a	FR1	2	R1338T
1758.607	1.625	1760552	WORD	n/a	wordpools/wordpool_EN.txt	DOG	6	16	[0, 0, 0]	n/a	FR1	2	R1338T
1760.232	1.097	1762177	WORD_OFF	n/a	n/a	DOG	6	16	[0, 0, 0]	n/a	FR1	2	R1338T
1761.329	1.637	1763274	WORD	n/a	wordpools/wordpool_EN.txt	STAR	7	16	[0, 0, 0]	n/a	FR1	2	R1338T
1762.966	0.973	1764911	WORD_OFF	n/a	n/a	STAR	7	16	[0, 0, 0]	n/a	FR1	2	R1338T
1763.939	1.611	1765884	WORD	n/a	wordpools/wordpool_EN.txt	SINK	8	16	[0, 0, 0]	n/a	FR1	2	R1338T
1765.55	0.968	1767495	WORD_OFF	n/a	n/a	SINK	8	16	[0, 0, 0]	n/a	FR1	2	R1338T
1766.518	1.632	1768463	WORD	n/a	wordpools/wordpool_EN.txt	HILL	9	16	[0, 0, 0]	n/a	FR1	2	R1338T
1768.15	0.763	1770095	WORD_OFF	n/a	n/a	HILL	9	16	[0, 0, 0]	n/a	FR1	2	R1338T
1768.913	1.639	1770858	WORD	n/a	wordpools/wordpool_EN.txt	RAT	10	16	[0, 0, 0]	n/a	FR1	2	R1338T
1770.552	0.904	1772497	WORD_OFF	n/a	n/a	RAT	10	16	[0, 0, 0]	n/a	FR1	2	R1338T
1771.456	1.628	1773401	WORD	n/a	wordpools/wordpool_EN.txt	ELF	11	16	[0, 0, 0]	n/a	FR1	2	R1338T
1773.084	0.977	1775029	WORD_OFF	n/a	n/a	ELF	11	16	[0, 0, 0]	n/a	FR1	2	R1338T
1774.061	1.624	1776006	WORD	n/a	wordpools/wordpool_EN.txt	TRUCK	12	16	[0, 0, 0]	n/a	FR1	2	R1338T
1775.685	0.0	1777630	WORD_OFF	n/a	n/a	TRUCK	12	16	[0, 0, 0]	n/a	FR1	2	R1338T
1775.685	0.0	1777630	ENCODING_END	n/a	n/a	n/a	-999	16	[0, 0, 0]	n/a	FR1	2	R1338T
1775.685	0.001	1777630	DISTRACT_START	n/a	n/a	n/a	-999	16	[0, 0, 0]	n/a	FR1	2	R1338T
1775.686	0.015	1777631	START	n/a	n/a	n/a	-999	16	[-999, -999, -999]	n/a	FR1	2	R1338T
1775.701	13.603	1777646	PROB	13.603	n/a	n/a	-999	16	[2, 7, 6]	276	FR1	2	R1338T
1789.304	7.267	1791248	PROB	7.267	n/a	n/a	-999	16	[5, 1, 9]	519	FR1	2	R1338T
1796.571	0.019	1798515	STOP	n/a	n/a	n/a	-999	16	[-999, -999, -999]	n/a	FR1	2	R1338T
1796.59	0.614	1798534	DISTRACT_END	n/a	n/a	n/a	-999	16	[0, 0, 0]	n/a	FR1	2	R1338T
1797.204	1.718	1799148	RETRIEVAL_ORIENT_START	n/a	n/a	n/a	-999	16	[0, 0, 0]	n/a	FR1	2	R1338T
1798.922	0.001	1800866	RETRIEVAL_ORIENT_END	n/a	n/a	n/a	-999	16	[0, 0, 0]	n/a	FR1	2	R1338T
1798.923	26.366	1800867	REC_START	n/a	n/a	n/a	-999	16	[0, 0, 0]	n/a	FR1	2	R1338T
1825.289	3.646	1827231	REC_WORD_VV	3.646	n/a	<>	-999	16	[0, 0, 0]	n/a	FR1	2	R1338T
1828.935	0.001	1830877	REC_END	n/a	n/a	n/a	-999	16	[0, 0, 0]	n/a	FR1	2	R1338T
1828.936	0.014	1830878	TRIAL_END	n/a	n/a	n/a	-999	16	[0, 0, 0]	n/a	FR1	2	R1338T
1828.95	0.0	1830892	TRIAL_START	n/a	n/a	n/a	-999	17	[0, 0, 0]	n/a	FR1	2	R1338T
1828.95	0.001	1830892	TRIAL	n/a	n/a	n/a	-999	17	[0, 0, 0]	n/a	FR1	2	R1338T
1828.951	1.977	1830893	WAITING_START	n/a	n/a	n/a	-999	17	[0, 0, 0]	n/a	FR1	2	R1338T
1830.928	0.001	1832870	WAITING_END	n/a	n/a	n/a	-999	17	[0, 0, 0]	n/a	FR1	2	R1338T
1830.929	10.429	1832871	COUNTDOWN_START	n/a	n/a	n/a	-999	17	[0, 0, 0]	n/a	FR1	2	R1338T
1841.358	0.001	1843300	COUNTDOWN_END	n/a	n/a	n/a	-999	17	[0, 0, 0]	n/a	FR1	2	R1338T
1841.359	1.055	1843301	ORIENT_START	n/a	n/a	n/a	-999	17	[0, 0, 0]	n/a	FR1	2	R1338T
1842.414	0.0	1844356	ORIENT_END	n/a	n/a	n/a	-999	17	[0, 0, 0]	n/a	FR1	2	R1338T
1842.414	1.056	1844356	ENCODING_START	n/a	n/a	n/a	-999	17	[0, 0, 0]	n/a	FR1	2	R1338T
1843.47	1.627	1845412	WORD	n/a	wordpools/wordpool_EN.txt	LIP	1	17	[0, 0, 0]	n/a	FR1	2	R1338T
1845.097	1.045	1847039	WORD_OFF	n/a	n/a	LIP	1	17	[0, 0, 0]	n/a	FR1	2	R1338T
1846.142	1.623	1848083	WORD	n/a	wordpools/wordpool_EN.txt	SHOE	2	17	[0, 0, 0]	n/a	FR1	2	R1338T
1847.765	1.003	1849706	WORD_OFF	n/a	n/a	SHOE	2	17	[0, 0, 0]	n/a	FR1	2	R1338T
1848.768	1.63	1850709	WORD	n/a	wordpools/wordpool_EN.txt	PARK	3	17	[0, 0, 0]	n/a	FR1	2	R1338T
1850.398	0.856	1852339	WORD_OFF	n/a	n/a	PARK	3	17	[0, 0, 0]	n/a	FR1	2	R1338T
1851.254	1.628	1853195	WORD	n/a	wordpools/wordpool_EN.txt	SMILE	4	17	[0, 0, 0]	n/a	FR1	2	R1338T
1852.882	1.14	1854823	WORD_OFF	n/a	n/a	SMILE	4	17	[0, 0, 0]	n/a	FR1	2	R1338T
1854.022	1.627	1855963	WORD	n/a	wordpools/wordpool_EN.txt	SPRING	5	17	[0, 0, 0]	n/a	FR1	2	R1338T
1855.649	0.809	1857590	WORD_OFF	n/a	n/a	SPRING	5	17	[0, 0, 0]	n/a	FR1	2	R1338T
1856.458	1.625	1858399	WORD	n/a	wordpools/wordpool_EN.txt	MOON	6	17	[0, 0, 0]	n/a	FR1	2	R1338T
1858.083	0.866	1860024	WORD_OFF	n/a	n/a	MOON	6	17	[0, 0, 0]	n/a	FR1	2	R1338T
1858.949	1.619	1860890	WORD	n/a	wordpools/wordpool_EN.txt	TIE	7	17	[0, 0, 0]	n/a	FR1	2	R1338T
1860.568	1.038	1862509	WORD_OFF	n/a	n/a	TIE	7	17	[0, 0, 0]	n/a	FR1	2	R1338T
1861.606	1.628	1863547	WORD	n/a	wordpools/wordpool_EN.txt	SOCK	8	17	[0, 0, 0]	n/a	FR1	2	R1338T
1863.234	0.92	1865175	WORD_OFF	n/a	n/a	SOCK	8	17	[0, 0, 0]	n/a	FR1	2	R1338T
1864.154	1.631	1866095	WORD	n/a	wordpools/wordpool_EN.txt	CHIEF	9	17	[0, 0, 0]	n/a	FR1	2	R1338T
1865.785	1.04	1867726	WORD_OFF	n/a	n/a	CHIEF	9	17	[0, 0, 0]	n/a	FR1	2	R1338T
1866.825	1.627	1868766	WORD	n/a	wordpools/wordpool_EN.txt	CHAIR	10	17	[0, 0, 0]	n/a	FR1	2	R1338T
1868.452	0.854	1870392	WORD_OFF	n/a	n/a	CHAIR	10	17	[0, 0, 0]	n/a	FR1	2	R1338T
1869.306	1.629	1871246	WORD	n/a	wordpools/wordpool_EN.txt	CLIFF	11	17	[0, 0, 0]	n/a	FR1	2	R1338T
1870.935	0.995	1872875	WORD_OFF	n/a	n/a	CLIFF	11	17	[0, 0, 0]	n/a	FR1	2	R1338T
1871.93	1.623	1873870	WORD	n/a	wordpools/wordpool_EN.txt	LEG	12	17	[0, 0, 0]	n/a	FR1	2	R1338T
1873.553	0.001	1875493	WORD_OFF	n/a	n/a	LEG	12	17	[0, 0, 0]	n/a	FR1	2	R1338T
1873.554	0.0	1875494	ENCODING_END	n/a	n/a	n/a	-999	17	[0, 0, 0]	n/a	FR1	2	R1338T
1873.554	0.0	1875494	DISTRACT_START	n/a	n/a	n/a	-999	17	[0, 0, 0]	n/a	FR1	2	R1338T
1873.554	0.016	1875494	START	n/a	n/a	n/a	-999	17	[-999, -999, -999]	n/a	FR1	2	R1338T
1873.57	10.019	1875510	PROB	10.019	n/a	n/a	-999	17	[2, 8, 7]	287	FR1	2	R1338T
1883.589	10.285	1885529	PROB	10.285	n/a	n/a	-999	17	[3, 6, 9]	369	FR1	2	R1338T
1893.874	0.016	1895813	STOP	n/a	n/a	n/a	-999	17	[-999, -999, -999]	n/a	FR1	2	R1338T
1893.89	0.53	1895829	DISTRACT_END	n/a	n/a	n/a	-999	17	[0, 0, 0]	n/a	FR1	2	R1338T
1894.42	1.537	1896359	RETRIEVAL_ORIENT_START	n/a	n/a	n/a	-999	17	[0, 0, 0]	n/a	FR1	2	R1338T
1895.957	0.0	1897896	RETRIEVAL_ORIENT_END	n/a	n/a	n/a	-999	17	[0, 0, 0]	n/a	FR1	2	R1338T
1895.957	10.462	1897896	REC_START	n/a	n/a	n/a	-999	17	[0, 0, 0]	n/a	FR1	2	R1338T
1906.419	4.226	1908358	REC_WORD	4.226	n/a	SHOE	2	17	[0, 0, 0]	n/a	FR1	2	R1338T
1910.645	15.325	1912584	REC_WORD	15.325	n/a	LIP	1	17	[0, 0, 0]	n/a	FR1	2	R1338T
1925.97	0.0	1927908	REC_END	n/a	n/a	n/a	-999	17	[0, 0, 0]	n/a	FR1	2	R1338T
1925.97	0.017	1927908	TRIAL_END	n/a	n/a	n/a	-999	17	[0, 0, 0]	n/a	FR1	2	R1338T
1925.987	0.0	1927925	TRIAL_START	n/a	n/a	n/a	-999	18	[0, 0, 0]	n/a	FR1	2	R1338T
1925.987	0.0	1927925	TRIAL	n/a	n/a	n/a	-999	18	[0, 0, 0]	n/a	FR1	2	R1338T
1925.987	1.925	1927925	WAITING_START	n/a	n/a	n/a	-999	18	[0, 0, 0]	n/a	FR1	2	R1338T
1927.912	0.001	1929850	WAITING_END	n/a	n/a	n/a	-999	18	[0, 0, 0]	n/a	FR1	2	R1338T
1927.913	10.429	1929851	COUNTDOWN_START	n/a	n/a	n/a	-999	18	[0, 0, 0]	n/a	FR1	2	R1338T
1938.342	0.001	1940279	COUNTDOWN_END	n/a	n/a	n/a	-999	18	[0, 0, 0]	n/a	FR1	2	R1338T
1938.343	1.021	1940280	ORIENT_START	n/a	n/a	n/a	-999	18	[0, 0, 0]	n/a	FR1	2	R1338T
1939.364	0.001	1941301	ORIENT_END	n/a	n/a	n/a	-999	18	[0, 0, 0]	n/a	FR1	2	R1338T
1939.365	1.075	1941302	ENCODING_START	n/a	n/a	n/a	-999	18	[0, 0, 0]	n/a	FR1	2	R1338T
1940.44	1.625	1942377	WORD	n/a	wordpools/wordpool_EN.txt	BOX	1	18	[0, 0, 0]	n/a	FR1	2	R1338T
1942.065	1.007	1944002	WORD_OFF	n/a	n/a	BOX	1	18	[0, 0, 0]	n/a	FR1	2	R1338T
1943.072	1.627	1945009	WORD	n/a	wordpools/wordpool_EN.txt	SLEEVE	2	18	[0, 0, 0]	n/a	FR1	2	R1338T
1944.699	0.906	1946636	WORD_OFF	n/a	n/a	SLEEVE	2	18	[0, 0, 0]	n/a	FR1	2	R1338T
1945.605	1.628	1947542	WORD	n/a	wordpools/wordpool_EN.txt	CLAY	3	18	[0, 0, 0]	n/a	FR1	2	R1338T
1947.233	0.98	1949170	WORD_OFF	n/a	n/a	CLAY	3	18	[0, 0, 0]	n/a	FR1	2	R1338T
1948.213	1.637	1950150	WORD	n/a	wordpools/wordpool_EN.txt	CAR	4	18	[0, 0, 0]	n/a	FR1	2	R1338T
1949.85	0.784	1951787	WORD_OFF	n/a	n/a	CAR	4	18	[0, 0, 0]	n/a	FR1	2	R1338T
1950.634	1.633	1952571	WORD	n/a	wordpools/wordpool_EN.txt	PEAR	5	18	[0, 0, 0]	n/a	FR1	2	R1338T
1952.267	0.921	1954204	WORD_OFF	n/a	n/a	PEAR	5	18	[0, 0, 0]	n/a	FR1	2	R1338T
1953.188	1.629	1955125	WORD	n/a	wordpools/wordpool_EN.txt	SNOW	6	18	[0, 0, 0]	n/a	FR1	2	R1338T
1954.817	1.073	1956754	WORD_OFF	n/a	n/a	SNOW	6	18	[0, 0, 0]	n/a	FR1	2	R1338T
1955.89	1.629	1957827	WORD	n/a	wordpools/wordpool_EN.txt	TOOTH	7	18	[0, 0, 0]	n/a	FR1	2	R1338T
1957.519	0.883	1959455	WORD_OFF	n/a	n/a	TOOTH	7	18	[0, 0, 0]	n/a	FR1	2	R1338T
1958.402	1.633	1960338	WORD	n/a	wordpools/wordpool_EN.txt	TEA	8	18	[0, 0, 0]	n/a	FR1	2	R1338T
1960.035	1.141	1961971	WORD_OFF	n/a	n/a	TEA	8	18	[0, 0, 0]	n/a	FR1	2	R1338T
1961.176	1.626	1963112	WORD	n/a	wordpools/wordpool_EN.txt	JUICE	9	18	[0, 0, 0]	n/a	FR1	2	R1338T
1962.802	0.845	1964738	WORD_OFF	n/a	n/a	JUICE	9	18	[0, 0, 0]	n/a	FR1	2	R1338T
1963.647	1.622	1965583	WORD	n/a	wordpools/wordpool_EN.txt	LAMB	10	18	[0, 0, 0]	n/a	FR1	2	R1338T
1965.269	0.912	1967205	WORD_OFF	n/a	n/a	LAMB	10	18	[0, 0, 0]	n/a	FR1	2	R1338T
1966.181	1.622	1968117	WORD	n/a	wordpools/wordpool_EN.txt	GOAT	11	18	[0, 0, 0]	n/a	FR1	2	R1338T
1967.803	1.058	1969739	WORD_OFF	n/a	n/a	GOAT	11	18	[0, 0, 0]	n/a	FR1	2	R1338T
1968.861	1.626	1970797	WORD	n/a	wordpools/wordpool_EN.txt	WEED	12	18	[0, 0, 0]	n/a	FR1	2	R1338T
1970.487	0.0	1972423	WORD_OFF	n/a	n/a	WEED	12	18	[0, 0, 0]	n/a	FR1	2	R1338T
1970.487	0.0	1972423	ENCODING_END	n/a	n/a	n/a	-999	18	[0, 0, 0]	n/a	FR1	2	R1338T
1970.487	0.001	1972423	DISTRACT_START	n/a	n/a	n/a	-999	18	[0, 0, 0]	n/a	FR1	2	R1338T
1970.488	0.015	1972424	START	n/a	n/a	n/a	-999	18	[-999, -999, -999]	n/a	FR1	2	R1338T
1970.503	10.469	1972439	PROB	10.469	n/a	n/a	-999	18	[6, 8, 6]	686	FR1	2	R1338T
1980.972	11.302	1982907	PROB	11.302	n/a	n/a	-999	18	[6, 8, 9]	689	FR1	2	R1338T
1992.274	0.017	1994209	STOP	n/a	n/a	n/a	-999	18	[-999, -999, -999]	n/a	FR1	2	R1338T
1992.291	0.593	1994226	DISTRACT_END	n/a	n/a	n/a	-999	18	[0, 0, 0]	n/a	FR1	2	R1338T
1992.884	1.607	1994819	RETRIEVAL_ORIENT_START	n/a	n/a	n/a	-999	18	[0, 0, 0]	n/a	FR1	2	R1338T
1994.491	0.0	1996426	RETRIEVAL_ORIENT_END	n/a	n/a	n/a	-999	18	[0, 0, 0]	n/a	FR1	2	R1338T
1994.491	2.534	1996426	REC_START	n/a	n/a	n/a	-999	18	[0, 0, 0]	n/a	FR1	2	R1338T
1997.025	2.882	1998960	REC_WORD	2.882	n/a	GOAT	11	18	[0, 0, 0]	n/a	FR1	2	R1338T
1999.907	24.599	2001842	REC_WORD	24.599	n/a	LAMB	10	18	[0, 0, 0]	n/a	FR1	2	R1338T
2024.506	0.0	2026439	REC_END	n/a	n/a	n/a	-999	18	[0, 0, 0]	n/a	FR1	2	R1338T
2024.506	0.014	2026439	TRIAL_END	n/a	n/a	n/a	-999	18	[0, 0, 0]	n/a	FR1	2	R1338T
2024.52	0.001	2026453	TRIAL_START	n/a	n/a	n/a	-999	19	[0, 0, 0]	n/a	FR1	2	R1338T
2024.521	0.0	2026454	TRIAL	n/a	n/a	n/a	-999	19	[0, 0, 0]	n/a	FR1	2	R1338T
2024.521	4.46	2026454	WAITING_START	n/a	n/a	n/a	-999	19	[0, 0, 0]	n/a	FR1	2	R1338T
2028.981	0.0	2030914	WAITING_END	n/a	n/a	n/a	-999	19	[0, 0, 0]	n/a	FR1	2	R1338T
2028.981	10.428	2030914	COUNTDOWN_START	n/a	n/a	n/a	-999	19	[0, 0, 0]	n/a	FR1	2	R1338T
2039.409	0.001	2041342	COUNTDOWN_END	n/a	n/a	n/a	-999	19	[0, 0, 0]	n/a	FR1	2	R1338T
2039.41	1.04	2041343	ORIENT_START	n/a	n/a	n/a	-999	19	[0, 0, 0]	n/a	FR1	2	R1338T
2040.45	0.0	2042383	ORIENT_END	n/a	n/a	n/a	-999	19	[0, 0, 0]	n/a	FR1	2	R1338T
2040.45	0.911	2042383	ENCODING_START	n/a	n/a	n/a	-999	19	[0, 0, 0]	n/a	FR1	2	R1338T
2041.361	1.639	2043294	WORD	n/a	wordpools/wordpool_EN.txt	STRAW	1	19	[0, 0, 0]	n/a	FR1	2	R1338T
2043.0	0.974	2044933	WORD_OFF	n/a	n/a	STRAW	1	19	[0, 0, 0]	n/a	FR1	2	R1338T
2043.974	1.627	2045907	WORD	n/a	wordpools/wordpool_EN.txt	VEST	2	19	[0, 0, 0]	n/a	FR1	2	R1338T
2045.601	1.025	2047534	WORD_OFF	n/a	n/a	VEST	2	19	[0, 0, 0]	n/a	FR1	2	R1338T
2046.626	1.625	2048558	WORD	n/a	wordpools/wordpool_EN.txt	HOSE	3	19	[0, 0, 0]	n/a	FR1	2	R1338T
2048.251	1.052	2050183	WORD_OFF	n/a	n/a	HOSE	3	19	[0, 0, 0]	n/a	FR1	2	R1338T
2049.303	1.632	2051235	WORD	n/a	wordpools/wordpool_EN.txt	MAIL	4	19	[0, 0, 0]	n/a	FR1	2	R1338T
2050.935	1.12	2052867	WORD_OFF	n/a	n/a	MAIL	4	19	[0, 0, 0]	n/a	FR1	2	R1338T
2052.055	1.63	2053987	WORD	n/a	wordpools/wordpool_EN.txt	JUDGE	5	19	[0, 0, 0]	n/a	FR1	2	R1338T
2053.685	1.09	2055617	WORD_OFF	n/a	n/a	JUDGE	5	19	[0, 0, 0]	n/a	FR1	2	R1338T
2054.775	1.627	2056707	WORD	n/a	wordpools/wordpool_EN.txt	BROOM	6	19	[0, 0, 0]	n/a	FR1	2	R1338T
2056.402	0.829	2058334	WORD_OFF	n/a	n/a	BROOM	6	19	[0, 0, 0]	n/a	FR1	2	R1338T
2057.231	1.622	2059163	WORD	n/a	wordpools/wordpool_EN.txt	PRINCE	7	19	[0, 0, 0]	n/a	FR1	2	R1338T
2058.853	0.898	2060785	WORD_OFF	n/a	n/a	PRINCE	7	19	[0, 0, 0]	n/a	FR1	2	R1338T
2059.751	1.636	2061683	WORD	n/a	wordpools/wordpool_EN.txt	GLASS	8	19	[0, 0, 0]	n/a	FR1	2	R1338T
2061.387	0.851	2063319	WORD_OFF	n/a	n/a	GLASS	8	19	[0, 0, 0]	n/a	FR1	2	R1338T
2062.238	1.632	2064170	WORD	n/a	wordpools/wordpool_EN.txt	PIPE	9	19	[0, 0, 0]	n/a	FR1	2	R1338T
2063.87	1.124	2065802	WORD_OFF	n/a	n/a	PIPE	9	19	[0, 0, 0]	n/a	FR1	2	R1338T
2064.994	1.627	2066926	WORD	n/a	wordpools/wordpool_EN.txt	BATH	10	19	[0, 0, 0]	n/a	FR1	2	R1338T
2066.621	0.786	2068553	WORD_OFF	n/a	n/a	BATH	10	19	[0, 0, 0]	n/a	FR1	2	R1338T
2067.407	1.631	2069339	WORD	n/a	wordpools/wordpool_EN.txt	JET	11	19	[0, 0, 0]	n/a	FR1	2	R1338T
2069.038	0.88	2070969	WORD_OFF	n/a	n/a	JET	11	19	[0, 0, 0]	n/a	FR1	2	R1338T
2069.918	1.638	2071849	WORD	n/a	wordpools/wordpool_EN.txt	WEB	12	19	[0, 0, 0]	n/a	FR1	2	R1338T
2071.556	0.001	2073487	WORD_OFF	n/a	n/a	WEB	12	19	[0, 0, 0]	n/a	FR1	2	R1338T
2071.557	0.0	2073488	ENCODING_END	n/a	n/a	n/a	-999	19	[0, 0, 0]	n/a	FR1	2	R1338T
2071.557	0.0	2073488	DISTRACT_START	n/a	n/a	n/a	-999	19	[0, 0, 0]	n/a	FR1	2	R1338T
2071.557	0.016	2073488	START	n/a	n/a	n/a	-999	19	[-999, -999, -999]	n/a	FR1	2	R1338T
2071.573	6.85	2073504	PROB	6.85	n/a	n/a	-999	19	[8, 5, 2]	852	FR1	2	R1338T
2078.423	5.517	2080354	PROB	5.517	n/a	n/a	-999	19	[7, 2, 3]	723	FR1	2	R1338T
2083.94	4.101	2085871	PROB	4.101	n/a	n/a	-999	19	[8, 1, 1]	811	FR1	2	R1338T
2088.041	8.595	2089972	PROB	8.595	n/a	n/a	-999	19	[3, 7, 6]	376	FR1	2	R1338T
2096.636	0.007	2098566	STOP	n/a	n/a	n/a	-999	19	[-999, -999, -999]	n/a	FR1	2	R1338T
2096.643	0.669	2098573	DISTRACT_END	n/a	n/a	n/a	-999	19	[0, 0, 0]	n/a	FR1	2	R1338T
2097.312	1.631	2099242	RETRIEVAL_ORIENT_START	n/a	n/a	n/a	-999	19	[0, 0, 0]	n/a	FR1	2	R1338T
2098.943	0.001	2100873	RETRIEVAL_ORIENT_END	n/a	n/a	n/a	-999	19	[0, 0, 0]	n/a	FR1	2	R1338T
2098.944	17.451	2100874	REC_START	n/a	n/a	n/a	-999	19	[0, 0, 0]	n/a	FR1	2	R1338T
2116.395	12.561	2118324	REC_WORD_VV	12.561	n/a	<>	-999	19	[0, 0, 0]	n/a	FR1	2	R1338T
2128.956	0.0	2130885	TRIAL_END	n/a	n/a	n/a	-999	19	[0, 0, 0]	n/a	FR1	2	R1338T
2128.956	0.016	2130885	REC_END	n/a	n/a	n/a	-999	19	[0, 0, 0]	n/a	FR1	2	R1338T
2128.972	0.0	2130901	TRIAL_START	n/a	n/a	n/a	-999	20	[0, 0, 0]	n/a	FR1	2	R1338T
2128.972	0.0	2130901	TRIAL	n/a	n/a	n/a	-999	20	[0, 0, 0]	n/a	FR1	2	R1338T
2128.972	1.977	2130901	WAITING_START	n/a	n/a	n/a	-999	20	[0, 0, 0]	n/a	FR1	2	R1338T
2130.949	0.001	2132878	WAITING_END	n/a	n/a	n/a	-999	20	[0, 0, 0]	n/a	FR1	2	R1338T
2130.95	10.429	2132879	COUNTDOWN_START	n/a	n/a	n/a	-999	20	[0, 0, 0]	n/a	FR1	2	R1338T
2141.379	0.0	2143307	COUNTDOWN_END	n/a	n/a	n/a	-999	20	[0, 0, 0]	n/a	FR1	2	R1338T
2141.379	1.19	2143307	ORIENT_START	n/a	n/a	n/a	-999	20	[0, 0, 0]	n/a	FR1	2	R1338T
2142.569	0.001	2144497	ORIENT_END	n/a	n/a	n/a	-999	20	[0, 0, 0]	n/a	FR1	2	R1338T
2142.57	1.08	2144498	ENCODING_START	n/a	n/a	n/a	-999	20	[0, 0, 0]	n/a	FR1	2	R1338T
2143.65	1.635	2145578	WORD	n/a	wordpools/wordpool_EN.txt	SPEAR	1	20	[0, 0, 0]	n/a	FR1	2	R1338T
2145.285	0.889	2147213	WORD_OFF	n/a	n/a	SPEAR	1	20	[0, 0, 0]	n/a	FR1	2	R1338T
2146.174	1.628	2148102	WORD	n/a	wordpools/wordpool_EN.txt	MULE	2	20	[0, 0, 0]	n/a	FR1	2	R1338T
2147.802	0.758	2149730	WORD_OFF	n/a	n/a	MULE	2	20	[0, 0, 0]	n/a	FR1	2	R1338T
2148.56	1.626	2150488	WORD	n/a	wordpools/wordpool_EN.txt	PEACH	3	20	[0, 0, 0]	n/a	FR1	2	R1338T
2150.186	0.915	2152114	WORD_OFF	n/a	n/a	PEACH	3	20	[0, 0, 0]	n/a	FR1	2	R1338T
2151.101	1.635	2153029	WORD	n/a	wordpools/wordpool_EN.txt	LEAF	4	20	[0, 0, 0]	n/a	FR1	2	R1338T
2152.736	1.15	2154664	WORD_OFF	n/a	n/a	LEAF	4	20	[0, 0, 0]	n/a	FR1	2	R1338T
2153.886	1.635	2155814	WORD	n/a	wordpools/wordpool_EN.txt	SPONGE	5	20	[0, 0, 0]	n/a	FR1	2	R1338T
2155.521	0.911	2157449	WORD_OFF	n/a	n/a	SPONGE	5	20	[0, 0, 0]	n/a	FR1	2	R1338T
2156.432	1.622	2158360	WORD	n/a	wordpools/wordpool_EN.txt	ROOM	6	20	[0, 0, 0]	n/a	FR1	2	R1338T
2158.054	0.963	2159981	WORD_OFF	n/a	n/a	ROOM	6	20	[0, 0, 0]	n/a	FR1	2	R1338T
2159.017	1.638	2160944	WORD	n/a	wordpools/wordpool_EN.txt	CORN	7	20	[0, 0, 0]	n/a	FR1	2	R1338T
2160.655	0.989	2162582	WORD_OFF	n/a	n/a	CORN	7	20	[0, 0, 0]	n/a	FR1	2	R1338T
2161.644	1.628	2163571	WORD	n/a	wordpools/wordpool_EN.txt	SUIT	8	20	[0, 0, 0]	n/a	FR1	2	R1338T
2163.272	0.784	2165199	WORD_OFF	n/a	n/a	SUIT	8	20	[0, 0, 0]	n/a	FR1	2	R1338T
2164.056	1.633	2165983	WORD	n/a	wordpools/wordpool_EN.txt	LAMP	9	20	[0, 0, 0]	n/a	FR1	2	R1338T
2165.689	0.767	2167616	WORD_OFF	n/a	n/a	LAMP	9	20	[0, 0, 0]	n/a	FR1	2	R1338T
2166.456	1.633	2168383	WORD	n/a	wordpools/wordpool_EN.txt	TOAD	10	20	[0, 0, 0]	n/a	FR1	2	R1338T
2168.089	1.136	2170016	WORD_OFF	n/a	n/a	TOAD	10	20	[0, 0, 0]	n/a	FR1	2	R1338T
2169.225	1.631	2171152	WORD	n/a	wordpools/wordpool_EN.txt	CROW	11	20	[0, 0, 0]	n/a	FR1	2	R1338T
2170.856	0.782	2172783	WORD_OFF	n/a	n/a	CROW	11	20	[0, 0, 0]	n/a	FR1	2	R1338T
2171.638	1.636	2173565	WORD	n/a	wordpools/wordpool_EN.txt	CLOCK	12	20	[0, 0, 0]	n/a	FR1	2	R1338T
2173.274	0.0	2175201	DISTRACT_START	n/a	n/a	n/a	-999	20	[0, 0, 0]	n/a	FR1	2	R1338T
2173.274	0.0	2175201	ENCODING_END	n/a	n/a	n/a	-999	20	[0, 0, 0]	n/a	FR1	2	R1338T
2173.274	0.0	2175201	WORD_OFF	n/a	n/a	CLOCK	12	20	[0, 0, 0]	n/a	FR1	2	R1338T
2173.274	0.016	2175201	START	n/a	n/a	n/a	-999	20	[-999, -999, -999]	n/a	FR1	2	R1338T
2173.29	6.635	2175217	PROB	6.635	n/a	n/a	-999	20	[8, 7, 7]	877	FR1	2	R1338T
2179.925	6.467	2181851	PROB	6.467	n/a	n/a	-999	20	[4, 5, 1]	451	FR1	2	R1338T
2186.392	6.885	2188318	PROB	6.885	n/a	n/a	-999	20	[4, 7, 3]	473	FR1	2	R1338T
2193.277	5.687	2195203	PROB	5.687	n/a	n/a	-999	20	[3, 1, 1]	311	FR1	2	R1338T
2198.964	0.014	2200890	STOP	n/a	n/a	n/a	-999	20	[-999, -999, -999]	n/a	FR1	2	R1338T
2198.978	0.619	2200904	DISTRACT_END	n/a	n/a	n/a	-999	20	[0, 0, 0]	n/a	FR1	2	R1338T
2199.597	1.548	2201523	RETRIEVAL_ORIENT_START	n/a	n/a	n/a	-999	20	[0, 0, 0]	n/a	FR1	2	R1338T
2201.145	0.001	2203071	RETRIEVAL_ORIENT_END	n/a	n/a	n/a	-999	20	[0, 0, 0]	n/a	FR1	2	R1338T
2201.146	4.017	2203072	REC_START	n/a	n/a	n/a	-999	20	[0, 0, 0]	n/a	FR1	2	R1338T
2205.163	1.682	2207088	REC_WORD	1.682	n/a	SPEAR	1	20	[0, 0, 0]	n/a	FR1	2	R1338T
2206.845	1.347	2208770	REC_WORD	1.347	n/a	LEAF	4	20	[0, 0, 0]	n/a	FR1	2	R1338T
2208.192	6.647	2210117	REC_WORD	6.647	n/a	SPARROW	-999	20	[0, 0, 0]	n/a	FR1	2	R1338T
2214.839	16.318	2216764	REC_WORD	16.318	n/a	LAMP	9	20	[0, 0, 0]	n/a	FR1	2	R1338T
2231.157	0.0	2233081	REC_END	n/a	n/a	n/a	-999	20	[0, 0, 0]	n/a	FR1	2	R1338T
2231.157	0.018	2233081	TRIAL_END	n/a	n/a	n/a	-999	20	[0, 0, 0]	n/a	FR1	2	R1338T
2231.175	0.0	2233099	TRIAL_START	n/a	n/a	n/a	-999	21	[0, 0, 0]	n/a	FR1	2	R1338T
2231.175	0.0	2233099	TRIAL	n/a	n/a	n/a	-999	21	[0, 0, 0]	n/a	FR1	2	R1338T
2231.175	2.893	2233099	WAITING_START	n/a	n/a	n/a	-999	21	[0, 0, 0]	n/a	FR1	2	R1338T
2234.068	0.0	2235992	WAITING_END	n/a	n/a	n/a	-999	21	[0, 0, 0]	n/a	FR1	2	R1338T
2234.068	10.43	2235992	COUNTDOWN_START	n/a	n/a	n/a	-999	21	[0, 0, 0]	n/a	FR1	2	R1338T
2244.498	0.0	2246422	ORIENT_START	n/a	n/a	n/a	-999	21	[0, 0, 0]	n/a	FR1	2	R1338T
2244.498	1.222	2246422	COUNTDOWN_END	n/a	n/a	n/a	-999	21	[0, 0, 0]	n/a	FR1	2	R1338T
2245.72	0.0	2247644	ORIENT_END	n/a	n/a	n/a	-999	21	[0, 0, 0]	n/a	FR1	2	R1338T
2245.72	0.763	2247644	ENCODING_START	n/a	n/a	n/a	-999	21	[0, 0, 0]	n/a	FR1	2	R1338T
2246.483	1.638	2248406	WORD	n/a	wordpools/wordpool_EN.txt	TRASH	1	21	[0, 0, 0]	n/a	FR1	2	R1338T
2248.121	1.117	2250044	WORD_OFF	n/a	n/a	TRASH	1	21	[0, 0, 0]	n/a	FR1	2	R1338T
2249.238	1.633	2251161	WORD	n/a	wordpools/wordpool_EN.txt	SWORD	2	21	[0, 0, 0]	n/a	FR1	2	R1338T
2250.871	1.04	2252794	WORD_OFF	n/a	n/a	SWORD	2	21	[0, 0, 0]	n/a	FR1	2	R1338T
2251.911	1.612	2253834	WORD	n/a	wordpools/wordpool_EN.txt	NET	3	21	[0, 0, 0]	n/a	FR1	2	R1338T
2253.523	1.119	2255446	WORD_OFF	n/a	n/a	NET	3	21	[0, 0, 0]	n/a	FR1	2	R1338T
2254.642	1.63	2256565	WORD	n/a	wordpools/wordpool_EN.txt	RICE	4	21	[0, 0, 0]	n/a	FR1	2	R1338T
2256.272	0.865	2258195	WORD_OFF	n/a	n/a	RICE	4	21	[0, 0, 0]	n/a	FR1	2	R1338T
2257.137	1.635	2259060	WORD	n/a	wordpools/wordpool_EN.txt	BADGE	5	21	[0, 0, 0]	n/a	FR1	2	R1338T
2258.772	0.948	2260695	WORD_OFF	n/a	n/a	BADGE	5	21	[0, 0, 0]	n/a	FR1	2	R1338T
2259.72	1.636	2261643	WORD	n/a	wordpools/wordpool_EN.txt	DRESS	6	21	[0, 0, 0]	n/a	FR1	2	R1338T
2261.356	1.135	2263279	WORD_OFF	n/a	n/a	DRESS	6	21	[0, 0, 0]	n/a	FR1	2	R1338T
2262.491	1.632	2264414	WORD	n/a	wordpools/wordpool_EN.txt	COIN	7	21	[0, 0, 0]	n/a	FR1	2	R1338T
2264.123	0.815	2266046	WORD_OFF	n/a	n/a	COIN	7	21	[0, 0, 0]	n/a	FR1	2	R1338T
2264.938	1.637	2266861	WORD	n/a	wordpools/wordpool_EN.txt	NOSE	8	21	[0, 0, 0]	n/a	FR1	2	R1338T
2266.575	0.969	2268498	WORD_OFF	n/a	n/a	NOSE	8	21	[0, 0, 0]	n/a	FR1	2	R1338T
2267.544	1.63	2269467	WORD	n/a	wordpools/wordpool_EN.txt	MOUTH	9	21	[0, 0, 0]	n/a	FR1	2	R1338T
2269.174	0.921	2271096	WORD_OFF	n/a	n/a	MOUTH	9	21	[0, 0, 0]	n/a	FR1	2	R1338T
2270.095	1.63	2272017	WORD	n/a	wordpools/wordpool_EN.txt	SKI	10	21	[0, 0, 0]	n/a	FR1	2	R1338T
2271.725	1.144	2273647	WORD_OFF	n/a	n/a	SKI	10	21	[0, 0, 0]	n/a	FR1	2	R1338T
2272.869	1.623	2274791	WORD	n/a	wordpools/wordpool_EN.txt	PURSE	11	21	[0, 0, 0]	n/a	FR1	2	R1338T
2274.492	0.83	2276414	WORD_OFF	n/a	n/a	PURSE	11	21	[0, 0, 0]	n/a	FR1	2	R1338T
2275.322	1.637	2277244	WORD	n/a	wordpools/wordpool_EN.txt	BOAT	12	21	[0, 0, 0]	n/a	FR1	2	R1338T
2276.959	0.001	2278881	WORD_OFF	n/a	n/a	BOAT	12	21	[0, 0, 0]	n/a	FR1	2	R1338T
2276.96	0.0	2278882	ENCODING_END	n/a	n/a	n/a	-999	21	[0, 0, 0]	n/a	FR1	2	R1338T
2276.96	0.0	2278882	DISTRACT_START	n/a	n/a	n/a	-999	21	[0, 0, 0]	n/a	FR1	2	R1338T
2276.96	0.015	2278882	START	n/a	n/a	n/a	-999	21	[-999, -999, -999]	n/a	FR1	2	R1338T
2276.975	8.152	2278897	PROB	8.152	n/a	n/a	-999	21	[3, 1, 5]	315	FR1	2	R1338T
2285.127	4.934	2287049	PROB	4.934	n/a	n/a	-999	21	[8, 7, 5]	875	FR1	2	R1338T
2290.061	6.351	2291983	PROB	6.351	n/a	n/a	-999	21	[4, 6, 8]	458	FR1	2	R1338T
2296.412	5.297	2298333	PROB	5.297	n/a	n/a	-999	21	[5, 1, 9]	519	FR1	2	R1338T
2301.709	0.021	2303630	STOP	n/a	n/a	n/a	-999	21	[-999, -999, -999]	n/a	FR1	2	R1338T
2301.73	0.6	2303651	DISTRACT_END	n/a	n/a	n/a	-999	21	[0, 0, 0]	n/a	FR1	2	R1338T
2302.33	1.634	2304251	RETRIEVAL_ORIENT_START	n/a	n/a	n/a	-999	21	[0, 0, 0]	n/a	FR1	2	R1338T
2303.964	0.0	2305885	RETRIEVAL_ORIENT_END	n/a	n/a	n/a	-999	21	[0, 0, 0]	n/a	FR1	2	R1338T
2303.964	9.993	2305885	REC_START	n/a	n/a	n/a	-999	21	[0, 0, 0]	n/a	FR1	2	R1338T
2313.957	20.02	2315877	REC_WORD	20.02	n/a	BADGE	5	21	[0, 0, 0]	n/a	FR1	2	R1338T
2333.977	0.0	2335897	TRIAL_END	n/a	n/a	n/a	-999	21	[0, 0, 0]	n/a	FR1	2	R1338T
2333.977	0.017	2335897	REC_END	n/a	n/a	n/a	-999	21	[0, 0, 0]	n/a	FR1	2	R1338T
2333.994	0.0	2335914	TRIAL_START	n/a	n/a	n/a	-999	22	[0, 0, 0]	n/a	FR1	2	R1338T
2333.994	0.0	2335914	TRIAL	n/a	n/a	n/a	-999	22	[0, 0, 0]	n/a	FR1	2	R1338T
2333.994	3.209	2335914	WAITING_START	n/a	n/a	n/a	-999	22	[0, 0, 0]	n/a	FR1	2	R1338T
2337.203	0.001	2339122	WAITING_END	n/a	n/a	n/a	-999	22	[0, 0, 0]	n/a	FR1	2	R1338T
2337.204	10.429	2339123	COUNTDOWN_START	n/a	n/a	n/a	-999	22	[0, 0, 0]	n/a	FR1	2	R1338T
2347.633	0.0	2349552	COUNTDOWN_END	n/a	n/a	n/a	-999	22	[0, 0, 0]	n/a	FR1	2	R1338T
2347.633	1.073	2349552	ORIENT_START	n/a	n/a	n/a	-999	22	[0, 0, 0]	n/a	FR1	2	R1338T
2348.706	0.0	2350625	ORIENT_END	n/a	n/a	n/a	-999	22	[0, 0, 0]	n/a	FR1	2	R1338T
2348.706	1.133	2350625	ENCODING_START	n/a	n/a	n/a	-999	22	[0, 0, 0]	n/a	FR1	2	R1338T
2349.839	1.634	2351758	WORD	n/a	wordpools/wordpool_EN.txt	HOOK	1	22	[0, 0, 0]	n/a	FR1	2	R1338T
2351.473	0.803	2353392	WORD_OFF	n/a	n/a	HOOK	1	22	[0, 0, 0]	n/a	FR1	2	R1338T
2352.276	1.63	2354195	WORD	n/a	wordpools/wordpool_EN.txt	SHEEP	2	22	[0, 0, 0]	n/a	FR1	2	R1338T
2353.906	0.976	2355825	WORD_OFF	n/a	n/a	SHEEP	2	22	[0, 0, 0]	n/a	FR1	2	R1338T
2354.882	1.626	2356801	WORD	n/a	wordpools/wordpool_EN.txt	CROWN	3	22	[0, 0, 0]	n/a	FR1	2	R1338T
2356.508	0.793	2358427	WORD_OFF	n/a	n/a	CROWN	3	22	[0, 0, 0]	n/a	FR1	2	R1338T
2357.301	1.623	2359220	WORD	n/a	wordpools/wordpool_EN.txt	SCHOOL	4	22	[0, 0, 0]	n/a	FR1	2	R1338T
2358.924	1.111	2360842	WORD_OFF	n/a	n/a	SCHOOL	4	22	[0, 0, 0]	n/a	FR1	2	R1338T
2360.035	1.623	2361953	WORD	n/a	wordpools/wordpool_EN.txt	BEE	5	22	[0, 0, 0]	n/a	FR1	2	R1338T
2361.658	1.081	2363576	WORD_OFF	n/a	n/a	BEE	5	22	[0, 0, 0]	n/a	FR1	2	R1338T
2362.739	1.636	2364657	WORD	n/a	wordpools/wordpool_EN.txt	BOARD	6	22	[0, 0, 0]	n/a	FR1	2	R1338T
2364.375	0.841	2366293	WORD_OFF	n/a	n/a	BOARD	6	22	[0, 0, 0]	n/a	FR1	2	R1338T
2365.216	1.626	2367134	WORD	n/a	wordpools/wordpool_EN.txt	FOAM	7	22	[0, 0, 0]	n/a	FR1	2	R1338T
2366.842	0.951	2368760	WORD_OFF	n/a	n/a	FOAM	7	22	[0, 0, 0]	n/a	FR1	2	R1338T
2367.793	1.633	2369711	WORD	n/a	wordpools/wordpool_EN.txt	BEAN	8	22	[0, 0, 0]	n/a	FR1	2	R1338T
2369.426	0.835	2371344	WORD_OFF	n/a	n/a	BEAN	8	22	[0, 0, 0]	n/a	FR1	2	R1338T
2370.261	1.632	2372179	WORD	n/a	wordpools/wordpool_EN.txt	FARM	9	22	[0, 0, 0]	n/a	FR1	2	R1338T
2371.893	0.949	2373811	WORD_OFF	n/a	n/a	FARM	9	22	[0, 0, 0]	n/a	FR1	2	R1338T
2372.842	1.635	2374760	WORD	n/a	wordpools/wordpool_EN.txt	SIGN	10	22	[0, 0, 0]	n/a	FR1	2	R1338T
2374.477	0.983	2376395	WORD_OFF	n/a	n/a	SIGN	10	22	[0, 0, 0]	n/a	FR1	2	R1338T
2375.46	1.634	2377378	WORD	n/a	wordpools/wordpool_EN.txt	SLUSH	11	22	[0, 0, 0]	n/a	FR1	2	R1338T
2377.094	1.079	2379012	WORD_OFF	n/a	n/a	SLUSH	11	22	[0, 0, 0]	n/a	FR1	2	R1338T
2378.173	1.621	2380091	WORD	n/a	wordpools/wordpool_EN.txt	HAWK	12	22	[0, 0, 0]	n/a	FR1	2	R1338T
2379.794	0.001	2381711	WORD_OFF	n/a	n/a	HAWK	12	22	[0, 0, 0]	n/a	FR1	2	R1338T
2379.795	0.0	2381712	DISTRACT_START	n/a	n/a	n/a	-999	22	[0, 0, 0]	n/a	FR1	2	R1338T
2379.795	0.0	2381712	ENCODING_END	n/a	n/a	n/a	-999	22	[0, 0, 0]	n/a	FR1	2	R1338T
2379.795	0.016	2381712	START	n/a	n/a	n/a	-999	22	[-999, -999, -999]	n/a	FR1	2	R1338T
2379.811	9.485	2381728	PROB	9.485	n/a	n/a	-999	22	[8, 2, 5]	825	FR1	2	R1338T
2389.296	7.735	2391213	PROB	7.735	n/a	n/a	-999	22	[8, 3, 3]	833	FR1	2	R1338T
2397.031	7.057	2398948	PROB	7.057	n/a	n/a	-999	22	[4, 9, 1]	491	FR1	2	R1338T
2404.088	0.011	2406004	STOP	n/a	n/a	n/a	-999	22	[-999, -999, -999]	n/a	FR1	2	R1338T
2404.099	0.551	2406015	DISTRACT_END	n/a	n/a	n/a	-999	22	[0, 0, 0]	n/a	FR1	2	R1338T
2404.65	1.566	2406566	RETRIEVAL_ORIENT_START	n/a	n/a	n/a	-999	22	[0, 0, 0]	n/a	FR1	2	R1338T
2406.216	0.0	2408132	RETRIEVAL_ORIENT_END	n/a	n/a	n/a	-999	22	[0, 0, 0]	n/a	FR1	2	R1338T
2406.216	0.799	2408132	REC_START	n/a	n/a	n/a	-999	22	[0, 0, 0]	n/a	FR1	2	R1338T
2407.015	1.496	2408931	REC_WORD	1.496	n/a	BEE	5	22	[0, 0, 0]	n/a	FR1	2	R1338T
2408.511	27.717	2410427	REC_WORD	27.717	n/a	FARM	9	22	[0, 0, 0]	n/a	FR1	2	R1338T
2436.228	0.0	2438143	TRIAL_END	n/a	n/a	n/a	-999	22	[0, 0, 0]	n/a	FR1	2	R1338T
2436.228	0.015	2438143	REC_END	n/a	n/a	n/a	-999	22	[0, 0, 0]	n/a	FR1	2	R1338T
2436.243	0.0	2438158	TRIAL_START	n/a	n/a	n/a	-999	23	[0, 0, 0]	n/a	FR1	2	R1338T
2436.243	0.0	2438158	TRIAL	n/a	n/a	n/a	-999	23	[0, 0, 0]	n/a	FR1	2	R1338T
2436.243	2.812	2438158	WAITING_START	n/a	n/a	n/a	-999	23	[0, 0, 0]	n/a	FR1	2	R1338T
2439.055	0.001	2440970	WAITING_END	n/a	n/a	n/a	-999	23	[0, 0, 0]	n/a	FR1	2	R1338T
2439.056	10.428	2440971	COUNTDOWN_START	n/a	n/a	n/a	-999	23	[0, 0, 0]	n/a	FR1	2	R1338T
2449.484	0.0	2451398	ORIENT_START	n/a	n/a	n/a	-999	23	[0, 0, 0]	n/a	FR1	2	R1338T
2449.484	1.257	2451398	COUNTDOWN_END	n/a	n/a	n/a	-999	23	[0, 0, 0]	n/a	FR1	2	R1338T
2450.741	0.0	2452655	ENCODING_START	n/a	n/a	n/a	-999	23	[0, 0, 0]	n/a	FR1	2	R1338T
2450.741	1.018	2452655	ORIENT_END	n/a	n/a	n/a	-999	23	[0, 0, 0]	n/a	FR1	2	R1338T
2451.759	1.632	2453673	WORD	n/a	wordpools/wordpool_EN.txt	OAR	1	23	[0, 0, 0]	n/a	FR1	2	R1338T
2453.391	1.147	2455305	WORD_OFF	n/a	n/a	OAR	1	23	[0, 0, 0]	n/a	FR1	2	R1338T
2454.538	1.637	2456452	WORD	n/a	wordpools/wordpool_EN.txt	BRICK	2	23	[0, 0, 0]	n/a	FR1	2	R1338T
2456.175	1.085	2458089	WORD_OFF	n/a	n/a	BRICK	2	23	[0, 0, 0]	n/a	FR1	2	R1338T
2457.26	1.632	2459174	WORD	n/a	wordpools/wordpool_EN.txt	ZOO	3	23	[0, 0, 0]	n/a	FR1	2	R1338T
2458.892	0.851	2460806	WORD_OFF	n/a	n/a	ZOO	3	23	[0, 0, 0]	n/a	FR1	2	R1338T
2459.743	1.633	2461657	WORD	n/a	wordpools/wordpool_EN.txt	WALL	4	23	[0, 0, 0]	n/a	FR1	2	R1338T
2461.376	1.019	2463290	WORD_OFF	n/a	n/a	WALL	4	23	[0, 0, 0]	n/a	FR1	2	R1338T
2462.395	1.631	2464309	WORD	n/a	wordpools/wordpool_EN.txt	WORLD	5	23	[0, 0, 0]	n/a	FR1	2	R1338T
2464.026	1.054	2465940	WORD_OFF	n/a	n/a	WORLD	5	23	[0, 0, 0]	n/a	FR1	2	R1338T
2465.08	1.63	2466994	WORD	n/a	wordpools/wordpool_EN.txt	HAND	6	23	[0, 0, 0]	n/a	FR1	2	R1338T
2466.71	0.921	2468624	WORD_OFF	n/a	n/a	HAND	6	23	[0, 0, 0]	n/a	FR1	2	R1338T
2467.631	1.63	2469545	WORD	n/a	wordpools/wordpool_EN.txt	FLOOR	7	23	[0, 0, 0]	n/a	FR1	2	R1338T
2469.261	0.775	2471174	WORD_OFF	n/a	n/a	FLOOR	7	23	[0, 0, 0]	n/a	FR1	2	R1338T
2470.036	1.625	2471949	WORD	n/a	wordpools/wordpool_EN.txt	BLUSH	8	23	[0, 0, 0]	n/a	FR1	2	R1338T
2471.661	1.078	2473574	WORD_OFF	n/a	n/a	BLUSH	8	23	[0, 0, 0]	n/a	FR1	2	R1338T
2472.739	1.622	2474652	WORD	n/a	wordpools/wordpool_EN.txt	FOG	9	23	[0, 0, 0]	n/a	FR1	2	R1338T
2474.361	0.759	2476274	WORD_OFF	n/a	n/a	FOG	9	23	[0, 0, 0]	n/a	FR1	2	R1338T
2475.12	1.625	2477033	WORD	n/a	wordpools/wordpool_EN.txt	PIN	10	23	[0, 0, 0]	n/a	FR1	2	R1338T
2476.745	0.898	2478658	WORD_OFF	n/a	n/a	PIN	10	23	[0, 0, 0]	n/a	FR1	2	R1338T
2477.643	1.636	2479556	WORD	n/a	wordpools/wordpool_EN.txt	YARD	11	23	[0, 0, 0]	n/a	FR1	2	R1338T
2479.279	0.94	2481192	WORD_OFF	n/a	n/a	YARD	11	23	[0, 0, 0]	n/a	FR1	2	R1338T
2480.219	1.627	2482132	WORD	n/a	wordpools/wordpool_EN.txt	SEAT	12	23	[0, 0, 0]	n/a	FR1	2	R1338T
2481.846	0.001	2483759	WORD_OFF	n/a	n/a	SEAT	12	23	[0, 0, 0]	n/a	FR1	2	R1338T
2481.847	0.0	2483760	ENCODING_END	n/a	n/a	n/a	-999	23	[0, 0, 0]	n/a	FR1	2	R1338T
2481.847	0.0	2483760	DISTRACT_START	n/a	n/a	n/a	-999	23	[0, 0, 0]	n/a	FR1	2	R1338T
2481.847	0.016	2483760	START	n/a	n/a	n/a	-999	23	[-999, -999, -999]	n/a	FR1	2	R1338T
2481.863	8.368	2483776	PROB	8.368	n/a	n/a	-999	23	[7, 2, 8]	728	FR1	2	R1338T
2490.231	3.6	2492144	PROB	3.6	n/a	n/a	-999	23	[9, 9, 9]	999	FR1	2	R1338T
2493.831	4.686	2495743	PROB	4.686	n/a	n/a	-999	23	[5, 7, 5]	575	FR1	2	R1338T
2498.517	7.496	2500429	PROB	7.496	n/a	n/a	-999	23	[3, 9, 3]	393	FR1	2	R1338T
2506.013	0.021	2507925	STOP	n/a	n/a	n/a	-999	23	[-999, -999, -999]	n/a	FR1	2	R1338T
2506.034	0.576	2507946	DISTRACT_END	n/a	n/a	n/a	-999	23	[0, 0, 0]	n/a	FR1	2	R1338T
2506.61	1.724	2508522	RETRIEVAL_ORIENT_START	n/a	n/a	n/a	-999	23	[0, 0, 0]	n/a	FR1	2	R1338T
2508.334	0.001	2510246	RETRIEVAL_ORIENT_END	n/a	n/a	n/a	-999	23	[0, 0, 0]	n/a	FR1	2	R1338T
2508.335	14.341	2510247	REC_START	n/a	n/a	n/a	-999	23	[0, 0, 0]	n/a	FR1	2	R1338T
2522.676	15.671	2524587	REC_WORD_VV	15.671	n/a	<>	-999	23	[0, 0, 0]	n/a	FR1	2	R1338T
2538.347	0.0	2540257	REC_END	n/a	n/a	n/a	-999	23	[0, 0, 0]	n/a	FR1	2	R1338T
2538.347	0.016	2540257	TRIAL_END	n/a	n/a	n/a	-999	23	[0, 0, 0]	n/a	FR1	2	R1338T
2538.363	0.001	2540273	TRIAL_START	n/a	n/a	n/a	-999	24	[0, 0, 0]	n/a	FR1	2	R1338T
2538.364	0.0	2540274	TRIAL	n/a	n/a	n/a	-999	24	[0, 0, 0]	n/a	FR1	2	R1338T
2538.364	2.326	2540274	WAITING_START	n/a	n/a	n/a	-999	24	[0, 0, 0]	n/a	FR1	2	R1338T
2540.69	0.001	2542600	WAITING_END	n/a	n/a	n/a	-999	24	[0, 0, 0]	n/a	FR1	2	R1338T
2540.691	10.429	2542601	COUNTDOWN_START	n/a	n/a	n/a	-999	24	[0, 0, 0]	n/a	FR1	2	R1338T
2551.12	0.0	2553030	COUNTDOWN_END	n/a	n/a	n/a	-999	24	[0, 0, 0]	n/a	FR1	2	R1338T
2551.12	1.206	2553030	ORIENT_START	n/a	n/a	n/a	-999	24	[0, 0, 0]	n/a	FR1	2	R1338T
2552.326	0.0	2554236	ORIENT_END	n/a	n/a	n/a	-999	24	[0, 0, 0]	n/a	FR1	2	R1338T
2552.326	0.845	2554236	ENCODING_START	n/a	n/a	n/a	-999	24	[0, 0, 0]	n/a	FR1	2	R1338T
2553.171	1.622	2555081	WORD	n/a	wordpools/wordpool_EN.txt	WAVE	1	24	[0, 0, 0]	n/a	FR1	2	R1338T
2554.793	0.936	2556703	WORD_OFF	n/a	n/a	WAVE	1	24	[0, 0, 0]	n/a	FR1	2	R1338T
2555.729	1.631	2557639	WORD	n/a	wordpools/wordpool_EN.txt	TOOL	2	24	[0, 0, 0]	n/a	FR1	2	R1338T
2557.36	1.111	2559270	WORD_OFF	n/a	n/a	TOOL	2	24	[0, 0, 0]	n/a	FR1	2	R1338T
2558.471	1.623	2560380	WORD	n/a	wordpools/wordpool_EN.txt	JAR	3	24	[0, 0, 0]	n/a	FR1	2	R1338T
2560.094	1.142	2562003	WORD_OFF	n/a	n/a	JAR	3	24	[0, 0, 0]	n/a	FR1	2	R1338T
2561.236	1.625	2563145	WORD	n/a	wordpools/wordpool_EN.txt	SPARK	4	24	[0, 0, 0]	n/a	FR1	2	R1338T
2562.861	0.79	2564770	WORD_OFF	n/a	n/a	SPARK	4	24	[0, 0, 0]	n/a	FR1	2	R1338T
2563.651	1.627	2565560	WORD	n/a	wordpools/wordpool_EN.txt	PEARL	5	24	[0, 0, 0]	n/a	FR1	2	R1338T
2565.278	1.115	2567187	WORD_OFF	n/a	n/a	PEARL	5	24	[0, 0, 0]	n/a	FR1	2	R1338T
2566.393	1.635	2568302	WORD	n/a	wordpools/wordpool_EN.txt	BAG	6	24	[0, 0, 0]	n/a	FR1	2	R1338T
2568.028	0.756	2569937	WORD_OFF	n/a	n/a	BAG	6	24	[0, 0, 0]	n/a	FR1	2	R1338T
2568.784	1.628	2570693	WORD	n/a	wordpools/wordpool_EN.txt	SOAP	7	24	[0, 0, 0]	n/a	FR1	2	R1338T
2570.412	0.989	2572321	WORD_OFF	n/a	n/a	SOAP	7	24	[0, 0, 0]	n/a	FR1	2	R1338T
2571.401	1.628	2573310	WORD	n/a	wordpools/wordpool_EN.txt	BUSH	8	24	[0, 0, 0]	n/a	FR1	2	R1338T
2573.029	0.962	2574938	WORD_OFF	n/a	n/a	BUSH	8	24	[0, 0, 0]	n/a	FR1	2	R1338T
2573.991	1.622	2575900	WORD	n/a	wordpools/wordpool_EN.txt	CAPE	9	24	[0, 0, 0]	n/a	FR1	2	R1338T
2575.613	0.987	2577522	WORD_OFF	n/a	n/a	CAPE	9	24	[0, 0, 0]	n/a	FR1	2	R1338T
2576.6	1.63	2578509	WORD	n/a	wordpools/wordpool_EN.txt	GRASS	10	24	[0, 0, 0]	n/a	FR1	2	R1338T
2578.23	0.879	2580139	WORD_OFF	n/a	n/a	GRASS	10	24	[0, 0, 0]	n/a	FR1	2	R1338T
2579.109	1.622	2581018	WORD	n/a	wordpools/wordpool_EN.txt	TEETH	11	24	[0, 0, 0]	n/a	FR1	2	R1338T
2580.731	0.808	2582639	WORD_OFF	n/a	n/a	TEETH	11	24	[0, 0, 0]	n/a	FR1	2	R1338T
2581.539	1.626	2583447	WORD	n/a	wordpools/wordpool_EN.txt	STAIR	12	24	[0, 0, 0]	n/a	FR1	2	R1338T
2583.165	0.0	2585073	WORD_OFF	n/a	n/a	STAIR	12	24	[0, 0, 0]	n/a	FR1	2	R1338T
2583.165	0.0	2585073	ENCODING_END	n/a	n/a	n/a	-999	24	[0, 0, 0]	n/a	FR1	2	R1338T
2583.165	0.0	2585073	DISTRACT_START	n/a	n/a	n/a	-999	24	[0, 0, 0]	n/a	FR1	2	R1338T
2583.165	0.016	2585073	START	n/a	n/a	n/a	-999	24	[-999, -999, -999]	n/a	FR1	2	R1338T
2583.181	8.235	2585089	PROB	8.235	n/a	n/a	-999	24	[4, 1, 7]	417	FR1	2	R1338T
2591.416	5.701	2593324	PROB	5.701	n/a	n/a	-999	24	[8, 4, 5]	845	FR1	2	R1338T
2597.117	6.353	2599025	PROB	6.353	n/a	n/a	-999	24	[9, 6, 8]	968	FR1	2	R1338T
2603.47	0.015	2605377	STOP	n/a	n/a	n/a	-999	24	[-999, -999, -999]	n/a	FR1	2	R1338T
2603.485	0.636	2605392	DISTRACT_END	n/a	n/a	n/a	-999	24	[0, 0, 0]	n/a	FR1	2	R1338T
2604.121	1.664	2606028	RETRIEVAL_ORIENT_START	n/a	n/a	n/a	-999	24	[0, 0, 0]	n/a	FR1	2	R1338T
2605.785	0.001	2607692	RETRIEVAL_ORIENT_END	n/a	n/a	n/a	-999	24	[0, 0, 0]	n/a	FR1	2	R1338T
2605.786	2.006	2607693	REC_START	n/a	n/a	n/a	-999	24	[0, 0, 0]	n/a	FR1	2	R1338T
2607.792	28.005	2609699	REC_WORD	28.005	n/a	TEETH	11	24	[0, 0, 0]	n/a	FR1	2	R1338T
2635.797	0.0	2637703	REC_END	n/a	n/a	n/a	-999	24	[0, 0, 0]	n/a	FR1	2	R1338T
2635.797	0.015	2637703	TRIAL_END	n/a	n/a	n/a	-999	24	[0, 0, 0]	n/a	FR1	2	R1338T
2635.812	0.0	2637718	TRIAL_START	n/a	n/a	n/a	-999	25	[0, 0, 0]	n/a	FR1	2	R1338T
2635.812	0.0	2637718	TRIAL	n/a	n/a	n/a	-999	25	[0, 0, 0]	n/a	FR1	2	R1338T
2635.812	2.313	2637718	WAITING_START	n/a	n/a	n/a	-999	25	[0, 0, 0]	n/a	FR1	2	R1338T
2638.125	0.0	2640031	WAITING_END	n/a	n/a	n/a	-999	25	[0, 0, 0]	n/a	FR1	2	R1338T
2638.125	10.429	2640031	COUNTDOWN_START	n/a	n/a	n/a	-999	25	[0, 0, 0]	n/a	FR1	2	R1338T
2648.554	0.0	2650459	COUNTDOWN_END	n/a	n/a	n/a	-999	25	[0, 0, 0]	n/a	FR1	2	R1338T
2648.554	1.04	2650459	ORIENT_START	n/a	n/a	n/a	-999	25	[0, 0, 0]	n/a	FR1	2	R1338T
2649.594	0.001	2651499	ORIENT_END	n/a	n/a	n/a	-999	25	[0, 0, 0]	n/a	FR1	2	R1338T
2649.595	1.103	2651500	ENCODING_START	n/a	n/a	n/a	-999	25	[0, 0, 0]	n/a	FR1	2	R1338T
2650.698	1.629	2652603	WORD	n/a	wordpools/wordpool_EN.txt	CRANE	1	25	[0, 0, 0]	n/a	FR1	2	R1338T
2652.327	1.149	2654232	WORD_OFF	n/a	n/a	CRANE	1	25	[0, 0, 0]	n/a	FR1	2	R1338T
2653.476	1.635	2655381	WORD	n/a	wordpools/wordpool_EN.txt	FLUTE	2	25	[0, 0, 0]	n/a	FR1	2	R1338T
2655.111	1.095	2657016	WORD_OFF	n/a	n/a	FLUTE	2	25	[0, 0, 0]	n/a	FR1	2	R1338T
2656.206	1.622	2658111	WORD	n/a	wordpools/wordpool_EN.txt	CUP	3	25	[0, 0, 0]	n/a	FR1	2	R1338T
2657.828	1.144	2659733	WORD_OFF	n/a	n/a	CUP	3	25	[0, 0, 0]	n/a	FR1	2	R1338T
