onset	duration	sample	trial_type	response_time	stim_file	item_name	serialpos	list	test	answer	experiment	session	subject
0.0	0.0	1167067	INSTRUCT_START	n/a	n/a	n/a	-999	-999	[0, 0, 0]	n/a	FR1	0	R1196N
0.0	11.055	1167067	INSTRUCT_END	n/a	n/a	n/a	-999	-999	[0, 0, 0]	n/a	FR1	0	R1196N
11.055	0.0	1178121	SESS_START	n/a	n/a	n/a	-999	-999	[0, 0, 0]	n/a	FR1	0	R1196N
11.055	209.561	1178121	MIC_TEST	n/a	n/a	n/a	-999	-999	[0, 0, 0]	n/a	FR1	0	R1196N
220.616	3.955	1387674	PRACTICE_TRIAL	n/a	n/a	n/a	-999	-1	[0, 0, 0]	n/a	FR1	0	R1196N
224.571	10.428	1391629	COUNTDOWN_START	n/a	n/a	n/a	-999	-1	[0, 0, 0]	n/a	FR1	0	R1196N
234.999	0.007	1402056	COUNTDOWN_END	n/a	n/a	n/a	-999	-1	[0, 0, 0]	n/a	FR1	0	R1196N
235.006	1.617	1402063	PRACTICE_ORIENT	n/a	n/a	n/a	-999	-1	[0, 0, 0]	n/a	FR1	0	R1196N
236.623	2.033	1403680	PRACTICE_ORIENT_OFF	n/a	n/a	n/a	-999	-1	[0, 0, 0]	n/a	FR1	0	R1196N
238.656	1.616	1405713	PRACTICE_WORD	n/a	n/a	CHEST	1	-1	[0, 0, 0]	n/a	FR1	0	R1196N
240.272	0.802	1407329	PRACTICE_WORD_OFF	n/a	n/a	CHEST	-999	-1	[0, 0, 0]	n/a	FR1	0	R1196N
241.074	1.617	1408131	PRACTICE_WORD	n/a	n/a	FLOOD	2	-1	[0, 0, 0]	n/a	FR1	0	R1196N
242.691	0.8	1409748	PRACTICE_WORD_OFF	n/a	n/a	FLOOD	-999	-1	[0, 0, 0]	n/a	FR1	0	R1196N
243.491	1.616	1410548	PRACTICE_WORD	n/a	n/a	RHINO	3	-1	[0, 0, 0]	n/a	FR1	0	R1196N
245.107	0.884	1412164	PRACTICE_WORD_OFF	n/a	n/a	RHINO	-999	-1	[0, 0, 0]	n/a	FR1	0	R1196N
245.991	1.617	1413048	PRACTICE_WORD	n/a	n/a	ATTIC	4	-1	[0, 0, 0]	n/a	FR1	0	R1196N
247.608	0.9	1414665	PRACTICE_WORD_OFF	n/a	n/a	ATTIC	-999	-1	[0, 0, 0]	n/a	FR1	0	R1196N
248.508	1.616	1415565	PRACTICE_WORD	n/a	n/a	BEAM	5	-1	[0, 0, 0]	n/a	FR1	0	R1196N
250.124	0.918	1417181	PRACTICE_WORD_OFF	n/a	n/a	BEAM	-999	-1	[0, 0, 0]	n/a	FR1	0	R1196N
251.042	1.617	1418099	PRACTICE_WORD	n/a	n/a	WAGON	6	-1	[0, 0, 0]	n/a	FR1	0	R1196N
252.659	0.883	1419716	PRACTICE_WORD_OFF	n/a	n/a	WAGON	-999	-1	[0, 0, 0]	n/a	FR1	0	R1196N
253.542	1.616	1420599	PRACTICE_WORD	n/a	n/a	WATCH	7	-1	[0, 0, 0]	n/a	FR1	0	R1196N
255.158	0.801	1422214	PRACTICE_WORD_OFF	n/a	n/a	WATCH	-999	-1	[0, 0, 0]	n/a	FR1	0	R1196N
255.959	1.617	1423015	PRACTICE_WORD	n/a	n/a	COTTON	8	-1	[0, 0, 0]	n/a	FR1	0	R1196N
257.576	0.783	1424632	PRACTICE_WORD_OFF	n/a	n/a	COTTON	-999	-1	[0, 0, 0]	n/a	FR1	0	R1196N
258.359	1.618	1425415	PRACTICE_WORD	n/a	n/a	RING	9	-1	[0, 0, 0]	n/a	FR1	0	R1196N
259.977	0.917	1427033	PRACTICE_WORD_OFF	n/a	n/a	RING	-999	-1	[0, 0, 0]	n/a	FR1	0	R1196N
260.894	1.617	1427950	PRACTICE_WORD	n/a	n/a	IRON	10	-1	[0, 0, 0]	n/a	FR1	0	R1196N
262.511	0.882	1429567	PRACTICE_WORD_OFF	n/a	n/a	IRON	-999	-1	[0, 0, 0]	n/a	FR1	0	R1196N
263.393	1.618	1430449	PRACTICE_WORD	n/a	n/a	TONGUE	11	-1	[0, 0, 0]	n/a	FR1	0	R1196N
265.011	0.9	1432067	PRACTICE_WORD_OFF	n/a	n/a	TONGUE	-999	-1	[0, 0, 0]	n/a	FR1	0	R1196N
265.911	1.617	1432967	PRACTICE_WORD	n/a	n/a	CAMEL	12	-1	[0, 0, 0]	n/a	FR1	0	R1196N
267.528	0.0	1434584	PRACTICE_WORD_OFF	n/a	n/a	CAMEL	-999	-1	[0, 0, 0]	n/a	FR1	0	R1196N
267.528	0.0	1434584	DISTRACT_START	n/a	n/a	n/a	-999	-1	[0, 0, 0]	n/a	FR1	0	R1196N
267.528	0.017	1434584	START	n/a	n/a	n/a	-999	-1	[-999, -999, -999]	n/a	FR1	0	R1196N
267.545	3.917	1434601	PROB	3.917	n/a	n/a	-999	-1	[4, 2, 2]	8	FR1	0	R1196N
271.462	4.883	1438518	PROB	4.883	n/a	n/a	-999	-1	[2, 5, 3]	10	FR1	0	R1196N
276.345	4.084	1443401	PROB	4.084	n/a	n/a	-999	-1	[3, 6, 3]	12	FR1	0	R1196N
280.429	4.352	1447484	PROB	4.352	n/a	n/a	-999	-1	[6, 6, 8]	20	FR1	0	R1196N
284.781	3.356	1451836	PROB	3.356	n/a	n/a	-999	-1	[2, 8, 5]	15	FR1	0	R1196N
288.137	0.01	1455192	STOP	n/a	n/a	n/a	-999	-1	[-999, -999, -999]	n/a	FR1	0	R1196N
288.147	0.618	1455202	DISTRACT_END	n/a	n/a	n/a	-999	-1	[0, 0, 0]	n/a	FR1	0	R1196N
288.765	0.519	1455820	RETRIEVAL_ORIENT	n/a	n/a	n/a	-999	-1	[0, 0, 0]	n/a	FR1	0	R1196N
289.284	30.007	1456339	PRACTICE_REC_START	n/a	n/a	n/a	-999	-1	[0, 0, 0]	n/a	FR1	0	R1196N
319.291	20.115	1486345	PRACTICE_REC_END	n/a	n/a	n/a	-999	-1	[0, 0, 0]	n/a	FR1	0	R1196N
339.406	0.5	1506459	TRIAL	n/a	n/a	n/a	-999	1	[0, 0, 0]	n/a	FR1	0	R1196N
339.906	10.428	1506959	COUNTDOWN_START	n/a	n/a	n/a	-999	1	[0, 0, 0]	n/a	FR1	0	R1196N
350.334	0.007	1517387	COUNTDOWN_END	n/a	n/a	n/a	-999	1	[0, 0, 0]	n/a	FR1	0	R1196N
350.341	1.601	1517394	ORIENT	n/a	n/a	n/a	-999	1	[0, 0, 0]	n/a	FR1	0	R1196N
351.942	2.084	1518995	ORIENT_OFF	n/a	n/a	n/a	-999	1	[0, 0, 0]	n/a	FR1	0	R1196N
354.026	1.617	1521078	WORD	n/a	wordpools/wordpool_EN.txt	DEER	1	1	[0, 0, 0]	n/a	FR1	0	R1196N
355.643	0.799	1522695	WORD_OFF	n/a	n/a	DEER	1	1	[0, 0, 0]	n/a	FR1	0	R1196N
356.442	1.618	1523494	WORD	n/a	wordpools/wordpool_EN.txt	OAK	2	1	[0, 0, 0]	n/a	FR1	0	R1196N
358.06	0.8	1525112	WORD_OFF	n/a	n/a	OAK	2	1	[0, 0, 0]	n/a	FR1	0	R1196N
358.86	1.617	1525912	WORD	n/a	wordpools/wordpool_EN.txt	PET	3	1	[0, 0, 0]	n/a	FR1	0	R1196N
360.477	0.782	1527529	WORD_OFF	n/a	n/a	PET	3	1	[0, 0, 0]	n/a	FR1	0	R1196N
361.259	1.602	1528311	WORD	n/a	wordpools/wordpool_EN.txt	OWL	4	1	[0, 0, 0]	n/a	FR1	0	R1196N
362.861	0.967	1529913	WORD_OFF	n/a	n/a	OWL	4	1	[0, 0, 0]	n/a	FR1	0	R1196N
363.828	1.616	1530880	WORD	n/a	wordpools/wordpool_EN.txt	FENCE	5	1	[0, 0, 0]	n/a	FR1	0	R1196N
365.444	0.816	1532496	WORD_OFF	n/a	n/a	FENCE	5	1	[0, 0, 0]	n/a	FR1	0	R1196N
366.26	1.618	1533312	WORD	n/a	wordpools/wordpool_EN.txt	FLEA	6	1	[0, 0, 0]	n/a	FR1	0	R1196N
367.878	0.9	1534930	WORD_OFF	n/a	n/a	FLEA	6	1	[0, 0, 0]	n/a	FR1	0	R1196N
368.778	1.616	1535830	WORD	n/a	wordpools/wordpool_EN.txt	STORM	7	1	[0, 0, 0]	n/a	FR1	0	R1196N
370.394	0.884	1537446	WORD_OFF	n/a	n/a	STORM	7	1	[0, 0, 0]	n/a	FR1	0	R1196N
371.278	1.618	1538330	WORD	n/a	wordpools/wordpool_EN.txt	OAR	8	1	[0, 0, 0]	n/a	FR1	0	R1196N
372.896	1.0	1539948	WORD_OFF	n/a	n/a	OAR	8	1	[0, 0, 0]	n/a	FR1	0	R1196N
373.896	1.617	1540948	WORD	n/a	wordpools/wordpool_EN.txt	LAWN	9	1	[0, 0, 0]	n/a	FR1	0	R1196N
375.513	0.932	1542565	WORD_OFF	n/a	n/a	LAWN	9	1	[0, 0, 0]	n/a	FR1	0	R1196N
376.445	1.601	1543497	WORD	n/a	wordpools/wordpool_EN.txt	PIG	10	1	[0, 0, 0]	n/a	FR1	0	R1196N
378.046	0.801	1545098	WORD_OFF	n/a	n/a	PIG	10	1	[0, 0, 0]	n/a	FR1	0	R1196N
378.847	1.617	1545898	WORD	n/a	wordpools/wordpool_EN.txt	PARK	11	1	[0, 0, 0]	n/a	FR1	0	R1196N
380.464	0.899	1547515	WORD_OFF	n/a	n/a	PARK	11	1	[0, 0, 0]	n/a	FR1	0	R1196N
381.363	1.618	1548414	WORD	n/a	wordpools/wordpool_EN.txt	SKY	12	1	[0, 0, 0]	n/a	FR1	0	R1196N
382.981	0.0	1550032	WORD_OFF	n/a	n/a	SKY	12	1	[0, 0, 0]	n/a	FR1	0	R1196N
382.981	0.0	1550032	DISTRACT_START	n/a	n/a	n/a	-999	1	[0, 0, 0]	n/a	FR1	0	R1196N
382.981	0.017	1550032	START	n/a	n/a	n/a	-999	1	[-999, -999, -999]	n/a	FR1	0	R1196N
382.998	11.317	1550049	PROB	11.317	n/a	n/a	-999	1	[9, 7, 9]	25	FR1	0	R1196N
394.315	5.202	1561366	PROB	5.202	n/a	n/a	-999	1	[7, 4, 3]	14	FR1	0	R1196N
399.517	5.301	1566568	PROB	5.301	n/a	n/a	-999	1	[3, 6, 8]	17	FR1	0	R1196N
404.818	0.017	1571868	STOP	n/a	n/a	n/a	-999	1	[-999, -999, -999]	n/a	FR1	0	R1196N
404.835	0.666	1571885	DISTRACT_END	n/a	n/a	n/a	-999	1	[0, 0, 0]	n/a	FR1	0	R1196N
405.501	0.517	1572551	RETRIEVAL_ORIENT	n/a	n/a	n/a	-999	1	[0, 0, 0]	n/a	FR1	0	R1196N
406.018	5.235	1573068	REC_START	n/a	n/a	n/a	-999	1	[0, 0, 0]	n/a	FR1	0	R1196N
411.253	1.035	1578303	REC_WORD	1.035	n/a	PARK	11	1	[0, 0, 0]	n/a	FR1	0	R1196N
412.288	1.311	1579338	REC_WORD	1.311	n/a	PIG	10	1	[0, 0, 0]	n/a	FR1	0	R1196N
413.599	1.483	1580649	REC_WORD	1.483	n/a	SKY	12	1	[0, 0, 0]	n/a	FR1	0	R1196N
415.082	1.342	1582132	REC_WORD	1.342	n/a	OAR	8	1	[0, 0, 0]	n/a	FR1	0	R1196N
416.424	19.613	1583474	REC_WORD	19.613	n/a	LAWN	9	1	[0, 0, 0]	n/a	FR1	0	R1196N
436.037	6.286	1603086	REC_END	n/a	n/a	n/a	-999	1	[0, 0, 0]	n/a	FR1	0	R1196N
442.323	0.5	1609372	TRIAL	n/a	n/a	n/a	-999	2	[0, 0, 0]	n/a	FR1	0	R1196N
442.823	10.428	1609872	COUNTDOWN_START	n/a	n/a	n/a	-999	2	[0, 0, 0]	n/a	FR1	0	R1196N
453.251	0.007	1620299	COUNTDOWN_END	n/a	n/a	n/a	-999	2	[0, 0, 0]	n/a	FR1	0	R1196N
453.258	1.618	1620306	ORIENT	n/a	n/a	n/a	-999	2	[0, 0, 0]	n/a	FR1	0	R1196N
454.876	2.134	1621924	ORIENT_OFF	n/a	n/a	n/a	-999	2	[0, 0, 0]	n/a	FR1	0	R1196N
457.01	1.617	1624058	WORD	n/a	wordpools/wordpool_EN.txt	TOOTH	1	2	[0, 0, 0]	n/a	FR1	0	R1196N
458.627	0.883	1625675	WORD_OFF	n/a	n/a	TOOTH	1	2	[0, 0, 0]	n/a	FR1	0	R1196N
459.51	1.616	1626558	WORD	n/a	wordpools/wordpool_EN.txt	SHEEP	2	2	[0, 0, 0]	n/a	FR1	0	R1196N
461.126	0.918	1628174	WORD_OFF	n/a	n/a	SHEEP	2	2	[0, 0, 0]	n/a	FR1	0	R1196N
462.044	1.617	1629092	WORD	n/a	wordpools/wordpool_EN.txt	WALL	3	2	[0, 0, 0]	n/a	FR1	0	R1196N
463.661	0.867	1630709	WORD_OFF	n/a	n/a	WALL	3	2	[0, 0, 0]	n/a	FR1	0	R1196N
464.528	1.616	1631576	WORD	n/a	wordpools/wordpool_EN.txt	COW	4	2	[0, 0, 0]	n/a	FR1	0	R1196N
466.144	0.768	1633192	WORD_OFF	n/a	n/a	COW	4	2	[0, 0, 0]	n/a	FR1	0	R1196N
466.912	1.617	1633960	WORD	n/a	wordpools/wordpool_EN.txt	SHIP	5	2	[0, 0, 0]	n/a	FR1	0	R1196N
468.529	0.933	1635577	WORD_OFF	n/a	n/a	SHIP	5	2	[0, 0, 0]	n/a	FR1	0	R1196N
469.462	1.617	1636510	WORD	n/a	wordpools/wordpool_EN.txt	WORLD	6	2	[0, 0, 0]	n/a	FR1	0	R1196N
471.079	0.817	1638127	WORD_OFF	n/a	n/a	WORLD	6	2	[0, 0, 0]	n/a	FR1	0	R1196N
471.896	1.617	1638944	WORD	n/a	wordpools/wordpool_EN.txt	CROWN	7	2	[0, 0, 0]	n/a	FR1	0	R1196N
473.513	0.932	1640561	WORD_OFF	n/a	n/a	CROWN	7	2	[0, 0, 0]	n/a	FR1	0	R1196N
474.445	1.601	1641493	WORD	n/a	wordpools/wordpool_EN.txt	TRASH	8	2	[0, 0, 0]	n/a	FR1	0	R1196N
476.046	0.767	1643094	WORD_OFF	n/a	n/a	TRASH	8	2	[0, 0, 0]	n/a	FR1	0	R1196N
476.813	1.616	1643861	WORD	n/a	wordpools/wordpool_EN.txt	GOLD	9	2	[0, 0, 0]	n/a	FR1	0	R1196N
478.429	0.917	1645476	WORD_OFF	n/a	n/a	GOLD	9	2	[0, 0, 0]	n/a	FR1	0	R1196N
479.346	1.618	1646393	WORD	n/a	wordpools/wordpool_EN.txt	FORT	10	2	[0, 0, 0]	n/a	FR1	0	R1196N
480.964	0.917	1648011	WORD_OFF	n/a	n/a	FORT	10	2	[0, 0, 0]	n/a	FR1	0	R1196N
481.881	1.617	1648928	WORD	n/a	wordpools/wordpool_EN.txt	NAIL	11	2	[0, 0, 0]	n/a	FR1	0	R1196N
483.498	0.983	1650545	WORD_OFF	n/a	n/a	NAIL	11	2	[0, 0, 0]	n/a	FR1	0	R1196N
484.481	1.617	1651528	WORD	n/a	wordpools/wordpool_EN.txt	PRINCE	12	2	[0, 0, 0]	n/a	FR1	0	R1196N
486.098	0.0	1653145	WORD_OFF	n/a	n/a	PRINCE	12	2	[0, 0, 0]	n/a	FR1	0	R1196N
486.098	0.001	1653145	DISTRACT_START	n/a	n/a	n/a	-999	2	[0, 0, 0]	n/a	FR1	0	R1196N
486.099	0.015	1653146	START	n/a	n/a	n/a	-999	2	[-999, -999, -999]	n/a	FR1	0	R1196N
486.114	4.1	1653161	PROB	4.1	n/a	n/a	-999	2	[8, 3, 6]	17	FR1	0	R1196N
490.214	2.802	1657261	PROB	2.802	n/a	n/a	-999	2	[6, 4, 5]	15	FR1	0	R1196N
493.016	8.918	1660063	PROB	8.918	n/a	n/a	-999	2	[3, 4, 7]	14	FR1	0	R1196N
501.934	4.916	1668981	PROB	4.916	n/a	n/a	-999	2	[6, 9, 3]	18	FR1	0	R1196N
506.85	0.018	1673896	STOP	n/a	n/a	n/a	-999	2	[-999, -999, -999]	n/a	FR1	0	R1196N
506.868	0.584	1673914	DISTRACT_END	n/a	n/a	n/a	-999	2	[0, 0, 0]	n/a	FR1	0	R1196N
507.452	0.517	1674498	RETRIEVAL_ORIENT	n/a	n/a	n/a	-999	2	[0, 0, 0]	n/a	FR1	0	R1196N
507.969	2.251	1675015	REC_START	n/a	n/a	n/a	-999	2	[0, 0, 0]	n/a	FR1	0	R1196N
510.22	3.034	1677266	REC_WORD	3.034	n/a	PRINCE	12	2	[0, 0, 0]	n/a	FR1	0	R1196N
513.254	10.692	1680300	REC_WORD_VV	10.692	n/a	<>	-999	2	[0, 0, 0]	n/a	FR1	0	R1196N
523.946	0.798	1690992	REC_WORD	0.798	n/a	WALL	3	2	[0, 0, 0]	n/a	FR1	0	R1196N
524.744	0.875	1691790	REC_WORD	0.875	n/a	FORT	10	2	[0, 0, 0]	n/a	FR1	0	R1196N
525.619	9.163	1692665	REC_WORD	9.163	n/a	GOLD	9	2	[0, 0, 0]	n/a	FR1	0	R1196N
534.782	0.754	1701827	REC_WORD	0.754	n/a	SHEEP	2	2	[0, 0, 0]	n/a	FR1	0	R1196N
535.536	2.443	1702581	REC_WORD	2.443	n/a	TOOTH	1	2	[0, 0, 0]	n/a	FR1	0	R1196N
537.979	6.295	1705024	REC_END	n/a	n/a	n/a	-999	2	[0, 0, 0]	n/a	FR1	0	R1196N
544.274	0.5	1711319	TRIAL	n/a	n/a	n/a	-999	3	[0, 0, 0]	n/a	FR1	0	R1196N
544.774	10.428	1711819	COUNTDOWN_START	n/a	n/a	n/a	-999	3	[0, 0, 0]	n/a	FR1	0	R1196N
555.202	0.007	1722246	COUNTDOWN_END	n/a	n/a	n/a	-999	3	[0, 0, 0]	n/a	FR1	0	R1196N
555.209	1.618	1722253	ORIENT	n/a	n/a	n/a	-999	3	[0, 0, 0]	n/a	FR1	0	R1196N
556.827	2.167	1723871	ORIENT_OFF	n/a	n/a	n/a	-999	3	[0, 0, 0]	n/a	FR1	0	R1196N
558.994	1.617	1726038	WORD	n/a	wordpools/wordpool_EN.txt	BEAR	1	3	[0, 0, 0]	n/a	FR1	0	R1196N
560.611	0.933	1727655	WORD_OFF	n/a	n/a	BEAR	1	3	[0, 0, 0]	n/a	FR1	0	R1196N
561.544	1.616	1728588	WORD	n/a	wordpools/wordpool_EN.txt	CLOWN	2	3	[0, 0, 0]	n/a	FR1	0	R1196N
563.16	0.901	1730204	WORD_OFF	n/a	n/a	CLOWN	2	3	[0, 0, 0]	n/a	FR1	0	R1196N
564.061	1.617	1731105	WORD	n/a	wordpools/wordpool_EN.txt	PANTS	3	3	[0, 0, 0]	n/a	FR1	0	R1196N
565.678	1.0	1732722	WORD_OFF	n/a	n/a	PANTS	3	3	[0, 0, 0]	n/a	FR1	0	R1196N
566.678	1.616	1733722	WORD	n/a	wordpools/wordpool_EN.txt	FUR	4	3	[0, 0, 0]	n/a	FR1	0	R1196N
568.294	0.85	1735338	WORD_OFF	n/a	n/a	FUR	4	3	[0, 0, 0]	n/a	FR1	0	R1196N
569.144	1.618	1736188	WORD	n/a	wordpools/wordpool_EN.txt	DOOR	5	3	[0, 0, 0]	n/a	FR1	0	R1196N
570.762	0.834	1737806	WORD_OFF	n/a	n/a	DOOR	5	3	[0, 0, 0]	n/a	FR1	0	R1196N
571.596	1.616	1738640	WORD	n/a	wordpools/wordpool_EN.txt	SAIL	6	3	[0, 0, 0]	n/a	FR1	0	R1196N
573.212	0.817	1740256	WORD_OFF	n/a	n/a	SAIL	6	3	[0, 0, 0]	n/a	FR1	0	R1196N
574.029	1.617	1741073	WORD	n/a	wordpools/wordpool_EN.txt	WHALE	7	3	[0, 0, 0]	n/a	FR1	0	R1196N
575.646	1.001	1742690	WORD_OFF	n/a	n/a	WHALE	7	3	[0, 0, 0]	n/a	FR1	0	R1196N
576.647	1.616	1743691	WORD	n/a	wordpools/wordpool_EN.txt	SKI	8	3	[0, 0, 0]	n/a	FR1	0	R1196N
578.263	0.784	1745306	WORD_OFF	n/a	n/a	SKI	8	3	[0, 0, 0]	n/a	FR1	0	R1196N
579.047	1.617	1746090	WORD	n/a	wordpools/wordpool_EN.txt	WOLF	9	3	[0, 0, 0]	n/a	FR1	0	R1196N
580.664	0.967	1747707	WORD_OFF	n/a	n/a	WOLF	9	3	[0, 0, 0]	n/a	FR1	0	R1196N
581.631	1.616	1748674	WORD	n/a	wordpools/wordpool_EN.txt	GEESE	10	3	[0, 0, 0]	n/a	FR1	0	R1196N
583.247	0.983	1750290	WORD_OFF	n/a	n/a	GEESE	10	3	[0, 0, 0]	n/a	FR1	0	R1196N
584.23	1.618	1751273	WORD	n/a	wordpools/wordpool_EN.txt	RUG	11	3	[0, 0, 0]	n/a	FR1	0	R1196N
585.848	0.85	1752891	WORD_OFF	n/a	n/a	RUG	11	3	[0, 0, 0]	n/a	FR1	0	R1196N
586.698	1.616	1753741	WORD	n/a	wordpools/wordpool_EN.txt	DOCK	12	3	[0, 0, 0]	n/a	FR1	0	R1196N
588.314	0.0	1755357	WORD_OFF	n/a	n/a	DOCK	12	3	[0, 0, 0]	n/a	FR1	0	R1196N
588.314	0.001	1755357	DISTRACT_START	n/a	n/a	n/a	-999	3	[0, 0, 0]	n/a	FR1	0	R1196N
588.315	0.016	1755358	START	n/a	n/a	n/a	-999	3	[-999, -999, -999]	n/a	FR1	0	R1196N
588.331	7.085	1755374	PROB	7.085	n/a	n/a	-999	3	[6, 8, 8]	22	FR1	0	R1196N
595.416	4.551	1762459	PROB	4.551	n/a	n/a	-999	3	[9, 4, 8]	21	FR1	0	R1196N
599.967	5.3	1767010	PROB	5.3	n/a	n/a	-999	3	[5, 9, 3]	17	FR1	0	R1196N
605.267	4.577	1772309	PROB	4.577	n/a	n/a	-999	3	[8, 7, 4]	19	FR1	0	R1196N
609.844	0.008	1776886	STOP	n/a	n/a	n/a	-999	3	[-999, -999, -999]	n/a	FR1	0	R1196N
609.852	0.7	1776894	DISTRACT_END	n/a	n/a	n/a	-999	3	[0, 0, 0]	n/a	FR1	0	R1196N
610.552	0.518	1777594	RETRIEVAL_ORIENT	n/a	n/a	n/a	-999	3	[0, 0, 0]	n/a	FR1	0	R1196N
611.07	1.328	1778112	REC_START	n/a	n/a	n/a	-999	3	[0, 0, 0]	n/a	FR1	0	R1196N
612.398	0.554	1779440	REC_WORD	0.554	n/a	WHALE	7	3	[0, 0, 0]	n/a	FR1	0	R1196N
612.952	1.431	1779994	REC_WORD	1.431	n/a	SAIL	6	3	[0, 0, 0]	n/a	FR1	0	R1196N
614.383	4.223	1781425	REC_WORD	4.223	n/a	SKI	8	3	[0, 0, 0]	n/a	FR1	0	R1196N
618.606	3.019	1785648	REC_WORD	3.019	n/a	FUR	4	3	[0, 0, 0]	n/a	FR1	0	R1196N
621.625	1.067	1788667	REC_WORD	1.067	n/a	BEAR	1	3	[0, 0, 0]	n/a	FR1	0	R1196N
622.692	2.619	1789734	REC_WORD	2.619	n/a	CLOWN	2	3	[0, 0, 0]	n/a	FR1	0	R1196N
625.311	15.156	1792353	REC_WORD	15.156	n/a	DOCK	12	3	[0, 0, 0]	n/a	FR1	0	R1196N
640.467	0.613	1807508	REC_WORD	0.613	n/a	PANTS	3	3	[0, 0, 0]	n/a	FR1	0	R1196N
641.08	6.945	1808121	REC_END	n/a	n/a	n/a	-999	3	[0, 0, 0]	n/a	FR1	0	R1196N
648.025	0.5	1815066	TRIAL	n/a	n/a	n/a	-999	4	[0, 0, 0]	n/a	FR1	0	R1196N
648.525	10.428	1815566	COUNTDOWN_START	n/a	n/a	n/a	-999	4	[0, 0, 0]	n/a	FR1	0	R1196N
658.953	0.008	1825993	COUNTDOWN_END	n/a	n/a	n/a	-999	4	[0, 0, 0]	n/a	FR1	0	R1196N
658.961	1.616	1826001	ORIENT	n/a	n/a	n/a	-999	4	[0, 0, 0]	n/a	FR1	0	R1196N
660.577	2.067	1827617	ORIENT_OFF	n/a	n/a	n/a	-999	4	[0, 0, 0]	n/a	FR1	0	R1196N
662.644	1.616	1829684	WORD	n/a	wordpools/wordpool_EN.txt	MAP	1	4	[0, 0, 0]	n/a	FR1	0	R1196N
664.26	0.818	1831300	WORD_OFF	n/a	n/a	MAP	1	4	[0, 0, 0]	n/a	FR1	0	R1196N
665.078	1.617	1832118	WORD	n/a	wordpools/wordpool_EN.txt	POLE	2	4	[0, 0, 0]	n/a	FR1	0	R1196N
666.695	0.884	1833735	WORD_OFF	n/a	n/a	POLE	2	4	[0, 0, 0]	n/a	FR1	0	R1196N
667.579	1.616	1834619	WORD	n/a	wordpools/wordpool_EN.txt	MAIL	3	4	[0, 0, 0]	n/a	FR1	0	R1196N
669.195	0.851	1836235	WORD_OFF	n/a	n/a	MAIL	3	4	[0, 0, 0]	n/a	FR1	0	R1196N
670.046	1.617	1837086	WORD	n/a	wordpools/wordpool_EN.txt	MOON	4	4	[0, 0, 0]	n/a	FR1	0	R1196N
671.663	0.765	1838703	WORD_OFF	n/a	n/a	MOON	4	4	[0, 0, 0]	n/a	FR1	0	R1196N
672.428	1.602	1839468	WORD	n/a	wordpools/wordpool_EN.txt	BALL	5	4	[0, 0, 0]	n/a	FR1	0	R1196N
674.03	0.8	1841070	WORD_OFF	n/a	n/a	BALL	5	4	[0, 0, 0]	n/a	FR1	0	R1196N
674.83	1.617	1841870	WORD	n/a	wordpools/wordpool_EN.txt	HOOF	6	4	[0, 0, 0]	n/a	FR1	0	R1196N
676.447	0.932	1843487	WORD_OFF	n/a	n/a	HOOF	6	4	[0, 0, 0]	n/a	FR1	0	R1196N
677.379	1.618	1844418	WORD	n/a	wordpools/wordpool_EN.txt	ROOT	7	4	[0, 0, 0]	n/a	FR1	0	R1196N
678.997	0.85	1846036	WORD_OFF	n/a	n/a	ROOT	7	4	[0, 0, 0]	n/a	FR1	0	R1196N
679.847	1.617	1846886	WORD	n/a	wordpools/wordpool_EN.txt	FILM	8	4	[0, 0, 0]	n/a	FR1	0	R1196N
681.464	0.766	1848503	WORD_OFF	n/a	n/a	FILM	8	4	[0, 0, 0]	n/a	FR1	0	R1196N
682.23	1.601	1849269	WORD	n/a	wordpools/wordpool_EN.txt	BANK	9	4	[0, 0, 0]	n/a	FR1	0	R1196N
683.831	0.867	1850870	WORD_OFF	n/a	n/a	BANK	9	4	[0, 0, 0]	n/a	FR1	0	R1196N
684.698	1.616	1851737	WORD	n/a	wordpools/wordpool_EN.txt	CASH	10	4	[0, 0, 0]	n/a	FR1	0	R1196N
686.314	0.967	1853353	WORD_OFF	n/a	n/a	CASH	10	4	[0, 0, 0]	n/a	FR1	0	R1196N
687.281	1.618	1854320	WORD	n/a	wordpools/wordpool_EN.txt	STAR	11	4	[0, 0, 0]	n/a	FR1	0	R1196N
688.899	0.817	1855938	WORD_OFF	n/a	n/a	STAR	11	4	[0, 0, 0]	n/a	FR1	0	R1196N
689.716	1.616	1856755	WORD	n/a	wordpools/wordpool_EN.txt	CORD	12	4	[0, 0, 0]	n/a	FR1	0	R1196N
691.332	0.0	1858371	WORD_OFF	n/a	n/a	CORD	12	4	[0, 0, 0]	n/a	FR1	0	R1196N
691.332	0.0	1858371	DISTRACT_START	n/a	n/a	n/a	-999	4	[0, 0, 0]	n/a	FR1	0	R1196N
691.332	0.016	1858371	START	n/a	n/a	n/a	-999	4	[-999, -999, -999]	n/a	FR1	0	R1196N
691.348	3.502	1858387	PROB	3.502	n/a	n/a	-999	4	[5, 4, 5]	14	FR1	0	R1196N
694.85	3.483	1861889	PROB	3.483	n/a	n/a	-999	4	[2, 1, 7]	10	FR1	0	R1196N
698.333	3.984	1865372	PROB	3.984	n/a	n/a	-999	4	[7, 2, 5]	14	FR1	0	R1196N
702.317	6.202	1869355	PROB	6.202	n/a	n/a	-999	4	[2, 5, 7]	14	FR1	0	R1196N
708.519	4.091	1875557	PROB	4.091	n/a	n/a	-999	4	[4, 4, 5]	13	FR1	0	R1196N
712.61	0.009	1879648	STOP	n/a	n/a	n/a	-999	4	[-999, -999, -999]	n/a	FR1	0	R1196N
712.619	0.583	1879657	DISTRACT_END	n/a	n/a	n/a	-999	4	[0, 0, 0]	n/a	FR1	0	R1196N
713.202	0.518	1880240	RETRIEVAL_ORIENT	n/a	n/a	n/a	-999	4	[0, 0, 0]	n/a	FR1	0	R1196N
713.72	2.37	1880758	REC_START	n/a	n/a	n/a	-999	4	[0, 0, 0]	n/a	FR1	0	R1196N
716.09	2.842	1883128	REC_WORD	2.842	n/a	BANK	9	4	[0, 0, 0]	n/a	FR1	0	R1196N
718.932	6.194	1885970	REC_WORD	6.194	n/a	CASH	10	4	[0, 0, 0]	n/a	FR1	0	R1196N
725.126	18.604	1892164	REC_WORD	18.604	n/a	ROOT	7	4	[0, 0, 0]	n/a	FR1	0	R1196N
743.73	8.896	1910767	REC_END	n/a	n/a	n/a	-999	4	[0, 0, 0]	n/a	FR1	0	R1196N
752.626	0.5	1919662	TRIAL	n/a	n/a	n/a	-999	5	[0, 0, 0]	n/a	FR1	0	R1196N
753.126	10.428	1920162	COUNTDOWN_START	n/a	n/a	n/a	-999	5	[0, 0, 0]	n/a	FR1	0	R1196N
763.554	0.007	1930590	COUNTDOWN_END	n/a	n/a	n/a	-999	5	[0, 0, 0]	n/a	FR1	0	R1196N
763.561	1.616	1930597	ORIENT	n/a	n/a	n/a	-999	5	[0, 0, 0]	n/a	FR1	0	R1196N
765.177	1.984	1932213	ORIENT_OFF	n/a	n/a	n/a	-999	5	[0, 0, 0]	n/a	FR1	0	R1196N
767.161	1.618	1934197	WORD	n/a	wordpools/wordpool_EN.txt	BARN	1	5	[0, 0, 0]	n/a	FR1	0	R1196N
768.779	0.9	1935815	WORD_OFF	n/a	n/a	BARN	1	5	[0, 0, 0]	n/a	FR1	0	R1196N
769.679	1.616	1936715	WORD	n/a	wordpools/wordpool_EN.txt	TREE	2	5	[0, 0, 0]	n/a	FR1	0	R1196N
771.295	0.817	1938331	WORD_OFF	n/a	n/a	TREE	2	5	[0, 0, 0]	n/a	FR1	0	R1196N
772.112	1.601	1939148	WORD	n/a	wordpools/wordpool_EN.txt	GOAT	3	5	[0, 0, 0]	n/a	FR1	0	R1196N
773.713	0.934	1940749	WORD_OFF	n/a	n/a	GOAT	3	5	[0, 0, 0]	n/a	FR1	0	R1196N
774.647	1.616	1941683	WORD	n/a	wordpools/wordpool_EN.txt	VINE	4	5	[0, 0, 0]	n/a	FR1	0	R1196N
776.263	0.883	1943298	WORD_OFF	n/a	n/a	VINE	4	5	[0, 0, 0]	n/a	FR1	0	R1196N
777.146	1.601	1944181	WORD	n/a	wordpools/wordpool_EN.txt	HOLE	5	5	[0, 0, 0]	n/a	FR1	0	R1196N
778.747	0.767	1945782	WORD_OFF	n/a	n/a	HOLE	5	5	[0, 0, 0]	n/a	FR1	0	R1196N
779.514	1.616	1946549	WORD	n/a	wordpools/wordpool_EN.txt	BUSH	6	5	[0, 0, 0]	n/a	FR1	0	R1196N
781.13	0.901	1948165	WORD_OFF	n/a	n/a	BUSH	6	5	[0, 0, 0]	n/a	FR1	0	R1196N
782.031	1.617	1949066	WORD	n/a	wordpools/wordpool_EN.txt	SEAL	7	5	[0, 0, 0]	n/a	FR1	0	R1196N
783.648	0.867	1950683	WORD_OFF	n/a	n/a	SEAL	7	5	[0, 0, 0]	n/a	FR1	0	R1196N
784.515	1.616	1951550	WORD	n/a	wordpools/wordpool_EN.txt	ROOF	8	5	[0, 0, 0]	n/a	FR1	0	R1196N
786.131	0.901	1953166	WORD_OFF	n/a	n/a	ROOF	8	5	[0, 0, 0]	n/a	FR1	0	R1196N
787.032	1.617	1954067	WORD	n/a	wordpools/wordpool_EN.txt	PIN	9	5	[0, 0, 0]	n/a	FR1	0	R1196N
788.649	0.95	1955684	WORD_OFF	n/a	n/a	PIN	9	5	[0, 0, 0]	n/a	FR1	0	R1196N
789.599	1.616	1956634	WORD	n/a	wordpools/wordpool_EN.txt	KITE	10	5	[0, 0, 0]	n/a	FR1	0	R1196N
791.215	0.917	1958250	WORD_OFF	n/a	n/a	KITE	10	5	[0, 0, 0]	n/a	FR1	0	R1196N
792.132	1.618	1959167	WORD	n/a	wordpools/wordpool_EN.txt	HOOK	11	5	[0, 0, 0]	n/a	FR1	0	R1196N
793.75	0.866	1960785	WORD_OFF	n/a	n/a	HOOK	11	5	[0, 0, 0]	n/a	FR1	0	R1196N
794.616	1.617	1961651	WORD	n/a	wordpools/wordpool_EN.txt	BRANCH	12	5	[0, 0, 0]	n/a	FR1	0	R1196N
796.233	0.0	1963268	WORD_OFF	n/a	n/a	BRANCH	12	5	[0, 0, 0]	n/a	FR1	0	R1196N
796.233	0.0	1963268	DISTRACT_START	n/a	n/a	n/a	-999	5	[0, 0, 0]	n/a	FR1	0	R1196N
796.233	0.016	1963268	START	n/a	n/a	n/a	-999	5	[-999, -999, -999]	n/a	FR1	0	R1196N
796.249	8.519	1963284	PROB	8.519	n/a	n/a	-999	5	[9, 7, 4]	20	FR1	0	R1196N
804.768	2.851	1971802	PROB	2.851	n/a	n/a	-999	5	[3, 3, 3]	9	FR1	0	R1196N
807.619	10.048	1974653	PROB	10.048	n/a	n/a	-999	5	[3, 2, 4]	9	FR1	0	R1196N
817.667	0.02	1984701	STOP	n/a	n/a	n/a	-999	5	[-999, -999, -999]	n/a	FR1	0	R1196N
817.687	0.683	1984721	DISTRACT_END	n/a	n/a	n/a	-999	5	[0, 0, 0]	n/a	FR1	0	R1196N
818.37	0.518	1985404	RETRIEVAL_ORIENT	n/a	n/a	n/a	-999	5	[0, 0, 0]	n/a	FR1	0	R1196N
818.888	1.709	1985922	REC_START	n/a	n/a	n/a	-999	5	[0, 0, 0]	n/a	FR1	0	R1196N
820.597	1.017	1987631	REC_WORD	1.017	n/a	GOAT	3	5	[0, 0, 0]	n/a	FR1	0	R1196N
821.614	1.039	1988648	REC_WORD	1.039	n/a	HOOK	11	5	[0, 0, 0]	n/a	FR1	0	R1196N
822.653	2.129	1989687	REC_WORD	2.129	n/a	ARM	-999	5	[0, 0, 0]	n/a	FR1	0	R1196N
824.782	7.06	1991816	REC_WORD	7.06	n/a	TREE	2	5	[0, 0, 0]	n/a	FR1	0	R1196N
831.842	17.056	1998875	REC_WORD	17.056	n/a	BUSH	6	5	[0, 0, 0]	n/a	FR1	0	R1196N
848.898	6.962	2015931	REC_END	n/a	n/a	n/a	-999	5	[0, 0, 0]	n/a	FR1	0	R1196N
855.86	0.5	2022892	TRIAL	n/a	n/a	n/a	-999	6	[0, 0, 0]	n/a	FR1	0	R1196N
856.36	10.428	2023392	COUNTDOWN_START	n/a	n/a	n/a	-999	6	[0, 0, 0]	n/a	FR1	0	R1196N
866.788	0.007	2033820	COUNTDOWN_END	n/a	n/a	n/a	-999	6	[0, 0, 0]	n/a	FR1	0	R1196N
866.795	1.616	2033827	ORIENT	n/a	n/a	n/a	-999	6	[0, 0, 0]	n/a	FR1	0	R1196N
868.411	2.285	2035443	ORIENT_OFF	n/a	n/a	n/a	-999	6	[0, 0, 0]	n/a	FR1	0	R1196N
870.696	1.616	2037728	WORD	n/a	wordpools/wordpool_EN.txt	MAZE	1	6	[0, 0, 0]	n/a	FR1	0	R1196N
872.312	0.917	2039344	WORD_OFF	n/a	n/a	MAZE	1	6	[0, 0, 0]	n/a	FR1	0	R1196N
873.229	1.618	2040261	WORD	n/a	wordpools/wordpool_EN.txt	CHEEK	2	6	[0, 0, 0]	n/a	FR1	0	R1196N
874.847	0.967	2041879	WORD_OFF	n/a	n/a	CHEEK	2	6	[0, 0, 0]	n/a	FR1	0	R1196N
875.814	1.616	2042845	WORD	n/a	wordpools/wordpool_EN.txt	SWAMP	3	6	[0, 0, 0]	n/a	FR1	0	R1196N
877.43	0.95	2044461	WORD_OFF	n/a	n/a	SWAMP	3	6	[0, 0, 0]	n/a	FR1	0	R1196N
878.38	1.618	2045411	WORD	n/a	wordpools/wordpool_EN.txt	TENT	4	6	[0, 0, 0]	n/a	FR1	0	R1196N
879.998	0.783	2047029	WORD_OFF	n/a	n/a	TENT	4	6	[0, 0, 0]	n/a	FR1	0	R1196N
880.781	1.616	2047812	WORD	n/a	wordpools/wordpool_EN.txt	SPEAR	5	6	[0, 0, 0]	n/a	FR1	0	R1196N
882.397	0.9	2049428	WORD_OFF	n/a	n/a	SPEAR	5	6	[0, 0, 0]	n/a	FR1	0	R1196N
883.297	1.618	2050328	WORD	n/a	wordpools/wordpool_EN.txt	BREAD	6	6	[0, 0, 0]	n/a	FR1	0	R1196N
884.915	0.983	2051946	WORD_OFF	n/a	n/a	BREAD	6	6	[0, 0, 0]	n/a	FR1	0	R1196N
885.898	1.618	2052929	WORD	n/a	wordpools/wordpool_EN.txt	PEAR	7	6	[0, 0, 0]	n/a	FR1	0	R1196N
887.516	0.899	2054547	WORD_OFF	n/a	n/a	PEAR	7	6	[0, 0, 0]	n/a	FR1	0	R1196N
888.415	1.618	2055446	WORD	n/a	wordpools/wordpool_EN.txt	STEAK	8	6	[0, 0, 0]	n/a	FR1	0	R1196N
890.033	1.0	2057064	WORD_OFF	n/a	n/a	STEAK	8	6	[0, 0, 0]	n/a	FR1	0	R1196N
891.033	1.617	2058064	WORD	n/a	wordpools/wordpool_EN.txt	FUDGE	9	6	[0, 0, 0]	n/a	FR1	0	R1196N
892.65	0.95	2059681	WORD_OFF	n/a	n/a	FUDGE	9	6	[0, 0, 0]	n/a	FR1	0	R1196N
893.6	1.616	2060631	WORD	n/a	wordpools/wordpool_EN.txt	HAND	10	6	[0, 0, 0]	n/a	FR1	0	R1196N
895.216	0.868	2062247	WORD_OFF	n/a	n/a	HAND	10	6	[0, 0, 0]	n/a	FR1	0	R1196N
896.084	1.617	2063115	WORD	n/a	wordpools/wordpool_EN.txt	MOUTH	11	6	[0, 0, 0]	n/a	FR1	0	R1196N
897.701	0.95	2064732	WORD_OFF	n/a	n/a	MOUTH	11	6	[0, 0, 0]	n/a	FR1	0	R1196N
898.651	1.616	2065682	WORD	n/a	wordpools/wordpool_EN.txt	PURSE	12	6	[0, 0, 0]	n/a	FR1	0	R1196N
900.267	0.0	2067297	DISTRACT_START	n/a	n/a	n/a	-999	6	[0, 0, 0]	n/a	FR1	0	R1196N
900.267	0.0	2067297	WORD_OFF	n/a	n/a	PURSE	12	6	[0, 0, 0]	n/a	FR1	0	R1196N
900.267	0.016	2067297	START	n/a	n/a	n/a	-999	6	[-999, -999, -999]	n/a	FR1	0	R1196N
900.283	4.635	2067313	PROB	4.635	n/a	n/a	-999	6	[5, 5, 5]	15	FR1	0	R1196N
904.918	6.102	2071948	PROB	6.102	n/a	n/a	-999	6	[6, 9, 6]	21	FR1	0	R1196N
911.02	5.183	2078050	PROB	5.183	n/a	n/a	-999	6	[2, 3, 9]	14	FR1	0	R1196N
916.203	5.264	2083233	PROB	5.264	n/a	n/a	-999	6	[2, 6, 1]	9	FR1	0	R1196N
921.467	0.021	2088497	STOP	n/a	n/a	n/a	-999	6	[-999, -999, -999]	n/a	FR1	0	R1196N
921.488	0.699	2088518	DISTRACT_END	n/a	n/a	n/a	-999	6	[0, 0, 0]	n/a	FR1	0	R1196N
922.187	0.518	2089217	RETRIEVAL_ORIENT	n/a	n/a	n/a	-999	6	[0, 0, 0]	n/a	FR1	0	R1196N
922.705	3.825	2089735	REC_START	n/a	n/a	n/a	-999	6	[0, 0, 0]	n/a	FR1	0	R1196N
926.53	2.753	2093559	REC_WORD	2.753	n/a	CHEEK	2	6	[0, 0, 0]	n/a	FR1	0	R1196N
929.283	3.377	2096312	REC_WORD_VV	3.377	n/a	<>	-999	6	[0, 0, 0]	n/a	FR1	0	R1196N
932.66	20.055	2099689	REC_WORD	20.055	n/a	MAZE	1	6	[0, 0, 0]	n/a	FR1	0	R1196N
952.715	5.444	2119743	REC_END	n/a	n/a	n/a	-999	6	[0, 0, 0]	n/a	FR1	0	R1196N
958.159	0.5	2125187	TRIAL	n/a	n/a	n/a	-999	7	[0, 0, 0]	n/a	FR1	0	R1196N
958.659	10.428	2125687	COUNTDOWN_START	n/a	n/a	n/a	-999	7	[0, 0, 0]	n/a	FR1	0	R1196N
969.087	0.009	2136115	COUNTDOWN_END	n/a	n/a	n/a	-999	7	[0, 0, 0]	n/a	FR1	0	R1196N
969.096	1.617	2136124	ORIENT	n/a	n/a	n/a	-999	7	[0, 0, 0]	n/a	FR1	0	R1196N
970.713	2.084	2137741	ORIENT_OFF	n/a	n/a	n/a	-999	7	[0, 0, 0]	n/a	FR1	0	R1196N
972.797	1.616	2139825	WORD	n/a	wordpools/wordpool_EN.txt	CLAY	1	7	[0, 0, 0]	n/a	FR1	0	R1196N
974.413	1.0	2141440	WORD_OFF	n/a	n/a	CLAY	1	7	[0, 0, 0]	n/a	FR1	0	R1196N
975.413	1.618	2142440	WORD	n/a	wordpools/wordpool_EN.txt	BEAN	2	7	[0, 0, 0]	n/a	FR1	0	R1196N
977.031	0.766	2144058	WORD_OFF	n/a	n/a	BEAN	2	7	[0, 0, 0]	n/a	FR1	0	R1196N
977.797	1.616	2144824	WORD	n/a	wordpools/wordpool_EN.txt	CUBE	3	7	[0, 0, 0]	n/a	FR1	0	R1196N
979.413	1.0	2146440	WORD_OFF	n/a	n/a	CUBE	3	7	[0, 0, 0]	n/a	FR1	0	R1196N
980.413	1.601	2147440	WORD	n/a	wordpools/wordpool_EN.txt	JUICE	4	7	[0, 0, 0]	n/a	FR1	0	R1196N
982.014	0.818	2149041	WORD_OFF	n/a	n/a	JUICE	4	7	[0, 0, 0]	n/a	FR1	0	R1196N
982.832	1.616	2149859	WORD	n/a	wordpools/wordpool_EN.txt	TOAD	5	7	[0, 0, 0]	n/a	FR1	0	R1196N
984.448	0.816	2151475	WORD_OFF	n/a	n/a	TOAD	5	7	[0, 0, 0]	n/a	FR1	0	R1196N
985.264	1.618	2152291	WORD	n/a	wordpools/wordpool_EN.txt	DUCK	6	7	[0, 0, 0]	n/a	FR1	0	R1196N
986.882	0.9	2153909	WORD_OFF	n/a	n/a	DUCK	6	7	[0, 0, 0]	n/a	FR1	0	R1196N
987.782	1.616	2154809	WORD	n/a	wordpools/wordpool_EN.txt	TAIL	7	7	[0, 0, 0]	n/a	FR1	0	R1196N
989.398	1.001	2156425	WORD_OFF	n/a	n/a	TAIL	7	7	[0, 0, 0]	n/a	FR1	0	R1196N
990.399	1.617	2157426	WORD	n/a	wordpools/wordpool_EN.txt	WEB	8	7	[0, 0, 0]	n/a	FR1	0	R1196N
992.016	0.984	2159043	WORD_OFF	n/a	n/a	WEB	8	7	[0, 0, 0]	n/a	FR1	0	R1196N
993.0	1.617	2160027	WORD	n/a	wordpools/wordpool_EN.txt	SINK	9	7	[0, 0, 0]	n/a	FR1	0	R1196N
994.617	1.0	2161644	WORD_OFF	n/a	n/a	SINK	9	7	[0, 0, 0]	n/a	FR1	0	R1196N
995.617	1.616	2162644	WORD	n/a	wordpools/wordpool_EN.txt	SOUP	10	7	[0, 0, 0]	n/a	FR1	0	R1196N
997.233	0.834	2164260	WORD_OFF	n/a	n/a	SOUP	10	7	[0, 0, 0]	n/a	FR1	0	R1196N
998.067	1.617	2165094	WORD	n/a	wordpools/wordpool_EN.txt	RAKE	11	7	[0, 0, 0]	n/a	FR1	0	R1196N
999.684	0.9	2166710	WORD_OFF	n/a	n/a	RAKE	11	7	[0, 0, 0]	n/a	FR1	0	R1196N
1000.584	1.616	2167610	WORD	n/a	wordpools/wordpool_EN.txt	RAT	12	7	[0, 0, 0]	n/a	FR1	0	R1196N
1002.2	0.0	2169226	WORD_OFF	n/a	n/a	RAT	12	7	[0, 0, 0]	n/a	FR1	0	R1196N
1002.2	0.001	2169226	DISTRACT_START	n/a	n/a	n/a	-999	7	[0, 0, 0]	n/a	FR1	0	R1196N
1002.201	0.016	2169227	START	n/a	n/a	n/a	-999	7	[-999, -999, -999]	n/a	FR1	0	R1196N
1002.217	6.869	2169243	PROB	6.869	n/a	n/a	-999	7	[4, 6, 4]	14	FR1	0	R1196N
1009.086	5.818	2176112	PROB	5.818	n/a	n/a	-999	7	[8, 1, 3]	12	FR1	0	R1196N
1014.904	5.483	2181930	PROB	5.483	n/a	n/a	-999	7	[4, 6, 3]	13	FR1	0	R1196N
1020.387	6.696	2187413	PROB	6.696	n/a	n/a	-999	7	[9, 2, 2]	13	FR1	0	R1196N
1027.083	0.006	2194108	STOP	n/a	n/a	n/a	-999	7	[-999, -999, -999]	n/a	FR1	0	R1196N
1027.089	0.667	2194114	DISTRACT_END	n/a	n/a	n/a	-999	7	[0, 0, 0]	n/a	FR1	0	R1196N
1027.756	0.517	2194781	RETRIEVAL_ORIENT	n/a	n/a	n/a	-999	7	[0, 0, 0]	n/a	FR1	0	R1196N
1028.273	2.36	2195298	REC_START	n/a	n/a	n/a	-999	7	[0, 0, 0]	n/a	FR1	0	R1196N
1030.633	1.188	2197658	REC_WORD	1.188	n/a	TOAD	5	7	[0, 0, 0]	n/a	FR1	0	R1196N
1031.821	0.957	2198846	REC_WORD	0.957	n/a	CUBE	3	7	[0, 0, 0]	n/a	FR1	0	R1196N
1032.778	1.059	2199803	REC_WORD	1.059	n/a	DRINK	-999	7	[0, 0, 0]	n/a	FR1	0	R1196N
1033.837	1.073	2200862	REC_WORD	1.073	n/a	CLAY	1	7	[0, 0, 0]	n/a	FR1	0	R1196N
1034.91	1.221	2201935	REC_WORD	1.221	n/a	BEAN	2	7	[0, 0, 0]	n/a	FR1	0	R1196N
1036.131	1.211	2203156	REC_WORD	1.211	n/a	DUCK	6	7	[0, 0, 0]	n/a	FR1	0	R1196N
1037.342	13.456	2204367	REC_WORD	13.456	n/a	TAIL	7	7	[0, 0, 0]	n/a	FR1	0	R1196N
1050.798	2.041	2217822	REC_WORD	2.041	n/a	WEB	8	7	[0, 0, 0]	n/a	FR1	0	R1196N
1052.839	5.443	2219863	REC_WORD	5.443	n/a	SINK	9	7	[0, 0, 0]	n/a	FR1	0	R1196N
1058.282	6.112	2225306	REC_END	n/a	n/a	n/a	-999	7	[0, 0, 0]	n/a	FR1	0	R1196N
1064.394	0.5	2231418	TRIAL	n/a	n/a	n/a	-999	8	[0, 0, 0]	n/a	FR1	0	R1196N
1064.894	10.428	2231918	COUNTDOWN_START	n/a	n/a	n/a	-999	8	[0, 0, 0]	n/a	FR1	0	R1196N
1075.322	0.007	2242345	COUNTDOWN_END	n/a	n/a	n/a	-999	8	[0, 0, 0]	n/a	FR1	0	R1196N
1075.329	1.601	2242352	ORIENT	n/a	n/a	n/a	-999	8	[0, 0, 0]	n/a	FR1	0	R1196N
1076.93	2.018	2243953	ORIENT_OFF	n/a	n/a	n/a	-999	8	[0, 0, 0]	n/a	FR1	0	R1196N
1078.948	1.617	2245971	WORD	n/a	wordpools/wordpool_EN.txt	TOE	1	8	[0, 0, 0]	n/a	FR1	0	R1196N
1080.565	0.799	2247588	WORD_OFF	n/a	n/a	TOE	1	8	[0, 0, 0]	n/a	FR1	0	R1196N
1081.364	1.618	2248387	WORD	n/a	wordpools/wordpool_EN.txt	ARM	2	8	[0, 0, 0]	n/a	FR1	0	R1196N
1082.982	1.0	2250005	WORD_OFF	n/a	n/a	ARM	2	8	[0, 0, 0]	n/a	FR1	0	R1196N
1083.982	1.617	2251005	WORD	n/a	wordpools/wordpool_EN.txt	PASTE	3	8	[0, 0, 0]	n/a	FR1	0	R1196N
1085.599	1.0	2252622	WORD_OFF	n/a	n/a	PASTE	3	8	[0, 0, 0]	n/a	FR1	0	R1196N
1086.599	1.616	2253622	WORD	n/a	wordpools/wordpool_EN.txt	THUMB	4	8	[0, 0, 0]	n/a	FR1	0	R1196N
1088.215	0.884	2255238	WORD_OFF	n/a	n/a	THUMB	4	8	[0, 0, 0]	n/a	FR1	0	R1196N
1089.099	1.617	2256122	WORD	n/a	wordpools/wordpool_EN.txt	LEAF	5	8	[0, 0, 0]	n/a	FR1	0	R1196N
1090.716	0.934	2257739	WORD_OFF	n/a	n/a	LEAF	5	8	[0, 0, 0]	n/a	FR1	0	R1196N
1091.65	1.616	2258673	WORD	n/a	wordpools/wordpool_EN.txt	FRUIT	6	8	[0, 0, 0]	n/a	FR1	0	R1196N
1093.266	0.834	2260289	WORD_OFF	n/a	n/a	FRUIT	6	8	[0, 0, 0]	n/a	FR1	0	R1196N
1094.1	1.617	2261123	WORD	n/a	wordpools/wordpool_EN.txt	STEM	7	8	[0, 0, 0]	n/a	FR1	0	R1196N
1095.717	0.767	2262740	WORD_OFF	n/a	n/a	STEM	7	8	[0, 0, 0]	n/a	FR1	0	R1196N
1096.484	1.617	2263507	WORD	n/a	wordpools/wordpool_EN.txt	BLOOM	8	8	[0, 0, 0]	n/a	FR1	0	R1196N
1098.101	1.0	2265124	WORD_OFF	n/a	n/a	BLOOM	8	8	[0, 0, 0]	n/a	FR1	0	R1196N
1099.101	1.617	2266123	WORD	n/a	wordpools/wordpool_EN.txt	WEED	9	8	[0, 0, 0]	n/a	FR1	0	R1196N
1100.718	0.833	2267740	WORD_OFF	n/a	n/a	WEED	9	8	[0, 0, 0]	n/a	FR1	0	R1196N
1101.551	1.616	2268573	WORD	n/a	wordpools/wordpool_EN.txt	MOTH	10	8	[0, 0, 0]	n/a	FR1	0	R1196N
1103.167	0.835	2270189	WORD_OFF	n/a	n/a	MOTH	10	8	[0, 0, 0]	n/a	FR1	0	R1196N
1104.002	1.617	2271024	WORD	n/a	wordpools/wordpool_EN.txt	CONE	11	8	[0, 0, 0]	n/a	FR1	0	R1196N
1105.619	0.95	2272641	WORD_OFF	n/a	n/a	CONE	11	8	[0, 0, 0]	n/a	FR1	0	R1196N
1106.569	1.616	2273591	WORD	n/a	wordpools/wordpool_EN.txt	TOAST	12	8	[0, 0, 0]	n/a	FR1	0	R1196N
1108.185	0.0	2275207	WORD_OFF	n/a	n/a	TOAST	12	8	[0, 0, 0]	n/a	FR1	0	R1196N
1108.185	0.0	2275207	DISTRACT_START	n/a	n/a	n/a	-999	8	[0, 0, 0]	n/a	FR1	0	R1196N
1108.185	0.017	2275207	START	n/a	n/a	n/a	-999	8	[-999, -999, -999]	n/a	FR1	0	R1196N
1108.202	5.285	2275224	PROB	5.285	n/a	n/a	-999	8	[5, 6, 1]	12	FR1	0	R1196N
1113.487	9.767	2280509	PROB	9.767	n/a	n/a	-999	8	[8, 3, 9]	20	FR1	0	R1196N
1123.254	2.752	2290275	PROB	2.752	n/a	n/a	-999	8	[1, 6, 6]	13	FR1	0	R1196N
1126.006	7.661	2293027	PROB	7.661	n/a	n/a	-999	8	[2, 5, 9]	16	FR1	0	R1196N
1133.667	0.007	2300688	STOP	n/a	n/a	n/a	-999	8	[-999, -999, -999]	n/a	FR1	0	R1196N
1133.674	0.632	2300695	DISTRACT_END	n/a	n/a	n/a	-999	8	[0, 0, 0]	n/a	FR1	0	R1196N
1134.306	0.518	2301327	RETRIEVAL_ORIENT	n/a	n/a	n/a	-999	8	[0, 0, 0]	n/a	FR1	0	R1196N
1134.824	30.0	2301845	REC_START	n/a	n/a	n/a	-999	8	[0, 0, 0]	n/a	FR1	0	R1196N
1164.824	0.011	2331844	REC_WORD_VV	0.011	n/a	<>	-999	8	[0, 0, 0]	n/a	FR1	0	R1196N
1164.835	25.265	2331855	REC_END	n/a	n/a	n/a	-999	8	[0, 0, 0]	n/a	FR1	0	R1196N
1190.1	0.5	2357119	TRIAL	n/a	n/a	n/a	-999	9	[0, 0, 0]	n/a	FR1	0	R1196N
1190.6	10.428	2357619	COUNTDOWN_START	n/a	n/a	n/a	-999	9	[0, 0, 0]	n/a	FR1	0	R1196N
1201.028	0.007	2368046	COUNTDOWN_END	n/a	n/a	n/a	-999	9	[0, 0, 0]	n/a	FR1	0	R1196N
1201.035	1.617	2368053	ORIENT	n/a	n/a	n/a	-999	9	[0, 0, 0]	n/a	FR1	0	R1196N
1202.652	2.283	2369670	ORIENT_OFF	n/a	n/a	n/a	-999	9	[0, 0, 0]	n/a	FR1	0	R1196N
1204.935	1.618	2371953	WORD	n/a	wordpools/wordpool_EN.txt	MULE	1	9	[0, 0, 0]	n/a	FR1	0	R1196N
1206.553	0.799	2373571	WORD_OFF	n/a	n/a	MULE	1	9	[0, 0, 0]	n/a	FR1	0	R1196N
1207.352	1.618	2374370	WORD	n/a	wordpools/wordpool_EN.txt	PEN	2	9	[0, 0, 0]	n/a	FR1	0	R1196N
1208.97	0.9	2375988	WORD_OFF	n/a	n/a	PEN	2	9	[0, 0, 0]	n/a	FR1	0	R1196N
1209.87	1.617	2376888	WORD	n/a	wordpools/wordpool_EN.txt	CAR	3	9	[0, 0, 0]	n/a	FR1	0	R1196N
1211.487	0.832	2378505	WORD_OFF	n/a	n/a	CAR	3	9	[0, 0, 0]	n/a	FR1	0	R1196N
1212.319	1.618	2379337	WORD	n/a	wordpools/wordpool_EN.txt	BOY	4	9	[0, 0, 0]	n/a	FR1	0	R1196N
1213.937	0.834	2380955	WORD_OFF	n/a	n/a	BOY	4	9	[0, 0, 0]	n/a	FR1	0	R1196N
1214.771	1.615	2381789	WORD	n/a	wordpools/wordpool_EN.txt	BATH	5	9	[0, 0, 0]	n/a	FR1	0	R1196N
1216.386	0.834	2383404	WORD_OFF	n/a	n/a	BATH	5	9	[0, 0, 0]	n/a	FR1	0	R1196N
1217.22	1.618	2384238	WORD	n/a	wordpools/wordpool_EN.txt	FOX	6	9	[0, 0, 0]	n/a	FR1	0	R1196N
1218.838	0.783	2385856	WORD_OFF	n/a	n/a	FOX	6	9	[0, 0, 0]	n/a	FR1	0	R1196N
1219.621	1.616	2386639	WORD	n/a	wordpools/wordpool_EN.txt	ROAD	7	9	[0, 0, 0]	n/a	FR1	0	R1196N
1221.237	0.934	2388255	WORD_OFF	n/a	n/a	ROAD	7	9	[0, 0, 0]	n/a	FR1	0	R1196N
1222.171	1.618	2389189	WORD	n/a	wordpools/wordpool_EN.txt	CLOCK	8	9	[0, 0, 0]	n/a	FR1	0	R1196N
1223.789	0.833	2390806	WORD_OFF	n/a	n/a	CLOCK	8	9	[0, 0, 0]	n/a	FR1	0	R1196N
1224.622	1.616	2391639	WORD	n/a	wordpools/wordpool_EN.txt	HOUSE	9	9	[0, 0, 0]	n/a	FR1	0	R1196N
1226.238	0.967	2393255	WORD_OFF	n/a	n/a	HOUSE	9	9	[0, 0, 0]	n/a	FR1	0	R1196N
1227.205	1.601	2394222	WORD	n/a	wordpools/wordpool_EN.txt	ROSE	10	9	[0, 0, 0]	n/a	FR1	0	R1196N
1228.806	0.867	2395823	WORD_OFF	n/a	n/a	ROSE	10	9	[0, 0, 0]	n/a	FR1	0	R1196N
1229.673	1.616	2396690	WORD	n/a	wordpools/wordpool_EN.txt	BEAK	11	9	[0, 0, 0]	n/a	FR1	0	R1196N
1231.289	0.883	2398306	WORD_OFF	n/a	n/a	BEAK	11	9	[0, 0, 0]	n/a	FR1	0	R1196N
1232.172	1.601	2399189	WORD	n/a	wordpools/wordpool_EN.txt	PIPE	12	9	[0, 0, 0]	n/a	FR1	0	R1196N
1233.773	0.0	2400790	WORD_OFF	n/a	n/a	PIPE	12	9	[0, 0, 0]	n/a	FR1	0	R1196N
1233.773	0.001	2400790	DISTRACT_START	n/a	n/a	n/a	-999	9	[0, 0, 0]	n/a	FR1	0	R1196N
1233.774	0.016	2400791	START	n/a	n/a	n/a	-999	9	[-999, -999, -999]	n/a	FR1	0	R1196N
1233.79	9.102	2400807	PROB	9.102	n/a	n/a	-999	9	[2, 2, 2]	6	FR1	0	R1196N
1242.892	6.433	2409909	PROB	6.433	n/a	n/a	-999	9	[9, 5, 7]	21	FR1	0	R1196N
1249.325	12.646	2416341	PROB	12.646	n/a	n/a	-999	9	[2, 4, 2]	8	FR1	0	R1196N
1261.971	0.007	2428987	STOP	n/a	n/a	n/a	-999	9	[-999, -999, -999]	n/a	FR1	0	R1196N
1261.978	0.634	2428994	DISTRACT_END	n/a	n/a	n/a	-999	9	[0, 0, 0]	n/a	FR1	0	R1196N
1262.612	0.517	2429628	RETRIEVAL_ORIENT	n/a	n/a	n/a	-999	9	[0, 0, 0]	n/a	FR1	0	R1196N
1263.129	2.473	2430145	REC_START	n/a	n/a	n/a	-999	9	[0, 0, 0]	n/a	FR1	0	R1196N
1265.602	2.4	2432618	REC_WORD	2.4	n/a	FOX	6	9	[0, 0, 0]	n/a	FR1	0	R1196N
1268.002	23.068	2435018	REC_WORD	23.068	n/a	BATH	5	9	[0, 0, 0]	n/a	FR1	0	R1196N
1291.07	0.935	2458085	REC_WORD	0.935	n/a	BOY	4	9	[0, 0, 0]	n/a	FR1	0	R1196N
1292.005	1.133	2459020	REC_WORD	1.133	n/a	CAR	3	9	[0, 0, 0]	n/a	FR1	0	R1196N
1293.138	5.863	2460153	REC_END	n/a	n/a	n/a	-999	9	[0, 0, 0]	n/a	FR1	0	R1196N
1299.001	0.5	2466015	TRIAL	n/a	n/a	n/a	-999	10	[0, 0, 0]	n/a	FR1	0	R1196N
1299.501	10.428	2466515	COUNTDOWN_START	n/a	n/a	n/a	-999	10	[0, 0, 0]	n/a	FR1	0	R1196N
1309.929	0.007	2476943	COUNTDOWN_END	n/a	n/a	n/a	-999	10	[0, 0, 0]	n/a	FR1	0	R1196N
1309.936	1.617	2476950	ORIENT	n/a	n/a	n/a	-999	10	[0, 0, 0]	n/a	FR1	0	R1196N
1311.553	2.034	2478567	ORIENT_OFF	n/a	n/a	n/a	-999	10	[0, 0, 0]	n/a	FR1	0	R1196N
1313.587	1.616	2480601	WORD	n/a	wordpools/wordpool_EN.txt	POOL	1	10	[0, 0, 0]	n/a	FR1	0	R1196N
1315.203	0.967	2482217	WORD_OFF	n/a	n/a	POOL	1	10	[0, 0, 0]	n/a	FR1	0	R1196N
1316.17	1.618	2483184	WORD	n/a	wordpools/wordpool_EN.txt	SIGN	2	10	[0, 0, 0]	n/a	FR1	0	R1196N
1317.788	0.9	2484802	WORD_OFF	n/a	n/a	SIGN	2	10	[0, 0, 0]	n/a	FR1	0	R1196N
1318.688	1.616	2485702	WORD	n/a	wordpools/wordpool_EN.txt	FLAG	3	10	[0, 0, 0]	n/a	FR1	0	R1196N
1320.304	0.95	2487318	WORD_OFF	n/a	n/a	FLAG	3	10	[0, 0, 0]	n/a	FR1	0	R1196N
1321.254	1.601	2488268	WORD	n/a	wordpools/wordpool_EN.txt	JUDGE	4	10	[0, 0, 0]	n/a	FR1	0	R1196N
1322.855	1.0	2489868	WORD_OFF	n/a	n/a	JUDGE	4	10	[0, 0, 0]	n/a	FR1	0	R1196N
1323.855	1.617	2490868	WORD	n/a	wordpools/wordpool_EN.txt	HAT	5	10	[0, 0, 0]	n/a	FR1	0	R1196N
1325.472	0.966	2492485	WORD_OFF	n/a	n/a	HAT	5	10	[0, 0, 0]	n/a	FR1	0	R1196N
1326.438	1.618	2493451	WORD	n/a	wordpools/wordpool_EN.txt	CRANE	6	10	[0, 0, 0]	n/a	FR1	0	R1196N
1328.056	0.934	2495069	WORD_OFF	n/a	n/a	CRANE	6	10	[0, 0, 0]	n/a	FR1	0	R1196N
1328.99	1.617	2496003	WORD	n/a	wordpools/wordpool_EN.txt	FACE	7	10	[0, 0, 0]	n/a	FR1	0	R1196N
1330.607	0.815	2497620	WORD_OFF	n/a	n/a	FACE	7	10	[0, 0, 0]	n/a	FR1	0	R1196N
1331.422	1.601	2498435	WORD	n/a	wordpools/wordpool_EN.txt	BAND	8	10	[0, 0, 0]	n/a	FR1	0	R1196N
1333.023	0.984	2500036	WORD_OFF	n/a	n/a	BAND	8	10	[0, 0, 0]	n/a	FR1	0	R1196N
1334.007	1.617	2501020	WORD	n/a	wordpools/wordpool_EN.txt	STREET	9	10	[0, 0, 0]	n/a	FR1	0	R1196N
1335.624	0.799	2502637	WORD_OFF	n/a	n/a	STREET	9	10	[0, 0, 0]	n/a	FR1	0	R1196N
1336.423	1.618	2503436	WORD	n/a	wordpools/wordpool_EN.txt	SLUSH	10	10	[0, 0, 0]	n/a	FR1	0	R1196N
1338.041	0.85	2505054	WORD_OFF	n/a	n/a	SLUSH	10	10	[0, 0, 0]	n/a	FR1	0	R1196N
1338.891	1.617	2505904	WORD	n/a	wordpools/wordpool_EN.txt	BADGE	11	10	[0, 0, 0]	n/a	FR1	0	R1196N
1340.508	0.984	2507521	WORD_OFF	n/a	n/a	BADGE	11	10	[0, 0, 0]	n/a	FR1	0	R1196N
1341.492	1.616	2508505	WORD	n/a	wordpools/wordpool_EN.txt	JAIL	12	10	[0, 0, 0]	n/a	FR1	0	R1196N
1343.108	0.0	2510121	WORD_OFF	n/a	n/a	JAIL	12	10	[0, 0, 0]	n/a	FR1	0	R1196N
1343.108	0.0	2510121	DISTRACT_START	n/a	n/a	n/a	-999	10	[0, 0, 0]	n/a	FR1	0	R1196N
1343.108	0.016	2510121	START	n/a	n/a	n/a	-999	10	[-999, -999, -999]	n/a	FR1	0	R1196N
1343.124	4.469	2510137	PROB	4.469	n/a	n/a	-999	10	[5, 1, 1]	7	FR1	0	R1196N
1347.593	3.566	2514605	PROB	3.566	n/a	n/a	-999	10	[5, 6, 4]	15	FR1	0	R1196N
1351.159	6.869	2518171	PROB	6.869	n/a	n/a	-999	10	[9, 4, 6]	19	FR1	0	R1196N
1358.028	9.254	2525040	PROB	9.254	n/a	n/a	-999	10	[3, 1, 9]	13	FR1	0	R1196N
1367.282	0.013	2534294	STOP	n/a	n/a	n/a	-999	10	[-999, -999, -999]	n/a	FR1	0	R1196N
1367.295	0.551	2534307	DISTRACT_END	n/a	n/a	n/a	-999	10	[0, 0, 0]	n/a	FR1	0	R1196N
1367.846	0.516	2534858	RETRIEVAL_ORIENT	n/a	n/a	n/a	-999	10	[0, 0, 0]	n/a	FR1	0	R1196N
1368.362	3.01	2535374	REC_START	n/a	n/a	n/a	-999	10	[0, 0, 0]	n/a	FR1	0	R1196N
1371.372	0.997	2538383	REC_WORD	0.997	n/a	BADGE	11	10	[0, 0, 0]	n/a	FR1	0	R1196N
1372.369	1.428	2539380	REC_WORD	1.428	n/a	SLUSH	10	10	[0, 0, 0]	n/a	FR1	0	R1196N
1373.797	15.1	2540808	REC_WORD	15.1	n/a	JAIL	12	10	[0, 0, 0]	n/a	FR1	0	R1196N
1388.897	2.172	2555908	REC_WORD	2.172	n/a	ROSE	-999	10	[0, 0, 0]	n/a	FR1	0	R1196N
1391.069	7.303	2558080	REC_WORD	7.303	n/a	HOUSE	-999	10	[0, 0, 0]	n/a	FR1	0	R1196N
1398.372	6.046	2565382	REC_END	n/a	n/a	n/a	-999	10	[0, 0, 0]	n/a	FR1	0	R1196N
1404.418	0.5	2571428	TRIAL	n/a	n/a	n/a	-999	11	[0, 0, 0]	n/a	FR1	0	R1196N
1404.918	10.428	2571928	COUNTDOWN_START	n/a	n/a	n/a	-999	11	[0, 0, 0]	n/a	FR1	0	R1196N
1415.346	0.007	2582356	COUNTDOWN_END	n/a	n/a	n/a	-999	11	[0, 0, 0]	n/a	FR1	0	R1196N
1415.353	1.618	2582363	ORIENT	n/a	n/a	n/a	-999	11	[0, 0, 0]	n/a	FR1	0	R1196N
1416.971	2.166	2583981	ORIENT_OFF	n/a	n/a	n/a	-999	11	[0, 0, 0]	n/a	FR1	0	R1196N
1419.137	1.601	2586147	WORD	n/a	wordpools/wordpool_EN.txt	WAND	1	11	[0, 0, 0]	n/a	FR1	0	R1196N
1420.738	0.917	2587748	WORD_OFF	n/a	n/a	WAND	1	11	[0, 0, 0]	n/a	FR1	0	R1196N
1421.655	1.616	2588664	WORD	n/a	wordpools/wordpool_EN.txt	PLANE	2	11	[0, 0, 0]	n/a	FR1	0	R1196N
1423.271	0.884	2590280	WORD_OFF	n/a	n/a	PLANE	2	11	[0, 0, 0]	n/a	FR1	0	R1196N
1424.155	1.618	2591164	WORD	n/a	wordpools/wordpool_EN.txt	CAGE	3	11	[0, 0, 0]	n/a	FR1	0	R1196N
1425.773	0.983	2592782	WORD_OFF	n/a	n/a	CAGE	3	11	[0, 0, 0]	n/a	FR1	0	R1196N
1426.756	1.616	2593765	WORD	n/a	wordpools/wordpool_EN.txt	SQUARE	4	11	[0, 0, 0]	n/a	FR1	0	R1196N
1428.372	0.933	2595381	WORD_OFF	n/a	n/a	SQUARE	4	11	[0, 0, 0]	n/a	FR1	0	R1196N
1429.305	1.618	2596314	WORD	n/a	wordpools/wordpool_EN.txt	CAPE	5	11	[0, 0, 0]	n/a	FR1	0	R1196N
1430.923	0.884	2597932	WORD_OFF	n/a	n/a	CAPE	5	11	[0, 0, 0]	n/a	FR1	0	R1196N
1431.807	1.616	2598816	WORD	n/a	wordpools/wordpool_EN.txt	FAN	6	11	[0, 0, 0]	n/a	FR1	0	R1196N
1433.423	0.85	2600432	WORD_OFF	n/a	n/a	FAN	6	11	[0, 0, 0]	n/a	FR1	0	R1196N
1434.273	1.618	2601282	WORD	n/a	wordpools/wordpool_EN.txt	PALM	7	11	[0, 0, 0]	n/a	FR1	0	R1196N
1435.891	0.833	2602900	WORD_OFF	n/a	n/a	PALM	7	11	[0, 0, 0]	n/a	FR1	0	R1196N
1436.724	1.616	2603733	WORD	n/a	wordpools/wordpool_EN.txt	NOSE	8	11	[0, 0, 0]	n/a	FR1	0	R1196N
1438.34	0.95	2605349	WORD_OFF	n/a	n/a	NOSE	8	11	[0, 0, 0]	n/a	FR1	0	R1196N
1439.29	1.618	2606299	WORD	n/a	wordpools/wordpool_EN.txt	VASE	9	11	[0, 0, 0]	n/a	FR1	0	R1196N
1440.908	0.767	2607917	WORD_OFF	n/a	n/a	VASE	9	11	[0, 0, 0]	n/a	FR1	0	R1196N
1441.675	1.616	2608684	WORD	n/a	wordpools/wordpool_EN.txt	SLEEVE	10	11	[0, 0, 0]	n/a	FR1	0	R1196N
1443.291	1.0	2610300	WORD_OFF	n/a	n/a	SLEEVE	10	11	[0, 0, 0]	n/a	FR1	0	R1196N
1444.291	1.601	2611300	WORD	n/a	wordpools/wordpool_EN.txt	COUCH	11	11	[0, 0, 0]	n/a	FR1	0	R1196N
1445.892	0.851	2612900	WORD_OFF	n/a	n/a	COUCH	11	11	[0, 0, 0]	n/a	FR1	0	R1196N
1446.743	1.616	2613751	WORD	n/a	wordpools/wordpool_EN.txt	VAN	12	11	[0, 0, 0]	n/a	FR1	0	R1196N
1448.359	0.0	2615367	WORD_OFF	n/a	n/a	VAN	12	11	[0, 0, 0]	n/a	FR1	0	R1196N
1448.359	0.0	2615367	DISTRACT_START	n/a	n/a	n/a	-999	11	[0, 0, 0]	n/a	FR1	0	R1196N
1448.359	0.016	2615367	START	n/a	n/a	n/a	-999	11	[-999, -999, -999]	n/a	FR1	0	R1196N
1448.375	4.918	2615383	PROB	4.918	n/a	n/a	-999	11	[5, 1, 9]	15	FR1	0	R1196N
1453.293	4.951	2620301	PROB	4.951	n/a	n/a	-999	11	[9, 3, 7]	19	FR1	0	R1196N
1458.244	4.235	2625252	PROB	4.235	n/a	n/a	-999	11	[7, 3, 8]	18	FR1	0	R1196N
1462.479	5.417	2629487	PROB	5.417	n/a	n/a	-999	11	[5, 9, 9]	23	FR1	0	R1196N
1467.896	10.09	2634904	PROB	10.09	n/a	n/a	-999	11	[5, 6, 6]	17	FR1	0	R1196N
1477.986	0.012	2644993	STOP	n/a	n/a	n/a	-999	11	[-999, -999, -999]	n/a	FR1	0	R1196N
1477.998	0.667	2645005	DISTRACT_END	n/a	n/a	n/a	-999	11	[0, 0, 0]	n/a	FR1	0	R1196N
1478.665	0.516	2645672	RETRIEVAL_ORIENT	n/a	n/a	n/a	-999	11	[0, 0, 0]	n/a	FR1	0	R1196N
1479.181	1.742	2646188	REC_START	n/a	n/a	n/a	-999	11	[0, 0, 0]	n/a	FR1	0	R1196N
1480.923	1.314	2647930	REC_WORD	1.314	n/a	SLEEVE	10	11	[0, 0, 0]	n/a	FR1	0	R1196N
1482.237	1.067	2649244	REC_WORD	1.067	n/a	PALM	7	11	[0, 0, 0]	n/a	FR1	0	R1196N
1483.304	2.921	2650311	REC_WORD	2.921	n/a	NOSE	8	11	[0, 0, 0]	n/a	FR1	0	R1196N
1486.225	19.461	2653232	REC_WORD_VV	19.461	n/a	<>	-999	11	[0, 0, 0]	n/a	FR1	0	R1196N
1505.686	3.505	2672692	REC_WORD	3.505	n/a	COUCH	11	11	[0, 0, 0]	n/a	FR1	0	R1196N
1509.191	6.313	2676197	REC_END	n/a	n/a	n/a	-999	11	[0, 0, 0]	n/a	FR1	0	R1196N
1515.504	0.5	2682510	TRIAL	n/a	n/a	n/a	-999	12	[0, 0, 0]	n/a	FR1	0	R1196N
1516.004	10.428	2683010	COUNTDOWN_START	n/a	n/a	n/a	-999	12	[0, 0, 0]	n/a	FR1	0	R1196N
1526.432	0.007	2693437	COUNTDOWN_END	n/a	n/a	n/a	-999	12	[0, 0, 0]	n/a	FR1	0	R1196N
1526.439	1.617	2693444	ORIENT	n/a	n/a	n/a	-999	12	[0, 0, 0]	n/a	FR1	0	R1196N
1528.056	2.05	2695061	ORIENT_OFF	n/a	n/a	n/a	-999	12	[0, 0, 0]	n/a	FR1	0	R1196N
1530.106	1.618	2697111	WORD	n/a	wordpools/wordpool_EN.txt	PLANT	1	12	[0, 0, 0]	n/a	FR1	0	R1196N
1531.724	0.867	2698729	WORD_OFF	n/a	n/a	PLANT	1	12	[0, 0, 0]	n/a	FR1	0	R1196N
1532.591	1.616	2699596	WORD	n/a	wordpools/wordpool_EN.txt	EGG	2	12	[0, 0, 0]	n/a	FR1	0	R1196N
1534.207	0.817	2701212	WORD_OFF	n/a	n/a	EGG	2	12	[0, 0, 0]	n/a	FR1	0	R1196N
1535.024	1.617	2702029	WORD	n/a	wordpools/wordpool_EN.txt	FISH	3	12	[0, 0, 0]	n/a	FR1	0	R1196N
1536.641	1.017	2703646	WORD_OFF	n/a	n/a	FISH	3	12	[0, 0, 0]	n/a	FR1	0	R1196N
1537.658	1.616	2704663	WORD	n/a	wordpools/wordpool_EN.txt	SEED	4	12	[0, 0, 0]	n/a	FR1	0	R1196N
1539.274	0.917	2706279	WORD_OFF	n/a	n/a	SEED	4	12	[0, 0, 0]	n/a	FR1	0	R1196N
1540.191	1.618	2707196	WORD	n/a	wordpools/wordpool_EN.txt	ICE	5	12	[0, 0, 0]	n/a	FR1	0	R1196N
1541.809	0.8	2708814	WORD_OFF	n/a	n/a	ICE	5	12	[0, 0, 0]	n/a	FR1	0	R1196N
1542.609	1.616	2709614	WORD	n/a	wordpools/wordpool_EN.txt	SALT	6	12	[0, 0, 0]	n/a	FR1	0	R1196N
1544.225	0.883	2711230	WORD_OFF	n/a	n/a	SALT	6	12	[0, 0, 0]	n/a	FR1	0	R1196N
1545.108	1.601	2712112	WORD	n/a	wordpools/wordpool_EN.txt	MOLE	7	12	[0, 0, 0]	n/a	FR1	0	R1196N
1546.709	0.901	2713713	WORD_OFF	n/a	n/a	MOLE	7	12	[0, 0, 0]	n/a	FR1	0	R1196N
1547.61	1.616	2714614	WORD	n/a	wordpools/wordpool_EN.txt	EEL	8	12	[0, 0, 0]	n/a	FR1	0	R1196N
1549.226	0.801	2716230	WORD_OFF	n/a	n/a	EEL	8	12	[0, 0, 0]	n/a	FR1	0	R1196N
1550.027	1.617	2717031	WORD	n/a	wordpools/wordpool_EN.txt	SPONGE	9	12	[0, 0, 0]	n/a	FR1	0	R1196N
1551.644	1.017	2718648	WORD_OFF	n/a	n/a	SPONGE	9	12	[0, 0, 0]	n/a	FR1	0	R1196N
1552.661	1.615	2719665	WORD	n/a	wordpools/wordpool_EN.txt	NET	10	12	[0, 0, 0]	n/a	FR1	0	R1196N
1554.276	0.901	2721280	WORD_OFF	n/a	n/a	NET	10	12	[0, 0, 0]	n/a	FR1	0	R1196N
1555.177	1.618	2722181	WORD	n/a	wordpools/wordpool_EN.txt	STORE	11	12	[0, 0, 0]	n/a	FR1	0	R1196N
1556.795	0.983	2723799	WORD_OFF	n/a	n/a	STORE	11	12	[0, 0, 0]	n/a	FR1	0	R1196N
1557.778	1.616	2724782	WORD	n/a	wordpools/wordpool_EN.txt	ANT	12	12	[0, 0, 0]	n/a	FR1	0	R1196N
1559.394	0.0	2726398	WORD_OFF	n/a	n/a	ANT	12	12	[0, 0, 0]	n/a	FR1	0	R1196N
1559.394	0.0	2726398	DISTRACT_START	n/a	n/a	n/a	-999	12	[0, 0, 0]	n/a	FR1	0	R1196N
1559.394	0.017	2726398	START	n/a	n/a	n/a	-999	12	[-999, -999, -999]	n/a	FR1	0	R1196N
1559.411	3.618	2726415	PROB	3.618	n/a	n/a	-999	12	[5, 6, 4]	15	FR1	0	R1196N
1563.029	7.701	2730033	PROB	7.701	n/a	n/a	-999	12	[4, 5, 2]	11	FR1	0	R1196N
1570.73	2.901	2737733	PROB	2.901	n/a	n/a	-999	12	[2, 9, 1]	12	FR1	0	R1196N
1573.631	3.533	2740634	PROB	3.533	n/a	n/a	-999	12	[9, 9, 5]	23	FR1	0	R1196N
1577.164	7.84	2744167	PROB	7.84	n/a	n/a	-999	12	[4, 9, 4]	17	FR1	0	R1196N
1585.004	0.012	2752007	STOP	n/a	n/a	n/a	-999	12	[-999, -999, -999]	n/a	FR1	0	R1196N
1585.016	0.55	2752019	DISTRACT_END	n/a	n/a	n/a	-999	12	[0, 0, 0]	n/a	FR1	0	R1196N
1585.566	0.518	2752569	RETRIEVAL_ORIENT	n/a	n/a	n/a	-999	12	[0, 0, 0]	n/a	FR1	0	R1196N
1586.084	1.551	2753087	REC_START	n/a	n/a	n/a	-999	12	[0, 0, 0]	n/a	FR1	0	R1196N
1587.635	1.349	2754638	REC_WORD	1.349	n/a	EGG	2	12	[0, 0, 0]	n/a	FR1	0	R1196N
1588.984	1.403	2755987	REC_WORD	1.403	n/a	PLANT	1	12	[0, 0, 0]	n/a	FR1	0	R1196N
1590.387	5.213	2757390	REC_WORD	5.213	n/a	MOLE	7	12	[0, 0, 0]	n/a	FR1	0	R1196N
1595.6	1.449	2762602	REC_WORD	1.449	n/a	FISH	3	12	[0, 0, 0]	n/a	FR1	0	R1196N
1597.049	8.661	2764051	REC_WORD	8.661	n/a	SEED	4	12	[0, 0, 0]	n/a	FR1	0	R1196N
1605.71	10.386	2772712	REC_WORD	10.386	n/a	SPONGE	9	12	[0, 0, 0]	n/a	FR1	0	R1196N
1616.096	6.325	2783098	REC_END	n/a	n/a	n/a	-999	12	[0, 0, 0]	n/a	FR1	0	R1196N
1622.421	0.5	2789422	TRIAL	n/a	n/a	n/a	-999	13	[0, 0, 0]	n/a	FR1	0	R1196N
1622.921	10.428	2789922	COUNTDOWN_START	n/a	n/a	n/a	-999	13	[0, 0, 0]	n/a	FR1	0	R1196N
1633.349	0.007	2800350	COUNTDOWN_END	n/a	n/a	n/a	-999	13	[0, 0, 0]	n/a	FR1	0	R1196N
1633.356	1.618	2800357	ORIENT	n/a	n/a	n/a	-999	13	[0, 0, 0]	n/a	FR1	0	R1196N
1634.974	1.984	2801975	ORIENT_OFF	n/a	n/a	n/a	-999	13	[0, 0, 0]	n/a	FR1	0	R1196N
1636.958	1.617	2803959	WORD	n/a	wordpools/wordpool_EN.txt	LAND	1	13	[0, 0, 0]	n/a	FR1	0	R1196N
1638.575	0.799	2805576	WORD_OFF	n/a	n/a	LAND	1	13	[0, 0, 0]	n/a	FR1	0	R1196N
1639.374	1.618	2806375	WORD	n/a	wordpools/wordpool_EN.txt	CHIEF	2	13	[0, 0, 0]	n/a	FR1	0	R1196N
1640.992	0.85	2807993	WORD_OFF	n/a	n/a	CHIEF	2	13	[0, 0, 0]	n/a	FR1	0	R1196N
1641.842	1.617	2808843	WORD	n/a	wordpools/wordpool_EN.txt	TEA	3	13	[0, 0, 0]	n/a	FR1	0	R1196N
1643.459	0.949	2810460	WORD_OFF	n/a	n/a	TEA	3	13	[0, 0, 0]	n/a	FR1	0	R1196N
1644.408	1.618	2811408	WORD	n/a	wordpools/wordpool_EN.txt	SWORD	4	13	[0, 0, 0]	n/a	FR1	0	R1196N
1646.026	0.934	2813026	WORD_OFF	n/a	n/a	SWORD	4	13	[0, 0, 0]	n/a	FR1	0	R1196N
1646.96	1.617	2813960	WORD	n/a	wordpools/wordpool_EN.txt	CROW	5	13	[0, 0, 0]	n/a	FR1	0	R1196N
1648.577	0.966	2815577	WORD_OFF	n/a	n/a	CROW	5	13	[0, 0, 0]	n/a	FR1	0	R1196N
1649.543	1.616	2816543	WORD	n/a	wordpools/wordpool_EN.txt	RICE	6	13	[0, 0, 0]	n/a	FR1	0	R1196N
1651.159	0.951	2818159	WORD_OFF	n/a	n/a	RICE	6	13	[0, 0, 0]	n/a	FR1	0	R1196N
1652.11	1.601	2819110	WORD	n/a	wordpools/wordpool_EN.txt	DRESS	7	13	[0, 0, 0]	n/a	FR1	0	R1196N
1653.711	0.883	2820711	WORD_OFF	n/a	n/a	DRESS	7	13	[0, 0, 0]	n/a	FR1	0	R1196N
1654.594	1.616	2821594	WORD	n/a	wordpools/wordpool_EN.txt	PEARL	8	13	[0, 0, 0]	n/a	FR1	0	R1196N
1656.21	0.967	2823210	WORD_OFF	n/a	n/a	PEARL	8	13	[0, 0, 0]	n/a	FR1	0	R1196N
1657.177	1.601	2824177	WORD	n/a	wordpools/wordpool_EN.txt	FROG	9	13	[0, 0, 0]	n/a	FR1	0	R1196N
1658.778	0.884	2825778	WORD_OFF	n/a	n/a	FROG	9	13	[0, 0, 0]	n/a	FR1	0	R1196N
1659.662	1.616	2826662	WORD	n/a	wordpools/wordpool_EN.txt	LAMB	10	13	[0, 0, 0]	n/a	FR1	0	R1196N
1661.278	0.967	2828278	WORD_OFF	n/a	n/a	LAMB	10	13	[0, 0, 0]	n/a	FR1	0	R1196N
1662.245	1.618	2829245	WORD	n/a	wordpools/wordpool_EN.txt	FOOD	11	13	[0, 0, 0]	n/a	FR1	0	R1196N
1663.863	0.966	2830863	WORD_OFF	n/a	n/a	FOOD	11	13	[0, 0, 0]	n/a	FR1	0	R1196N
1664.829	1.616	2831829	WORD	n/a	wordpools/wordpool_EN.txt	LAMP	12	13	[0, 0, 0]	n/a	FR1	0	R1196N
1666.445	0.0	2833445	WORD_OFF	n/a	n/a	LAMP	12	13	[0, 0, 0]	n/a	FR1	0	R1196N
1666.445	0.002	2833445	DISTRACT_START	n/a	n/a	n/a	-999	13	[0, 0, 0]	n/a	FR1	0	R1196N
1666.447	0.016	2833447	START	n/a	n/a	n/a	-999	13	[-999, -999, -999]	n/a	FR1	0	R1196N
1666.463	12.002	2833463	PROB	12.002	n/a	n/a	-999	13	[8, 8, 4]	20	FR1	0	R1196N
1678.465	6.018	2845464	PROB	6.018	n/a	n/a	-999	13	[5, 3, 2]	10	FR1	0	R1196N
1684.483	8.969	2851482	PROB	8.969	n/a	n/a	-999	13	[5, 5, 8]	18	FR1	0	R1196N
1693.452	0.016	2860451	STOP	n/a	n/a	n/a	-999	13	[-999, -999, -999]	n/a	FR1	0	R1196N
1693.468	0.516	2860467	DISTRACT_END	n/a	n/a	n/a	-999	13	[0, 0, 0]	n/a	FR1	0	R1196N
1693.984	0.518	2860982	RETRIEVAL_ORIENT	n/a	n/a	n/a	-999	13	[0, 0, 0]	n/a	FR1	0	R1196N
1694.502	2.227	2861500	REC_START	n/a	n/a	n/a	-999	13	[0, 0, 0]	n/a	FR1	0	R1196N
1696.729	0.627	2863727	REC_WORD_VV	0.627	n/a	<>	-999	13	[0, 0, 0]	n/a	FR1	0	R1196N
1697.356	27.155	2864354	REC_WORD	27.155	n/a	CROW	5	13	[0, 0, 0]	n/a	FR1	0	R1196N
1724.511	5.296	2891508	REC_END	n/a	n/a	n/a	-999	13	[0, 0, 0]	n/a	FR1	0	R1196N
1729.807	0.5	2896804	TRIAL	n/a	n/a	n/a	-999	14	[0, 0, 0]	n/a	FR1	0	R1196N
1730.307	10.428	2897304	COUNTDOWN_START	n/a	n/a	n/a	-999	14	[0, 0, 0]	n/a	FR1	0	R1196N
1740.735	0.007	2907732	COUNTDOWN_END	n/a	n/a	n/a	-999	14	[0, 0, 0]	n/a	FR1	0	R1196N
1740.742	1.616	2907739	ORIENT	n/a	n/a	n/a	-999	14	[0, 0, 0]	n/a	FR1	0	R1196N
1742.358	2.118	2909355	ORIENT_OFF	n/a	n/a	n/a	-999	14	[0, 0, 0]	n/a	FR1	0	R1196N
1744.476	1.617	2911472	WORD	n/a	wordpools/wordpool_EN.txt	HEN	1	14	[0, 0, 0]	n/a	FR1	0	R1196N
1746.093	0.85	2913089	WORD_OFF	n/a	n/a	HEN	1	14	[0, 0, 0]	n/a	FR1	0	R1196N
1746.943	1.617	2913939	WORD	n/a	wordpools/wordpool_EN.txt	DOG	2	14	[0, 0, 0]	n/a	FR1	0	R1196N
1748.56	0.833	2915556	WORD_OFF	n/a	n/a	DOG	2	14	[0, 0, 0]	n/a	FR1	0	R1196N
1749.393	1.618	2916389	WORD	n/a	wordpools/wordpool_EN.txt	JET	3	14	[0, 0, 0]	n/a	FR1	0	R1196N
1751.011	0.816	2918007	WORD_OFF	n/a	n/a	JET	3	14	[0, 0, 0]	n/a	FR1	0	R1196N
1751.827	1.616	2918823	WORD	n/a	wordpools/wordpool_EN.txt	BOAT	4	14	[0, 0, 0]	n/a	FR1	0	R1196N
1753.443	0.984	2920439	WORD_OFF	n/a	n/a	BOAT	4	14	[0, 0, 0]	n/a	FR1	0	R1196N
1754.427	1.618	2921423	WORD	n/a	wordpools/wordpool_EN.txt	RAIN	5	14	[0, 0, 0]	n/a	FR1	0	R1196N
1756.045	0.933	2923041	WORD_OFF	n/a	n/a	RAIN	5	14	[0, 0, 0]	n/a	FR1	0	R1196N
1756.978	1.617	2923974	WORD	n/a	wordpools/wordpool_EN.txt	HILL	6	14	[0, 0, 0]	n/a	FR1	0	R1196N
1758.595	0.984	2925591	WORD_OFF	n/a	n/a	HILL	6	14	[0, 0, 0]	n/a	FR1	0	R1196N
1759.579	1.616	2926575	WORD	n/a	wordpools/wordpool_EN.txt	FOG	7	14	[0, 0, 0]	n/a	FR1	0	R1196N
1761.195	0.801	2928191	WORD_OFF	n/a	n/a	FOG	7	14	[0, 0, 0]	n/a	FR1	0	R1196N
1761.996	1.617	2928992	WORD	n/a	wordpools/wordpool_EN.txt	TRAIN	8	14	[0, 0, 0]	n/a	FR1	0	R1196N
1763.613	0.799	2930609	WORD_OFF	n/a	n/a	TRAIN	8	14	[0, 0, 0]	n/a	FR1	0	R1196N
1764.412	1.618	2931408	WORD	n/a	wordpools/wordpool_EN.txt	MOOSE	9	14	[0, 0, 0]	n/a	FR1	0	R1196N
1766.03	1.016	2933026	WORD_OFF	n/a	n/a	MOOSE	9	14	[0, 0, 0]	n/a	FR1	0	R1196N
1767.046	1.617	2934042	WORD	n/a	wordpools/wordpool_EN.txt	SNOW	10	14	[0, 0, 0]	n/a	FR1	0	R1196N
1768.663	0.951	2935658	WORD_OFF	n/a	n/a	SNOW	10	14	[0, 0, 0]	n/a	FR1	0	R1196N
1769.614	1.616	2936609	WORD	n/a	wordpools/wordpool_EN.txt	SMOKE	11	14	[0, 0, 0]	n/a	FR1	0	R1196N
1771.23	0.95	2938225	WORD_OFF	n/a	n/a	SMOKE	11	14	[0, 0, 0]	n/a	FR1	0	R1196N
1772.18	1.618	2939175	WORD	n/a	wordpools/wordpool_EN.txt	LAKE	12	14	[0, 0, 0]	n/a	FR1	0	R1196N
1773.798	0.0	2940793	WORD_OFF	n/a	n/a	LAKE	12	14	[0, 0, 0]	n/a	FR1	0	R1196N
1773.798	0.0	2940793	DISTRACT_START	n/a	n/a	n/a	-999	14	[0, 0, 0]	n/a	FR1	0	R1196N
1773.798	0.016	2940793	START	n/a	n/a	n/a	-999	14	[-999, -999, -999]	n/a	FR1	0	R1196N
1773.814	5.668	2940809	PROB	5.668	n/a	n/a	-999	14	[1, 4, 3]	8	FR1	0	R1196N
1779.482	5.167	2946477	PROB	5.167	n/a	n/a	-999	14	[8, 5, 2]	15	FR1	0	R1196N
1784.649	6.385	2951644	PROB	6.385	n/a	n/a	-999	14	[2, 6, 8]	16	FR1	0	R1196N
1791.034	7.465	2958029	PROB	7.465	n/a	n/a	-999	14	[3, 7, 2]	12	FR1	0	R1196N
1798.499	0.02	2965493	STOP	n/a	n/a	n/a	-999	14	[-999, -999, -999]	n/a	FR1	0	R1196N
1798.519	0.649	2965513	DISTRACT_END	n/a	n/a	n/a	-999	14	[0, 0, 0]	n/a	FR1	0	R1196N
1799.168	0.518	2966162	RETRIEVAL_ORIENT	n/a	n/a	n/a	-999	14	[0, 0, 0]	n/a	FR1	0	R1196N
1799.686	8.364	2966680	REC_START	n/a	n/a	n/a	-999	14	[0, 0, 0]	n/a	FR1	0	R1196N
1808.05	0.928	2975044	REC_WORD	0.928	n/a	DOG	2	14	[0, 0, 0]	n/a	FR1	0	R1196N
1808.978	1.16	2975972	REC_WORD	1.16	n/a	HEN	1	14	[0, 0, 0]	n/a	FR1	0	R1196N
1810.138	1.641	2977132	REC_WORD	1.641	n/a	JET	3	14	[0, 0, 0]	n/a	FR1	0	R1196N
1811.779	1.604	2978773	REC_WORD	1.604	n/a	RAIN	5	14	[0, 0, 0]	n/a	FR1	0	R1196N
1813.383	11.283	2980377	REC_WORD	11.283	n/a	SNOW	10	14	[0, 0, 0]	n/a	FR1	0	R1196N
1824.666	0.903	2991659	REC_WORD	0.903	n/a	BOAT	4	14	[0, 0, 0]	n/a	FR1	0	R1196N
1825.569	4.125	2992562	REC_WORD	4.125	n/a	HILL	6	14	[0, 0, 0]	n/a	FR1	0	R1196N
1829.694	6.513	2996687	REC_END	n/a	n/a	n/a	-999	14	[0, 0, 0]	n/a	FR1	0	R1196N
1836.207	0.5	3003200	TRIAL	n/a	n/a	n/a	-999	15	[0, 0, 0]	n/a	FR1	0	R1196N
1836.707	10.428	3003700	COUNTDOWN_START	n/a	n/a	n/a	-999	15	[0, 0, 0]	n/a	FR1	0	R1196N
1847.135	0.007	3014127	COUNTDOWN_END	n/a	n/a	n/a	-999	15	[0, 0, 0]	n/a	FR1	0	R1196N
1847.142	1.618	3014134	ORIENT	n/a	n/a	n/a	-999	15	[0, 0, 0]	n/a	FR1	0	R1196N
1848.76	1.984	3015752	ORIENT_OFF	n/a	n/a	n/a	-999	15	[0, 0, 0]	n/a	FR1	0	R1196N
1850.744	1.616	3017736	WORD	n/a	wordpools/wordpool_EN.txt	TANK	1	15	[0, 0, 0]	n/a	FR1	0	R1196N
1852.36	1.0	3019352	WORD_OFF	n/a	n/a	TANK	1	15	[0, 0, 0]	n/a	FR1	0	R1196N
1853.36	1.618	3020352	WORD	n/a	wordpools/wordpool_EN.txt	COIN	2	15	[0, 0, 0]	n/a	FR1	0	R1196N
1854.978	1.017	3021970	WORD_OFF	n/a	n/a	COIN	2	15	[0, 0, 0]	n/a	FR1	0	R1196N
1855.995	1.617	3022987	WORD	n/a	wordpools/wordpool_EN.txt	FLUTE	3	15	[0, 0, 0]	n/a	FR1	0	R1196N
1857.612	0.983	3024604	WORD_OFF	n/a	n/a	FLUTE	3	15	[0, 0, 0]	n/a	FR1	0	R1196N
1858.595	1.616	3025587	WORD	n/a	wordpools/wordpool_EN.txt	CLOTH	4	15	[0, 0, 0]	n/a	FR1	0	R1196N
1860.211	0.967	3027203	WORD_OFF	n/a	n/a	CLOTH	4	15	[0, 0, 0]	n/a	FR1	0	R1196N
1861.178	1.618	3028170	WORD	n/a	wordpools/wordpool_EN.txt	SCHOOL	5	15	[0, 0, 0]	n/a	FR1	0	R1196N
1862.796	0.933	3029788	WORD_OFF	n/a	n/a	SCHOOL	5	15	[0, 0, 0]	n/a	FR1	0	R1196N
1863.729	1.616	3030721	WORD	n/a	wordpools/wordpool_EN.txt	SOAP	6	15	[0, 0, 0]	n/a	FR1	0	R1196N
1865.345	0.901	3032337	WORD_OFF	n/a	n/a	SOAP	6	15	[0, 0, 0]	n/a	FR1	0	R1196N
1866.246	1.617	3033238	WORD	n/a	wordpools/wordpool_EN.txt	DIME	7	15	[0, 0, 0]	n/a	FR1	0	R1196N
1867.863	0.917	3034854	WORD_OFF	n/a	n/a	DIME	7	15	[0, 0, 0]	n/a	FR1	0	R1196N
1868.78	1.616	3035771	WORD	n/a	wordpools/wordpool_EN.txt	SPARK	8	15	[0, 0, 0]	n/a	FR1	0	R1196N
1870.396	0.934	3037387	WORD_OFF	n/a	n/a	SPARK	8	15	[0, 0, 0]	n/a	FR1	0	R1196N
1871.33	1.601	3038321	WORD	n/a	wordpools/wordpool_EN.txt	INK	9	15	[0, 0, 0]	n/a	FR1	0	R1196N
1872.931	0.967	3039922	WORD_OFF	n/a	n/a	INK	9	15	[0, 0, 0]	n/a	FR1	0	R1196N
1873.898	1.617	3040889	WORD	n/a	wordpools/wordpool_EN.txt	BOX	10	15	[0, 0, 0]	n/a	FR1	0	R1196N
1875.515	0.899	3042506	WORD_OFF	n/a	n/a	BOX	10	15	[0, 0, 0]	n/a	FR1	0	R1196N
1876.414	1.618	3043405	WORD	n/a	wordpools/wordpool_EN.txt	WOOD	11	15	[0, 0, 0]	n/a	FR1	0	R1196N
1878.032	0.8	3045023	WORD_OFF	n/a	n/a	WOOD	11	15	[0, 0, 0]	n/a	FR1	0	R1196N
1878.832	1.617	3045823	WORD	n/a	wordpools/wordpool_EN.txt	HOSE	12	15	[0, 0, 0]	n/a	FR1	0	R1196N
1880.449	0.0	3047440	WORD_OFF	n/a	n/a	HOSE	12	15	[0, 0, 0]	n/a	FR1	0	R1196N
1880.449	0.0	3047440	DISTRACT_START	n/a	n/a	n/a	-999	15	[0, 0, 0]	n/a	FR1	0	R1196N
1880.449	0.017	3047440	START	n/a	n/a	n/a	-999	15	[-999, -999, -999]	n/a	FR1	0	R1196N
1880.466	7.384	3047457	PROB	7.384	n/a	n/a	-999	15	[6, 5, 2]	13	FR1	0	R1196N
1887.85	6.751	3054841	PROB	6.751	n/a	n/a	-999	15	[7, 5, 2]	14	FR1	0	R1196N
1894.601	16.89	3061591	PROB	16.89	n/a	n/a	-999	15	[4, 9, 8]	21	FR1	0	R1196N
1911.491	0.013	3078481	STOP	n/a	n/a	n/a	-999	15	[-999, -999, -999]	n/a	FR1	0	R1196N
1911.504	0.567	3078494	DISTRACT_END	n/a	n/a	n/a	-999	15	[0, 0, 0]	n/a	FR1	0	R1196N
1912.071	0.517	3079061	RETRIEVAL_ORIENT	n/a	n/a	n/a	-999	15	[0, 0, 0]	n/a	FR1	0	R1196N
1912.588	8.318	3079578	REC_START	n/a	n/a	n/a	-999	15	[0, 0, 0]	n/a	FR1	0	R1196N
1920.906	8.991	3087895	REC_WORD	8.991	n/a	TANK	1	15	[0, 0, 0]	n/a	FR1	0	R1196N
1929.897	1.228	3096886	REC_WORD	1.228	n/a	SOAP	6	15	[0, 0, 0]	n/a	FR1	0	R1196N
1931.125	11.473	3098114	REC_WORD	11.473	n/a	DIME	7	15	[0, 0, 0]	n/a	FR1	0	R1196N
1942.598	5.795	3109586	REC_END	n/a	n/a	n/a	-999	15	[0, 0, 0]	n/a	FR1	0	R1196N
1948.393	0.5	3115381	TRIAL	n/a	n/a	n/a	-999	16	[0, 0, 0]	n/a	FR1	0	R1196N
1948.893	10.428	3115881	COUNTDOWN_START	n/a	n/a	n/a	-999	16	[0, 0, 0]	n/a	FR1	0	R1196N
1959.321	0.007	3126309	COUNTDOWN_END	n/a	n/a	n/a	-999	16	[0, 0, 0]	n/a	FR1	0	R1196N
1959.328	1.618	3126316	ORIENT	n/a	n/a	n/a	-999	16	[0, 0, 0]	n/a	FR1	0	R1196N
1960.946	1.867	3127934	ORIENT_OFF	n/a	n/a	n/a	-999	16	[0, 0, 0]	n/a	FR1	0	R1196N
1962.813	1.616	3129801	WORD	n/a	wordpools/wordpool_EN.txt	BLUSH	1	16	[0, 0, 0]	n/a	FR1	0	R1196N
1964.429	0.95	3131417	WORD_OFF	n/a	n/a	BLUSH	1	16	[0, 0, 0]	n/a	FR1	0	R1196N
1965.379	1.618	3132367	WORD	n/a	wordpools/wordpool_EN.txt	CORN	2	16	[0, 0, 0]	n/a	FR1	0	R1196N
1966.997	0.767	3133984	WORD_OFF	n/a	n/a	CORN	2	16	[0, 0, 0]	n/a	FR1	0	R1196N
1967.764	1.616	3134751	WORD	n/a	wordpools/wordpool_EN.txt	FARM	3	16	[0, 0, 0]	n/a	FR1	0	R1196N
1969.38	0.916	3136367	WORD_OFF	n/a	n/a	FARM	3	16	[0, 0, 0]	n/a	FR1	0	R1196N
1970.296	1.601	3137283	WORD	n/a	wordpools/wordpool_EN.txt	MILK	4	16	[0, 0, 0]	n/a	FR1	0	R1196N
1971.897	0.784	3138884	WORD_OFF	n/a	n/a	MILK	4	16	[0, 0, 0]	n/a	FR1	0	R1196N
1972.681	1.616	3139668	WORD	n/a	wordpools/wordpool_EN.txt	HORN	5	16	[0, 0, 0]	n/a	FR1	0	R1196N
1974.297	0.833	3141284	WORD_OFF	n/a	n/a	HORN	5	16	[0, 0, 0]	n/a	FR1	0	R1196N
1975.13	1.601	3142117	WORD	n/a	wordpools/wordpool_EN.txt	SPRING	6	16	[0, 0, 0]	n/a	FR1	0	R1196N
1976.731	1.001	3143718	WORD_OFF	n/a	n/a	SPRING	6	16	[0, 0, 0]	n/a	FR1	0	R1196N
1977.732	1.616	3144719	WORD	n/a	wordpools/wordpool_EN.txt	JEEP	7	16	[0, 0, 0]	n/a	FR1	0	R1196N
1979.348	0.783	3146335	WORD_OFF	n/a	n/a	JEEP	7	16	[0, 0, 0]	n/a	FR1	0	R1196N
1980.131	1.601	3147118	WORD	n/a	wordpools/wordpool_EN.txt	BOARD	8	16	[0, 0, 0]	n/a	FR1	0	R1196N
1981.732	0.867	3148719	WORD_OFF	n/a	n/a	BOARD	8	16	[0, 0, 0]	n/a	FR1	0	R1196N
1982.599	1.616	3149586	WORD	n/a	wordpools/wordpool_EN.txt	CART	9	16	[0, 0, 0]	n/a	FR1	0	R1196N
1984.215	0.818	3151202	WORD_OFF	n/a	n/a	CART	9	16	[0, 0, 0]	n/a	FR1	0	R1196N
1985.033	1.617	3152020	WORD	n/a	wordpools/wordpool_EN.txt	CALF	10	16	[0, 0, 0]	n/a	FR1	0	R1196N
1986.65	0.85	3153637	WORD_OFF	n/a	n/a	CALF	10	16	[0, 0, 0]	n/a	FR1	0	R1196N
1987.5	1.616	3154487	WORD	n/a	wordpools/wordpool_EN.txt	BOWL	11	16	[0, 0, 0]	n/a	FR1	0	R1196N
1989.116	0.835	3156103	WORD_OFF	n/a	n/a	BOWL	11	16	[0, 0, 0]	n/a	FR1	0	R1196N
1989.951	1.617	3156938	WORD	n/a	wordpools/wordpool_EN.txt	BAG	12	16	[0, 0, 0]	n/a	FR1	0	R1196N
1991.568	0.0	3158555	WORD_OFF	n/a	n/a	BAG	12	16	[0, 0, 0]	n/a	FR1	0	R1196N
1991.568	0.0	3158555	DISTRACT_START	n/a	n/a	n/a	-999	16	[0, 0, 0]	n/a	FR1	0	R1196N
1991.568	0.016	3158555	START	n/a	n/a	n/a	-999	16	[-999, -999, -999]	n/a	FR1	0	R1196N
1991.584	6.734	3158570	PROB	6.734	n/a	n/a	-999	16	[7, 4, 2]	13	FR1	0	R1196N
1998.318	4.867	3165304	PROB	4.867	n/a	n/a	-999	16	[3, 6, 7]	16	FR1	0	R1196N
2003.185	4.934	3170171	PROB	4.934	n/a	n/a	-999	16	[1, 4, 8]	13	FR1	0	R1196N
2008.119	2.952	3175105	PROB	2.952	n/a	n/a	-999	16	[1, 5, 5]	11	FR1	0	R1196N
2011.071	3.396	3178057	PROB	3.396	n/a	n/a	-999	16	[2, 7, 2]	11	FR1	0	R1196N
2014.467	0.004	3181453	STOP	n/a	n/a	n/a	-999	16	[-999, -999, -999]	n/a	FR1	0	R1196N
2014.471	0.7	3181457	DISTRACT_END	n/a	n/a	n/a	-999	16	[0, 0, 0]	n/a	FR1	0	R1196N
2015.171	0.518	3182157	RETRIEVAL_ORIENT	n/a	n/a	n/a	-999	16	[0, 0, 0]	n/a	FR1	0	R1196N
2015.689	1.667	3182675	REC_START	n/a	n/a	n/a	-999	16	[0, 0, 0]	n/a	FR1	0	R1196N
2017.356	1.0	3184341	REC_WORD	1.0	n/a	SPRING	6	16	[0, 0, 0]	n/a	FR1	0	R1196N
2018.356	0.871	3185341	REC_WORD_VV	0.871	n/a	<>	-999	16	[0, 0, 0]	n/a	FR1	0	R1196N
2019.227	1.331	3186212	REC_WORD	1.331	n/a	HORN	5	16	[0, 0, 0]	n/a	FR1	0	R1196N
2020.558	25.14	3187543	REC_WORD	25.14	n/a	BOARD	8	16	[0, 0, 0]	n/a	FR1	0	R1196N
2045.698	5.863	3212682	REC_END	n/a	n/a	n/a	-999	16	[0, 0, 0]	n/a	FR1	0	R1196N
2051.561	0.5	3218545	TRIAL	n/a	n/a	n/a	-999	17	[0, 0, 0]	n/a	FR1	0	R1196N
2052.061	10.428	3219045	COUNTDOWN_START	n/a	n/a	n/a	-999	17	[0, 0, 0]	n/a	FR1	0	R1196N
2062.489	0.007	3229473	COUNTDOWN_END	n/a	n/a	n/a	-999	17	[0, 0, 0]	n/a	FR1	0	R1196N
2062.496	1.616	3229480	ORIENT	n/a	n/a	n/a	-999	17	[0, 0, 0]	n/a	FR1	0	R1196N
2064.112	1.985	3231096	ORIENT_OFF	n/a	n/a	n/a	-999	17	[0, 0, 0]	n/a	FR1	0	R1196N
2066.097	1.617	3233080	WORD	n/a	wordpools/wordpool_EN.txt	BEACH	1	17	[0, 0, 0]	n/a	FR1	0	R1196N
2067.714	0.85	3234697	WORD_OFF	n/a	n/a	BEACH	1	17	[0, 0, 0]	n/a	FR1	0	R1196N
2068.564	1.616	3235547	WORD	n/a	wordpools/wordpool_EN.txt	ROPE	2	17	[0, 0, 0]	n/a	FR1	0	R1196N
2070.18	0.901	3237163	WORD_OFF	n/a	n/a	ROPE	2	17	[0, 0, 0]	n/a	FR1	0	R1196N
2071.081	1.617	3238064	WORD	n/a	wordpools/wordpool_EN.txt	SHIELD	3	17	[0, 0, 0]	n/a	FR1	0	R1196N
2072.698	0.867	3239681	WORD_OFF	n/a	n/a	SHIELD	3	17	[0, 0, 0]	n/a	FR1	0	R1196N
2073.565	1.616	3240548	WORD	n/a	wordpools/wordpool_EN.txt	SUN	4	17	[0, 0, 0]	n/a	FR1	0	R1196N
2075.181	1.0	3242164	WORD_OFF	n/a	n/a	SUN	4	17	[0, 0, 0]	n/a	FR1	0	R1196N
2076.181	1.618	3243164	WORD	n/a	wordpools/wordpool_EN.txt	SHELL	5	17	[0, 0, 0]	n/a	FR1	0	R1196N
2077.799	0.95	3244782	WORD_OFF	n/a	n/a	SHELL	5	17	[0, 0, 0]	n/a	FR1	0	R1196N
2078.749	1.616	3245732	WORD	n/a	wordpools/wordpool_EN.txt	ROCK	6	17	[0, 0, 0]	n/a	FR1	0	R1196N
2080.365	0.916	3247348	WORD_OFF	n/a	n/a	ROCK	6	17	[0, 0, 0]	n/a	FR1	0	R1196N
2081.281	1.602	3248264	WORD	n/a	wordpools/wordpool_EN.txt	APE	7	17	[0, 0, 0]	n/a	FR1	0	R1196N
2082.883	0.85	3249866	WORD_OFF	n/a	n/a	APE	7	17	[0, 0, 0]	n/a	FR1	0	R1196N
2083.733	1.616	3250716	WORD	n/a	wordpools/wordpool_EN.txt	BRIDGE	8	17	[0, 0, 0]	n/a	FR1	0	R1196N
2085.349	1.017	3252332	WORD_OFF	n/a	n/a	BRIDGE	8	17	[0, 0, 0]	n/a	FR1	0	R1196N
2086.366	1.618	3253349	WORD	n/a	wordpools/wordpool_EN.txt	SEA	9	17	[0, 0, 0]	n/a	FR1	0	R1196N
2087.984	0.983	3254967	WORD_OFF	n/a	n/a	SEA	9	17	[0, 0, 0]	n/a	FR1	0	R1196N
2088.967	1.617	3255950	WORD	n/a	wordpools/wordpool_EN.txt	SNAIL	10	17	[0, 0, 0]	n/a	FR1	0	R1196N
2090.584	0.816	3257567	WORD_OFF	n/a	n/a	SNAIL	10	17	[0, 0, 0]	n/a	FR1	0	R1196N
2091.4	1.618	3258382	WORD	n/a	wordpools/wordpool_EN.txt	BRICK	11	17	[0, 0, 0]	n/a	FR1	0	R1196N
2093.018	0.9	3260000	WORD_OFF	n/a	n/a	BRICK	11	17	[0, 0, 0]	n/a	FR1	0	R1196N
2093.918	1.617	3260900	WORD	n/a	wordpools/wordpool_EN.txt	STONE	12	17	[0, 0, 0]	n/a	FR1	0	R1196N
2095.535	0.0	3262517	DISTRACT_START	n/a	n/a	n/a	-999	17	[0, 0, 0]	n/a	FR1	0	R1196N
2095.535	0.0	3262517	WORD_OFF	n/a	n/a	STONE	12	17	[0, 0, 0]	n/a	FR1	0	R1196N
2095.535	0.017	3262517	START	n/a	n/a	n/a	-999	17	[-999, -999, -999]	n/a	FR1	0	R1196N
2095.552	3.467	3262534	PROB	3.467	n/a	n/a	-999	17	[1, 1, 5]	7	FR1	0	R1196N
2099.019	6.651	3266001	PROB	6.651	n/a	n/a	-999	17	[8, 9, 4]	21	FR1	0	R1196N
2105.67	4.717	3272652	PROB	4.717	n/a	n/a	-999	17	[5, 6, 5]	16	FR1	0	R1196N
2110.387	6.824	3277369	PROB	6.824	n/a	n/a	-999	17	[5, 9, 8]	22	FR1	0	R1196N
2117.211	0.01	3284192	STOP	n/a	n/a	n/a	-999	17	[-999, -999, -999]	n/a	FR1	0	R1196N
2117.221	0.584	3284202	DISTRACT_END	n/a	n/a	n/a	-999	17	[0, 0, 0]	n/a	FR1	0	R1196N
2117.805	0.517	3284786	RETRIEVAL_ORIENT	n/a	n/a	n/a	-999	17	[0, 0, 0]	n/a	FR1	0	R1196N
2118.322	1.612	3285303	REC_START	n/a	n/a	n/a	-999	17	[0, 0, 0]	n/a	FR1	0	R1196N
2119.934	1.008	3286915	REC_WORD	1.008	n/a	BEACH	1	17	[0, 0, 0]	n/a	FR1	0	R1196N
2120.942	1.309	3287923	REC_WORD	1.309	n/a	SEA	9	17	[0, 0, 0]	n/a	FR1	0	R1196N
2122.251	1.962	3289232	REC_WORD	1.962	n/a	SHELL	5	17	[0, 0, 0]	n/a	FR1	0	R1196N
2124.213	5.747	3291194	REC_WORD	5.747	n/a	ROPE	2	17	[0, 0, 0]	n/a	FR1	0	R1196N
2129.96	16.231	3296941	REC_WORD	16.231	n/a	STONE	12	17	[0, 0, 0]	n/a	FR1	0	R1196N
2146.191	2.141	3313171	REC_WORD	2.141	n/a	JEEP	-999	17	[0, 0, 0]	n/a	FR1	0	R1196N
2148.332	5.413	3315312	REC_END	n/a	n/a	n/a	-999	17	[0, 0, 0]	n/a	FR1	0	R1196N
2153.745	0.5	3320725	TRIAL	n/a	n/a	n/a	-999	18	[0, 0, 0]	n/a	FR1	0	R1196N
2154.245	10.428	3321225	COUNTDOWN_START	n/a	n/a	n/a	-999	18	[0, 0, 0]	n/a	FR1	0	R1196N
2164.673	0.007	3331653	COUNTDOWN_END	n/a	n/a	n/a	-999	18	[0, 0, 0]	n/a	FR1	0	R1196N
2164.68	1.616	3331660	ORIENT	n/a	n/a	n/a	-999	18	[0, 0, 0]	n/a	FR1	0	R1196N
2166.296	1.817	3333275	ORIENT_OFF	n/a	n/a	n/a	-999	18	[0, 0, 0]	n/a	FR1	0	R1196N
2168.113	1.618	3335092	WORD	n/a	wordpools/wordpool_EN.txt	BEE	1	18	[0, 0, 0]	n/a	FR1	0	R1196N
2169.731	0.817	3336710	WORD_OFF	n/a	n/a	BEE	1	18	[0, 0, 0]	n/a	FR1	0	R1196N
2170.548	1.616	3337527	WORD	n/a	wordpools/wordpool_EN.txt	POND	2	18	[0, 0, 0]	n/a	FR1	0	R1196N
2172.164	1.0	3339143	WORD_OFF	n/a	n/a	POND	2	18	[0, 0, 0]	n/a	FR1	0	R1196N
2173.164	1.618	3340143	WORD	n/a	wordpools/wordpool_EN.txt	CHALK	3	18	[0, 0, 0]	n/a	FR1	0	R1196N
2174.782	0.833	3341761	WORD_OFF	n/a	n/a	CHALK	3	18	[0, 0, 0]	n/a	FR1	0	R1196N
2175.615	1.616	3342594	WORD	n/a	wordpools/wordpool_EN.txt	STOVE	4	18	[0, 0, 0]	n/a	FR1	0	R1196N
2177.231	0.934	3344210	WORD_OFF	n/a	n/a	STOVE	4	18	[0, 0, 0]	n/a	FR1	0	R1196N
2178.165	1.618	3345144	WORD	n/a	wordpools/wordpool_EN.txt	FLAME	5	18	[0, 0, 0]	n/a	FR1	0	R1196N
2179.783	0.95	3346762	WORD_OFF	n/a	n/a	FLAME	5	18	[0, 0, 0]	n/a	FR1	0	R1196N
2180.733	1.616	3347712	WORD	n/a	wordpools/wordpool_EN.txt	ARK	6	18	[0, 0, 0]	n/a	FR1	0	R1196N
2182.349	0.816	3349328	WORD_OFF	n/a	n/a	ARK	6	18	[0, 0, 0]	n/a	FR1	0	R1196N
2183.165	1.618	3350144	WORD	n/a	wordpools/wordpool_EN.txt	GLASS	7	18	[0, 0, 0]	n/a	FR1	0	R1196N
2184.783	0.801	3351762	WORD_OFF	n/a	n/a	GLASS	7	18	[0, 0, 0]	n/a	FR1	0	R1196N
2185.584	1.615	3352563	WORD	n/a	wordpools/wordpool_EN.txt	CAKE	8	18	[0, 0, 0]	n/a	FR1	0	R1196N
2187.199	0.785	3354178	WORD_OFF	n/a	n/a	CAKE	8	18	[0, 0, 0]	n/a	FR1	0	R1196N
2187.984	1.617	3354963	WORD	n/a	wordpools/wordpool_EN.txt	JAR	9	18	[0, 0, 0]	n/a	FR1	0	R1196N
2189.601	0.832	3356580	WORD_OFF	n/a	n/a	JAR	9	18	[0, 0, 0]	n/a	FR1	0	R1196N
2190.433	1.602	3357411	WORD	n/a	wordpools/wordpool_EN.txt	FOAM	10	18	[0, 0, 0]	n/a	FR1	0	R1196N
2192.035	0.916	3359013	WORD_OFF	n/a	n/a	FOAM	10	18	[0, 0, 0]	n/a	FR1	0	R1196N
2192.951	1.617	3359929	WORD	n/a	wordpools/wordpool_EN.txt	SHRIMP	11	18	[0, 0, 0]	n/a	FR1	0	R1196N
2194.568	0.901	3361546	WORD_OFF	n/a	n/a	SHRIMP	11	18	[0, 0, 0]	n/a	FR1	0	R1196N
2195.469	1.616	3362447	WORD	n/a	wordpools/wordpool_EN.txt	SPOON	12	18	[0, 0, 0]	n/a	FR1	0	R1196N
2197.085	0.0	3364063	WORD_OFF	n/a	n/a	SPOON	12	18	[0, 0, 0]	n/a	FR1	0	R1196N
2197.085	0.001	3364063	DISTRACT_START	n/a	n/a	n/a	-999	18	[0, 0, 0]	n/a	FR1	0	R1196N
2197.086	0.015	3364064	START	n/a	n/a	n/a	-999	18	[-999, -999, -999]	n/a	FR1	0	R1196N
2197.101	4.885	3364079	PROB	4.885	n/a	n/a	-999	18	[1, 5, 4]	10	FR1	0	R1196N
2201.986	13.886	3368964	PROB	13.886	n/a	n/a	-999	18	[3, 8, 6]	17	FR1	0	R1196N
2215.872	3.851	3382849	PROB	3.851	n/a	n/a	-999	18	[5, 3, 2]	10	FR1	0	R1196N
2219.723	0.016	3386700	STOP	n/a	n/a	n/a	-999	18	[-999, -999, -999]	n/a	FR1	0	R1196N
2219.739	0.533	3386716	DISTRACT_END	n/a	n/a	n/a	-999	18	[0, 0, 0]	n/a	FR1	0	R1196N
2220.272	0.518	3387249	RETRIEVAL_ORIENT	n/a	n/a	n/a	-999	18	[0, 0, 0]	n/a	FR1	0	R1196N
2220.79	1.734	3387767	REC_START	n/a	n/a	n/a	-999	18	[0, 0, 0]	n/a	FR1	0	R1196N
2222.524	1.143	3389501	REC_WORD	1.143	n/a	FOAM	10	18	[0, 0, 0]	n/a	FR1	0	R1196N
2223.667	27.141	3390644	REC_WORD	27.141	n/a	SHRIMP	11	18	[0, 0, 0]	n/a	FR1	0	R1196N
2250.808	10.172	3417784	REC_END	n/a	n/a	n/a	-999	18	[0, 0, 0]	n/a	FR1	0	R1196N
2260.98	0.5	3427956	TRIAL	n/a	n/a	n/a	-999	19	[0, 0, 0]	n/a	FR1	0	R1196N
2261.48	10.428	3428456	COUNTDOWN_START	n/a	n/a	n/a	-999	19	[0, 0, 0]	n/a	FR1	0	R1196N
2271.908	0.007	3438883	COUNTDOWN_END	n/a	n/a	n/a	-999	19	[0, 0, 0]	n/a	FR1	0	R1196N
2271.915	1.617	3438890	ORIENT	n/a	n/a	n/a	-999	19	[0, 0, 0]	n/a	FR1	0	R1196N
2273.532	2.083	3440507	ORIENT_OFF	n/a	n/a	n/a	-999	19	[0, 0, 0]	n/a	FR1	0	R1196N
2275.615	1.616	3442590	WORD	n/a	wordpools/wordpool_EN.txt	THREAD	1	19	[0, 0, 0]	n/a	FR1	0	R1196N
2277.231	0.95	3444206	WORD_OFF	n/a	n/a	THREAD	1	19	[0, 0, 0]	n/a	FR1	0	R1196N
2278.181	1.601	3445156	WORD	n/a	wordpools/wordpool_EN.txt	SLIME	2	19	[0, 0, 0]	n/a	FR1	0	R1196N
2279.782	0.784	3446757	WORD_OFF	n/a	n/a	SLIME	2	19	[0, 0, 0]	n/a	FR1	0	R1196N
2280.566	1.616	3447541	WORD	n/a	wordpools/wordpool_EN.txt	BAT	3	19	[0, 0, 0]	n/a	FR1	0	R1196N
2282.182	0.868	3449157	WORD_OFF	n/a	n/a	BAT	3	19	[0, 0, 0]	n/a	FR1	0	R1196N
2283.05	1.617	3450025	WORD	n/a	wordpools/wordpool_EN.txt	GLOVE	4	19	[0, 0, 0]	n/a	FR1	0	R1196N
2284.667	0.8	3451642	WORD_OFF	n/a	n/a	GLOVE	4	19	[0, 0, 0]	n/a	FR1	0	R1196N
2285.467	1.617	3452442	WORD	n/a	wordpools/wordpool_EN.txt	DITCH	5	19	[0, 0, 0]	n/a	FR1	0	R1196N
2287.084	0.933	3454059	WORD_OFF	n/a	n/a	DITCH	5	19	[0, 0, 0]	n/a	FR1	0	R1196N
2288.017	1.617	3454992	WORD	n/a	wordpools/wordpool_EN.txt	GUARD	6	19	[0, 0, 0]	n/a	FR1	0	R1196N
2289.634	0.834	3456608	WORD_OFF	n/a	n/a	GUARD	6	19	[0, 0, 0]	n/a	FR1	0	R1196N
2290.468	1.617	3457442	WORD	n/a	wordpools/wordpool_EN.txt	STRING	7	19	[0, 0, 0]	n/a	FR1	0	R1196N
2292.085	0.933	3459059	WORD_OFF	n/a	n/a	STRING	7	19	[0, 0, 0]	n/a	FR1	0	R1196N
2293.018	1.617	3459992	WORD	n/a	wordpools/wordpool_EN.txt	BRUSH	8	19	[0, 0, 0]	n/a	FR1	0	R1196N
2294.635	0.817	3461609	WORD_OFF	n/a	n/a	BRUSH	8	19	[0, 0, 0]	n/a	FR1	0	R1196N
2295.452	1.617	3462426	WORD	n/a	wordpools/wordpool_EN.txt	LEG	9	19	[0, 0, 0]	n/a	FR1	0	R1196N
2297.069	0.9	3464043	WORD_OFF	n/a	n/a	LEG	9	19	[0, 0, 0]	n/a	FR1	0	R1196N
2297.969	1.617	3464943	WORD	n/a	wordpools/wordpool_EN.txt	CLIFF	10	19	[0, 0, 0]	n/a	FR1	0	R1196N
2299.586	0.816	3466560	WORD_OFF	n/a	n/a	CLIFF	10	19	[0, 0, 0]	n/a	FR1	0	R1196N
2300.402	1.601	3467376	WORD	n/a	wordpools/wordpool_EN.txt	WORM	11	19	[0, 0, 0]	n/a	FR1	0	R1196N
2302.003	0.8	3468977	WORD_OFF	n/a	n/a	WORM	11	19	[0, 0, 0]	n/a	FR1	0	R1196N
2302.803	1.616	3469777	WORD	n/a	wordpools/wordpool_EN.txt	TOOL	12	19	[0, 0, 0]	n/a	FR1	0	R1196N
2304.419	0.0	3471393	WORD_OFF	n/a	n/a	TOOL	12	19	[0, 0, 0]	n/a	FR1	0	R1196N
2304.419	0.001	3471393	DISTRACT_START	n/a	n/a	n/a	-999	19	[0, 0, 0]	n/a	FR1	0	R1196N
2304.42	0.016	3471394	START	n/a	n/a	n/a	-999	19	[-999, -999, -999]	n/a	FR1	0	R1196N
2304.436	5.602	3471410	PROB	5.602	n/a	n/a	-999	19	[3, 2, 6]	11	FR1	0	R1196N
2310.038	2.784	3477012	PROB	2.784	n/a	n/a	-999	19	[9, 4, 1]	14	FR1	0	R1196N
2312.822	3.984	3479796	PROB	3.984	n/a	n/a	-999	19	[8, 3, 5]	16	FR1	0	R1196N
2316.806	4.95	3483779	PROB	4.95	n/a	n/a	-999	19	[3, 9, 7]	19	FR1	0	R1196N
2321.756	3.566	3488729	PROB	3.566	n/a	n/a	-999	19	[9, 9, 3]	21	FR1	0	R1196N
2325.322	0.017	3492295	STOP	n/a	n/a	n/a	-999	19	[-999, -999, -999]	n/a	FR1	0	R1196N
2325.339	0.585	3492312	DISTRACT_END	n/a	n/a	n/a	-999	19	[0, 0, 0]	n/a	FR1	0	R1196N
2325.924	0.516	3492897	RETRIEVAL_ORIENT	n/a	n/a	n/a	-999	19	[0, 0, 0]	n/a	FR1	0	R1196N
2326.44	5.258	3493413	REC_START	n/a	n/a	n/a	-999	19	[0, 0, 0]	n/a	FR1	0	R1196N
2331.698	1.369	3498671	REC_WORD	1.369	n/a	SLIME	2	19	[0, 0, 0]	n/a	FR1	0	R1196N
2333.067	0.876	3500040	REC_WORD	0.876	n/a	THREAD	1	19	[0, 0, 0]	n/a	FR1	0	R1196N
2333.943	2.638	3500916	REC_WORD	2.638	n/a	STRING	7	19	[0, 0, 0]	n/a	FR1	0	R1196N
2336.581	5.208	3503554	REC_WORD	5.208	n/a	TOOL	12	19	[0, 0, 0]	n/a	FR1	0	R1196N
2341.789	1.949	3508761	REC_WORD	1.949	n/a	GUARD	6	19	[0, 0, 0]	n/a	FR1	0	R1196N
2343.738	12.712	3510710	REC_WORD	12.712	n/a	BAT	3	19	[0, 0, 0]	n/a	FR1	0	R1196N
2356.45	6.997	3523422	REC_END	n/a	n/a	n/a	-999	19	[0, 0, 0]	n/a	FR1	0	R1196N
2363.447	0.5	3530419	TRIAL	n/a	n/a	n/a	-999	20	[0, 0, 0]	n/a	FR1	0	R1196N
2363.947	10.428	3530918	COUNTDOWN_START	n/a	n/a	n/a	-999	20	[0, 0, 0]	n/a	FR1	0	R1196N
2374.375	0.006	3541346	COUNTDOWN_END	n/a	n/a	n/a	-999	20	[0, 0, 0]	n/a	FR1	0	R1196N
2374.381	1.618	3541352	ORIENT	n/a	n/a	n/a	-999	20	[0, 0, 0]	n/a	FR1	0	R1196N
2375.999	2.266	3542970	ORIENT_OFF	n/a	n/a	n/a	-999	20	[0, 0, 0]	n/a	FR1	0	R1196N
2378.265	1.601	3545236	WORD	n/a	wordpools/wordpool_EN.txt	YARD	1	20	[0, 0, 0]	n/a	FR1	0	R1196N
2379.866	0.983	3546837	WORD_OFF	n/a	n/a	YARD	1	20	[0, 0, 0]	n/a	FR1	0	R1196N
2380.849	1.618	3547820	WORD	n/a	wordpools/wordpool_EN.txt	LOCK	2	20	[0, 0, 0]	n/a	FR1	0	R1196N
2382.467	0.865	3549438	WORD_OFF	n/a	n/a	LOCK	2	20	[0, 0, 0]	n/a	FR1	0	R1196N
2383.332	1.618	3550303	WORD	n/a	wordpools/wordpool_EN.txt	AXE	3	20	[0, 0, 0]	n/a	FR1	0	R1196N
2384.95	0.801	3551921	WORD_OFF	n/a	n/a	AXE	3	20	[0, 0, 0]	n/a	FR1	0	R1196N
2385.751	1.615	3552722	WORD	n/a	wordpools/wordpool_EN.txt	FOOT	4	20	[0, 0, 0]	n/a	FR1	0	R1196N
2387.366	0.834	3554337	WORD_OFF	n/a	n/a	FOOT	4	20	[0, 0, 0]	n/a	FR1	0	R1196N
2388.2	1.601	3555171	WORD	n/a	wordpools/wordpool_EN.txt	BOOT	5	20	[0, 0, 0]	n/a	FR1	0	R1196N
2389.801	0.834	3556771	WORD_OFF	n/a	n/a	BOOT	5	20	[0, 0, 0]	n/a	FR1	0	R1196N
2390.635	1.616	3557605	WORD	n/a	wordpools/wordpool_EN.txt	BENCH	6	20	[0, 0, 0]	n/a	FR1	0	R1196N
2392.251	0.883	3559221	WORD_OFF	n/a	n/a	BENCH	6	20	[0, 0, 0]	n/a	FR1	0	R1196N
2393.134	1.618	3560104	WORD	n/a	wordpools/wordpool_EN.txt	BED	7	20	[0, 0, 0]	n/a	FR1	0	R1196N
2394.752	0.867	3561722	WORD_OFF	n/a	n/a	BED	7	20	[0, 0, 0]	n/a	FR1	0	R1196N
2395.619	1.616	3562589	WORD	n/a	wordpools/wordpool_EN.txt	TOY	8	20	[0, 0, 0]	n/a	FR1	0	R1196N
2397.235	1.0	3564205	WORD_OFF	n/a	n/a	TOY	8	20	[0, 0, 0]	n/a	FR1	0	R1196N
2398.235	1.618	3565205	WORD	n/a	wordpools/wordpool_EN.txt	STRAW	9	20	[0, 0, 0]	n/a	FR1	0	R1196N
2399.853	0.767	3566823	WORD_OFF	n/a	n/a	STRAW	9	20	[0, 0, 0]	n/a	FR1	0	R1196N
2400.62	1.616	3567590	WORD	n/a	wordpools/wordpool_EN.txt	STOOL	10	20	[0, 0, 0]	n/a	FR1	0	R1196N
2402.236	0.784	3569206	WORD_OFF	n/a	n/a	STOOL	10	20	[0, 0, 0]	n/a	FR1	0	R1196N
2403.02	1.617	3569990	WORD	n/a	wordpools/wordpool_EN.txt	TEETH	11	20	[0, 0, 0]	n/a	FR1	0	R1196N
2404.637	0.867	3571607	WORD_OFF	n/a	n/a	TEETH	11	20	[0, 0, 0]	n/a	FR1	0	R1196N
2405.504	1.616	3572474	WORD	n/a	wordpools/wordpool_EN.txt	SHOE	12	20	[0, 0, 0]	n/a	FR1	0	R1196N
2407.12	0.0	3574090	WORD_OFF	n/a	n/a	SHOE	12	20	[0, 0, 0]	n/a	FR1	0	R1196N
2407.12	0.0	3574090	DISTRACT_START	n/a	n/a	n/a	-999	20	[0, 0, 0]	n/a	FR1	0	R1196N
2407.12	0.016	3574090	START	n/a	n/a	n/a	-999	20	[-999, -999, -999]	n/a	FR1	0	R1196N
2407.136	8.469	3574106	PROB	8.469	n/a	n/a	-999	20	[4, 6, 9]	19	FR1	0	R1196N
2415.605	3.301	3582574	PROB	3.301	n/a	n/a	-999	20	[7, 3, 2]	12	FR1	0	R1196N
2418.906	7.718	3585875	PROB	7.718	n/a	n/a	-999	20	[3, 5, 9]	17	FR1	0	R1196N
2426.624	3.546	3593593	PROB	3.546	n/a	n/a	-999	20	[3, 2, 8]	13	FR1	0	R1196N
2430.17	0.02	3597139	STOP	n/a	n/a	n/a	-999	20	[-999, -999, -999]	n/a	FR1	0	R1196N
2430.19	0.685	3597159	DISTRACT_END	n/a	n/a	n/a	-999	20	[0, 0, 0]	n/a	FR1	0	R1196N
2430.875	0.517	3597844	RETRIEVAL_ORIENT	n/a	n/a	n/a	-999	20	[0, 0, 0]	n/a	FR1	0	R1196N
2431.392	1.402	3598361	REC_START	n/a	n/a	n/a	-999	20	[0, 0, 0]	n/a	FR1	0	R1196N
2432.794	1.616	3599763	REC_WORD	1.616	n/a	AXE	3	20	[0, 0, 0]	n/a	FR1	0	R1196N
2434.41	1.391	3601379	REC_WORD	1.391	n/a	YARD	1	20	[0, 0, 0]	n/a	FR1	0	R1196N
2435.801	8.802	3602770	REC_WORD	8.802	n/a	FIELD	-999	20	[0, 0, 0]	n/a	FR1	0	R1196N
2444.603	5.844	3611571	REC_WORD	5.844	n/a	STOOL	10	20	[0, 0, 0]	n/a	FR1	0	R1196N
2450.447	7.218	3617415	REC_WORD_VV	7.218	n/a	<>	-999	20	[0, 0, 0]	n/a	FR1	0	R1196N
2457.665	3.736	3624633	REC_WORD	3.736	n/a	BENCH	6	20	[0, 0, 0]	n/a	FR1	0	R1196N
2461.401	5.246	3628369	REC_END	n/a	n/a	n/a	-999	20	[0, 0, 0]	n/a	FR1	0	R1196N
2466.647	0.5	3633614	TRIAL	n/a	n/a	n/a	-999	21	[0, 0, 0]	n/a	FR1	0	R1196N
2467.147	10.428	3634114	COUNTDOWN_START	n/a	n/a	n/a	-999	21	[0, 0, 0]	n/a	FR1	0	R1196N
2477.575	0.008	3644542	COUNTDOWN_END	n/a	n/a	n/a	-999	21	[0, 0, 0]	n/a	FR1	0	R1196N
2477.583	1.616	3644550	ORIENT	n/a	n/a	n/a	-999	21	[0, 0, 0]	n/a	FR1	0	R1196N
2479.199	2.268	3646166	ORIENT_OFF	n/a	n/a	n/a	-999	21	[0, 0, 0]	n/a	FR1	0	R1196N
2481.467	1.616	3648434	WORD	n/a	wordpools/wordpool_EN.txt	GRAPE	1	21	[0, 0, 0]	n/a	FR1	0	R1196N
2483.083	0.917	3650050	WORD_OFF	n/a	n/a	GRAPE	1	21	[0, 0, 0]	n/a	FR1	0	R1196N
2484.0	1.617	3650967	WORD	n/a	wordpools/wordpool_EN.txt	PIT	2	21	[0, 0, 0]	n/a	FR1	0	R1196N
2485.617	0.783	3652584	WORD_OFF	n/a	n/a	PIT	2	21	[0, 0, 0]	n/a	FR1	0	R1196N
2486.4	1.618	3653367	WORD	n/a	wordpools/wordpool_EN.txt	MAT	3	21	[0, 0, 0]	n/a	FR1	0	R1196N
2488.018	1.0	3654984	WORD_OFF	n/a	n/a	MAT	3	21	[0, 0, 0]	n/a	FR1	0	R1196N
2489.018	1.617	3655984	WORD	n/a	wordpools/wordpool_EN.txt	SMILE	4	21	[0, 0, 0]	n/a	FR1	0	R1196N
2490.635	0.833	3657601	WORD_OFF	n/a	n/a	SMILE	4	21	[0, 0, 0]	n/a	FR1	0	R1196N
2491.468	1.617	3658434	WORD	n/a	wordpools/wordpool_EN.txt	MUD	5	21	[0, 0, 0]	n/a	FR1	0	R1196N
2493.085	0.984	3660051	WORD_OFF	n/a	n/a	MUD	5	21	[0, 0, 0]	n/a	FR1	0	R1196N
2494.069	1.617	3661035	WORD	n/a	wordpools/wordpool_EN.txt	EAR	6	21	[0, 0, 0]	n/a	FR1	0	R1196N
2495.686	0.816	3662652	WORD_OFF	n/a	n/a	EAR	6	21	[0, 0, 0]	n/a	FR1	0	R1196N
2496.502	1.616	3663468	WORD	n/a	wordpools/wordpool_EN.txt	SHARK	7	21	[0, 0, 0]	n/a	FR1	0	R1196N
2498.118	0.984	3665084	WORD_OFF	n/a	n/a	SHARK	7	21	[0, 0, 0]	n/a	FR1	0	R1196N
2499.102	1.601	3666068	WORD	n/a	wordpools/wordpool_EN.txt	FORK	8	21	[0, 0, 0]	n/a	FR1	0	R1196N
2500.703	0.817	3667669	WORD_OFF	n/a	n/a	FORK	8	21	[0, 0, 0]	n/a	FR1	0	R1196N
2501.52	1.616	3668486	WORD	n/a	wordpools/wordpool_EN.txt	CHIN	9	21	[0, 0, 0]	n/a	FR1	0	R1196N
2503.136	0.768	3670102	WORD_OFF	n/a	n/a	CHIN	9	21	[0, 0, 0]	n/a	FR1	0	R1196N
2503.904	1.617	3670870	WORD	n/a	wordpools/wordpool_EN.txt	SHIRT	10	21	[0, 0, 0]	n/a	FR1	0	R1196N
2505.521	0.95	3672487	WORD_OFF	n/a	n/a	SHIRT	10	21	[0, 0, 0]	n/a	FR1	0	R1196N
2506.471	1.617	3673437	WORD	n/a	wordpools/wordpool_EN.txt	CAVE	11	21	[0, 0, 0]	n/a	FR1	0	R1196N
2508.088	0.9	3675054	WORD_OFF	n/a	n/a	CAVE	11	21	[0, 0, 0]	n/a	FR1	0	R1196N
2508.988	1.617	3675954	WORD	n/a	wordpools/wordpool_EN.txt	CUP	12	21	[0, 0, 0]	n/a	FR1	0	R1196N
2510.605	0.0	3677571	DISTRACT_START	n/a	n/a	n/a	-999	21	[0, 0, 0]	n/a	FR1	0	R1196N
2510.605	0.0	3677571	WORD_OFF	n/a	n/a	CUP	12	21	[0, 0, 0]	n/a	FR1	0	R1196N
2510.605	0.016	3677571	START	n/a	n/a	n/a	-999	21	[-999, -999, -999]	n/a	FR1	0	R1196N
2510.621	8.402	3677587	PROB	8.402	n/a	n/a	-999	21	[6, 4, 3]	13	FR1	0	R1196N
2519.023	3.034	3685988	PROB	3.034	n/a	n/a	-999	21	[4, 4, 1]	9	FR1	0	R1196N
2522.057	2.517	3689022	PROB	2.517	n/a	n/a	-999	21	[3, 3, 3]	9	FR1	0	R1196N
2524.574	4.85	3691539	PROB	4.85	n/a	n/a	-999	21	[3, 7, 6]	16	FR1	0	R1196N
2529.424	6.874	3696389	PROB	6.874	n/a	n/a	-999	21	[4, 3, 9]	16	FR1	0	R1196N
2536.298	0.01	3703263	STOP	n/a	n/a	n/a	-999	21	[-999, -999, -999]	n/a	FR1	0	R1196N
2536.308	0.584	3703273	DISTRACT_END	n/a	n/a	n/a	-999	21	[0, 0, 0]	n/a	FR1	0	R1196N
2536.892	0.517	3703857	RETRIEVAL_ORIENT	n/a	n/a	n/a	-999	21	[0, 0, 0]	n/a	FR1	0	R1196N
2537.409	5.178	3704374	REC_START	n/a	n/a	n/a	-999	21	[0, 0, 0]	n/a	FR1	0	R1196N
2542.587	0.813	3709551	REC_WORD	0.813	n/a	FORK	8	21	[0, 0, 0]	n/a	FR1	0	R1196N
2543.4	1.134	3710364	REC_WORD	1.134	n/a	SHARK	7	21	[0, 0, 0]	n/a	FR1	0	R1196N
2544.534	22.884	3711498	REC_WORD	22.884	n/a	EAR	6	21	[0, 0, 0]	n/a	FR1	0	R1196N
2567.418	6.83	3734381	REC_END	n/a	n/a	n/a	-999	21	[0, 0, 0]	n/a	FR1	0	R1196N
2574.248	0.5	3741211	TRIAL	n/a	n/a	n/a	-999	22	[0, 0, 0]	n/a	FR1	0	R1196N
2574.748	10.428	3741711	COUNTDOWN_START	n/a	n/a	n/a	-999	22	[0, 0, 0]	n/a	FR1	0	R1196N
2585.176	0.007	3752139	COUNTDOWN_END	n/a	n/a	n/a	-999	22	[0, 0, 0]	n/a	FR1	0	R1196N
2585.183	1.601	3752146	ORIENT	n/a	n/a	n/a	-999	22	[0, 0, 0]	n/a	FR1	0	R1196N
2586.784	1.934	3753747	ORIENT_OFF	n/a	n/a	n/a	-999	22	[0, 0, 0]	n/a	FR1	0	R1196N
2588.718	1.616	3755680	WORD	n/a	wordpools/wordpool_EN.txt	ELF	1	22	[0, 0, 0]	n/a	FR1	0	R1196N
2590.334	0.883	3757296	WORD_OFF	n/a	n/a	ELF	1	22	[0, 0, 0]	n/a	FR1	0	R1196N
2591.217	1.601	3758179	WORD	n/a	wordpools/wordpool_EN.txt	BROOM	2	22	[0, 0, 0]	n/a	FR1	0	R1196N
2592.818	0.817	3759780	WORD_OFF	n/a	n/a	BROOM	2	22	[0, 0, 0]	n/a	FR1	0	R1196N
2593.635	1.616	3760597	WORD	n/a	wordpools/wordpool_EN.txt	TRUCK	3	22	[0, 0, 0]	n/a	FR1	0	R1196N
2595.251	1.017	3762213	WORD_OFF	n/a	n/a	TRUCK	3	22	[0, 0, 0]	n/a	FR1	0	R1196N
2596.268	1.601	3763230	WORD	n/a	wordpools/wordpool_EN.txt	SEAT	4	22	[0, 0, 0]	n/a	FR1	0	R1196N
2597.869	0.884	3764831	WORD_OFF	n/a	n/a	SEAT	4	22	[0, 0, 0]	n/a	FR1	0	R1196N
2598.753	1.616	3765715	WORD	n/a	wordpools/wordpool_EN.txt	DESK	5	22	[0, 0, 0]	n/a	FR1	0	R1196N
2600.369	0.783	3767331	WORD_OFF	n/a	n/a	DESK	5	22	[0, 0, 0]	n/a	FR1	0	R1196N
2601.152	1.618	3768114	WORD	n/a	wordpools/wordpool_EN.txt	GATE	6	22	[0, 0, 0]	n/a	FR1	0	R1196N
2602.77	0.784	3769732	WORD_OFF	n/a	n/a	GATE	6	22	[0, 0, 0]	n/a	FR1	0	R1196N
2603.554	1.616	3770516	WORD	n/a	wordpools/wordpool_EN.txt	VEST	7	22	[0, 0, 0]	n/a	FR1	0	R1196N
2605.17	0.884	3772132	WORD_OFF	n/a	n/a	VEST	7	22	[0, 0, 0]	n/a	FR1	0	R1196N
2606.054	1.617	3773016	WORD	n/a	wordpools/wordpool_EN.txt	STAIR	8	22	[0, 0, 0]	n/a	FR1	0	R1196N
2607.671	0.784	3774633	WORD_OFF	n/a	n/a	STAIR	8	22	[0, 0, 0]	n/a	FR1	0	R1196N
2608.455	1.617	3775417	WORD	n/a	wordpools/wordpool_EN.txt	ROOM	9	22	[0, 0, 0]	n/a	FR1	0	R1196N
2610.072	0.883	3777034	WORD_OFF	n/a	n/a	ROOM	9	22	[0, 0, 0]	n/a	FR1	0	R1196N
2610.955	1.617	3777917	WORD	n/a	wordpools/wordpool_EN.txt	LIP	10	22	[0, 0, 0]	n/a	FR1	0	R1196N
2612.572	0.766	3779533	WORD_OFF	n/a	n/a	LIP	10	22	[0, 0, 0]	n/a	FR1	0	R1196N
2613.338	1.618	3780299	WORD	n/a	wordpools/wordpool_EN.txt	STICK	11	22	[0, 0, 0]	n/a	FR1	0	R1196N
2614.956	0.783	3781917	WORD_OFF	n/a	n/a	STICK	11	22	[0, 0, 0]	n/a	FR1	0	R1196N
2615.739	1.616	3782700	WORD	n/a	wordpools/wordpool_EN.txt	TIE	12	22	[0, 0, 0]	n/a	FR1	0	R1196N
2617.355	0.0	3784316	WORD_OFF	n/a	n/a	TIE	12	22	[0, 0, 0]	n/a	FR1	0	R1196N
2617.355	0.001	3784316	DISTRACT_START	n/a	n/a	n/a	-999	22	[0, 0, 0]	n/a	FR1	0	R1196N
2617.356	0.016	3784317	START	n/a	n/a	n/a	-999	22	[-999, -999, -999]	n/a	FR1	0	R1196N
2617.372	5.951	3784333	PROB	5.951	n/a	n/a	-999	22	[7, 9, 9]	23	FR1	0	R1196N
2623.323	17.335	3790284	PROB	17.335	n/a	n/a	-999	22	[7, 5, 9]	21	FR1	0	R1196N
2640.658	0.019	3807618	STOP	n/a	n/a	n/a	-999	22	[-999, -999, -999]	n/a	FR1	0	R1196N
2640.677	0.599	3807637	DISTRACT_END	n/a	n/a	n/a	-999	22	[0, 0, 0]	n/a	FR1	0	R1196N
2641.276	0.518	3808236	RETRIEVAL_ORIENT	n/a	n/a	n/a	-999	22	[0, 0, 0]	n/a	FR1	0	R1196N
2641.794	2.409	3808754	REC_START	n/a	n/a	n/a	-999	22	[0, 0, 0]	n/a	FR1	0	R1196N
2644.203	22.32	3811163	REC_WORD_VV	22.32	n/a	<>	-999	22	[0, 0, 0]	n/a	FR1	0	R1196N
2666.523	5.281	3833482	REC_WORD	5.281	n/a	GATE	6	22	[0, 0, 0]	n/a	FR1	0	R1196N
2671.804	6.712	3838763	REC_END	n/a	n/a	n/a	-999	22	[0, 0, 0]	n/a	FR1	0	R1196N
2678.516	0.5	3845475	TRIAL	n/a	n/a	n/a	-999	23	[0, 0, 0]	n/a	FR1	0	R1196N
2679.016	10.428	3845975	COUNTDOWN_START	n/a	n/a	n/a	-999	23	[0, 0, 0]	n/a	FR1	0	R1196N
2689.444	0.008	3856402	COUNTDOWN_END	n/a	n/a	n/a	-999	23	[0, 0, 0]	n/a	FR1	0	R1196N
2689.452	1.617	3856410	ORIENT	n/a	n/a	n/a	-999	23	[0, 0, 0]	n/a	FR1	0	R1196N
2691.069	2.265	3858027	ORIENT_OFF	n/a	n/a	n/a	-999	23	[0, 0, 0]	n/a	FR1	0	R1196N
2693.334	1.602	3860292	WORD	n/a	wordpools/wordpool_EN.txt	BOOK	1	23	[0, 0, 0]	n/a	FR1	0	R1196N
2694.936	0.817	3861894	WORD_OFF	n/a	n/a	BOOK	1	23	[0, 0, 0]	n/a	FR1	0	R1196N
2695.753	1.616	3862711	WORD	n/a	wordpools/wordpool_EN.txt	HEART	2	23	[0, 0, 0]	n/a	FR1	0	R1196N
2697.369	0.816	3864327	WORD_OFF	n/a	n/a	HEART	2	23	[0, 0, 0]	n/a	FR1	0	R1196N
2698.185	1.601	3865143	WORD	n/a	wordpools/wordpool_EN.txt	KEY	3	23	[0, 0, 0]	n/a	FR1	0	R1196N
2699.786	0.934	3866744	WORD_OFF	n/a	n/a	KEY	3	23	[0, 0, 0]	n/a	FR1	0	R1196N
2700.72	1.616	3867678	WORD	n/a	wordpools/wordpool_EN.txt	WHEEL	4	23	[0, 0, 0]	n/a	FR1	0	R1196N
2702.336	0.767	3869294	WORD_OFF	n/a	n/a	WHEEL	4	23	[0, 0, 0]	n/a	FR1	0	R1196N
2703.103	1.618	3870061	WORD	n/a	wordpools/wordpool_EN.txt	BOMB	5	23	[0, 0, 0]	n/a	FR1	0	R1196N
2704.721	0.833	3871679	WORD_OFF	n/a	n/a	BOMB	5	23	[0, 0, 0]	n/a	FR1	0	R1196N
2705.554	1.616	3872512	WORD	n/a	wordpools/wordpool_EN.txt	WING	6	23	[0, 0, 0]	n/a	FR1	0	R1196N
2707.17	0.785	3874128	WORD_OFF	n/a	n/a	WING	6	23	[0, 0, 0]	n/a	FR1	0	R1196N
2707.955	1.617	3874913	WORD	n/a	wordpools/wordpool_EN.txt	STEAM	7	23	[0, 0, 0]	n/a	FR1	0	R1196N
2709.572	0.95	3876530	WORD_OFF	n/a	n/a	STEAM	7	23	[0, 0, 0]	n/a	FR1	0	R1196N
2710.522	1.616	3877480	WORD	n/a	wordpools/wordpool_EN.txt	WAVE	8	23	[0, 0, 0]	n/a	FR1	0	R1196N
2712.138	0.884	3879095	WORD_OFF	n/a	n/a	WAVE	8	23	[0, 0, 0]	n/a	FR1	0	R1196N
2713.022	1.617	3879979	WORD	n/a	wordpools/wordpool_EN.txt	SHEET	9	23	[0, 0, 0]	n/a	FR1	0	R1196N
2714.639	0.85	3881596	WORD_OFF	n/a	n/a	SHEET	9	23	[0, 0, 0]	n/a	FR1	0	R1196N
2715.489	1.616	3882446	WORD	n/a	wordpools/wordpool_EN.txt	PEA	10	23	[0, 0, 0]	n/a	FR1	0	R1196N
2717.105	0.885	3884062	WORD_OFF	n/a	n/a	PEA	10	23	[0, 0, 0]	n/a	FR1	0	R1196N
2717.99	1.617	3884947	WORD	n/a	wordpools/wordpool_EN.txt	PHONE	11	23	[0, 0, 0]	n/a	FR1	0	R1196N
2719.607	0.983	3886564	WORD_OFF	n/a	n/a	PHONE	11	23	[0, 0, 0]	n/a	FR1	0	R1196N
2720.59	1.616	3887547	WORD	n/a	wordpools/wordpool_EN.txt	DRUM	12	23	[0, 0, 0]	n/a	FR1	0	R1196N
2722.206	0.0	3889163	WORD_OFF	n/a	n/a	DRUM	12	23	[0, 0, 0]	n/a	FR1	0	R1196N
2722.206	0.0	3889163	DISTRACT_START	n/a	n/a	n/a	-999	23	[0, 0, 0]	n/a	FR1	0	R1196N
2722.206	0.017	3889163	START	n/a	n/a	n/a	-999	23	[-999, -999, -999]	n/a	FR1	0	R1196N
2722.223	8.018	3889180	PROB	8.018	n/a	n/a	-999	23	[8, 8, 5]	21	FR1	0	R1196N
2730.241	3.95	3897198	PROB	3.95	n/a	n/a	-999	23	[4, 1, 5]	10	FR1	0	R1196N
2734.191	4.652	3901148	PROB	4.652	n/a	n/a	-999	23	[7, 1, 4]	12	FR1	0	R1196N
2738.843	4.944	3905799	PROB	4.944	n/a	n/a	-999	23	[9, 8, 3]	20	FR1	0	R1196N
2743.787	0.007	3910743	STOP	n/a	n/a	n/a	-999	23	[-999, -999, -999]	n/a	FR1	0	R1196N
2743.794	0.7	3910750	DISTRACT_END	n/a	n/a	n/a	-999	23	[0, 0, 0]	n/a	FR1	0	R1196N
2744.494	0.517	3911450	RETRIEVAL_ORIENT	n/a	n/a	n/a	-999	23	[0, 0, 0]	n/a	FR1	0	R1196N
2745.011	2.145	3911967	REC_START	n/a	n/a	n/a	-999	23	[0, 0, 0]	n/a	FR1	0	R1196N
2747.156	1.683	3914112	REC_WORD_VV	1.683	n/a	<>	-999	23	[0, 0, 0]	n/a	FR1	0	R1196N
2748.839	0.702	3915795	REC_WORD_VV	0.702	n/a	<>	-999	23	[0, 0, 0]	n/a	FR1	0	R1196N
2749.541	3.066	3916497	REC_WORD	3.066	n/a	PEA	10	23	[0, 0, 0]	n/a	FR1	0	R1196N
2752.607	1.036	3919563	REC_WORD	1.036	n/a	SHEET	9	23	[0, 0, 0]	n/a	FR1	0	R1196N
2753.643	0.918	3920599	REC_WORD	0.918	n/a	WAVE	8	23	[0, 0, 0]	n/a	FR1	0	R1196N
2754.561	20.46	3921517	REC_WORD	20.46	n/a	STEAM	7	23	[0, 0, 0]	n/a	FR1	0	R1196N
2775.021	6.496	3941976	REC_END	n/a	n/a	n/a	-999	23	[0, 0, 0]	n/a	FR1	0	R1196N
2781.517	0.5	3948472	TRIAL	n/a	n/a	n/a	-999	24	[0, 0, 0]	n/a	FR1	0	R1196N
2782.017	10.428	3948972	COUNTDOWN_START	n/a	n/a	n/a	-999	24	[0, 0, 0]	n/a	FR1	0	R1196N
2792.445	0.007	3959399	COUNTDOWN_END	n/a	n/a	n/a	-999	24	[0, 0, 0]	n/a	FR1	0	R1196N
2792.452	1.617	3959406	ORIENT	n/a	n/a	n/a	-999	24	[0, 0, 0]	n/a	FR1	0	R1196N
2794.069	2.083	3961023	ORIENT_OFF	n/a	n/a	n/a	-999	24	[0, 0, 0]	n/a	FR1	0	R1196N
2796.152	1.618	3963106	WORD	n/a	wordpools/wordpool_EN.txt	DOLL	1	24	[0, 0, 0]	n/a	FR1	0	R1196N
2797.77	0.966	3964724	WORD_OFF	n/a	n/a	DOLL	1	24	[0, 0, 0]	n/a	FR1	0	R1196N
2798.736	1.616	3965690	WORD	n/a	wordpools/wordpool_EN.txt	FLOOR	2	24	[0, 0, 0]	n/a	FR1	0	R1196N
2800.352	0.967	3967306	WORD_OFF	n/a	n/a	FLOOR	2	24	[0, 0, 0]	n/a	FR1	0	R1196N
2801.319	1.602	3968273	WORD	n/a	wordpools/wordpool_EN.txt	PLATE	3	24	[0, 0, 0]	n/a	FR1	0	R1196N
2802.921	0.966	3969875	WORD_OFF	n/a	n/a	PLATE	3	24	[0, 0, 0]	n/a	FR1	0	R1196N
2803.887	1.617	3970841	WORD	n/a	wordpools/wordpool_EN.txt	SUIT	4	24	[0, 0, 0]	n/a	FR1	0	R1196N
2805.504	0.766	3972458	WORD_OFF	n/a	n/a	SUIT	4	24	[0, 0, 0]	n/a	FR1	0	R1196N
2806.27	1.618	3973224	WORD	n/a	wordpools/wordpool_EN.txt	TRAY	5	24	[0, 0, 0]	n/a	FR1	0	R1196N
2807.888	0.8	3974842	WORD_OFF	n/a	n/a	TRAY	5	24	[0, 0, 0]	n/a	FR1	0	R1196N
2808.688	1.616	3975642	WORD	n/a	wordpools/wordpool_EN.txt	SOCK	6	24	[0, 0, 0]	n/a	FR1	0	R1196N
2810.304	0.8	3977258	WORD_OFF	n/a	n/a	SOCK	6	24	[0, 0, 0]	n/a	FR1	0	R1196N
2811.104	1.618	3978057	WORD	n/a	wordpools/wordpool_EN.txt	PEACH	7	24	[0, 0, 0]	n/a	FR1	0	R1196N
2812.722	0.95	3979675	WORD_OFF	n/a	n/a	PEACH	7	24	[0, 0, 0]	n/a	FR1	0	R1196N
2813.672	1.616	3980625	WORD	n/a	wordpools/wordpool_EN.txt	CANE	8	24	[0, 0, 0]	n/a	FR1	0	R1196N
2815.288	0.934	3982241	WORD_OFF	n/a	n/a	CANE	8	24	[0, 0, 0]	n/a	FR1	0	R1196N
2816.222	1.618	3983175	WORD	n/a	wordpools/wordpool_EN.txt	MUG	9	24	[0, 0, 0]	n/a	FR1	0	R1196N
2817.84	0.867	3984793	WORD_OFF	n/a	n/a	MUG	9	24	[0, 0, 0]	n/a	FR1	0	R1196N
2818.707	1.616	3985660	WORD	n/a	wordpools/wordpool_EN.txt	DART	10	24	[0, 0, 0]	n/a	FR1	0	R1196N
2820.323	0.783	3987276	WORD_OFF	n/a	n/a	DART	10	24	[0, 0, 0]	n/a	FR1	0	R1196N
2821.106	1.618	3988059	WORD	n/a	wordpools/wordpool_EN.txt	CHAIR	11	24	[0, 0, 0]	n/a	FR1	0	R1196N
2822.724	0.85	3989677	WORD_OFF	n/a	n/a	CHAIR	11	24	[0, 0, 0]	n/a	FR1	0	R1196N
2823.574	1.616	3990527	WORD	n/a	wordpools/wordpool_EN.txt	PIE	12	24	[0, 0, 0]	n/a	FR1	0	R1196N
2825.19	0.0	3992143	WORD_OFF	n/a	n/a	PIE	12	24	[0, 0, 0]	n/a	FR1	0	R1196N
2825.19	0.0	3992143	DISTRACT_START	n/a	n/a	n/a	-999	24	[0, 0, 0]	n/a	FR1	0	R1196N
2825.19	0.017	3992143	START	n/a	n/a	n/a	-999	24	[-999, -999, -999]	n/a	FR1	0	R1196N
2825.207	9.686	3992160	PROB	9.686	n/a	n/a	-999	24	[2, 8, 4]	14	FR1	0	R1196N
2834.893	6.767	4001846	PROB	6.767	n/a	n/a	-999	24	[5, 4, 7]	16	FR1	0	R1196N
2841.66	6.159	4008612	PROB	6.159	n/a	n/a	-999	24	[6, 9, 7]	22	FR1	0	R1196N
2847.819	0.009	4014771	STOP	n/a	n/a	n/a	-999	24	[-999, -999, -999]	n/a	FR1	0	R1196N
2847.828	0.599	4014780	DISTRACT_END	n/a	n/a	n/a	-999	24	[0, 0, 0]	n/a	FR1	0	R1196N
2848.427	0.502	4015379	RETRIEVAL_ORIENT	n/a	n/a	n/a	-999	24	[0, 0, 0]	n/a	FR1	0	R1196N
2848.929	3.68	4015881	REC_START	n/a	n/a	n/a	-999	24	[0, 0, 0]	n/a	FR1	0	R1196N
2852.609	1.047	4019561	REC_WORD_VV	1.047	n/a	<>	-999	24	[0, 0, 0]	n/a	FR1	0	R1196N
2853.656	25.283	4020608	REC_WORD	25.283	n/a	CANE	8	24	[0, 0, 0]	n/a	FR1	0	R1196N
2878.939	21.931	4045890	REC_END	n/a	n/a	n/a	-999	24	[0, 0, 0]	n/a	FR1	0	R1196N
2900.87	0.5	4067820	TRIAL	n/a	n/a	n/a	-999	25	[0, 0, 0]	n/a	FR1	0	R1196N
2901.37	10.428	4068320	COUNTDOWN_START	n/a	n/a	n/a	-999	25	[0, 0, 0]	n/a	FR1	0	R1196N
2911.798	0.008	4078747	COUNTDOWN_END	n/a	n/a	n/a	-999	25	[0, 0, 0]	n/a	FR1	0	R1196N
2911.806	1.615	4078755	ORIENT	n/a	n/a	n/a	-999	25	[0, 0, 0]	n/a	FR1	0	R1196N
2913.421	1.901	4080370	ORIENT_OFF	n/a	n/a	n/a	-999	25	[0, 0, 0]	n/a	FR1	0	R1196N
2915.322	1.618	4082271	WORD	n/a	wordpools/wordpool_EN.txt	MOUSE	1	25	[0, 0, 0]	n/a	FR1	0	R1196N
2916.94	0.983	4083889	WORD_OFF	n/a	n/a	MOUSE	1	25	[0, 0, 0]	n/a	FR1	0	R1196N
2917.923	1.617	4084872	WORD	n/a	wordpools/wordpool_EN.txt	HORSE	2	25	[0, 0, 0]	n/a	FR1	0	R1196N
2919.54	0.783	4086489	WORD_OFF	n/a	n/a	HORSE	2	25	[0, 0, 0]	n/a	FR1	0	R1196N
2920.323	1.618	4087272	WORD	n/a	wordpools/wordpool_EN.txt	GRASS	3	25	[0, 0, 0]	n/a	FR1	0	R1196N
2921.941	0.816	4088890	WORD_OFF	n/a	n/a	GRASS	3	25	[0, 0, 0]	n/a	FR1	0	R1196N
2922.757	1.616	4089706	WORD	n/a	wordpools/wordpool_EN.txt	RIB	4	25	[0, 0, 0]	n/a	FR1	0	R1196N
2924.373	0.817	4091322	WORD_OFF	n/a	n/a	RIB	4	25	[0, 0, 0]	n/a	FR1	0	R1196N
2925.19	1.618	4092139	WORD	n/a	wordpools/wordpool_EN.txt	HAWK	5	25	[0, 0, 0]	n/a	FR1	0	R1196N
2926.808	0.884	4093757	WORD_OFF	n/a	n/a	HAWK	5	25	[0, 0, 0]	n/a	FR1	0	R1196N
2927.692	1.616	4094641	WORD	n/a	wordpools/wordpool_EN.txt	ZOO	6	25	[0, 0, 0]	n/a	FR1	0	R1196N
2929.308	0.9	4096257	WORD_OFF	n/a	n/a	ZOO	6	25	[0, 0, 0]	n/a	FR1	0	R1196N
2930.208	1.618	4097157	WORD	n/a	wordpools/wordpool_EN.txt	NEST	7	25	[0, 0, 0]	n/a	FR1	0	R1196N
2931.826	0.983	4098775	WORD_OFF	n/a	n/a	NEST	7	25	[0, 0, 0]	n/a	FR1	0	R1196N
2932.809	1.616	4099758	WORD	n/a	wordpools/wordpool_EN.txt	SNAKE	8	25	[0, 0, 0]	n/a	FR1	0	R1196N
2934.425	0.95	4101374	WORD_OFF	n/a	n/a	SNAKE	8	25	[0, 0, 0]	n/a	FR1	0	R1196N
2935.375	1.601	4102323	WORD	n/a	wordpools/wordpool_EN.txt	BIRD	9	25	[0, 0, 0]	n/a	FR1	0	R1196N
2936.976	0.784	4103924	WORD_OFF	n/a	n/a	BIRD	9	25	[0, 0, 0]	n/a	FR1	0	R1196N
2937.76	1.616	4104708	WORD	n/a	wordpools/wordpool_EN.txt	CLOUD	10	25	[0, 0, 0]	n/a	FR1	0	R1196N
2939.376	0.783	4106324	WORD_OFF	n/a	n/a	CLOUD	10	25	[0, 0, 0]	n/a	FR1	0	R1196N
2940.159	1.601	4107107	WORD	n/a	wordpools/wordpool_EN.txt	CAT	11	25	[0, 0, 0]	n/a	FR1	0	R1196N
2941.76	0.784	4108708	WORD_OFF	n/a	n/a	CAT	11	25	[0, 0, 0]	n/a	FR1	0	R1196N
2942.544	1.616	4109492	WORD	n/a	wordpools/wordpool_EN.txt	SKUNK	12	25	[0, 0, 0]	n/a	FR1	0	R1196N
2944.16	0.0	4111108	WORD_OFF	n/a	n/a	SKUNK	12	25	[0, 0, 0]	n/a	FR1	0	R1196N
2944.16	0.0	4111108	DISTRACT_START	n/a	n/a	n/a	-999	25	[0, 0, 0]	n/a	FR1	0	R1196N
2944.16	0.017	4111108	START	n/a	n/a	n/a	-999	25	[-999, -999, -999]	n/a	FR1	0	R1196N
2944.177	8.752	4111125	PROB	8.752	n/a	n/a	-999	25	[7, 6, 4]	17	FR1	0	R1196N
2952.929	12.529	4119877	PROB	12.529	n/a	n/a	-999	25	[3, 6, 7]	16	FR1	0	R1196N
2965.458	0.007	4132405	STOP	n/a	n/a	n/a	-999	25	[-999, -999, -999]	n/a	FR1	0	R1196N
2965.465	0.533	4132412	DISTRACT_END	n/a	n/a	n/a	-999	25	[0, 0, 0]	n/a	FR1	0	R1196N
2965.998	0.517	4132945	RETRIEVAL_ORIENT	n/a	n/a	n/a	-999	25	[0, 0, 0]	n/a	FR1	0	R1196N
2966.515	1.491	4133462	REC_START	n/a	n/a	n/a	-999	25	[0, 0, 0]	n/a	FR1	0	R1196N
2968.006	1.24	4134953	REC_WORD	1.24	n/a	MOUSE	1	25	[0, 0, 0]	n/a	FR1	0	R1196N
2969.246	6.221	4136193	REC_WORD	6.221	n/a	HORSE	2	25	[0, 0, 0]	n/a	FR1	0	R1196N
2975.467	21.059	4142414	REC_WORD	21.059	n/a	ZOO	6	25	[0, 0, 0]	n/a	FR1	0	R1196N
2996.526	27.764	4163472	REC_END	n/a	n/a	n/a	-999	25	[0, 0, 0]	n/a	FR1	0	R1196N
3024.29	0.0	4191235	SESS_END	n/a	n/a	n/a	-999	25	[0, 0, 0]	n/a	FR1	0	R1196N
