onset	duration	sample	trial_type	response_time	stim_file	item_name	serialpos	list	test	answer	experiment	session	subject
0.0	25.103	443512	SESS_START	n/a	n/a	n/a	-999	-999	[0, 0, 0]	n/a	FR1	0	R1134T
25.103	10.428	468614	COUNTDOWN_START	n/a	n/a	n/a	-999	-999	[0, 0, 0]	n/a	FR1	0	R1134T
35.531	3.591	479042	COUNTDOWN_END	n/a	n/a	n/a	-999	-999	[0, 0, 0]	n/a	FR1	0	R1134T
39.122	2.517	482632	PRACTICE_WORD	n/a	n/a	CAMELLO	1	-1	[0, 0, 0]	n/a	FR1	0	R1134T
41.639	2.367	485149	PRACTICE_WORD	n/a	n/a	PECHO	2	-1	[0, 0, 0]	n/a	FR1	0	R1134T
44.006	2.567	487516	PRACTICE_WORD	n/a	n/a	ATICO	3	-1	[0, 0, 0]	n/a	FR1	0	R1134T
46.573	2.568	490083	PRACTICE_WORD	n/a	n/a	RINOCERONTE	4	-1	[0, 0, 0]	n/a	FR1	0	R1134T
49.141	2.467	492651	PRACTICE_WORD	n/a	n/a	INUNDACION	5	-1	[0, 0, 0]	n/a	FR1	0	R1134T
51.608	2.55	495118	PRACTICE_WORD	n/a	n/a	LENGUA	6	-1	[0, 0, 0]	n/a	FR1	0	R1134T
54.158	2.417	497668	PRACTICE_WORD	n/a	n/a	VAGON	7	-1	[0, 0, 0]	n/a	FR1	0	R1134T
56.575	2.601	500085	PRACTICE_WORD	n/a	n/a	ALGODON	8	-1	[0, 0, 0]	n/a	FR1	0	R1134T
59.176	2.584	502685	PRACTICE_WORD	n/a	n/a	HAZ	9	-1	[0, 0, 0]	n/a	FR1	0	R1134T
61.76	2.417	505269	PRACTICE_WORD	n/a	n/a	ANILLO	10	-1	[0, 0, 0]	n/a	FR1	0	R1134T
64.177	2.567	507686	PRACTICE_WORD	n/a	n/a	RELOJ	11	-1	[0, 0, 0]	n/a	FR1	0	R1134T
66.744	1.617	510253	PRACTICE_WORD	n/a	n/a	HIERRO	12	-1	[0, 0, 0]	n/a	FR1	0	R1134T
68.361	0.0	511870	PRACTICE_DISTRACT_START	n/a	n/a	n/a	-999	-1	[0, 0, 0]	n/a	FR1	0	R1134T
68.361	0.016	511870	START	n/a	n/a	n/a	-999	-1	[-999, -999, -999]	n/a	FR1	0	R1134T
68.377	38.487	511886	PROB	38.487	n/a	n/a	-999	-1	[1, 8, 8]	22	FR1	0	R1134T
106.864	0.02	550371	STOP	n/a	n/a	n/a	-999	-1	[-999, -999, -999]	n/a	FR1	0	R1134T
106.884	0.586	550391	PRACTICE_DISTRACT_END	n/a	n/a	n/a	-999	-1	[0, 0, 0]	n/a	FR1	0	R1134T
107.47	30.515	550977	PRACTICE_REC_START	n/a	n/a	n/a	-999	-1	[0, 0, 0]	n/a	FR1	0	R1134T
137.985	18.859	581490	PRACTICE_REC_END	n/a	n/a	n/a	-999	-1	[0, 0, 0]	n/a	FR1	0	R1134T
156.844	0.0	600349	COUNTDOWN_START	n/a	n/a	n/a	-999	1	[0, 0, 0]	n/a	FR1	0	R1134T
156.844	10.428	600349	TRIAL	n/a	n/a	n/a	-999	1	[0, 0, 0]	n/a	FR1	0	R1134T
167.272	0.008	610776	COUNTDOWN_END	n/a	n/a	n/a	-999	1	[0, 0, 0]	n/a	FR1	0	R1134T
167.28	2.383	610784	ORIENT	n/a	n/a	n/a	-999	1	[0, 0, 0]	n/a	FR1	0	R1134T
169.663	2.601	613167	WORD	n/a	wordpools/wordpool_SP.txt	POLO	1	1	[0, 0, 0]	n/a	FR1	0	R1134T
172.264	2.383	615768	WORD	n/a	wordpools/wordpool_SP.txt	MEJILLA	2	1	[0, 0, 0]	n/a	FR1	0	R1134T
174.647	2.467	618151	WORD	n/a	wordpools/wordpool_SP.txt	TELEFONO	3	1	[0, 0, 0]	n/a	FR1	0	R1134T
177.114	2.517	620618	WORD	n/a	wordpools/wordpool_SP.txt	FICHA	4	1	[0, 0, 0]	n/a	FR1	0	R1134T
179.631	2.551	623134	WORD	n/a	wordpools/wordpool_SP.txt	MONEDA	5	1	[0, 0, 0]	n/a	FR1	0	R1134T
182.182	2.633	625685	WORD	n/a	wordpools/wordpool_SP.txt	LANZA	6	1	[0, 0, 0]	n/a	FR1	0	R1134T
184.815	2.501	628318	WORD	n/a	wordpools/wordpool_SP.txt	CONO	7	1	[0, 0, 0]	n/a	FR1	0	R1134T
187.316	2.6	630819	WORD	n/a	wordpools/wordpool_SP.txt	BRAZO	8	1	[0, 0, 0]	n/a	FR1	0	R1134T
189.916	2.601	633419	WORD	n/a	wordpools/wordpool_SP.txt	TAMBOR	9	1	[0, 0, 0]	n/a	FR1	0	R1134T
192.517	2.617	636020	WORD	n/a	wordpools/wordpool_SP.txt	UVA	10	1	[0, 0, 0]	n/a	FR1	0	R1134T
195.134	2.584	638637	WORD	n/a	wordpools/wordpool_SP.txt	MANGUERA	11	1	[0, 0, 0]	n/a	FR1	0	R1134T
197.718	1.617	641221	WORD	n/a	wordpools/wordpool_SP.txt	RANA	12	1	[0, 0, 0]	n/a	FR1	0	R1134T
199.335	0.001	642837	DISTRACT_START	n/a	n/a	n/a	-999	1	[0, 0, 0]	n/a	FR1	0	R1134T
199.336	0.015	642838	START	n/a	n/a	n/a	-999	1	[-999, -999, -999]	n/a	FR1	0	R1134T
199.351	63.641	642853	PROB	63.641	n/a	n/a	-999	1	[2, 5, 6]	13	FR1	0	R1134T
262.992	0.004	706491	STOP	n/a	n/a	n/a	-999	1	[-999, -999, -999]	n/a	FR1	0	R1134T
262.996	1.221	706495	DISTRACT_END	n/a	n/a	n/a	-999	1	[0, 0, 0]	n/a	FR1	0	R1134T
264.217	22.794	707716	REC_START	n/a	n/a	n/a	-999	1	[0, 0, 0]	n/a	FR1	0	R1134T
287.011	6.645	730509	REC_WORD	6.645	n/a	MANGUERA	-999	1	[0, 0, 0]	n/a	FR1	0	R1134T
293.656	0.568	737154	REC_WORD	0.568	n/a	ANILLO	-999	1	[0, 0, 0]	n/a	FR1	0	R1134T
294.224	41.169	737722	REC_END	n/a	n/a	n/a	-999	1	[0, 0, 0]	n/a	FR1	0	R1134T
335.393	0.0	778889	TRIAL	n/a	n/a	n/a	-999	2	[0, 0, 0]	n/a	FR1	0	R1134T
335.393	10.428	778889	COUNTDOWN_START	n/a	n/a	n/a	-999	2	[0, 0, 0]	n/a	FR1	0	R1134T
345.821	0.007	789316	COUNTDOWN_END	n/a	n/a	n/a	-999	2	[0, 0, 0]	n/a	FR1	0	R1134T
345.828	2.584	789323	ORIENT	n/a	n/a	n/a	-999	2	[0, 0, 0]	n/a	FR1	0	R1134T
348.412	2.534	791907	WORD	n/a	wordpools/wordpool_SP.txt	CARRETERA	1	2	[0, 0, 0]	n/a	FR1	0	R1134T
350.946	2.55	794441	WORD	n/a	wordpools/wordpool_SP.txt	PERRO	2	2	[0, 0, 0]	n/a	FR1	0	R1134T
353.496	2.517	796991	WORD	n/a	wordpools/wordpool_SP.txt	MOFETA	3	2	[0, 0, 0]	n/a	FR1	0	R1134T
356.013	2.517	799508	WORD	n/a	wordpools/wordpool_SP.txt	NIEBLA	4	2	[0, 0, 0]	n/a	FR1	0	R1134T
358.53	2.417	802025	WORD	n/a	wordpools/wordpool_SP.txt	GALLINA	5	2	[0, 0, 0]	n/a	FR1	0	R1134T
360.947	2.484	804441	WORD	n/a	wordpools/wordpool_SP.txt	CORDERO	6	2	[0, 0, 0]	n/a	FR1	0	R1134T
363.431	2.384	806925	WORD	n/a	wordpools/wordpool_SP.txt	GRANJA	7	2	[0, 0, 0]	n/a	FR1	0	R1134T
365.815	2.6	809309	WORD	n/a	wordpools/wordpool_SP.txt	ANGUILA	8	2	[0, 0, 0]	n/a	FR1	0	R1134T
368.415	2.434	811909	WORD	n/a	wordpools/wordpool_SP.txt	CRIA	9	2	[0, 0, 0]	n/a	FR1	0	R1134T
370.849	2.501	814343	WORD	n/a	wordpools/wordpool_SP.txt	CAMION	10	2	[0, 0, 0]	n/a	FR1	0	R1134T
373.35	2.467	816844	WORD	n/a	wordpools/wordpool_SP.txt	CAMIONETA	11	2	[0, 0, 0]	n/a	FR1	0	R1134T
375.817	1.617	819311	WORD	n/a	wordpools/wordpool_SP.txt	PUENTE	12	2	[0, 0, 0]	n/a	FR1	0	R1134T
377.434	0.001	820928	DISTRACT_START	n/a	n/a	n/a	-999	2	[0, 0, 0]	n/a	FR1	0	R1134T
377.435	0.015	820929	START	n/a	n/a	n/a	-999	2	[-999, -999, -999]	n/a	FR1	0	R1134T
377.45	53.982	820944	PROB	53.982	n/a	n/a	-999	2	[1, 9, 3]	13	FR1	0	R1134T
431.432	0.012	874923	STOP	n/a	n/a	n/a	-999	2	[-999, -999, -999]	n/a	FR1	0	R1134T
431.444	1.068	874935	DISTRACT_END	n/a	n/a	n/a	-999	2	[0, 0, 0]	n/a	FR1	0	R1134T
432.512	5.332	876003	REC_START	n/a	n/a	n/a	-999	2	[0, 0, 0]	n/a	FR1	0	R1134T
437.844	2.514	881335	REC_WORD	2.514	n/a	ANNILO	-999	2	[0, 0, 0]	n/a	FR1	0	R1134T
440.358	5.159	883849	REC_WORD	5.159	n/a	PERRO	-999	2	[0, 0, 0]	n/a	FR1	0	R1134T
445.517	0.831	889007	REC_WORD	0.831	n/a	RELOJ	-999	2	[0, 0, 0]	n/a	FR1	0	R1134T
446.348	4.237	889838	REC_WORD	4.237	n/a	ALA	-999	2	[0, 0, 0]	n/a	FR1	0	R1134T
450.585	7.719	894075	REC_WORD_VV	7.719	n/a	<>	-999	2	[0, 0, 0]	n/a	FR1	0	R1134T
458.304	4.217	901794	REC_WORD	4.217	n/a	MANGUERA	-999	2	[0, 0, 0]	n/a	FR1	0	R1134T
462.521	7.479	906010	REC_END	n/a	n/a	n/a	-999	2	[0, 0, 0]	n/a	FR1	0	R1134T
470.0	0.001	913489	COUNTDOWN_START	n/a	n/a	n/a	-999	3	[0, 0, 0]	n/a	FR1	0	R1134T
470.001	10.427	913490	TRIAL	n/a	n/a	n/a	-999	3	[0, 0, 0]	n/a	FR1	0	R1134T
480.428	0.008	923917	COUNTDOWN_END	n/a	n/a	n/a	-999	3	[0, 0, 0]	n/a	FR1	0	R1134T
480.436	2.517	923925	ORIENT	n/a	n/a	n/a	-999	3	[0, 0, 0]	n/a	FR1	0	R1134T
482.953	2.4	926441	WORD	n/a	wordpools/wordpool_SP.txt	ESQUI	1	3	[0, 0, 0]	n/a	FR1	0	R1134T
485.353	2.567	928841	WORD	n/a	wordpools/wordpool_SP.txt	GRUA	2	3	[0, 0, 0]	n/a	FR1	0	R1134T
487.92	2.601	931408	WORD	n/a	wordpools/wordpool_SP.txt	BUHO	3	3	[0, 0, 0]	n/a	FR1	0	R1134T
490.521	2.584	934009	WORD	n/a	wordpools/wordpool_SP.txt	PARED	4	3	[0, 0, 0]	n/a	FR1	0	R1134T
493.105	2.5	936593	WORD	n/a	wordpools/wordpool_SP.txt	BOTA	5	3	[0, 0, 0]	n/a	FR1	0	R1134T
495.605	2.517	939093	WORD	n/a	wordpools/wordpool_SP.txt	NIEVE	6	3	[0, 0, 0]	n/a	FR1	0	R1134T
498.122	2.517	941610	WORD	n/a	wordpools/wordpool_SP.txt	HILO	7	3	[0, 0, 0]	n/a	FR1	0	R1134T
500.639	2.467	944127	WORD	n/a	wordpools/wordpool_SP.txt	PEZUNA	8	3	[0, 0, 0]	n/a	FR1	0	R1134T
503.106	2.568	946593	WORD	n/a	wordpools/wordpool_SP.txt	DEDO	9	3	[0, 0, 0]	n/a	FR1	0	R1134T
505.674	2.517	949161	WORD	n/a	wordpools/wordpool_SP.txt	PUERTA	10	3	[0, 0, 0]	n/a	FR1	0	R1134T
508.191	2.45	951678	WORD	n/a	wordpools/wordpool_SP.txt	TAPETE	11	3	[0, 0, 0]	n/a	FR1	0	R1134T
510.641	1.601	954128	WORD	n/a	wordpools/wordpool_SP.txt	PRIMAVERA	12	3	[0, 0, 0]	n/a	FR1	0	R1134T
512.242	0.001	955729	DISTRACT_START	n/a	n/a	n/a	-999	3	[0, 0, 0]	n/a	FR1	0	R1134T
512.243	0.016	955730	START	n/a	n/a	n/a	-999	3	[-999, -999, -999]	n/a	FR1	0	R1134T
512.259	40.173	955746	PROB	40.173	n/a	n/a	-999	3	[4, 5, 4]	46	FR1	0	R1134T
552.432	0.017	995917	STOP	n/a	n/a	n/a	-999	3	[-999, -999, -999]	n/a	FR1	0	R1134T
552.449	1.134	995934	DISTRACT_END	n/a	n/a	n/a	-999	3	[0, 0, 0]	n/a	FR1	0	R1134T
553.583	5.244	997068	REC_START	n/a	n/a	n/a	-999	3	[0, 0, 0]	n/a	FR1	0	R1134T
558.827	2.8	1002312	REC_WORD	2.8	n/a	ESPERO	-999	3	[0, 0, 0]	n/a	FR1	0	R1134T
561.627	0.511	1005112	REC_WORD_VV	0.511	n/a	<>	-999	3	[0, 0, 0]	n/a	FR1	0	R1134T
562.138	3.569	1005623	REC_WORD	3.569	n/a	PARED	-999	3	[0, 0, 0]	n/a	FR1	0	R1134T
565.707	6.967	1009191	REC_WORD	6.967	n/a	GUIA	-999	3	[0, 0, 0]	n/a	FR1	0	R1134T
572.674	0.478	1016158	REC_WORD_VV	0.478	n/a	<>	-999	3	[0, 0, 0]	n/a	FR1	0	R1134T
573.152	2.974	1016636	REC_WORD	2.974	n/a	MANGUERA	-999	3	[0, 0, 0]	n/a	FR1	0	R1134T
576.126	0.67	1019610	REC_WORD	0.67	n/a	CAMION	-999	3	[0, 0, 0]	n/a	FR1	0	R1134T
576.796	2.158	1020280	REC_WORD_VV	2.158	n/a	<>	-999	3	[0, 0, 0]	n/a	FR1	0	R1134T
578.954	1.393	1022438	REC_WORD_VV	1.393	n/a	<>	-999	3	[0, 0, 0]	n/a	FR1	0	R1134T
580.347	3.246	1023831	REC_WORD_VV	3.246	n/a	<>	-999	3	[0, 0, 0]	n/a	FR1	0	R1134T
583.593	4.246	1027076	REC_END	n/a	n/a	n/a	-999	3	[0, 0, 0]	n/a	FR1	0	R1134T
587.839	0.0	1031322	TRIAL	n/a	n/a	n/a	-999	4	[0, 0, 0]	n/a	FR1	0	R1134T
587.839	10.428	1031322	COUNTDOWN_START	n/a	n/a	n/a	-999	4	[0, 0, 0]	n/a	FR1	0	R1134T
598.267	0.008	1041750	COUNTDOWN_END	n/a	n/a	n/a	-999	4	[0, 0, 0]	n/a	FR1	0	R1134T
598.275	2.549	1041758	ORIENT	n/a	n/a	n/a	-999	4	[0, 0, 0]	n/a	FR1	0	R1134T
600.824	2.401	1044307	WORD	n/a	wordpools/wordpool_SP.txt	LLAMA	1	4	[0, 0, 0]	n/a	FR1	0	R1134T
603.225	2.534	1046708	WORD	n/a	wordpools/wordpool_SP.txt	TORMENTA	2	4	[0, 0, 0]	n/a	FR1	0	R1134T
605.759	2.383	1049241	WORD	n/a	wordpools/wordpool_SP.txt	CHISPA	3	4	[0, 0, 0]	n/a	FR1	0	R1134T
608.142	2.384	1051624	WORD	n/a	wordpools/wordpool_SP.txt	PASTA	4	4	[0, 0, 0]	n/a	FR1	0	R1134T
610.526	2.384	1054008	WORD	n/a	wordpools/wordpool_SP.txt	TINTA	5	4	[0, 0, 0]	n/a	FR1	0	R1134T
612.91	2.384	1056392	WORD	n/a	wordpools/wordpool_SP.txt	PERA	6	4	[0, 0, 0]	n/a	FR1	0	R1134T
615.294	2.6	1058776	WORD	n/a	wordpools/wordpool_SP.txt	PICO	7	4	[0, 0, 0]	n/a	FR1	0	R1134T
617.894	2.584	1061376	WORD	n/a	wordpools/wordpool_SP.txt	JUGO	8	4	[0, 0, 0]	n/a	FR1	0	R1134T
620.478	2.434	1063960	WORD	n/a	wordpools/wordpool_SP.txt	BANDERA	9	4	[0, 0, 0]	n/a	FR1	0	R1134T
622.912	2.433	1066394	WORD	n/a	wordpools/wordpool_SP.txt	TRAPO	10	4	[0, 0, 0]	n/a	FR1	0	R1134T
625.345	2.517	1068826	WORD	n/a	wordpools/wordpool_SP.txt	TANQUE	11	4	[0, 0, 0]	n/a	FR1	0	R1134T
627.862	1.617	1071343	WORD	n/a	wordpools/wordpool_SP.txt	TABLERO	12	4	[0, 0, 0]	n/a	FR1	0	R1134T
629.479	0.001	1072960	DISTRACT_START	n/a	n/a	n/a	-999	4	[0, 0, 0]	n/a	FR1	0	R1134T
629.48	0.016	1072961	START	n/a	n/a	n/a	-999	4	[-999, -999, -999]	n/a	FR1	0	R1134T
629.496	36.056	1072977	PROB	36.056	n/a	n/a	-999	4	[2, 6, 9]	17	FR1	0	R1134T
665.552	0.017	1109031	STOP	n/a	n/a	n/a	-999	4	[-999, -999, -999]	n/a	FR1	0	R1134T
665.569	1.118	1109048	DISTRACT_END	n/a	n/a	n/a	-999	4	[0, 0, 0]	n/a	FR1	0	R1134T
666.687	3.013	1110166	REC_START	n/a	n/a	n/a	-999	4	[0, 0, 0]	n/a	FR1	0	R1134T
669.7	1.849	1113179	REC_WORD_VV	1.849	n/a	<>	-999	4	[0, 0, 0]	n/a	FR1	0	R1134T
671.549	0.484	1115028	REC_WORD_VV	0.484	n/a	<>	-999	4	[0, 0, 0]	n/a	FR1	0	R1134T
672.033	3.644	1115512	REC_WORD	3.644	n/a	PERA	-999	4	[0, 0, 0]	n/a	FR1	0	R1134T
675.677	2.03	1119156	REC_WORD	2.03	n/a	PARED	-999	4	[0, 0, 0]	n/a	FR1	0	R1134T
677.707	2.809	1121186	REC_WORD	2.809	n/a	GUIA	-999	4	[0, 0, 0]	n/a	FR1	0	R1134T
680.516	9.24	1123995	REC_WORD_VV	9.24	n/a	<>	-999	4	[0, 0, 0]	n/a	FR1	0	R1134T
689.756	5.828	1133234	REC_WORD_VV	5.828	n/a	<>	-999	4	[0, 0, 0]	n/a	FR1	0	R1134T
695.584	1.114	1139062	REC_WORD	1.114	n/a	GUIA	-999	4	[0, 0, 0]	n/a	FR1	0	R1134T
696.698	26.566	1140176	REC_END	n/a	n/a	n/a	-999	4	[0, 0, 0]	n/a	FR1	0	R1134T
723.264	0.0	1166741	TRIAL	n/a	n/a	n/a	-999	5	[0, 0, 0]	n/a	FR1	0	R1134T
723.264	10.428	1166741	COUNTDOWN_START	n/a	n/a	n/a	-999	5	[0, 0, 0]	n/a	FR1	0	R1134T
733.692	0.006	1177168	COUNTDOWN_END	n/a	n/a	n/a	-999	5	[0, 0, 0]	n/a	FR1	0	R1134T
733.698	2.468	1177174	ORIENT	n/a	n/a	n/a	-999	5	[0, 0, 0]	n/a	FR1	0	R1134T
736.166	2.583	1179642	WORD	n/a	wordpools/wordpool_SP.txt	NARIZ	1	5	[0, 0, 0]	n/a	FR1	0	R1134T
738.749	2.567	1182225	WORD	n/a	wordpools/wordpool_SP.txt	LABERINTO	2	5	[0, 0, 0]	n/a	FR1	0	R1134T
741.316	2.468	1184792	WORD	n/a	wordpools/wordpool_SP.txt	ARBUSTO	3	5	[0, 0, 0]	n/a	FR1	0	R1134T
743.784	2.567	1187260	WORD	n/a	wordpools/wordpool_SP.txt	MALEZA	4	5	[0, 0, 0]	n/a	FR1	0	R1134T
746.351	2.383	1189826	WORD	n/a	wordpools/wordpool_SP.txt	ESPADA	5	5	[0, 0, 0]	n/a	FR1	0	R1134T
748.734	2.484	1192209	WORD	n/a	wordpools/wordpool_SP.txt	CUADRADO	6	5	[0, 0, 0]	n/a	FR1	0	R1134T
751.218	2.617	1194693	WORD	n/a	wordpools/wordpool_SP.txt	TERRENO	7	5	[0, 0, 0]	n/a	FR1	0	R1134T
753.835	2.418	1197310	WORD	n/a	wordpools/wordpool_SP.txt	COLINA	8	5	[0, 0, 0]	n/a	FR1	0	R1134T
756.253	2.45	1199728	WORD	n/a	wordpools/wordpool_SP.txt	PRECIPICIO	9	5	[0, 0, 0]	n/a	FR1	0	R1134T
758.703	2.467	1202178	WORD	n/a	wordpools/wordpool_SP.txt	NINO	10	5	[0, 0, 0]	n/a	FR1	0	R1134T
761.17	2.584	1204645	WORD	n/a	wordpools/wordpool_SP.txt	LAGO	11	5	[0, 0, 0]	n/a	FR1	0	R1134T
763.754	1.617	1207229	WORD	n/a	wordpools/wordpool_SP.txt	ROCA	12	5	[0, 0, 0]	n/a	FR1	0	R1134T
765.371	0.001	1208845	DISTRACT_START	n/a	n/a	n/a	-999	5	[0, 0, 0]	n/a	FR1	0	R1134T
765.372	0.015	1208846	START	n/a	n/a	n/a	-999	5	[-999, -999, -999]	n/a	FR1	0	R1134T
765.387	16.587	1208861	PROB	16.587	n/a	n/a	-999	5	[1, 6, 8]	15	FR1	0	R1134T
781.974	16.074	1225448	PROB	16.074	n/a	n/a	-999	5	[4, 1, 1]	6	FR1	0	R1134T
798.048	0.012	1241521	STOP	n/a	n/a	n/a	-999	5	[-999, -999, -999]	n/a	FR1	0	R1134T
798.06	1.051	1241533	DISTRACT_END	n/a	n/a	n/a	-999	5	[0, 0, 0]	n/a	FR1	0	R1134T
799.111	13.739	1242584	REC_START	n/a	n/a	n/a	-999	5	[0, 0, 0]	n/a	FR1	0	R1134T
812.85	5.008	1256322	REC_WORD_VV	5.008	n/a	<>	-999	5	[0, 0, 0]	n/a	FR1	0	R1134T
817.858	2.781	1261330	REC_WORD	2.781	n/a	NINO	-999	5	[0, 0, 0]	n/a	FR1	0	R1134T
820.639	2.823	1264111	REC_WORD	2.823	n/a	PARED	-999	5	[0, 0, 0]	n/a	FR1	0	R1134T
823.462	5.66	1266934	REC_WORD	5.66	n/a	GUIA	-999	5	[0, 0, 0]	n/a	FR1	0	R1134T
829.122	34.6	1272593	REC_END	n/a	n/a	n/a	-999	5	[0, 0, 0]	n/a	FR1	0	R1134T
863.722	0.0	1307192	TRIAL	n/a	n/a	n/a	-999	6	[0, 0, 0]	n/a	FR1	0	R1134T
863.722	10.428	1307192	COUNTDOWN_START	n/a	n/a	n/a	-999	6	[0, 0, 0]	n/a	FR1	0	R1134T
874.15	0.007	1317619	COUNTDOWN_END	n/a	n/a	n/a	-999	6	[0, 0, 0]	n/a	FR1	0	R1134T
874.157	2.451	1317626	ORIENT	n/a	n/a	n/a	-999	6	[0, 0, 0]	n/a	FR1	0	R1134T
876.608	2.634	1320077	WORD	n/a	wordpools/wordpool_SP.txt	HUMO	1	6	[0, 0, 0]	n/a	FR1	0	R1134T
879.242	2.4	1322711	WORD	n/a	wordpools/wordpool_SP.txt	SIGNO	2	6	[0, 0, 0]	n/a	FR1	0	R1134T
881.642	2.4	1325111	WORD	n/a	wordpools/wordpool_SP.txt	CARCEL	3	6	[0, 0, 0]	n/a	FR1	0	R1134T
884.042	2.418	1327511	WORD	n/a	wordpools/wordpool_SP.txt	JUEZ	4	6	[0, 0, 0]	n/a	FR1	0	R1134T
886.46	2.383	1329929	WORD	n/a	wordpools/wordpool_SP.txt	TOSTADA	5	6	[0, 0, 0]	n/a	FR1	0	R1134T
888.843	2.384	1332311	WORD	n/a	wordpools/wordpool_SP.txt	SOPA	6	6	[0, 0, 0]	n/a	FR1	0	R1134T
891.227	2.467	1334695	WORD	n/a	wordpools/wordpool_SP.txt	ESCRITORIO	7	6	[0, 0, 0]	n/a	FR1	0	R1134T
893.694	2.534	1337162	WORD	n/a	wordpools/wordpool_SP.txt	MANGA	8	6	[0, 0, 0]	n/a	FR1	0	R1134T
896.228	2.6	1339696	WORD	n/a	wordpools/wordpool_SP.txt	CARA	9	6	[0, 0, 0]	n/a	FR1	0	R1134T
898.828	2.401	1342296	WORD	n/a	wordpools/wordpool_SP.txt	ALFILER	10	6	[0, 0, 0]	n/a	FR1	0	R1134T
901.229	2.617	1344697	WORD	n/a	wordpools/wordpool_SP.txt	SONRISA	11	6	[0, 0, 0]	n/a	FR1	0	R1134T
903.846	1.617	1347314	WORD	n/a	wordpools/wordpool_SP.txt	ARCA	12	6	[0, 0, 0]	n/a	FR1	0	R1134T
905.463	0.001	1348931	DISTRACT_START	n/a	n/a	n/a	-999	6	[0, 0, 0]	n/a	FR1	0	R1134T
905.464	0.016	1348932	START	n/a	n/a	n/a	-999	6	[-999, -999, -999]	n/a	FR1	0	R1134T
905.48	19.703	1348948	PROB	19.703	n/a	n/a	-999	6	[9, 1, 6]	16	FR1	0	R1134T
925.183	16.761	1368650	PROB	16.761	n/a	n/a	-999	6	[7, 6, 6]	19	FR1	0	R1134T
941.944	0.009	1385410	STOP	n/a	n/a	n/a	-999	6	[-999, -999, -999]	n/a	FR1	0	R1134T
941.953	1.051	1385419	DISTRACT_END	n/a	n/a	n/a	-999	6	[0, 0, 0]	n/a	FR1	0	R1134T
943.004	1.907	1386470	REC_START	n/a	n/a	n/a	-999	6	[0, 0, 0]	n/a	FR1	0	R1134T
944.911	2.336	1388377	REC_WORD	2.336	n/a	HUMO	-999	6	[0, 0, 0]	n/a	FR1	0	R1134T
947.247	1.07	1390713	REC_WORD_VV	1.07	n/a	<>	-999	6	[0, 0, 0]	n/a	FR1	0	R1134T
948.317	8.503	1391782	REC_WORD_VV	8.503	n/a	<>	-999	6	[0, 0, 0]	n/a	FR1	0	R1134T
956.82	16.194	1400285	REC_WORD_VV	16.194	n/a	<>	-999	6	[0, 0, 0]	n/a	FR1	0	R1134T
973.014	6.247	1416478	REC_END	n/a	n/a	n/a	-999	6	[0, 0, 0]	n/a	FR1	0	R1134T
979.261	0.0	1422725	COUNTDOWN_START	n/a	n/a	n/a	-999	7	[0, 0, 0]	n/a	FR1	0	R1134T
979.261	10.428	1422725	TRIAL	n/a	n/a	n/a	-999	7	[0, 0, 0]	n/a	FR1	0	R1134T
989.689	0.006	1433152	COUNTDOWN_END	n/a	n/a	n/a	-999	7	[0, 0, 0]	n/a	FR1	0	R1134T
989.695	2.6	1433158	ORIENT	n/a	n/a	n/a	-999	7	[0, 0, 0]	n/a	FR1	0	R1134T
992.295	2.618	1435758	WORD	n/a	wordpools/wordpool_SP.txt	ORO	1	7	[0, 0, 0]	n/a	FR1	0	R1134T
994.913	2.5	1438376	WORD	n/a	wordpools/wordpool_SP.txt	OVEJA	2	7	[0, 0, 0]	n/a	FR1	0	R1134T
997.413	2.6	1440876	WORD	n/a	wordpools/wordpool_SP.txt	CAPA	3	7	[0, 0, 0]	n/a	FR1	0	R1134T
1000.013	2.518	1443476	WORD	n/a	wordpools/wordpool_SP.txt	ALCES	4	7	[0, 0, 0]	n/a	FR1	0	R1134T
1002.531	2.417	1445994	WORD	n/a	wordpools/wordpool_SP.txt	DIENTE	5	7	[0, 0, 0]	n/a	FR1	0	R1134T
1004.948	2.6	1448411	WORD	n/a	wordpools/wordpool_SP.txt	DIENTES	6	7	[0, 0, 0]	n/a	FR1	0	R1134T
1007.548	2.434	1451011	WORD	n/a	wordpools/wordpool_SP.txt	VELA	7	7	[0, 0, 0]	n/a	FR1	0	R1134T
1009.982	2.5	1453444	WORD	n/a	wordpools/wordpool_SP.txt	ZORRO	8	7	[0, 0, 0]	n/a	FR1	0	R1134T
1012.482	2.551	1455944	WORD	n/a	wordpools/wordpool_SP.txt	HOJA	9	7	[0, 0, 0]	n/a	FR1	0	R1134T
1015.033	2.417	1458495	WORD	n/a	wordpools/wordpool_SP.txt	HORMIGA	10	7	[0, 0, 0]	n/a	FR1	0	R1134T
1017.45	2.45	1460912	WORD	n/a	wordpools/wordpool_SP.txt	TALLO	11	7	[0, 0, 0]	n/a	FR1	0	R1134T
1019.9	1.617	1463362	WORD	n/a	wordpools/wordpool_SP.txt	RATON	12	7	[0, 0, 0]	n/a	FR1	0	R1134T
1021.517	0.001	1464979	DISTRACT_START	n/a	n/a	n/a	-999	7	[0, 0, 0]	n/a	FR1	0	R1134T
1021.518	0.016	1464980	START	n/a	n/a	n/a	-999	7	[-999, -999, -999]	n/a	FR1	0	R1134T
1021.534	12.419	1464996	PROB	12.419	n/a	n/a	-999	7	[3, 5, 5]	10	FR1	0	R1134T
1033.953	20.615	1477414	PROB	20.615	n/a	n/a	-999	7	[3, 5, 7]	15	FR1	0	R1134T
1054.568	0.005	1498028	STOP	n/a	n/a	n/a	-999	7	[-999, -999, -999]	n/a	FR1	0	R1134T
1054.573	1.151	1498033	DISTRACT_END	n/a	n/a	n/a	-999	7	[0, 0, 0]	n/a	FR1	0	R1134T
1055.724	0.996	1499184	REC_START	n/a	n/a	n/a	-999	7	[0, 0, 0]	n/a	FR1	0	R1134T
1056.72	2.696	1500180	REC_WORD	2.696	n/a	ORO	-999	7	[0, 0, 0]	n/a	FR1	0	R1134T
1059.416	3.485	1502876	REC_WORD	3.485	n/a	PARED	-999	7	[0, 0, 0]	n/a	FR1	0	R1134T
1062.901	2.024	1506361	REC_WORD	2.024	n/a	DIENTE	-999	7	[0, 0, 0]	n/a	FR1	0	R1134T
1064.925	7.71	1508385	REC_WORD	7.71	n/a	DIENTES	-999	7	[0, 0, 0]	n/a	FR1	0	R1134T
1072.635	4.657	1516094	REC_WORD_VV	4.657	n/a	<>	-999	7	[0, 0, 0]	n/a	FR1	0	R1134T
1077.292	0.377	1520751	REC_WORD	0.377	n/a	ORO	-999	7	[0, 0, 0]	n/a	FR1	0	R1134T
1077.669	8.069	1521128	REC_WORD	8.069	n/a	PARED	-999	7	[0, 0, 0]	n/a	FR1	0	R1134T
1085.738	16.577	1529197	REC_END	n/a	n/a	n/a	-999	7	[0, 0, 0]	n/a	FR1	0	R1134T
1102.315	0.001	1545773	COUNTDOWN_START	n/a	n/a	n/a	-999	8	[0, 0, 0]	n/a	FR1	0	R1134T
1102.316	10.427	1545774	TRIAL	n/a	n/a	n/a	-999	8	[0, 0, 0]	n/a	FR1	0	R1134T
1112.743	0.008	1556200	COUNTDOWN_END	n/a	n/a	n/a	-999	8	[0, 0, 0]	n/a	FR1	0	R1134T
1112.751	2.4	1556208	ORIENT	n/a	n/a	n/a	-999	8	[0, 0, 0]	n/a	FR1	0	R1134T
1115.151	2.417	1558608	WORD	n/a	wordpools/wordpool_SP.txt	LIBRO	1	8	[0, 0, 0]	n/a	FR1	0	R1134T
1117.568	2.534	1561025	WORD	n/a	wordpools/wordpool_SP.txt	RUEDA	2	8	[0, 0, 0]	n/a	FR1	0	R1134T
1120.102	2.4	1563559	WORD	n/a	wordpools/wordpool_SP.txt	RELOJ	3	8	[0, 0, 0]	n/a	FR1	0	R1134T
1122.502	2.518	1565959	WORD	n/a	wordpools/wordpool_SP.txt	HERRAMIENTA	4	8	[0, 0, 0]	n/a	FR1	0	R1134T
1125.02	2.483	1568477	WORD	n/a	wordpools/wordpool_SP.txt	LUNAR	5	8	[0, 0, 0]	n/a	FR1	0	R1134T
1127.503	2.617	1570960	WORD	n/a	wordpools/wordpool_SP.txt	RATA	6	8	[0, 0, 0]	n/a	FR1	0	R1134T
1130.12	2.451	1573576	WORD	n/a	wordpools/wordpool_SP.txt	DULCE	7	8	[0, 0, 0]	n/a	FR1	0	R1134T
1132.571	2.484	1576027	WORD	n/a	wordpools/wordpool_SP.txt	VASO	8	8	[0, 0, 0]	n/a	FR1	0	R1134T
1135.055	2.4	1578511	WORD	n/a	wordpools/wordpool_SP.txt	PAYASO	9	8	[0, 0, 0]	n/a	FR1	0	R1134T
1137.455	2.601	1580911	WORD	n/a	wordpools/wordpool_SP.txt	LAMPARA	10	8	[0, 0, 0]	n/a	FR1	0	R1134T
1140.056	2.517	1583512	WORD	n/a	wordpools/wordpool_SP.txt	JEEP	11	8	[0, 0, 0]	n/a	FR1	0	R1134T
1142.573	1.617	1586029	WORD	n/a	wordpools/wordpool_SP.txt	BANDEJA	12	8	[0, 0, 0]	n/a	FR1	0	R1134T
1144.19	0.001	1587646	DISTRACT_START	n/a	n/a	n/a	-999	8	[0, 0, 0]	n/a	FR1	0	R1134T
1144.191	0.015	1587647	START	n/a	n/a	n/a	-999	8	[-999, -999, -999]	n/a	FR1	0	R1134T
1144.206	10.235	1587662	PROB	10.235	n/a	n/a	-999	8	[6, 3, 1]	10	FR1	0	R1134T
1154.441	12.711	1597896	PROB	12.711	n/a	n/a	-999	8	[4, 3, 5]	12	FR1	0	R1134T
1167.152	0.008	1610607	STOP	n/a	n/a	n/a	-999	8	[-999, -999, -999]	n/a	FR1	0	R1134T
1167.16	1.152	1610615	DISTRACT_END	n/a	n/a	n/a	-999	8	[0, 0, 0]	n/a	FR1	0	R1134T
1168.312	1.842	1611767	REC_START	n/a	n/a	n/a	-999	8	[0, 0, 0]	n/a	FR1	0	R1134T
1170.154	2.216	1613609	REC_WORD	2.216	n/a	HUMO	-999	8	[0, 0, 0]	n/a	FR1	0	R1134T
1172.37	2.168	1615824	REC_WORD	2.168	n/a	ORO	-999	8	[0, 0, 0]	n/a	FR1	0	R1134T
1174.538	4.339	1617992	REC_WORD	4.339	n/a	RELOJ	-999	8	[0, 0, 0]	n/a	FR1	0	R1134T
1178.877	3.505	1622331	REC_WORD	3.505	n/a	BANDERA	-999	8	[0, 0, 0]	n/a	FR1	0	R1134T
1182.382	4.695	1625836	REC_WORD_VV	4.695	n/a	<>	-999	8	[0, 0, 0]	n/a	FR1	0	R1134T
1187.077	0.418	1630531	REC_WORD	0.418	n/a	PERRO	-999	8	[0, 0, 0]	n/a	FR1	0	R1134T
1187.495	0.501	1630949	REC_WORD_VV	0.501	n/a	<>	-999	8	[0, 0, 0]	n/a	FR1	0	R1134T
1187.996	6.393	1631450	REC_WORD	6.393	n/a	PERRO	-999	8	[0, 0, 0]	n/a	FR1	0	R1134T
1194.389	3.933	1637842	REC_WORD_VV	3.933	n/a	<>	-999	8	[0, 0, 0]	n/a	FR1	0	R1134T
1198.322	42.085	1641775	REC_END	n/a	n/a	n/a	-999	8	[0, 0, 0]	n/a	FR1	0	R1134T
1240.407	0.0	1683858	TRIAL	n/a	n/a	n/a	-999	9	[0, 0, 0]	n/a	FR1	0	R1134T
1240.407	10.428	1683858	COUNTDOWN_START	n/a	n/a	n/a	-999	9	[0, 0, 0]	n/a	FR1	0	R1134T
1250.835	0.007	1694286	COUNTDOWN_END	n/a	n/a	n/a	-999	9	[0, 0, 0]	n/a	FR1	0	R1134T
1250.842	2.402	1694293	ORIENT	n/a	n/a	n/a	-999	9	[0, 0, 0]	n/a	FR1	0	R1134T
1253.244	2.433	1696694	WORD	n/a	wordpools/wordpool_SP.txt	JET	1	9	[0, 0, 0]	n/a	FR1	0	R1134T
1255.677	2.533	1699127	WORD	n/a	wordpools/wordpool_SP.txt	AVION	2	9	[0, 0, 0]	n/a	FR1	0	R1134T
1258.21	2.617	1701660	WORD	n/a	wordpools/wordpool_SP.txt	REMO	3	9	[0, 0, 0]	n/a	FR1	0	R1134T
1260.827	2.501	1704277	WORD	n/a	wordpools/wordpool_SP.txt	PAGINA	4	9	[0, 0, 0]	n/a	FR1	0	R1134T
1263.328	2.484	1706778	WORD	n/a	wordpools/wordpool_SP.txt	TREN	5	9	[0, 0, 0]	n/a	FR1	0	R1134T
1265.812	2.484	1709262	WORD	n/a	wordpools/wordpool_SP.txt	PERLA	6	9	[0, 0, 0]	n/a	FR1	0	R1134T
1268.296	2.617	1711746	WORD	n/a	wordpools/wordpool_SP.txt	BANCO	7	9	[0, 0, 0]	n/a	FR1	0	R1134T
1270.913	2.4	1714363	WORD	n/a	wordpools/wordpool_SP.txt	VAPOR	8	9	[0, 0, 0]	n/a	FR1	0	R1134T
1273.313	2.484	1716762	WORD	n/a	wordpools/wordpool_SP.txt	TIENDA	9	9	[0, 0, 0]	n/a	FR1	0	R1134T
1275.797	2.417	1719246	WORD	n/a	wordpools/wordpool_SP.txt	CORREO	10	9	[0, 0, 0]	n/a	FR1	0	R1134T
1278.214	2.584	1721663	WORD	n/a	wordpools/wordpool_SP.txt	EFECTIVO	11	9	[0, 0, 0]	n/a	FR1	0	R1134T
1280.798	1.617	1724247	WORD	n/a	wordpools/wordpool_SP.txt	ESCUELA	12	9	[0, 0, 0]	n/a	FR1	0	R1134T
1282.415	0.001	1725864	DISTRACT_START	n/a	n/a	n/a	-999	9	[0, 0, 0]	n/a	FR1	0	R1134T
1282.416	0.015	1725865	START	n/a	n/a	n/a	-999	9	[-999, -999, -999]	n/a	FR1	0	R1134T
1282.431	15.086	1725880	PROB	15.086	n/a	n/a	-999	9	[3, 6, 8]	17	FR1	0	R1134T
1297.517	9.827	1740965	PROB	9.827	n/a	n/a	-999	9	[2, 3, 4]	9	FR1	0	R1134T
1307.344	0.009	1750792	STOP	n/a	n/a	n/a	-999	9	[-999, -999, -999]	n/a	FR1	0	R1134T
1307.353	1.101	1750801	DISTRACT_END	n/a	n/a	n/a	-999	9	[0, 0, 0]	n/a	FR1	0	R1134T
1308.454	4.229	1751902	REC_START	n/a	n/a	n/a	-999	9	[0, 0, 0]	n/a	FR1	0	R1134T
1312.683	2.468	1756130	REC_WORD	2.468	n/a	RELOJ	-999	9	[0, 0, 0]	n/a	FR1	0	R1134T
1315.151	3.321	1758598	REC_WORD	3.321	n/a	HUMO	-999	9	[0, 0, 0]	n/a	FR1	0	R1134T
1318.472	19.992	1761919	REC_WORD	19.992	n/a	BANDERA	-999	9	[0, 0, 0]	n/a	FR1	0	R1134T
1338.464	4.295	1781910	REC_END	n/a	n/a	n/a	-999	9	[0, 0, 0]	n/a	FR1	0	R1134T
1342.759	0.0	1786205	TRIAL	n/a	n/a	n/a	-999	10	[0, 0, 0]	n/a	FR1	0	R1134T
1342.759	10.428	1786205	COUNTDOWN_START	n/a	n/a	n/a	-999	10	[0, 0, 0]	n/a	FR1	0	R1134T
1353.187	0.007	1796632	COUNTDOWN_END	n/a	n/a	n/a	-999	10	[0, 0, 0]	n/a	FR1	0	R1134T
1353.194	2.517	1796639	ORIENT	n/a	n/a	n/a	-999	10	[0, 0, 0]	n/a	FR1	0	R1134T
1355.711	2.535	1799156	WORD	n/a	wordpools/wordpool_SP.txt	SOL	1	10	[0, 0, 0]	n/a	FR1	0	R1134T
1358.246	2.45	1801691	WORD	n/a	wordpools/wordpool_SP.txt	HABITACION	2	10	[0, 0, 0]	n/a	FR1	0	R1134T
1360.696	2.383	1804141	WORD	n/a	wordpools/wordpool_SP.txt	CARNET	3	10	[0, 0, 0]	n/a	FR1	0	R1134T
1363.079	2.451	1806524	WORD	n/a	wordpools/wordpool_SP.txt	CAJA	4	10	[0, 0, 0]	n/a	FR1	0	R1134T
1365.53	2.384	1808975	WORD	n/a	wordpools/wordpool_SP.txt	JABON	5	10	[0, 0, 0]	n/a	FR1	0	R1134T
1367.914	2.433	1811359	WORD	n/a	wordpools/wordpool_SP.txt	ESPUMA	6	10	[0, 0, 0]	n/a	FR1	0	R1134T
1370.347	2.484	1813792	WORD	n/a	wordpools/wordpool_SP.txt	CAMISA	7	10	[0, 0, 0]	n/a	FR1	0	R1134T
1372.831	2.517	1816275	WORD	n/a	wordpools/wordpool_SP.txt	BOLSA	8	10	[0, 0, 0]	n/a	FR1	0	R1134T
1375.348	2.617	1818792	WORD	n/a	wordpools/wordpool_SP.txt	CORONA	9	10	[0, 0, 0]	n/a	FR1	0	R1134T
1377.965	2.584	1821409	WORD	n/a	wordpools/wordpool_SP.txt	CORDEL	10	10	[0, 0, 0]	n/a	FR1	0	R1134T
1380.549	2.501	1823993	WORD	n/a	wordpools/wordpool_SP.txt	VENTILADOR	11	10	[0, 0, 0]	n/a	FR1	0	R1134T
1383.05	1.617	1826494	WORD	n/a	wordpools/wordpool_SP.txt	BALLENA	12	10	[0, 0, 0]	n/a	FR1	0	R1134T
1384.667	0.001	1828111	DISTRACT_START	n/a	n/a	n/a	-999	10	[0, 0, 0]	n/a	FR1	0	R1134T
1384.668	0.015	1828112	START	n/a	n/a	n/a	-999	10	[-999, -999, -999]	n/a	FR1	0	R1134T
1384.683	15.703	1828127	PROB	15.703	n/a	n/a	-999	10	[1, 8, 7]	16	FR1	0	R1134T
1400.386	12.542	1843829	PROB	12.542	n/a	n/a	-999	10	[8, 4, 9]	21	FR1	0	R1134T
1412.928	0.01	1856371	STOP	n/a	n/a	n/a	-999	10	[-999, -999, -999]	n/a	FR1	0	R1134T
1412.938	1.138	1856381	DISTRACT_END	n/a	n/a	n/a	-999	10	[0, 0, 0]	n/a	FR1	0	R1134T
1414.076	3.146	1857518	REC_START	n/a	n/a	n/a	-999	10	[0, 0, 0]	n/a	FR1	0	R1134T
1417.222	1.428	1860664	REC_WORD	1.428	n/a	CAJA	-999	10	[0, 0, 0]	n/a	FR1	0	R1134T
1418.65	3.669	1862092	REC_WORD	3.669	n/a	JABON	-999	10	[0, 0, 0]	n/a	FR1	0	R1134T
1422.319	0.761	1865761	REC_WORD	0.761	n/a	RELOJ	-999	10	[0, 0, 0]	n/a	FR1	0	R1134T
1423.08	5.891	1866522	REC_WORD	5.891	n/a	SOL	-999	10	[0, 0, 0]	n/a	FR1	0	R1134T
1428.971	9.993	1872413	REC_WORD	9.993	n/a	HERRAMIENTA	-999	10	[0, 0, 0]	n/a	FR1	0	R1134T
1438.964	2.171	1882405	REC_WORD	2.171	n/a	JABON	-999	10	[0, 0, 0]	n/a	FR1	0	R1134T
1441.135	0.681	1884576	REC_WORD	0.681	n/a	CAJA	-999	10	[0, 0, 0]	n/a	FR1	0	R1134T
1441.816	2.266	1885257	REC_WORD	2.266	n/a	HERRAMIENTA	-999	10	[0, 0, 0]	n/a	FR1	0	R1134T
1444.082	7.647	1887523	REC_END	n/a	n/a	n/a	-999	10	[0, 0, 0]	n/a	FR1	0	R1134T
1451.729	0.0	1895170	TRIAL	n/a	n/a	n/a	-999	11	[0, 0, 0]	n/a	FR1	0	R1134T
1451.729	10.428	1895170	COUNTDOWN_START	n/a	n/a	n/a	-999	11	[0, 0, 0]	n/a	FR1	0	R1134T
1462.157	0.007	1905597	COUNTDOWN_END	n/a	n/a	n/a	-999	11	[0, 0, 0]	n/a	FR1	0	R1134T
1462.164	2.484	1905604	ORIENT	n/a	n/a	n/a	-999	11	[0, 0, 0]	n/a	FR1	0	R1134T
1464.648	2.484	1908088	WORD	n/a	wordpools/wordpool_SP.txt	MULA	1	11	[0, 0, 0]	n/a	FR1	0	R1134T
1467.132	2.4	1910572	WORD	n/a	wordpools/wordpool_SP.txt	CABALLO	2	11	[0, 0, 0]	n/a	FR1	0	R1134T
1469.532	2.417	1912972	WORD	n/a	wordpools/wordpool_SP.txt	LIMO	3	11	[0, 0, 0]	n/a	FR1	0	R1134T
1471.949	2.501	1915389	WORD	n/a	wordpools/wordpool_SP.txt	ESCALERA	4	11	[0, 0, 0]	n/a	FR1	0	R1134T
1474.45	2.6	1917889	WORD	n/a	wordpools/wordpool_SP.txt	LECHE	5	11	[0, 0, 0]	n/a	FR1	0	R1134T
1477.05	2.517	1920489	WORD	n/a	wordpools/wordpool_SP.txt	NUBE	6	11	[0, 0, 0]	n/a	FR1	0	R1134T
1479.567	2.617	1923006	WORD	n/a	wordpools/wordpool_SP.txt	UNA	7	11	[0, 0, 0]	n/a	FR1	0	R1134T
1482.184	2.568	1925623	WORD	n/a	wordpools/wordpool_SP.txt	LLUVIA	8	11	[0, 0, 0]	n/a	FR1	0	R1134T
1484.752	2.383	1928191	WORD	n/a	wordpools/wordpool_SP.txt	COPA	9	11	[0, 0, 0]	n/a	FR1	0	R1134T
1487.135	2.634	1930574	WORD	n/a	wordpools/wordpool_SP.txt	ARROZ	10	11	[0, 0, 0]	n/a	FR1	0	R1134T
1489.769	2.485	1933208	WORD	n/a	wordpools/wordpool_SP.txt	PIE	11	11	[0, 0, 0]	n/a	FR1	0	R1134T
1492.254	1.616	1935693	WORD	n/a	wordpools/wordpool_SP.txt	SAL	12	11	[0, 0, 0]	n/a	FR1	0	R1134T
1493.87	0.001	1937309	DISTRACT_START	n/a	n/a	n/a	-999	11	[0, 0, 0]	n/a	FR1	0	R1134T
1493.871	0.016	1937310	START	n/a	n/a	n/a	-999	11	[-999, -999, -999]	n/a	FR1	0	R1134T
1493.887	20.153	1937326	PROB	20.153	n/a	n/a	-999	11	[7, 5, 8]	20	FR1	0	R1134T
1514.04	0.017	1957478	STOP	n/a	n/a	n/a	-999	11	[-999, -999, -999]	n/a	FR1	0	R1134T
1514.057	1.185	1957495	DISTRACT_END	n/a	n/a	n/a	-999	11	[0, 0, 0]	n/a	FR1	0	R1134T
1515.242	2.136	1958679	REC_START	n/a	n/a	n/a	-999	11	[0, 0, 0]	n/a	FR1	0	R1134T
1517.378	2.364	1960815	REC_WORD	2.364	n/a	CABALLO	-999	11	[0, 0, 0]	n/a	FR1	0	R1134T
1519.742	2.854	1963179	REC_WORD	2.854	n/a	MULA	-999	11	[0, 0, 0]	n/a	FR1	0	R1134T
1522.596	4.09	1966033	REC_WORD	4.09	n/a	UNA	-999	11	[0, 0, 0]	n/a	FR1	0	R1134T
1526.686	5.097	1970123	REC_WORD	5.097	n/a	PECHO	-999	11	[0, 0, 0]	n/a	FR1	0	R1134T
1531.783	7.489	1975220	REC_WORD	7.489	n/a	PIE	-999	11	[0, 0, 0]	n/a	FR1	0	R1134T
1539.272	5.98	1982708	REC_WORD	5.98	n/a	SOL	-999	11	[0, 0, 0]	n/a	FR1	0	R1134T
1545.252	5.245	1988688	REC_END	n/a	n/a	n/a	-999	11	[0, 0, 0]	n/a	FR1	0	R1134T
1550.497	0.0	1993933	COUNTDOWN_START	n/a	n/a	n/a	-999	12	[0, 0, 0]	n/a	FR1	0	R1134T
1550.497	10.428	1993933	TRIAL	n/a	n/a	n/a	-999	12	[0, 0, 0]	n/a	FR1	0	R1134T
1560.925	0.007	2004360	COUNTDOWN_END	n/a	n/a	n/a	-999	12	[0, 0, 0]	n/a	FR1	0	R1134T
1560.932	2.484	2004367	ORIENT	n/a	n/a	n/a	-999	12	[0, 0, 0]	n/a	FR1	0	R1134T
1563.416	2.55	2006851	WORD	n/a	wordpools/wordpool_SP.txt	CARPA	1	12	[0, 0, 0]	n/a	FR1	0	R1134T
1565.966	2.601	2009401	WORD	n/a	wordpools/wordpool_SP.txt	MAR	2	12	[0, 0, 0]	n/a	FR1	0	R1134T
1568.567	2.6	2012002	WORD	n/a	wordpools/wordpool_SP.txt	JUGUETE	3	12	[0, 0, 0]	n/a	FR1	0	R1134T
1571.167	2.617	2014602	WORD	n/a	wordpools/wordpool_SP.txt	CUERNO	4	12	[0, 0, 0]	n/a	FR1	0	R1134T
1573.784	2.618	2017219	WORD	n/a	wordpools/wordpool_SP.txt	ROBLE	5	12	[0, 0, 0]	n/a	FR1	0	R1134T
1576.402	2.566	2019836	WORD	n/a	wordpools/wordpool_SP.txt	PLAYA	6	12	[0, 0, 0]	n/a	FR1	0	R1134T
1578.968	2.551	2022402	WORD	n/a	wordpools/wordpool_SP.txt	TECHO	7	12	[0, 0, 0]	n/a	FR1	0	R1134T
1581.519	2.384	2024953	WORD	n/a	wordpools/wordpool_SP.txt	OLA	8	12	[0, 0, 0]	n/a	FR1	0	R1134T
1583.903	2.433	2027337	WORD	n/a	wordpools/wordpool_SP.txt	BOTE	9	12	[0, 0, 0]	n/a	FR1	0	R1134T
1586.336	2.418	2029770	WORD	n/a	wordpools/wordpool_SP.txt	CUEVA	10	12	[0, 0, 0]	n/a	FR1	0	R1134T
1588.754	2.584	2032188	WORD	n/a	wordpools/wordpool_SP.txt	CIELO	11	12	[0, 0, 0]	n/a	FR1	0	R1134T
1591.338	1.617	2034772	WORD	n/a	wordpools/wordpool_SP.txt	CEPILLO	12	12	[0, 0, 0]	n/a	FR1	0	R1134T
1592.955	0.001	2036389	DISTRACT_START	n/a	n/a	n/a	-999	12	[0, 0, 0]	n/a	FR1	0	R1134T
1592.956	0.015	2036390	START	n/a	n/a	n/a	-999	12	[-999, -999, -999]	n/a	FR1	0	R1134T
1592.971	10.702	2036405	PROB	10.702	n/a	n/a	-999	12	[3, 6, 7]	16	FR1	0	R1134T
1603.673	7.768	2047106	PROB	7.768	n/a	n/a	-999	12	[6, 6, 1]	13	FR1	0	R1134T
1611.441	9.391	2054874	PROB	9.391	n/a	n/a	-999	12	[9, 4, 2]	15	FR1	0	R1134T
1620.832	0.011	2064264	STOP	n/a	n/a	n/a	-999	12	[-999, -999, -999]	n/a	FR1	0	R1134T
1620.843	1.201	2064275	DISTRACT_END	n/a	n/a	n/a	-999	12	[0, 0, 0]	n/a	FR1	0	R1134T
1622.044	6.548	2065476	REC_START	n/a	n/a	n/a	-999	12	[0, 0, 0]	n/a	FR1	0	R1134T
1628.592	0.788	2072024	REC_WORD	0.788	n/a	ARROZ	-999	12	[0, 0, 0]	n/a	FR1	0	R1134T
1629.38	2.197	2072812	REC_WORD	2.197	n/a	CABALLO	-999	12	[0, 0, 0]	n/a	FR1	0	R1134T
1631.577	3.33	2075009	REC_WORD	3.33	n/a	MULA	-999	12	[0, 0, 0]	n/a	FR1	0	R1134T
1634.907	1.973	2078339	REC_WORD	1.973	n/a	ANILLO	-999	12	[0, 0, 0]	n/a	FR1	0	R1134T
1636.88	3.64	2080311	REC_WORD	3.64	n/a	CARPA	-999	12	[0, 0, 0]	n/a	FR1	0	R1134T
1640.52	11.534	2083951	REC_WORD	11.534	n/a	CABALLO	-999	12	[0, 0, 0]	n/a	FR1	0	R1134T
1652.054	19.115	2095485	REC_END	n/a	n/a	n/a	-999	12	[0, 0, 0]	n/a	FR1	0	R1134T
1671.169	0.0	2114599	TRIAL	n/a	n/a	n/a	-999	13	[0, 0, 0]	n/a	FR1	0	R1134T
1671.169	10.428	2114599	COUNTDOWN_START	n/a	n/a	n/a	-999	13	[0, 0, 0]	n/a	FR1	0	R1134T
1681.597	0.007	2125026	COUNTDOWN_END	n/a	n/a	n/a	-999	13	[0, 0, 0]	n/a	FR1	0	R1134T
1681.604	2.601	2125033	ORIENT	n/a	n/a	n/a	-999	13	[0, 0, 0]	n/a	FR1	0	R1134T
1684.205	2.517	2127634	WORD	n/a	wordpools/wordpool_SP.txt	ANZUELO	1	13	[0, 0, 0]	n/a	FR1	0	R1134T
1686.722	2.551	2130151	WORD	n/a	wordpools/wordpool_SP.txt	SELLO	2	13	[0, 0, 0]	n/a	FR1	0	R1134T
1689.273	2.6	2132702	WORD	n/a	wordpools/wordpool_SP.txt	CAMARON	3	13	[0, 0, 0]	n/a	FR1	0	R1134T
1691.873	2.633	2135302	WORD	n/a	wordpools/wordpool_SP.txt	SILLA	4	13	[0, 0, 0]	n/a	FR1	0	R1134T
1694.506	2.418	2137935	WORD	n/a	wordpools/wordpool_SP.txt	GUANTE	5	13	[0, 0, 0]	n/a	FR1	0	R1134T
1696.924	2.617	2140352	WORD	n/a	wordpools/wordpool_SP.txt	VERJA	6	13	[0, 0, 0]	n/a	FR1	0	R1134T
1699.541	2.467	2142969	WORD	n/a	wordpools/wordpool_SP.txt	PALMA	7	13	[0, 0, 0]	n/a	FR1	0	R1134T
1702.008	2.384	2145436	WORD	n/a	wordpools/wordpool_SP.txt	SOMBRERO	8	13	[0, 0, 0]	n/a	FR1	0	R1134T
1704.392	2.5	2147820	WORD	n/a	wordpools/wordpool_SP.txt	BOCA	9	13	[0, 0, 0]	n/a	FR1	0	R1134T
1706.892	2.567	2150320	WORD	n/a	wordpools/wordpool_SP.txt	PULGAR	10	13	[0, 0, 0]	n/a	FR1	0	R1134T
1709.459	2.567	2152887	WORD	n/a	wordpools/wordpool_SP.txt	BANO	11	13	[0, 0, 0]	n/a	FR1	0	R1134T
1712.026	1.617	2155454	WORD	n/a	wordpools/wordpool_SP.txt	MUNDO	12	13	[0, 0, 0]	n/a	FR1	0	R1134T
1713.643	0.001	2157071	DISTRACT_START	n/a	n/a	n/a	-999	13	[0, 0, 0]	n/a	FR1	0	R1134T
1713.644	0.016	2157072	START	n/a	n/a	n/a	-999	13	[-999, -999, -999]	n/a	FR1	0	R1134T
1713.66	12.185	2157088	PROB	12.185	n/a	n/a	-999	13	[3, 5, 9]	17	FR1	0	R1134T
1725.845	8.307	2169272	PROB	8.307	n/a	n/a	-999	13	[5, 4, 7]	16	FR1	0	R1134T
1734.152	0.012	2177579	STOP	n/a	n/a	n/a	-999	13	[-999, -999, -999]	n/a	FR1	0	R1134T
1734.164	1.118	2177591	DISTRACT_END	n/a	n/a	n/a	-999	13	[0, 0, 0]	n/a	FR1	0	R1134T
1735.282	2.242	2178709	REC_START	n/a	n/a	n/a	-999	13	[0, 0, 0]	n/a	FR1	0	R1134T
1737.524	2.762	2180950	REC_WORD	2.762	n/a	ANZUELO	-999	13	[0, 0, 0]	n/a	FR1	0	R1134T
1740.286	3.056	2183712	REC_WORD	3.056	n/a	MAR	-999	13	[0, 0, 0]	n/a	FR1	0	R1134T
1743.342	7.957	2186768	REC_WORD	7.957	n/a	BOLA	-999	13	[0, 0, 0]	n/a	FR1	0	R1134T
1751.299	2.658	2194725	REC_WORD	2.658	n/a	BUHO	-999	13	[0, 0, 0]	n/a	FR1	0	R1134T
1753.957	11.334	2197383	REC_WORD	11.334	n/a	NUBE	-999	13	[0, 0, 0]	n/a	FR1	0	R1134T
1765.291	4.612	2208716	REC_END	n/a	n/a	n/a	-999	13	[0, 0, 0]	n/a	FR1	0	R1134T
1769.903	0.001	2213328	COUNTDOWN_START	n/a	n/a	n/a	-999	14	[0, 0, 0]	n/a	FR1	0	R1134T
1769.904	10.427	2213329	TRIAL	n/a	n/a	n/a	-999	14	[0, 0, 0]	n/a	FR1	0	R1134T
1780.331	0.008	2223755	COUNTDOWN_END	n/a	n/a	n/a	-999	14	[0, 0, 0]	n/a	FR1	0	R1134T
1780.339	2.567	2223763	ORIENT	n/a	n/a	n/a	-999	14	[0, 0, 0]	n/a	FR1	0	R1134T
1782.906	2.4	2226330	WORD	n/a	wordpools/wordpool_SP.txt	TAZON	1	14	[0, 0, 0]	n/a	FR1	0	R1134T
1785.306	2.434	2228730	WORD	n/a	wordpools/wordpool_SP.txt	CARRO	2	14	[0, 0, 0]	n/a	FR1	0	R1134T
1787.74	2.617	2231164	WORD	n/a	wordpools/wordpool_SP.txt	CANDADO	3	14	[0, 0, 0]	n/a	FR1	0	R1134T
1790.357	2.384	2233781	WORD	n/a	wordpools/wordpool_SP.txt	GUISANTE	4	14	[0, 0, 0]	n/a	FR1	0	R1134T
1792.741	2.535	2236165	WORD	n/a	wordpools/wordpool_SP.txt	ESCOBA	5	14	[0, 0, 0]	n/a	FR1	0	R1134T
1795.276	2.566	2238700	WORD	n/a	wordpools/wordpool_SP.txt	PISO	6	14	[0, 0, 0]	n/a	FR1	0	R1134T
1797.842	2.55	2241266	WORD	n/a	wordpools/wordpool_SP.txt	BANCA	7	14	[0, 0, 0]	n/a	FR1	0	R1134T
1800.392	2.467	2243815	WORD	n/a	wordpools/wordpool_SP.txt	MENTON	8	14	[0, 0, 0]	n/a	FR1	0	R1134T
1802.859	2.568	2246282	WORD	n/a	wordpools/wordpool_SP.txt	TE	9	14	[0, 0, 0]	n/a	FR1	0	R1134T
1805.427	2.483	2248850	WORD	n/a	wordpools/wordpool_SP.txt	TRAJE	10	14	[0, 0, 0]	n/a	FR1	0	R1134T
1807.91	2.384	2251333	WORD	n/a	wordpools/wordpool_SP.txt	CAMA	11	14	[0, 0, 0]	n/a	FR1	0	R1134T
1810.294	1.617	2253717	WORD	n/a	wordpools/wordpool_SP.txt	PISCINA	12	14	[0, 0, 0]	n/a	FR1	0	R1134T
1811.911	0.001	2255334	DISTRACT_START	n/a	n/a	n/a	-999	14	[0, 0, 0]	n/a	FR1	0	R1134T
1811.912	0.016	2255335	START	n/a	n/a	n/a	-999	14	[-999, -999, -999]	n/a	FR1	0	R1134T
1811.928	11.185	2255351	PROB	11.185	n/a	n/a	-999	14	[7, 5, 9]	21	FR1	0	R1134T
1823.113	9.967	2266535	PROB	9.967	n/a	n/a	-999	14	[4, 5, 7]	16	FR1	0	R1134T
1833.08	0.018	2276502	STOP	n/a	n/a	n/a	-999	14	[-999, -999, -999]	n/a	FR1	0	R1134T
1833.098	1.068	2276520	DISTRACT_END	n/a	n/a	n/a	-999	14	[0, 0, 0]	n/a	FR1	0	R1134T
1834.166	6.354	2277588	REC_START	n/a	n/a	n/a	-999	14	[0, 0, 0]	n/a	FR1	0	R1134T
1840.52	3.4	2283941	REC_WORD	3.4	n/a	AZUL	-999	14	[0, 0, 0]	n/a	FR1	0	R1134T
1843.92	6.275	2287341	REC_WORD	6.275	n/a	TAZON	-999	14	[0, 0, 0]	n/a	FR1	0	R1134T
1850.195	3.057	2293616	REC_WORD	3.057	n/a	MENTON	-999	14	[0, 0, 0]	n/a	FR1	0	R1134T
1853.252	6.657	2296673	REC_WORD	6.657	n/a	ANILLO	-999	14	[0, 0, 0]	n/a	FR1	0	R1134T
1859.909	4.267	2303329	REC_WORD	4.267	n/a	HERRAMIENTA	-999	14	[0, 0, 0]	n/a	FR1	0	R1134T
1864.176	5.246	2307596	REC_END	n/a	n/a	n/a	-999	14	[0, 0, 0]	n/a	FR1	0	R1134T
1869.422	0.0	2312842	TRIAL	n/a	n/a	n/a	-999	15	[0, 0, 0]	n/a	FR1	0	R1134T
1869.422	10.428	2312842	COUNTDOWN_START	n/a	n/a	n/a	-999	15	[0, 0, 0]	n/a	FR1	0	R1134T
1879.85	0.007	2323269	COUNTDOWN_END	n/a	n/a	n/a	-999	15	[0, 0, 0]	n/a	FR1	0	R1134T
1879.857	2.434	2323276	ORIENT	n/a	n/a	n/a	-999	15	[0, 0, 0]	n/a	FR1	0	R1134T
1882.291	2.533	2325710	WORD	n/a	wordpools/wordpool_SP.txt	MAIZ	1	15	[0, 0, 0]	n/a	FR1	0	R1134T
1884.824	2.435	2328243	WORD	n/a	wordpools/wordpool_SP.txt	SORBETE	2	15	[0, 0, 0]	n/a	FR1	0	R1134T
1887.259	2.499	2330678	WORD	n/a	wordpools/wordpool_SP.txt	FILETE	3	15	[0, 0, 0]	n/a	FR1	0	R1134T
1889.758	2.502	2333177	WORD	n/a	wordpools/wordpool_SP.txt	ESTUFA	4	15	[0, 0, 0]	n/a	FR1	0	R1134T
1892.26	2.483	2335679	WORD	n/a	wordpools/wordpool_SP.txt	VACA	5	15	[0, 0, 0]	n/a	FR1	0	R1134T
1894.743	2.417	2338162	WORD	n/a	wordpools/wordpool_SP.txt	PANTALONES	6	15	[0, 0, 0]	n/a	FR1	0	R1134T
1897.16	2.5	2340579	WORD	n/a	wordpools/wordpool_SP.txt	GRANERO	7	15	[0, 0, 0]	n/a	FR1	0	R1134T
1899.66	2.417	2343078	WORD	n/a	wordpools/wordpool_SP.txt	BOLSO	8	15	[0, 0, 0]	n/a	FR1	0	R1134T
1902.077	2.434	2345495	WORD	n/a	wordpools/wordpool_SP.txt	ASIENTO	9	15	[0, 0, 0]	n/a	FR1	0	R1134T
1904.511	2.501	2347929	WORD	n/a	wordpools/wordpool_SP.txt	GUARDIA	10	15	[0, 0, 0]	n/a	FR1	0	R1134T
1907.012	2.483	2350430	WORD	n/a	wordpools/wordpool_SP.txt	BOLIGRAFO	11	15	[0, 0, 0]	n/a	FR1	0	R1134T
1909.495	1.618	2352913	WORD	n/a	wordpools/wordpool_SP.txt	COSTILLA	12	15	[0, 0, 0]	n/a	FR1	0	R1134T
1911.113	0.001	2354531	DISTRACT_START	n/a	n/a	n/a	-999	15	[0, 0, 0]	n/a	FR1	0	R1134T
1911.114	0.015	2354532	START	n/a	n/a	n/a	-999	15	[-999, -999, -999]	n/a	FR1	0	R1134T
1911.129	9.585	2354547	PROB	9.585	n/a	n/a	-999	15	[8, 5, 5]	18	FR1	0	R1134T
1920.714	6.818	2364131	PROB	6.818	n/a	n/a	-999	15	[2, 7, 3]	12	FR1	0	R1134T
1927.532	7.852	2370949	PROB	7.852	n/a	n/a	-999	15	[2, 5, 5]	12	FR1	0	R1134T
1935.384	0.016	2378801	STOP	n/a	n/a	n/a	-999	15	[-999, -999, -999]	n/a	FR1	0	R1134T
1935.4	1.101	2378817	DISTRACT_END	n/a	n/a	n/a	-999	15	[0, 0, 0]	n/a	FR1	0	R1134T
1936.501	1.579	2379918	REC_START	n/a	n/a	n/a	-999	15	[0, 0, 0]	n/a	FR1	0	R1134T
1938.08	4.492	2381497	REC_WORD	4.492	n/a	SOMBRERO	-999	15	[0, 0, 0]	n/a	FR1	0	R1134T
1942.572	7.448	2385988	REC_WORD	7.448	n/a	MAIZ	-999	15	[0, 0, 0]	n/a	FR1	0	R1134T
1950.02	10.754	2393436	REC_WORD	10.754	n/a	NARIZ	-999	15	[0, 0, 0]	n/a	FR1	0	R1134T
1960.774	5.737	2404189	REC_WORD	5.737	n/a	MAIZ	-999	15	[0, 0, 0]	n/a	FR1	0	R1134T
1966.511	10.163	2409926	REC_END	n/a	n/a	n/a	-999	15	[0, 0, 0]	n/a	FR1	0	R1134T
1976.674	0.001	2420089	COUNTDOWN_START	n/a	n/a	n/a	-999	16	[0, 0, 0]	n/a	FR1	0	R1134T
1976.675	10.427	2420090	TRIAL	n/a	n/a	n/a	-999	16	[0, 0, 0]	n/a	FR1	0	R1134T
1987.102	0.008	2430516	COUNTDOWN_END	n/a	n/a	n/a	-999	16	[0, 0, 0]	n/a	FR1	0	R1134T
1987.11	2.517	2430524	ORIENT	n/a	n/a	n/a	-999	16	[0, 0, 0]	n/a	FR1	0	R1134T
1989.627	2.384	2433041	WORD	n/a	wordpools/wordpool_SP.txt	LOBO	1	16	[0, 0, 0]	n/a	FR1	0	R1134T
1992.011	2.383	2435425	WORD	n/a	wordpools/wordpool_SP.txt	CUCHARA	2	16	[0, 0, 0]	n/a	FR1	0	R1134T
1994.394	2.484	2437808	WORD	n/a	wordpools/wordpool_SP.txt	COMIDA	3	16	[0, 0, 0]	n/a	FR1	0	R1134T
1996.878	2.55	2440292	WORD	n/a	wordpools/wordpool_SP.txt	PAPALOTE	4	16	[0, 0, 0]	n/a	FR1	0	R1134T
1999.428	2.551	2442842	WORD	n/a	wordpools/wordpool_SP.txt	CERDO	5	16	[0, 0, 0]	n/a	FR1	0	R1134T
2001.979	2.584	2445392	WORD	n/a	wordpools/wordpool_SP.txt	MADERA	6	16	[0, 0, 0]	n/a	FR1	0	R1134T
2004.563	2.434	2447976	WORD	n/a	wordpools/wordpool_SP.txt	MASCOTA	7	16	[0, 0, 0]	n/a	FR1	0	R1134T
2006.997	2.4	2450410	WORD	n/a	wordpools/wordpool_SP.txt	RAMA	8	16	[0, 0, 0]	n/a	FR1	0	R1134T
2009.397	2.467	2452810	WORD	n/a	wordpools/wordpool_SP.txt	OSO	9	16	[0, 0, 0]	n/a	FR1	0	R1134T
2011.864	2.5	2455277	WORD	n/a	wordpools/wordpool_SP.txt	FRUTA	10	16	[0, 0, 0]	n/a	FR1	0	R1134T
2014.364	2.401	2457777	WORD	n/a	wordpools/wordpool_SP.txt	ARBOL	11	16	[0, 0, 0]	n/a	FR1	0	R1134T
2016.765	1.617	2460178	WORD	n/a	wordpools/wordpool_SP.txt	JEFE	12	16	[0, 0, 0]	n/a	FR1	0	R1134T
2018.382	0.001	2461795	DISTRACT_START	n/a	n/a	n/a	-999	16	[0, 0, 0]	n/a	FR1	0	R1134T
2018.383	0.016	2461796	START	n/a	n/a	n/a	-999	16	[-999, -999, -999]	n/a	FR1	0	R1134T
2018.399	8.869	2461812	PROB	8.869	n/a	n/a	-999	16	[8, 8, 6]	22	FR1	0	R1134T
2027.268	7.317	2470680	PROB	7.317	n/a	n/a	-999	16	[5, 5, 4]	14	FR1	0	R1134T
2034.585	10.607	2477997	PROB	10.607	n/a	n/a	-999	16	[6, 1, 3]	10	FR1	0	R1134T
2045.192	0.012	2488603	STOP	n/a	n/a	n/a	-999	16	[-999, -999, -999]	n/a	FR1	0	R1134T
2045.204	1.035	2488615	DISTRACT_END	n/a	n/a	n/a	-999	16	[0, 0, 0]	n/a	FR1	0	R1134T
2046.239	3.852	2489650	REC_START	n/a	n/a	n/a	-999	16	[0, 0, 0]	n/a	FR1	0	R1134T
2050.091	5.777	2493502	REC_WORD	5.777	n/a	LOBO	-999	16	[0, 0, 0]	n/a	FR1	0	R1134T
2055.868	7.617	2499279	REC_WORD	7.617	n/a	MAIZ	-999	16	[0, 0, 0]	n/a	FR1	0	R1134T
2063.485	2.246	2506895	REC_WORD	2.246	n/a	SOMBRERO	-999	16	[0, 0, 0]	n/a	FR1	0	R1134T
2065.731	10.518	2509141	REC_WORD	10.518	n/a	VACA	-999	16	[0, 0, 0]	n/a	FR1	0	R1134T
2076.249	4.694	2519659	REC_END	n/a	n/a	n/a	-999	16	[0, 0, 0]	n/a	FR1	0	R1134T
2080.943	0.001	2524353	COUNTDOWN_START	n/a	n/a	n/a	-999	17	[0, 0, 0]	n/a	FR1	0	R1134T
2080.944	10.427	2524354	TRIAL	n/a	n/a	n/a	-999	17	[0, 0, 0]	n/a	FR1	0	R1134T
2091.371	0.008	2534780	COUNTDOWN_END	n/a	n/a	n/a	-999	17	[0, 0, 0]	n/a	FR1	0	R1134T
2091.379	2.6	2534788	ORIENT	n/a	n/a	n/a	-999	17	[0, 0, 0]	n/a	FR1	0	R1134T
2093.979	2.467	2537388	WORD	n/a	wordpools/wordpool_SP.txt	CHALECO	1	17	[0, 0, 0]	n/a	FR1	0	R1134T
2096.446	2.384	2539855	WORD	n/a	wordpools/wordpool_SP.txt	BASTON	2	17	[0, 0, 0]	n/a	FR1	0	R1134T
2098.83	2.418	2542239	WORD	n/a	wordpools/wordpool_SP.txt	VESTIDO	3	17	[0, 0, 0]	n/a	FR1	0	R1134T
2101.248	2.383	2544657	WORD	n/a	wordpools/wordpool_SP.txt	RUBOR	4	17	[0, 0, 0]	n/a	FR1	0	R1134T
2103.631	2.618	2547039	WORD	n/a	wordpools/wordpool_SP.txt	FLORECER	5	17	[0, 0, 0]	n/a	FR1	0	R1134T
2106.249	2.583	2549657	WORD	n/a	wordpools/wordpool_SP.txt	LABIO	6	17	[0, 0, 0]	n/a	FR1	0	R1134T
2108.832	2.418	2552240	WORD	n/a	wordpools/wordpool_SP.txt	HACHA	7	17	[0, 0, 0]	n/a	FR1	0	R1134T
2111.25	2.566	2554658	WORD	n/a	wordpools/wordpool_SP.txt	CORBATA	8	17	[0, 0, 0]	n/a	FR1	0	R1134T
2113.816	2.468	2557224	WORD	n/a	wordpools/wordpool_SP.txt	MEDIA	9	17	[0, 0, 0]	n/a	FR1	0	R1134T
2116.284	2.483	2559692	WORD	n/a	wordpools/wordpool_SP.txt	ESTANQUE	10	17	[0, 0, 0]	n/a	FR1	0	R1134T
2118.767	2.617	2562175	WORD	n/a	wordpools/wordpool_SP.txt	MANO	11	17	[0, 0, 0]	n/a	FR1	0	R1134T
2121.384	1.617	2564792	WORD	n/a	wordpools/wordpool_SP.txt	JARRON	12	17	[0, 0, 0]	n/a	FR1	0	R1134T
2123.001	0.001	2566408	DISTRACT_START	n/a	n/a	n/a	-999	17	[0, 0, 0]	n/a	FR1	0	R1134T
2123.002	0.016	2566409	START	n/a	n/a	n/a	-999	17	[-999, -999, -999]	n/a	FR1	0	R1134T
2123.018	8.301	2566425	PROB	8.301	n/a	n/a	-999	17	[8, 3, 2]	13	FR1	0	R1134T
2131.319	7.502	2574726	PROB	7.502	n/a	n/a	-999	17	[3, 6, 3]	12	FR1	0	R1134T
2138.821	9.659	2582228	PROB	9.659	n/a	n/a	-999	17	[9, 9, 4]	22	FR1	0	R1134T
2148.48	0.009	2591886	STOP	n/a	n/a	n/a	-999	17	[-999, -999, -999]	n/a	FR1	0	R1134T
2148.489	1.201	2591895	DISTRACT_END	n/a	n/a	n/a	-999	17	[0, 0, 0]	n/a	FR1	0	R1134T
2149.69	5.033	2593096	REC_START	n/a	n/a	n/a	-999	17	[0, 0, 0]	n/a	FR1	0	R1134T
2154.723	6.405	2598129	REC_WORD	6.405	n/a	JABON	-999	17	[0, 0, 0]	n/a	FR1	0	R1134T
2161.128	6.475	2604534	REC_WORD	6.475	n/a	SOMBRERO	-999	17	[0, 0, 0]	n/a	FR1	0	R1134T
2167.603	5.502	2611008	REC_WORD	5.502	n/a	FREGADERO	-999	17	[0, 0, 0]	n/a	FR1	0	R1134T
2173.105	2.037	2616510	REC_WORD	2.037	n/a	NARIZ	-999	17	[0, 0, 0]	n/a	FR1	0	R1134T
2175.142	2.27	2618547	REC_WORD	2.27	n/a	MANO	-999	17	[0, 0, 0]	n/a	FR1	0	R1134T
2177.412	2.288	2620817	REC_WORD	2.288	n/a	CORBATA	-999	17	[0, 0, 0]	n/a	FR1	0	R1134T
2179.7	4.429	2623105	REC_END	n/a	n/a	n/a	-999	17	[0, 0, 0]	n/a	FR1	0	R1134T
2184.129	0.0	2627533	TRIAL	n/a	n/a	n/a	-999	18	[0, 0, 0]	n/a	FR1	0	R1134T
2184.129	10.428	2627533	COUNTDOWN_START	n/a	n/a	n/a	-999	18	[0, 0, 0]	n/a	FR1	0	R1134T
2194.557	0.007	2637961	COUNTDOWN_END	n/a	n/a	n/a	-999	18	[0, 0, 0]	n/a	FR1	0	R1134T
2194.564	2.517	2637968	ORIENT	n/a	n/a	n/a	-999	18	[0, 0, 0]	n/a	FR1	0	R1134T
2197.081	2.517	2640485	WORD	n/a	wordpools/wordpool_SP.txt	HIERBA	1	18	[0, 0, 0]	n/a	FR1	0	R1134T
2199.598	2.584	2643002	WORD	n/a	wordpools/wordpool_SP.txt	LUNA	2	18	[0, 0, 0]	n/a	FR1	0	R1134T
2202.182	2.517	2645586	WORD	n/a	wordpools/wordpool_SP.txt	AGUANIEVE	3	18	[0, 0, 0]	n/a	FR1	0	R1134T
2204.699	2.585	2648102	WORD	n/a	wordpools/wordpool_SP.txt	NIDO	4	18	[0, 0, 0]	n/a	FR1	0	R1134T
2207.284	2.449	2650687	WORD	n/a	wordpools/wordpool_SP.txt	BOLA	5	18	[0, 0, 0]	n/a	FR1	0	R1134T
2209.733	2.552	2653136	WORD	n/a	wordpools/wordpool_SP.txt	CABRA	6	18	[0, 0, 0]	n/a	FR1	0	R1134T
2212.285	2.533	2655688	WORD	n/a	wordpools/wordpool_SP.txt	AVE	7	18	[0, 0, 0]	n/a	FR1	0	R1134T
2214.818	2.468	2658221	WORD	n/a	wordpools/wordpool_SP.txt	VID	8	18	[0, 0, 0]	n/a	FR1	0	R1134T
2217.286	2.416	2660689	WORD	n/a	wordpools/wordpool_SP.txt	PRINCIPE	9	18	[0, 0, 0]	n/a	FR1	0	R1134T
2219.702	2.384	2663105	WORD	n/a	wordpools/wordpool_SP.txt	MURCIELAGO	10	18	[0, 0, 0]	n/a	FR1	0	R1134T
2222.086	2.55	2665489	WORD	n/a	wordpools/wordpool_SP.txt	GATO	11	18	[0, 0, 0]	n/a	FR1	0	R1134T
2224.636	1.618	2668038	WORD	n/a	wordpools/wordpool_SP.txt	RED	12	18	[0, 0, 0]	n/a	FR1	0	R1134T
2226.254	0.001	2669656	DISTRACT_START	n/a	n/a	n/a	-999	18	[0, 0, 0]	n/a	FR1	0	R1134T
2226.255	0.016	2669657	START	n/a	n/a	n/a	-999	18	[-999, -999, -999]	n/a	FR1	0	R1134T
2226.271	6.317	2669673	PROB	6.317	n/a	n/a	-999	18	[3, 6, 3]	12	FR1	0	R1134T
2232.588	7.351	2675990	PROB	7.351	n/a	n/a	-999	18	[5, 2, 3]	10	FR1	0	R1134T
2239.939	9.789	2683341	PROB	9.789	n/a	n/a	-999	18	[8, 4, 1]	13	FR1	0	R1134T
2249.728	0.013	2693129	STOP	n/a	n/a	n/a	-999	18	[-999, -999, -999]	n/a	FR1	0	R1134T
2249.741	1.167	2693142	DISTRACT_END	n/a	n/a	n/a	-999	18	[0, 0, 0]	n/a	FR1	0	R1134T
2250.908	6.004	2694309	REC_START	n/a	n/a	n/a	-999	18	[0, 0, 0]	n/a	FR1	0	R1134T
2256.912	4.591	2700313	REC_WORD	4.591	n/a	JUGO	-999	18	[0, 0, 0]	n/a	FR1	0	R1134T
2261.503	5.51	2704904	REC_WORD	5.51	n/a	AGUANIEVE	-999	18	[0, 0, 0]	n/a	FR1	0	R1134T
2267.013	13.909	2710413	REC_WORD	13.909	n/a	PARED	-999	18	[0, 0, 0]	n/a	FR1	0	R1134T
2280.922	4.442	2724322	REC_END	n/a	n/a	n/a	-999	18	[0, 0, 0]	n/a	FR1	0	R1134T
2285.364	0.0	2728763	TRIAL	n/a	n/a	n/a	-999	19	[0, 0, 0]	n/a	FR1	0	R1134T
2285.364	10.428	2728763	COUNTDOWN_START	n/a	n/a	n/a	-999	19	[0, 0, 0]	n/a	FR1	0	R1134T
2295.792	0.007	2739191	COUNTDOWN_END	n/a	n/a	n/a	-999	19	[0, 0, 0]	n/a	FR1	0	R1134T
2295.799	2.534	2739198	ORIENT	n/a	n/a	n/a	-999	19	[0, 0, 0]	n/a	FR1	0	R1134T
2298.333	2.517	2741732	WORD	n/a	wordpools/wordpool_SP.txt	PANTANO	1	19	[0, 0, 0]	n/a	FR1	0	R1134T
2300.85	2.418	2744249	WORD	n/a	wordpools/wordpool_SP.txt	BASURA	2	19	[0, 0, 0]	n/a	FR1	0	R1134T
2303.268	2.416	2746667	WORD	n/a	wordpools/wordpool_SP.txt	TARRO	3	19	[0, 0, 0]	n/a	FR1	0	R1134T
2305.684	2.484	2749082	WORD	n/a	wordpools/wordpool_SP.txt	ZANJA	4	19	[0, 0, 0]	n/a	FR1	0	R1134T
2308.168	2.567	2751566	WORD	n/a	wordpools/wordpool_SP.txt	ROSA	5	19	[0, 0, 0]	n/a	FR1	0	R1134T
2310.735	2.434	2754133	WORD	n/a	wordpools/wordpool_SP.txt	POZO	6	19	[0, 0, 0]	n/a	FR1	0	R1134T
2313.169	2.4	2756567	WORD	n/a	wordpools/wordpool_SP.txt	PARQUE	7	19	[0, 0, 0]	n/a	FR1	0	R1134T
2315.569	2.434	2758967	WORD	n/a	wordpools/wordpool_SP.txt	FLAUTA	8	19	[0, 0, 0]	n/a	FR1	0	R1134T
2318.003	2.501	2761401	WORD	n/a	wordpools/wordpool_SP.txt	PAN	9	19	[0, 0, 0]	n/a	FR1	0	R1134T
2320.504	2.517	2763902	WORD	n/a	wordpools/wordpool_SP.txt	TARTA	10	19	[0, 0, 0]	n/a	FR1	0	R1134T
2323.021	2.6	2766419	WORD	n/a	wordpools/wordpool_SP.txt	PASTEL	11	19	[0, 0, 0]	n/a	FR1	0	R1134T
2325.621	1.618	2769018	WORD	n/a	wordpools/wordpool_SP.txt	CERCA	12	19	[0, 0, 0]	n/a	FR1	0	R1134T
2327.239	0.001	2770636	DISTRACT_START	n/a	n/a	n/a	-999	19	[0, 0, 0]	n/a	FR1	0	R1134T
2327.24	0.016	2770637	START	n/a	n/a	n/a	-999	19	[-999, -999, -999]	n/a	FR1	0	R1134T
2327.256	13.085	2770653	PROB	13.085	n/a	n/a	-999	19	[2, 7, 8]	17	FR1	0	R1134T
2340.341	8.963	2783738	PROB	8.963	n/a	n/a	-999	19	[9, 4, 5]	18	FR1	0	R1134T
2349.304	0.005	2792700	STOP	n/a	n/a	n/a	-999	19	[-999, -999, -999]	n/a	FR1	0	R1134T
2349.309	1.203	2792705	DISTRACT_END	n/a	n/a	n/a	-999	19	[0, 0, 0]	n/a	FR1	0	R1134T
2350.512	2.628	2793908	REC_START	n/a	n/a	n/a	-999	19	[0, 0, 0]	n/a	FR1	0	R1134T
2353.14	2.04	2796536	REC_WORD	2.04	n/a	PAN	-999	19	[0, 0, 0]	n/a	FR1	0	R1134T
2355.18	0.604	2798576	REC_WORD_VV	0.604	n/a	<>	-999	19	[0, 0, 0]	n/a	FR1	0	R1134T
2355.784	0.6	2799180	REC_WORD_VV	0.6	n/a	<>	-999	19	[0, 0, 0]	n/a	FR1	0	R1134T
2356.384	7.451	2799780	REC_WORD	7.451	n/a	PANTALONES	-999	19	[0, 0, 0]	n/a	FR1	0	R1134T
2363.835	6.316	2807231	REC_WORD	6.316	n/a	GUIA	-999	19	[0, 0, 0]	n/a	FR1	0	R1134T
2370.151	4.397	2813546	REC_WORD	4.397	n/a	PANTANO	-999	19	[0, 0, 0]	n/a	FR1	0	R1134T
2374.548	3.303	2817943	REC_WORD	3.303	n/a	FREGADERO	-999	19	[0, 0, 0]	n/a	FR1	0	R1134T
2377.851	1.562	2821246	REC_WORD_VV	1.562	n/a	<>	-999	19	[0, 0, 0]	n/a	FR1	0	R1134T
2379.413	1.107	2822808	REC_WORD	1.107	n/a	POZO	-999	19	[0, 0, 0]	n/a	FR1	0	R1134T
2380.52	7.413	2823915	REC_END	n/a	n/a	n/a	-999	19	[0, 0, 0]	n/a	FR1	0	R1134T
2387.933	0.0	2831327	TRIAL	n/a	n/a	n/a	-999	20	[0, 0, 0]	n/a	FR1	0	R1134T
2387.933	10.428	2831327	COUNTDOWN_START	n/a	n/a	n/a	-999	20	[0, 0, 0]	n/a	FR1	0	R1134T
2398.361	0.007	2841755	COUNTDOWN_END	n/a	n/a	n/a	-999	20	[0, 0, 0]	n/a	FR1	0	R1134T
2398.368	2.4	2841762	ORIENT	n/a	n/a	n/a	-999	20	[0, 0, 0]	n/a	FR1	0	R1134T
2400.768	2.417	2844162	WORD	n/a	wordpools/wordpool_SP.txt	PATO	1	20	[0, 0, 0]	n/a	FR1	0	R1134T
2403.185	2.618	2846579	WORD	n/a	wordpools/wordpool_SP.txt	TAZA	2	20	[0, 0, 0]	n/a	FR1	0	R1134T
2405.803	2.567	2849196	WORD	n/a	wordpools/wordpool_SP.txt	PIPA	3	20	[0, 0, 0]	n/a	FR1	0	R1134T
2408.37	2.433	2851763	WORD	n/a	wordpools/wordpool_SP.txt	MONO	4	20	[0, 0, 0]	n/a	FR1	0	R1134T
2410.803	2.452	2854196	WORD	n/a	wordpools/wordpool_SP.txt	GUSANO	5	20	[0, 0, 0]	n/a	FR1	0	R1134T
2413.255	2.599	2856648	WORD	n/a	wordpools/wordpool_SP.txt	PLATO	6	20	[0, 0, 0]	n/a	FR1	0	R1134T
2415.854	2.601	2859247	WORD	n/a	wordpools/wordpool_SP.txt	TELARANA	7	20	[0, 0, 0]	n/a	FR1	0	R1134T
2418.455	2.567	2861848	WORD	n/a	wordpools/wordpool_SP.txt	VENADO	8	20	[0, 0, 0]	n/a	FR1	0	R1134T
2421.022	2.583	2864415	WORD	n/a	wordpools/wordpool_SP.txt	FRIJOL	9	20	[0, 0, 0]	n/a	FR1	0	R1134T
2423.605	2.551	2866998	WORD	n/a	wordpools/wordpool_SP.txt	POLILLA	10	20	[0, 0, 0]	n/a	FR1	0	R1134T
2426.156	2.451	2869548	WORD	n/a	wordpools/wordpool_SP.txt	SEMILLA	11	20	[0, 0, 0]	n/a	FR1	0	R1134T
2428.607	1.617	2871999	WORD	n/a	wordpools/wordpool_SP.txt	ESTERA	12	20	[0, 0, 0]	n/a	FR1	0	R1134T
2430.224	0.0	2873616	DISTRACT_START	n/a	n/a	n/a	-999	20	[0, 0, 0]	n/a	FR1	0	R1134T
2430.224	0.017	2873616	START	n/a	n/a	n/a	-999	20	[-999, -999, -999]	n/a	FR1	0	R1134T
2430.241	11.685	2873633	PROB	11.685	n/a	n/a	-999	20	[3, 6, 8]	17	FR1	0	R1134T
2441.926	8.89	2885318	PROB	8.89	n/a	n/a	-999	20	[3, 8, 5]	16	FR1	0	R1134T
2450.816	0.011	2894207	STOP	n/a	n/a	n/a	-999	20	[-999, -999, -999]	n/a	FR1	0	R1134T
2450.827	1.185	2894218	DISTRACT_END	n/a	n/a	n/a	-999	20	[0, 0, 0]	n/a	FR1	0	R1134T
2452.012	5.758	2895403	REC_START	n/a	n/a	n/a	-999	20	[0, 0, 0]	n/a	FR1	0	R1134T
2457.77	0.38	2901161	REC_WORD_VV	0.38	n/a	<>	-999	20	[0, 0, 0]	n/a	FR1	0	R1134T
2458.15	2.216	2901541	REC_WORD	2.216	n/a	PLATO	-999	20	[0, 0, 0]	n/a	FR1	0	R1134T
2460.366	2.555	2903757	REC_WORD	2.555	n/a	VENADO	-999	20	[0, 0, 0]	n/a	FR1	0	R1134T
2462.921	6.309	2906312	REC_WORD	6.309	n/a	FRIJOL	-999	20	[0, 0, 0]	n/a	FR1	0	R1134T
2469.23	12.792	2912620	REC_WORD	12.792	n/a	ESPUMA	-999	20	[0, 0, 0]	n/a	FR1	0	R1134T
2482.022	5.23	2925412	REC_END	n/a	n/a	n/a	-999	20	[0, 0, 0]	n/a	FR1	0	R1134T
2487.252	0.0	2930641	COUNTDOWN_START	n/a	n/a	n/a	-999	21	[0, 0, 0]	n/a	FR1	0	R1134T
2487.252	10.428	2930641	TRIAL	n/a	n/a	n/a	-999	21	[0, 0, 0]	n/a	FR1	0	R1134T
2497.68	0.006	2941069	COUNTDOWN_END	n/a	n/a	n/a	-999	21	[0, 0, 0]	n/a	FR1	0	R1134T
2497.686	2.4	2941075	ORIENT	n/a	n/a	n/a	-999	21	[0, 0, 0]	n/a	FR1	0	R1134T
2500.086	2.584	2943475	WORD	n/a	wordpools/wordpool_SP.txt	RASTRILLO	1	21	[0, 0, 0]	n/a	FR1	0	R1134T
2502.67	2.384	2946059	WORD	n/a	wordpools/wordpool_SP.txt	OREJA	2	21	[0, 0, 0]	n/a	FR1	0	R1134T
2505.054	2.434	2948443	WORD	n/a	wordpools/wordpool_SP.txt	HOYO	3	21	[0, 0, 0]	n/a	FR1	0	R1134T
2507.488	2.567	2950876	WORD	n/a	wordpools/wordpool_SP.txt	PIERNA	4	21	[0, 0, 0]	n/a	FR1	0	R1134T
2510.055	2.534	2953443	WORD	n/a	wordpools/wordpool_SP.txt	CUERDA	5	21	[0, 0, 0]	n/a	FR1	0	R1134T
2512.589	2.6	2955977	WORD	n/a	wordpools/wordpool_SP.txt	PATIO	6	21	[0, 0, 0]	n/a	FR1	0	R1134T
2515.189	2.617	2958577	WORD	n/a	wordpools/wordpool_SP.txt	CATRE	7	21	[0, 0, 0]	n/a	FR1	0	R1134T
2517.806	2.417	2961194	WORD	n/a	wordpools/wordpool_SP.txt	SOGA	8	21	[0, 0, 0]	n/a	FR1	0	R1134T
2520.223	2.401	2963611	WORD	n/a	wordpools/wordpool_SP.txt	COLA	9	21	[0, 0, 0]	n/a	FR1	0	R1134T
2522.624	2.483	2966012	WORD	n/a	wordpools/wordpool_SP.txt	CESPED	10	21	[0, 0, 0]	n/a	FR1	0	R1134T
2525.107	2.401	2968495	WORD	n/a	wordpools/wordpool_SP.txt	BANDA	11	21	[0, 0, 0]	n/a	FR1	0	R1134T
2527.508	1.617	2970895	WORD	n/a	wordpools/wordpool_SP.txt	DARDO	12	21	[0, 0, 0]	n/a	FR1	0	R1134T
2529.125	0.001	2972512	DISTRACT_START	n/a	n/a	n/a	-999	21	[0, 0, 0]	n/a	FR1	0	R1134T
2529.126	0.016	2972513	START	n/a	n/a	n/a	-999	21	[-999, -999, -999]	n/a	FR1	0	R1134T
2529.142	8.634	2972529	PROB	8.634	n/a	n/a	-999	21	[4, 7, 1]	12	FR1	0	R1134T
2537.776	6.335	2981163	PROB	6.335	n/a	n/a	-999	21	[1, 8, 4]	13	FR1	0	R1134T
2544.111	10.545	2987498	PROB	10.545	n/a	n/a	-999	21	[3, 2, 7]	12	FR1	0	R1134T
2554.656	0.007	2998042	STOP	n/a	n/a	n/a	-999	21	[-999, -999, -999]	n/a	FR1	0	R1134T
2554.663	1.136	2998049	DISTRACT_END	n/a	n/a	n/a	-999	21	[0, 0, 0]	n/a	FR1	0	R1134T
2555.799	2.284	2999185	REC_START	n/a	n/a	n/a	-999	21	[0, 0, 0]	n/a	FR1	0	R1134T
2558.083	9.133	3001469	REC_WORD	9.133	n/a	FREGADERO	-999	21	[0, 0, 0]	n/a	FR1	0	R1134T
2567.216	6.487	3010602	REC_WORD	6.487	n/a	PIERNA	-999	21	[0, 0, 0]	n/a	FR1	0	R1134T
2573.703	12.104	3017088	REC_WORD	12.104	n/a	RELOJ	-999	21	[0, 0, 0]	n/a	FR1	0	R1134T
2585.807	10.18	3029192	REC_END	n/a	n/a	n/a	-999	21	[0, 0, 0]	n/a	FR1	0	R1134T
2595.987	0.0	3039371	TRIAL	n/a	n/a	n/a	-999	22	[0, 0, 0]	n/a	FR1	0	R1134T
2595.987	10.428	3039371	COUNTDOWN_START	n/a	n/a	n/a	-999	22	[0, 0, 0]	n/a	FR1	0	R1134T
2606.415	0.007	3049799	COUNTDOWN_END	n/a	n/a	n/a	-999	22	[0, 0, 0]	n/a	FR1	0	R1134T
2606.422	2.417	3049806	ORIENT	n/a	n/a	n/a	-999	22	[0, 0, 0]	n/a	FR1	0	R1134T
2608.839	2.584	3052222	WORD	n/a	wordpools/wordpool_SP.txt	PEZ	1	22	[0, 0, 0]	n/a	FR1	0	R1134T
2611.423	2.501	3054806	WORD	n/a	wordpools/wordpool_SP.txt	PELAJE	2	22	[0, 0, 0]	n/a	FR1	0	R1134T
2613.924	2.517	3057307	WORD	n/a	wordpools/wordpool_SP.txt	FREGADERO	3	22	[0, 0, 0]	n/a	FR1	0	R1134T
2616.441	2.45	3059824	WORD	n/a	wordpools/wordpool_SP.txt	LODO	4	22	[0, 0, 0]	n/a	FR1	0	R1134T
2618.891	2.601	3062274	WORD	n/a	wordpools/wordpool_SP.txt	CUERVO	5	22	[0, 0, 0]	n/a	FR1	0	R1134T
2621.492	2.433	3064875	WORD	n/a	wordpools/wordpool_SP.txt	PALO	6	22	[0, 0, 0]	n/a	FR1	0	R1134T
2623.925	2.584	3067308	WORD	n/a	wordpools/wordpool_SP.txt	VARITA	7	22	[0, 0, 0]	n/a	FR1	0	R1134T
2626.509	2.534	3069892	WORD	n/a	wordpools/wordpool_SP.txt	GANSOS	8	22	[0, 0, 0]	n/a	FR1	0	R1134T
2629.043	2.584	3072425	WORD	n/a	wordpools/wordpool_SP.txt	CARACOL	9	22	[0, 0, 0]	n/a	FR1	0	R1134T
2631.627	2.534	3075009	WORD	n/a	wordpools/wordpool_SP.txt	JAULA	10	22	[0, 0, 0]	n/a	FR1	0	R1134T
2634.161	2.633	3077543	WORD	n/a	wordpools/wordpool_SP.txt	ZOOLOGICO	11	22	[0, 0, 0]	n/a	FR1	0	R1134T
2636.794	1.617	3080176	WORD	n/a	wordpools/wordpool_SP.txt	TABURETE	12	22	[0, 0, 0]	n/a	FR1	0	R1134T
2638.411	0.001	3081793	DISTRACT_START	n/a	n/a	n/a	-999	22	[0, 0, 0]	n/a	FR1	0	R1134T
2638.412	0.016	3081794	START	n/a	n/a	n/a	-999	22	[-999, -999, -999]	n/a	FR1	0	R1134T
2638.428	12.736	3081810	PROB	12.736	n/a	n/a	-999	22	[8, 3, 9]	20	FR1	0	R1134T
2651.164	7.868	3094545	PROB	7.868	n/a	n/a	-999	22	[4, 4, 7]	15	FR1	0	R1134T
2659.032	0.017	3102413	STOP	n/a	n/a	n/a	-999	22	[-999, -999, -999]	n/a	FR1	0	R1134T
2659.049	1.167	3102430	DISTRACT_END	n/a	n/a	n/a	-999	22	[0, 0, 0]	n/a	FR1	0	R1134T
2660.216	2.522	3103597	REC_START	n/a	n/a	n/a	-999	22	[0, 0, 0]	n/a	FR1	0	R1134T
2662.738	3.268	3106119	REC_WORD_VV	3.268	n/a	<>	-999	22	[0, 0, 0]	n/a	FR1	0	R1134T
2666.006	6.562	3109387	REC_WORD	6.562	n/a	BANDERA	-999	22	[0, 0, 0]	n/a	FR1	0	R1134T
2672.568	6.293	3115948	REC_WORD	6.293	n/a	FRIJOL	-999	22	[0, 0, 0]	n/a	FR1	0	R1134T
2678.861	5.153	3122241	REC_WORD	5.153	n/a	PALO	-999	22	[0, 0, 0]	n/a	FR1	0	R1134T
2684.014	6.212	3127394	REC_WORD	6.212	n/a	VERDADO	-999	22	[0, 0, 0]	n/a	FR1	0	R1134T
2690.226	9.347	3133605	REC_END	n/a	n/a	n/a	-999	22	[0, 0, 0]	n/a	FR1	0	R1134T
2699.573	0.0	3142952	TRIAL	n/a	n/a	n/a	-999	23	[0, 0, 0]	n/a	FR1	0	R1134T
2699.573	10.428	3142952	COUNTDOWN_START	n/a	n/a	n/a	-999	23	[0, 0, 0]	n/a	FR1	0	R1134T
2710.001	0.007	3153379	COUNTDOWN_END	n/a	n/a	n/a	-999	23	[0, 0, 0]	n/a	FR1	0	R1134T
2710.008	2.45	3153386	ORIENT	n/a	n/a	n/a	-999	23	[0, 0, 0]	n/a	FR1	0	R1134T
2712.458	2.451	3155836	WORD	n/a	wordpools/wordpool_SP.txt	LLAVE	1	23	[0, 0, 0]	n/a	FR1	0	R1134T
2714.909	2.484	3158287	WORD	n/a	wordpools/wordpool_SP.txt	ESCUDO	2	23	[0, 0, 0]	n/a	FR1	0	R1134T
2717.393	2.383	3160771	WORD	n/a	wordpools/wordpool_SP.txt	CASA	3	23	[0, 0, 0]	n/a	FR1	0	R1134T
2719.776	2.584	3163154	WORD	n/a	wordpools/wordpool_SP.txt	TIZA	4	23	[0, 0, 0]	n/a	FR1	0	R1134T
2722.36	2.517	3165738	WORD	n/a	wordpools/wordpool_SP.txt	ALA	5	23	[0, 0, 0]	n/a	FR1	0	R1134T
2724.877	2.402	3168255	WORD	n/a	wordpools/wordpool_SP.txt	CALLE	6	23	[0, 0, 0]	n/a	FR1	0	R1134T
2727.279	2.499	3170657	WORD	n/a	wordpools/wordpool_SP.txt	FUERTE	7	23	[0, 0, 0]	n/a	FR1	0	R1134T
2729.778	2.534	3173155	WORD	n/a	wordpools/wordpool_SP.txt	MUNECO	8	23	[0, 0, 0]	n/a	FR1	0	R1134T
2732.312	2.5	3175689	WORD	n/a	wordpools/wordpool_SP.txt	MUELLE	9	23	[0, 0, 0]	n/a	FR1	0	R1134T
2734.812	2.452	3178189	WORD	n/a	wordpools/wordpool_SP.txt	MAPA	10	23	[0, 0, 0]	n/a	FR1	0	R1134T
2737.264	2.433	3180641	WORD	n/a	wordpools/wordpool_SP.txt	ELFO	11	23	[0, 0, 0]	n/a	FR1	0	R1134T
2739.697	1.617	3183074	WORD	n/a	wordpools/wordpool_SP.txt	ZAPATO	12	23	[0, 0, 0]	n/a	FR1	0	R1134T
2741.314	0.0	3184691	DISTRACT_START	n/a	n/a	n/a	-999	23	[0, 0, 0]	n/a	FR1	0	R1134T
2741.314	0.016	3184691	START	n/a	n/a	n/a	-999	23	[-999, -999, -999]	n/a	FR1	0	R1134T
2741.33	9.485	3184707	PROB	9.485	n/a	n/a	-999	23	[8, 5, 3]	16	FR1	0	R1134T
2750.815	6.868	3194191	PROB	6.868	n/a	n/a	-999	23	[7, 4, 3]	14	FR1	0	R1134T
2757.683	9.933	3201059	PROB	9.933	n/a	n/a	-999	23	[4, 6, 5]	15	FR1	0	R1134T
2767.616	0.019	3210992	STOP	n/a	n/a	n/a	-999	23	[-999, -999, -999]	n/a	FR1	0	R1134T
2767.635	1.134	3211011	DISTRACT_END	n/a	n/a	n/a	-999	23	[0, 0, 0]	n/a	FR1	0	R1134T
2768.769	1.517	3212145	REC_START	n/a	n/a	n/a	-999	23	[0, 0, 0]	n/a	FR1	0	R1134T
2770.286	2.099	3213661	REC_WORD_VV	2.099	n/a	<>	-999	23	[0, 0, 0]	n/a	FR1	0	R1134T
2772.385	2.46	3215760	REC_WORD	2.46	n/a	MUELLE	-999	23	[0, 0, 0]	n/a	FR1	0	R1134T
2774.845	5.775	3218220	REC_WORD	5.775	n/a	ZAPATO	-999	23	[0, 0, 0]	n/a	FR1	0	R1134T
2780.62	10.869	3223995	REC_WORD	10.869	n/a	MANGUERA	-999	23	[0, 0, 0]	n/a	FR1	0	R1134T
2791.489	7.294	3234863	REC_WORD_VV	7.294	n/a	<>	-999	23	[0, 0, 0]	n/a	FR1	0	R1134T
2798.783	4.742	3242157	REC_END	n/a	n/a	n/a	-999	23	[0, 0, 0]	n/a	FR1	0	R1134T
2803.525	0.0	3246899	TRIAL	n/a	n/a	n/a	-999	24	[0, 0, 0]	n/a	FR1	0	R1134T
2803.525	10.428	3246899	COUNTDOWN_START	n/a	n/a	n/a	-999	24	[0, 0, 0]	n/a	FR1	0	R1134T
2813.953	0.007	3257326	COUNTDOWN_END	n/a	n/a	n/a	-999	24	[0, 0, 0]	n/a	FR1	0	R1134T
2813.96	2.5	3257333	ORIENT	n/a	n/a	n/a	-999	24	[0, 0, 0]	n/a	FR1	0	R1134T
2816.46	2.468	3259833	WORD	n/a	wordpools/wordpool_SP.txt	PULGA	1	24	[0, 0, 0]	n/a	FR1	0	R1134T
2818.928	2.55	3262301	WORD	n/a	wordpools/wordpool_SP.txt	SERPIENTE	2	24	[0, 0, 0]	n/a	FR1	0	R1134T
2821.478	2.501	3264851	WORD	n/a	wordpools/wordpool_SP.txt	HALCON	3	24	[0, 0, 0]	n/a	FR1	0	R1134T
2823.979	2.567	3267352	WORD	n/a	wordpools/wordpool_SP.txt	ABEJA	4	24	[0, 0, 0]	n/a	FR1	0	R1134T
2826.546	2.584	3269919	WORD	n/a	wordpools/wordpool_SP.txt	TENEDOR	5	24	[0, 0, 0]	n/a	FR1	0	R1134T
2829.13	2.433	3272503	WORD	n/a	wordpools/wordpool_SP.txt	LADRILLO	6	24	[0, 0, 0]	n/a	FR1	0	R1134T
2831.563	2.501	3274935	WORD	n/a	wordpools/wordpool_SP.txt	CONCHA	7	24	[0, 0, 0]	n/a	FR1	0	R1134T
2834.064	2.517	3277436	WORD	n/a	wordpools/wordpool_SP.txt	ESPONJA	8	24	[0, 0, 0]	n/a	FR1	0	R1134T
2836.581	2.417	3279953	WORD	n/a	wordpools/wordpool_SP.txt	BARRO	9	24	[0, 0, 0]	n/a	FR1	0	R1134T
2838.998	2.467	3282370	WORD	n/a	wordpools/wordpool_SP.txt	PIEDRA	10	24	[0, 0, 0]	n/a	FR1	0	R1134T
2841.465	2.417	3284837	WORD	n/a	wordpools/wordpool_SP.txt	CUBO	11	24	[0, 0, 0]	n/a	FR1	0	R1134T
2843.882	1.617	3287254	WORD	n/a	wordpools/wordpool_SP.txt	DURAZNO	12	24	[0, 0, 0]	n/a	FR1	0	R1134T
2845.499	0.002	3288871	DISTRACT_START	n/a	n/a	n/a	-999	24	[0, 0, 0]	n/a	FR1	0	R1134T
2845.501	0.015	3288873	START	n/a	n/a	n/a	-999	24	[-999, -999, -999]	n/a	FR1	0	R1134T
2845.516	8.385	3288888	PROB	8.385	n/a	n/a	-999	24	[9, 1, 8]	18	FR1	0	R1134T
2853.901	5.984	3297272	PROB	5.984	n/a	n/a	-999	24	[2, 2, 4]	8	FR1	0	R1134T
2859.885	9.859	3303256	PROB	9.859	n/a	n/a	-999	24	[2, 9, 6]	17	FR1	0	R1134T
2869.744	0.01	3313115	STOP	n/a	n/a	n/a	-999	24	[-999, -999, -999]	n/a	FR1	0	R1134T
2869.754	1.117	3313125	DISTRACT_END	n/a	n/a	n/a	-999	24	[0, 0, 0]	n/a	FR1	0	R1134T
2870.871	2.033	3314242	REC_START	n/a	n/a	n/a	-999	24	[0, 0, 0]	n/a	FR1	0	R1134T
2872.904	1.857	3316274	REC_WORD	1.857	n/a	CONCHA	-999	24	[0, 0, 0]	n/a	FR1	0	R1134T
2874.761	3.048	3318131	REC_WORD	3.048	n/a	LADRILLO	-999	24	[0, 0, 0]	n/a	FR1	0	R1134T
2877.809	0.856	3321179	REC_WORD_VV	0.856	n/a	<>	-999	24	[0, 0, 0]	n/a	FR1	0	R1134T
2878.665	6.668	3322035	REC_WORD	6.668	n/a	ESCUDO	-999	24	[0, 0, 0]	n/a	FR1	0	R1134T
2885.333	15.548	3328703	REC_WORD_VV	15.548	n/a	<>	-999	24	[0, 0, 0]	n/a	FR1	0	R1134T
2900.881	8.063	3344250	REC_END	n/a	n/a	n/a	-999	24	[0, 0, 0]	n/a	FR1	0	R1134T
2908.944	0.0	3352313	TRIAL	n/a	n/a	n/a	-999	25	[0, 0, 0]	n/a	FR1	0	R1134T
2908.944	10.428	3352313	COUNTDOWN_START	n/a	n/a	n/a	-999	25	[0, 0, 0]	n/a	FR1	0	R1134T
2919.372	0.007	3362740	COUNTDOWN_END	n/a	n/a	n/a	-999	25	[0, 0, 0]	n/a	FR1	0	R1134T
2919.379	2.534	3362747	ORIENT	n/a	n/a	n/a	-999	25	[0, 0, 0]	n/a	FR1	0	R1134T
2921.913	2.55	3365281	WORD	n/a	wordpools/wordpool_SP.txt	AUTO	1	25	[0, 0, 0]	n/a	FR1	0	R1134T
2924.463	2.568	3367831	WORD	n/a	wordpools/wordpool_SP.txt	HUEVO	2	25	[0, 0, 0]	n/a	FR1	0	R1134T
2927.031	2.383	3370399	WORD	n/a	wordpools/wordpool_SP.txt	SAPO	3	25	[0, 0, 0]	n/a	FR1	0	R1134T
2929.414	2.618	3372782	WORD	n/a	wordpools/wordpool_SP.txt	CORAZON	4	25	[0, 0, 0]	n/a	FR1	0	R1134T
2932.032	2.6	3375399	WORD	n/a	wordpools/wordpool_SP.txt	HIELO	5	25	[0, 0, 0]	n/a	FR1	0	R1134T
2934.632	2.467	3377999	WORD	n/a	wordpools/wordpool_SP.txt	PLANTA	6	25	[0, 0, 0]	n/a	FR1	0	R1134T
2937.099	2.451	3380466	WORD	n/a	wordpools/wordpool_SP.txt	TIBURON	7	25	[0, 0, 0]	n/a	FR1	0	R1134T
2939.55	2.483	3382917	WORD	n/a	wordpools/wordpool_SP.txt	BOMBA	8	25	[0, 0, 0]	n/a	FR1	0	R1134T
2942.033	2.584	3385400	WORD	n/a	wordpools/wordpool_SP.txt	RAIZ	9	25	[0, 0, 0]	n/a	FR1	0	R1134T
2944.617	2.484	3387984	WORD	n/a	wordpools/wordpool_SP.txt	BARCO	10	25	[0, 0, 0]	n/a	FR1	0	R1134T
2947.101	2.584	3390468	WORD	n/a	wordpools/wordpool_SP.txt	PELICULA	11	25	[0, 0, 0]	n/a	FR1	0	R1134T
2949.685	1.617	3393052	WORD	n/a	wordpools/wordpool_SP.txt	ESTRELLA	12	25	[0, 0, 0]	n/a	FR1	0	R1134T
2951.302	0.001	3394669	DISTRACT_START	n/a	n/a	n/a	-999	25	[0, 0, 0]	n/a	FR1	0	R1134T
2951.303	0.015	3394670	START	n/a	n/a	n/a	-999	25	[-999, -999, -999]	n/a	FR1	0	R1134T
2951.318	7.652	3394685	PROB	7.652	n/a	n/a	-999	25	[7, 8, 8]	23	FR1	0	R1134T
2958.97	8.485	3402336	PROB	8.485	n/a	n/a	-999	25	[8, 6, 2]	16	FR1	0	R1134T
2967.455	7.065	3410821	PROB	7.065	n/a	n/a	-999	25	[3, 3, 2]	8	FR1	0	R1134T
2974.52	0.019	3417885	STOP	n/a	n/a	n/a	-999	25	[-999, -999, -999]	n/a	FR1	0	R1134T
2974.539	1.118	3417904	DISTRACT_END	n/a	n/a	n/a	-999	25	[0, 0, 0]	n/a	FR1	0	R1134T
2975.657	2.711	3419022	REC_START	n/a	n/a	n/a	-999	25	[0, 0, 0]	n/a	FR1	0	R1134T
2978.368	8.918	3421733	REC_WORD	8.918	n/a	RAIZ	-999	25	[0, 0, 0]	n/a	FR1	0	R1134T
2987.286	2.113	3430651	REC_WORD	2.113	n/a	BOMBA	-999	25	[0, 0, 0]	n/a	FR1	0	R1134T
2989.399	5.56	3432764	REC_WORD_VV	5.56	n/a	<>	-999	25	[0, 0, 0]	n/a	FR1	0	R1134T
2994.959	2.153	3438323	REC_WORD	2.153	n/a	FRIJOL	-999	25	[0, 0, 0]	n/a	FR1	0	R1134T
2997.112	8.555	3440476	REC_WORD	8.555	n/a	CAJA	-999	25	[0, 0, 0]	n/a	FR1	0	R1134T
3005.667	5.446	3449031	REC_END	n/a	n/a	n/a	-999	25	[0, 0, 0]	n/a	FR1	0	R1134T
3011.113	0.0	3454477	SESS_END	n/a	n/a	n/a	-999	25	[0, 0, 0]	n/a	FR1	0	R1134T
