onset	duration	sample	trial_type	response_time	stim_file	item_name	serialpos	list	test	answer	experiment	session	subject
0.0	0.0	7147	INSTRUCT_START	n/a	n/a	n/a	-999	-999	[0, 0, 0]	n/a	FR1	2	R1222M
0.0	11.056	7147	INSTRUCT_END	n/a	n/a	n/a	-999	-999	[0, 0, 0]	n/a	FR1	2	R1222M
11.056	0.0	18202	SESS_START	n/a	n/a	n/a	-999	-999	[0, 0, 0]	n/a	FR1	2	R1222M
11.056	146.035	18202	MIC_TEST	n/a	n/a	n/a	-999	-999	[0, 0, 0]	n/a	FR1	2	R1222M
157.091	2.373	164229	PRACTICE_TRIAL	n/a	n/a	n/a	-999	-1	[0, 0, 0]	n/a	FR1	2	R1222M
159.464	10.428	166602	COUNTDOWN_START	n/a	n/a	n/a	-999	-1	[0, 0, 0]	n/a	FR1	2	R1222M
169.892	0.008	177029	COUNTDOWN_END	n/a	n/a	n/a	-999	-1	[0, 0, 0]	n/a	FR1	2	R1222M
169.9	1.616	177037	PRACTICE_ORIENT	n/a	n/a	n/a	-999	-1	[0, 0, 0]	n/a	FR1	2	R1222M
171.516	2.218	178653	PRACTICE_ORIENT_OFF	n/a	n/a	n/a	-999	-1	[0, 0, 0]	n/a	FR1	2	R1222M
173.734	1.616	180871	PRACTICE_WORD	n/a	n/a	WAGON	1	-1	[0, 0, 0]	n/a	FR1	2	R1222M
175.35	0.868	182487	PRACTICE_WORD_OFF	n/a	n/a	WAGON	-999	-1	[0, 0, 0]	n/a	FR1	2	R1222M
176.218	1.617	183355	PRACTICE_WORD	n/a	n/a	IRON	2	-1	[0, 0, 0]	n/a	FR1	2	R1222M
177.835	0.8	184971	PRACTICE_WORD_OFF	n/a	n/a	IRON	-999	-1	[0, 0, 0]	n/a	FR1	2	R1222M
178.635	1.616	185771	PRACTICE_WORD	n/a	n/a	WATCH	3	-1	[0, 0, 0]	n/a	FR1	2	R1222M
180.251	0.951	187387	PRACTICE_WORD_OFF	n/a	n/a	WATCH	-999	-1	[0, 0, 0]	n/a	FR1	2	R1222M
181.202	1.617	188338	PRACTICE_WORD	n/a	n/a	RHINO	4	-1	[0, 0, 0]	n/a	FR1	2	R1222M
182.819	0.834	189955	PRACTICE_WORD_OFF	n/a	n/a	RHINO	-999	-1	[0, 0, 0]	n/a	FR1	2	R1222M
183.653	1.616	190789	PRACTICE_WORD	n/a	n/a	RING	5	-1	[0, 0, 0]	n/a	FR1	2	R1222M
185.269	0.801	192405	PRACTICE_WORD_OFF	n/a	n/a	RING	-999	-1	[0, 0, 0]	n/a	FR1	2	R1222M
186.07	1.617	193206	PRACTICE_WORD	n/a	n/a	CAMEL	6	-1	[0, 0, 0]	n/a	FR1	2	R1222M
187.687	0.848	194823	PRACTICE_WORD_OFF	n/a	n/a	CAMEL	-999	-1	[0, 0, 0]	n/a	FR1	2	R1222M
188.535	1.619	195671	PRACTICE_WORD	n/a	n/a	TONGUE	7	-1	[0, 0, 0]	n/a	FR1	2	R1222M
190.154	0.883	197290	PRACTICE_WORD_OFF	n/a	n/a	TONGUE	-999	-1	[0, 0, 0]	n/a	FR1	2	R1222M
191.037	1.617	198173	PRACTICE_WORD	n/a	n/a	BEAM	8	-1	[0, 0, 0]	n/a	FR1	2	R1222M
192.654	0.783	199790	PRACTICE_WORD_OFF	n/a	n/a	BEAM	-999	-1	[0, 0, 0]	n/a	FR1	2	R1222M
193.437	1.618	200573	PRACTICE_WORD	n/a	n/a	ATTIC	9	-1	[0, 0, 0]	n/a	FR1	2	R1222M
195.055	0.883	202190	PRACTICE_WORD_OFF	n/a	n/a	ATTIC	-999	-1	[0, 0, 0]	n/a	FR1	2	R1222M
195.938	1.616	203073	PRACTICE_WORD	n/a	n/a	COTTON	10	-1	[0, 0, 0]	n/a	FR1	2	R1222M
197.554	0.934	204689	PRACTICE_WORD_OFF	n/a	n/a	COTTON	-999	-1	[0, 0, 0]	n/a	FR1	2	R1222M
198.488	1.618	205623	PRACTICE_WORD	n/a	n/a	CHEST	11	-1	[0, 0, 0]	n/a	FR1	2	R1222M
200.106	0.933	207241	PRACTICE_WORD_OFF	n/a	n/a	CHEST	-999	-1	[0, 0, 0]	n/a	FR1	2	R1222M
201.039	1.617	208174	PRACTICE_WORD	n/a	n/a	FLOOD	12	-1	[0, 0, 0]	n/a	FR1	2	R1222M
202.656	0.0	209791	PRACTICE_WORD_OFF	n/a	n/a	FLOOD	-999	-1	[0, 0, 0]	n/a	FR1	2	R1222M
202.656	0.001	209791	DISTRACT_START	n/a	n/a	n/a	-999	-1	[0, 0, 0]	n/a	FR1	2	R1222M
202.657	0.016	209792	START	n/a	n/a	n/a	-999	-1	[-999, -999, -999]	n/a	FR1	2	R1222M
202.673	6.018	209808	PROB	6.018	n/a	n/a	-999	-1	[4, 4, 2]	10	FR1	2	R1222M
208.691	6.001	215826	PROB	6.001	n/a	n/a	-999	-1	[1, 9, 8]	18	FR1	2	R1222M
214.692	7.6	221826	PROB	7.6	n/a	n/a	-999	-1	[5, 8, 3]	16	FR1	2	R1222M
222.292	5.673	229426	PROB	5.673	n/a	n/a	-999	-1	[8, 3, 2]	13	FR1	2	R1222M
227.965	0.013	235099	STOP	n/a	n/a	n/a	-999	-1	[-999, -999, -999]	n/a	FR1	2	R1222M
227.978	0.615	235112	DISTRACT_END	n/a	n/a	n/a	-999	-1	[0, 0, 0]	n/a	FR1	2	R1222M
228.593	0.523	235727	RETRIEVAL_ORIENT	n/a	n/a	n/a	-999	-1	[0, 0, 0]	n/a	FR1	2	R1222M
229.116	30.006	236250	PRACTICE_REC_START	n/a	n/a	n/a	-999	-1	[0, 0, 0]	n/a	FR1	2	R1222M
259.122	12.097	266254	PRACTICE_REC_END	n/a	n/a	n/a	-999	-1	[0, 0, 0]	n/a	FR1	2	R1222M
271.219	0.5	278350	TRIAL	n/a	n/a	n/a	-999	1	[0, 0, 0]	n/a	FR1	2	R1222M
271.719	10.428	278850	COUNTDOWN_START	n/a	n/a	n/a	-999	1	[0, 0, 0]	n/a	FR1	2	R1222M
282.147	0.008	289277	COUNTDOWN_END	n/a	n/a	n/a	-999	1	[0, 0, 0]	n/a	FR1	2	R1222M
282.155	1.617	289285	ORIENT	n/a	n/a	n/a	-999	1	[0, 0, 0]	n/a	FR1	2	R1222M
283.772	2.217	290902	ORIENT_OFF	n/a	n/a	n/a	-999	1	[0, 0, 0]	n/a	FR1	2	R1222M
285.989	1.616	293119	WORD	n/a	wordpools/wordpool_EN.txt	CROW	1	1	[0, 0, 0]	n/a	FR1	2	R1222M
287.605	1.0	294735	WORD_OFF	n/a	n/a	CROW	1	1	[0, 0, 0]	n/a	FR1	2	R1222M
288.605	1.618	295735	WORD	n/a	wordpools/wordpool_EN.txt	ROOM	2	1	[0, 0, 0]	n/a	FR1	2	R1222M
290.223	0.8	297353	WORD_OFF	n/a	n/a	ROOM	2	1	[0, 0, 0]	n/a	FR1	2	R1222M
291.023	1.617	298153	WORD	n/a	wordpools/wordpool_EN.txt	ROSE	3	1	[0, 0, 0]	n/a	FR1	2	R1222M
292.64	1.0	299770	WORD_OFF	n/a	n/a	ROSE	3	1	[0, 0, 0]	n/a	FR1	2	R1222M
293.64	1.616	300770	WORD	n/a	wordpools/wordpool_EN.txt	GRASS	4	1	[0, 0, 0]	n/a	FR1	2	R1222M
295.256	0.968	302386	WORD_OFF	n/a	n/a	GRASS	4	1	[0, 0, 0]	n/a	FR1	2	R1222M
296.224	1.617	303354	WORD	n/a	wordpools/wordpool_EN.txt	PALM	5	1	[0, 0, 0]	n/a	FR1	2	R1222M
297.841	0.784	304971	WORD_OFF	n/a	n/a	PALM	5	1	[0, 0, 0]	n/a	FR1	2	R1222M
298.625	1.617	305755	WORD	n/a	wordpools/wordpool_EN.txt	HORSE	6	1	[0, 0, 0]	n/a	FR1	2	R1222M
300.242	0.783	307371	WORD_OFF	n/a	n/a	HORSE	6	1	[0, 0, 0]	n/a	FR1	2	R1222M
301.025	1.617	308154	WORD	n/a	wordpools/wordpool_EN.txt	PRINCE	7	1	[0, 0, 0]	n/a	FR1	2	R1222M
302.642	0.899	309771	WORD_OFF	n/a	n/a	PRINCE	7	1	[0, 0, 0]	n/a	FR1	2	R1222M
303.541	1.618	310670	WORD	n/a	wordpools/wordpool_EN.txt	MAIL	8	1	[0, 0, 0]	n/a	FR1	2	R1222M
305.159	0.767	312288	WORD_OFF	n/a	n/a	MAIL	8	1	[0, 0, 0]	n/a	FR1	2	R1222M
305.926	1.616	313055	WORD	n/a	wordpools/wordpool_EN.txt	BLOOM	9	1	[0, 0, 0]	n/a	FR1	2	R1222M
307.542	0.933	314671	WORD_OFF	n/a	n/a	BLOOM	9	1	[0, 0, 0]	n/a	FR1	2	R1222M
308.475	1.619	315604	WORD	n/a	wordpools/wordpool_EN.txt	PHONE	10	1	[0, 0, 0]	n/a	FR1	2	R1222M
310.094	0.916	317223	WORD_OFF	n/a	n/a	PHONE	10	1	[0, 0, 0]	n/a	FR1	2	R1222M
311.01	1.617	318139	WORD	n/a	wordpools/wordpool_EN.txt	EEL	11	1	[0, 0, 0]	n/a	FR1	2	R1222M
312.627	0.916	319756	WORD_OFF	n/a	n/a	EEL	11	1	[0, 0, 0]	n/a	FR1	2	R1222M
313.543	1.618	320672	WORD	n/a	wordpools/wordpool_EN.txt	CASH	12	1	[0, 0, 0]	n/a	FR1	2	R1222M
315.161	0.0	322290	WORD_OFF	n/a	n/a	CASH	12	1	[0, 0, 0]	n/a	FR1	2	R1222M
315.161	0.001	322290	DISTRACT_START	n/a	n/a	n/a	-999	1	[0, 0, 0]	n/a	FR1	2	R1222M
315.162	0.016	322291	START	n/a	n/a	n/a	-999	1	[-999, -999, -999]	n/a	FR1	2	R1222M
315.178	7.901	322307	PROB	7.901	n/a	n/a	-999	1	[1, 8, 8]	17	FR1	2	R1222M
323.079	5.702	330207	PROB	5.702	n/a	n/a	-999	1	[8, 4, 7]	19	FR1	2	R1222M
328.781	4.766	335909	PROB	4.766	n/a	n/a	-999	1	[2, 5, 1]	8	FR1	2	R1222M
333.547	5.978	340675	PROB	5.978	n/a	n/a	-999	1	[5, 5, 6]	16	FR1	2	R1222M
339.525	0.007	346652	STOP	n/a	n/a	n/a	-999	1	[-999, -999, -999]	n/a	FR1	2	R1222M
339.532	0.517	346659	DISTRACT_END	n/a	n/a	n/a	-999	1	[0, 0, 0]	n/a	FR1	2	R1222M
340.049	0.517	347176	RETRIEVAL_ORIENT	n/a	n/a	n/a	-999	1	[0, 0, 0]	n/a	FR1	2	R1222M
340.566	0.725	347693	REC_START	n/a	n/a	n/a	-999	1	[0, 0, 0]	n/a	FR1	2	R1222M
341.291	1.677	348418	REC_WORD	1.677	n/a	GRASS	-999	1	[0, 0, 0]	n/a	FR1	2	R1222M
342.968	11.16	350095	REC_WORD	11.16	n/a	HORSE	-999	1	[0, 0, 0]	n/a	FR1	2	R1222M
354.128	16.449	361254	REC_WORD	16.449	n/a	BLOOM	-999	1	[0, 0, 0]	n/a	FR1	2	R1222M
370.577	5.812	377702	REC_END	n/a	n/a	n/a	-999	1	[0, 0, 0]	n/a	FR1	2	R1222M
376.389	0.5	383514	TRIAL	n/a	n/a	n/a	-999	2	[0, 0, 0]	n/a	FR1	2	R1222M
376.889	10.428	384014	COUNTDOWN_START	n/a	n/a	n/a	-999	2	[0, 0, 0]	n/a	FR1	2	R1222M
387.317	0.007	394441	COUNTDOWN_END	n/a	n/a	n/a	-999	2	[0, 0, 0]	n/a	FR1	2	R1222M
387.324	1.618	394448	ORIENT	n/a	n/a	n/a	-999	2	[0, 0, 0]	n/a	FR1	2	R1222M
388.942	1.934	396066	ORIENT_OFF	n/a	n/a	n/a	-999	2	[0, 0, 0]	n/a	FR1	2	R1222M
390.876	1.616	398000	WORD	n/a	wordpools/wordpool_EN.txt	SPARK	1	2	[0, 0, 0]	n/a	FR1	2	R1222M
392.492	0.917	399616	WORD_OFF	n/a	n/a	SPARK	1	2	[0, 0, 0]	n/a	FR1	2	R1222M
393.409	1.601	400533	WORD	n/a	wordpools/wordpool_EN.txt	NET	2	2	[0, 0, 0]	n/a	FR1	2	R1222M
395.01	0.867	402134	WORD_OFF	n/a	n/a	NET	2	2	[0, 0, 0]	n/a	FR1	2	R1222M
395.877	1.616	403001	WORD	n/a	wordpools/wordpool_EN.txt	HAWK	3	2	[0, 0, 0]	n/a	FR1	2	R1222M
397.493	0.917	404617	WORD_OFF	n/a	n/a	HAWK	3	2	[0, 0, 0]	n/a	FR1	2	R1222M
398.41	1.617	405534	WORD	n/a	wordpools/wordpool_EN.txt	BUSH	4	2	[0, 0, 0]	n/a	FR1	2	R1222M
400.027	0.817	407151	WORD_OFF	n/a	n/a	BUSH	4	2	[0, 0, 0]	n/a	FR1	2	R1222M
400.844	1.616	407968	WORD	n/a	wordpools/wordpool_EN.txt	TREE	5	2	[0, 0, 0]	n/a	FR1	2	R1222M
402.46	0.817	409584	WORD_OFF	n/a	n/a	TREE	5	2	[0, 0, 0]	n/a	FR1	2	R1222M
403.277	1.618	410401	WORD	n/a	wordpools/wordpool_EN.txt	PANTS	6	2	[0, 0, 0]	n/a	FR1	2	R1222M
404.895	0.967	412018	WORD_OFF	n/a	n/a	PANTS	6	2	[0, 0, 0]	n/a	FR1	2	R1222M
405.862	1.616	412985	WORD	n/a	wordpools/wordpool_EN.txt	FORT	7	2	[0, 0, 0]	n/a	FR1	2	R1222M
407.478	0.8	414601	WORD_OFF	n/a	n/a	FORT	7	2	[0, 0, 0]	n/a	FR1	2	R1222M
408.278	1.618	415401	WORD	n/a	wordpools/wordpool_EN.txt	RAIN	8	2	[0, 0, 0]	n/a	FR1	2	R1222M
409.896	0.984	417019	WORD_OFF	n/a	n/a	RAIN	8	2	[0, 0, 0]	n/a	FR1	2	R1222M
410.88	1.616	418003	WORD	n/a	wordpools/wordpool_EN.txt	BOARD	9	2	[0, 0, 0]	n/a	FR1	2	R1222M
412.496	0.85	419619	WORD_OFF	n/a	n/a	BOARD	9	2	[0, 0, 0]	n/a	FR1	2	R1222M
413.346	1.618	420469	WORD	n/a	wordpools/wordpool_EN.txt	DOCK	10	2	[0, 0, 0]	n/a	FR1	2	R1222M
414.964	0.85	422087	WORD_OFF	n/a	n/a	DOCK	10	2	[0, 0, 0]	n/a	FR1	2	R1222M
415.814	1.616	422937	WORD	n/a	wordpools/wordpool_EN.txt	APE	11	2	[0, 0, 0]	n/a	FR1	2	R1222M
417.43	0.95	424553	WORD_OFF	n/a	n/a	APE	11	2	[0, 0, 0]	n/a	FR1	2	R1222M
418.38	1.618	425503	WORD	n/a	wordpools/wordpool_EN.txt	SNAKE	12	2	[0, 0, 0]	n/a	FR1	2	R1222M
419.998	0.0	427121	WORD_OFF	n/a	n/a	SNAKE	12	2	[0, 0, 0]	n/a	FR1	2	R1222M
419.998	0.001	427121	DISTRACT_START	n/a	n/a	n/a	-999	2	[0, 0, 0]	n/a	FR1	2	R1222M
419.999	0.016	427122	START	n/a	n/a	n/a	-999	2	[-999, -999, -999]	n/a	FR1	2	R1222M
420.015	13.819	427138	PROB	13.819	n/a	n/a	-999	2	[6, 7, 9]	22	FR1	2	R1222M
433.834	5.617	440956	PROB	5.617	n/a	n/a	-999	2	[6, 2, 2]	10	FR1	2	R1222M
439.451	10.298	446572	PROB	10.298	n/a	n/a	-999	2	[3, 3, 4]	10	FR1	2	R1222M
449.749	0.022	456870	STOP	n/a	n/a	n/a	-999	2	[-999, -999, -999]	n/a	FR1	2	R1222M
449.771	0.598	456892	DISTRACT_END	n/a	n/a	n/a	-999	2	[0, 0, 0]	n/a	FR1	2	R1222M
450.369	0.519	457490	RETRIEVAL_ORIENT	n/a	n/a	n/a	-999	2	[0, 0, 0]	n/a	FR1	2	R1222M
450.888	4.198	458009	REC_START	n/a	n/a	n/a	-999	2	[0, 0, 0]	n/a	FR1	2	R1222M
455.086	2.937	462207	REC_WORD	2.937	n/a	HAWK	-999	2	[0, 0, 0]	n/a	FR1	2	R1222M
458.023	7.147	465143	REC_WORD	7.147	n/a	TREE	-999	2	[0, 0, 0]	n/a	FR1	2	R1222M
465.17	8.691	472290	REC_WORD	8.691	n/a	ROSE	-999	2	[0, 0, 0]	n/a	FR1	2	R1222M
473.861	7.04	480980	REC_WORD	7.04	n/a	PANTS	-999	2	[0, 0, 0]	n/a	FR1	2	R1222M
480.901	10.51	488020	REC_END	n/a	n/a	n/a	-999	2	[0, 0, 0]	n/a	FR1	2	R1222M
491.411	0.5	498529	TRIAL	n/a	n/a	n/a	-999	3	[0, 0, 0]	n/a	FR1	2	R1222M
491.911	10.428	499029	COUNTDOWN_START	n/a	n/a	n/a	-999	3	[0, 0, 0]	n/a	FR1	2	R1222M
502.339	0.007	509457	COUNTDOWN_END	n/a	n/a	n/a	-999	3	[0, 0, 0]	n/a	FR1	2	R1222M
502.346	1.601	509464	ORIENT	n/a	n/a	n/a	-999	3	[0, 0, 0]	n/a	FR1	2	R1222M
503.947	2.084	511065	ORIENT_OFF	n/a	n/a	n/a	-999	3	[0, 0, 0]	n/a	FR1	2	R1222M
506.031	1.617	513149	WORD	n/a	wordpools/wordpool_EN.txt	TOOL	1	3	[0, 0, 0]	n/a	FR1	2	R1222M
507.648	1.001	514766	WORD_OFF	n/a	n/a	TOOL	1	3	[0, 0, 0]	n/a	FR1	2	R1222M
508.649	1.616	515766	WORD	n/a	wordpools/wordpool_EN.txt	DOOR	2	3	[0, 0, 0]	n/a	FR1	2	R1222M
510.265	0.951	517382	WORD_OFF	n/a	n/a	DOOR	2	3	[0, 0, 0]	n/a	FR1	2	R1222M
511.216	1.617	518333	WORD	n/a	wordpools/wordpool_EN.txt	SHOE	3	3	[0, 0, 0]	n/a	FR1	2	R1222M
512.833	0.817	519950	WORD_OFF	n/a	n/a	SHOE	3	3	[0, 0, 0]	n/a	FR1	2	R1222M
513.65	1.615	520767	WORD	n/a	wordpools/wordpool_EN.txt	SQUARE	4	3	[0, 0, 0]	n/a	FR1	2	R1222M
515.265	0.902	522382	WORD_OFF	n/a	n/a	SQUARE	4	3	[0, 0, 0]	n/a	FR1	2	R1222M
516.167	1.617	523284	WORD	n/a	wordpools/wordpool_EN.txt	ROOF	5	3	[0, 0, 0]	n/a	FR1	2	R1222M
517.784	0.832	524901	WORD_OFF	n/a	n/a	ROOF	5	3	[0, 0, 0]	n/a	FR1	2	R1222M
518.616	1.618	525733	WORD	n/a	wordpools/wordpool_EN.txt	CALF	6	3	[0, 0, 0]	n/a	FR1	2	R1222M
520.234	0.784	527351	WORD_OFF	n/a	n/a	CALF	6	3	[0, 0, 0]	n/a	FR1	2	R1222M
521.018	1.617	528135	WORD	n/a	wordpools/wordpool_EN.txt	OWL	7	3	[0, 0, 0]	n/a	FR1	2	R1222M
522.635	0.882	529752	WORD_OFF	n/a	n/a	OWL	7	3	[0, 0, 0]	n/a	FR1	2	R1222M
523.517	1.618	530634	WORD	n/a	wordpools/wordpool_EN.txt	SAIL	8	3	[0, 0, 0]	n/a	FR1	2	R1222M
525.135	0.834	532252	WORD_OFF	n/a	n/a	SAIL	8	3	[0, 0, 0]	n/a	FR1	2	R1222M
525.969	1.616	533085	WORD	n/a	wordpools/wordpool_EN.txt	DOLL	9	3	[0, 0, 0]	n/a	FR1	2	R1222M
527.585	0.883	534701	WORD_OFF	n/a	n/a	DOLL	9	3	[0, 0, 0]	n/a	FR1	2	R1222M
528.468	1.618	535584	WORD	n/a	wordpools/wordpool_EN.txt	CANE	10	3	[0, 0, 0]	n/a	FR1	2	R1222M
530.086	1.0	537202	WORD_OFF	n/a	n/a	CANE	10	3	[0, 0, 0]	n/a	FR1	2	R1222M
531.086	1.617	538202	WORD	n/a	wordpools/wordpool_EN.txt	DART	11	3	[0, 0, 0]	n/a	FR1	2	R1222M
532.703	1.0	539819	WORD_OFF	n/a	n/a	DART	11	3	[0, 0, 0]	n/a	FR1	2	R1222M
533.703	1.616	540819	WORD	n/a	wordpools/wordpool_EN.txt	SHIRT	12	3	[0, 0, 0]	n/a	FR1	2	R1222M
535.319	0.0	542435	WORD_OFF	n/a	n/a	SHIRT	12	3	[0, 0, 0]	n/a	FR1	2	R1222M
535.319	0.001	542435	DISTRACT_START	n/a	n/a	n/a	-999	3	[0, 0, 0]	n/a	FR1	2	R1222M
535.32	0.016	542436	START	n/a	n/a	n/a	-999	3	[-999, -999, -999]	n/a	FR1	2	R1222M
535.336	8.268	542452	PROB	8.268	n/a	n/a	-999	3	[5, 4, 3]	12	FR1	2	R1222M
543.604	5.302	550719	PROB	5.302	n/a	n/a	-999	3	[4, 2, 2]	8	FR1	2	R1222M
548.906	4.785	556021	PROB	4.785	n/a	n/a	-999	3	[1, 5, 3]	9	FR1	2	R1222M
553.691	6.547	560806	PROB	6.547	n/a	n/a	-999	3	[9, 2, 7]	18	FR1	2	R1222M
560.238	0.019	567353	STOP	n/a	n/a	n/a	-999	3	[-999, -999, -999]	n/a	FR1	2	R1222M
560.257	0.551	567372	DISTRACT_END	n/a	n/a	n/a	-999	3	[0, 0, 0]	n/a	FR1	2	R1222M
560.808	0.517	567922	RETRIEVAL_ORIENT	n/a	n/a	n/a	-999	3	[0, 0, 0]	n/a	FR1	2	R1222M
561.325	0.597	568439	REC_START	n/a	n/a	n/a	-999	3	[0, 0, 0]	n/a	FR1	2	R1222M
561.922	9.759	569036	REC_WORD	9.759	n/a	SHIRT	-999	3	[0, 0, 0]	n/a	FR1	2	R1222M
571.681	9.812	578795	REC_WORD	9.812	n/a	SHOE	-999	3	[0, 0, 0]	n/a	FR1	2	R1222M
581.493	3.752	588606	REC_WORD	3.752	n/a	SQUARE	-999	3	[0, 0, 0]	n/a	FR1	2	R1222M
585.245	6.092	592358	REC_WORD	6.092	n/a	DOOR	-999	3	[0, 0, 0]	n/a	FR1	2	R1222M
591.337	5.478	598450	REC_END	n/a	n/a	n/a	-999	3	[0, 0, 0]	n/a	FR1	2	R1222M
596.815	0.5	603927	TRIAL	n/a	n/a	n/a	-999	4	[0, 0, 0]	n/a	FR1	2	R1222M
597.315	10.428	604427	COUNTDOWN_START	n/a	n/a	n/a	-999	4	[0, 0, 0]	n/a	FR1	2	R1222M
607.743	0.008	614855	COUNTDOWN_END	n/a	n/a	n/a	-999	4	[0, 0, 0]	n/a	FR1	2	R1222M
607.751	1.616	614863	ORIENT	n/a	n/a	n/a	-999	4	[0, 0, 0]	n/a	FR1	2	R1222M
609.367	2.117	616479	ORIENT_OFF	n/a	n/a	n/a	-999	4	[0, 0, 0]	n/a	FR1	2	R1222M
611.484	1.618	618596	WORD	n/a	wordpools/wordpool_EN.txt	BOWL	1	4	[0, 0, 0]	n/a	FR1	2	R1222M
613.102	0.833	620213	WORD_OFF	n/a	n/a	BOWL	1	4	[0, 0, 0]	n/a	FR1	2	R1222M
613.935	1.616	621046	WORD	n/a	wordpools/wordpool_EN.txt	FUR	2	4	[0, 0, 0]	n/a	FR1	2	R1222M
615.551	0.951	622662	WORD_OFF	n/a	n/a	FUR	2	4	[0, 0, 0]	n/a	FR1	2	R1222M
616.502	1.618	623613	WORD	n/a	wordpools/wordpool_EN.txt	PLATE	3	4	[0, 0, 0]	n/a	FR1	2	R1222M
618.12	0.8	625231	WORD_OFF	n/a	n/a	PLATE	3	4	[0, 0, 0]	n/a	FR1	2	R1222M
618.92	1.616	626031	WORD	n/a	wordpools/wordpool_EN.txt	SPRING	4	4	[0, 0, 0]	n/a	FR1	2	R1222M
620.536	0.967	627647	WORD_OFF	n/a	n/a	SPRING	4	4	[0, 0, 0]	n/a	FR1	2	R1222M
621.503	1.601	628614	WORD	n/a	wordpools/wordpool_EN.txt	CLAY	5	4	[0, 0, 0]	n/a	FR1	2	R1222M
623.104	0.933	630215	WORD_OFF	n/a	n/a	CLAY	5	4	[0, 0, 0]	n/a	FR1	2	R1222M
624.037	1.617	631148	WORD	n/a	wordpools/wordpool_EN.txt	BARN	6	4	[0, 0, 0]	n/a	FR1	2	R1222M
625.654	0.816	632765	WORD_OFF	n/a	n/a	BARN	6	4	[0, 0, 0]	n/a	FR1	2	R1222M
626.47	1.601	633581	WORD	n/a	wordpools/wordpool_EN.txt	CHALK	7	4	[0, 0, 0]	n/a	FR1	2	R1222M
628.071	1.001	635182	WORD_OFF	n/a	n/a	CHALK	7	4	[0, 0, 0]	n/a	FR1	2	R1222M
629.072	1.617	636183	WORD	n/a	wordpools/wordpool_EN.txt	BREAD	8	4	[0, 0, 0]	n/a	FR1	2	R1222M
630.689	0.782	637799	WORD_OFF	n/a	n/a	BREAD	8	4	[0, 0, 0]	n/a	FR1	2	R1222M
631.471	1.618	638581	WORD	n/a	wordpools/wordpool_EN.txt	HOOF	9	4	[0, 0, 0]	n/a	FR1	2	R1222M
633.089	0.9	640199	WORD_OFF	n/a	n/a	HOOF	9	4	[0, 0, 0]	n/a	FR1	2	R1222M
633.989	1.616	641099	WORD	n/a	wordpools/wordpool_EN.txt	HILL	10	4	[0, 0, 0]	n/a	FR1	2	R1222M
635.605	0.8	642715	WORD_OFF	n/a	n/a	HILL	10	4	[0, 0, 0]	n/a	FR1	2	R1222M
636.405	1.618	643515	WORD	n/a	wordpools/wordpool_EN.txt	CHEEK	11	4	[0, 0, 0]	n/a	FR1	2	R1222M
638.023	0.851	645133	WORD_OFF	n/a	n/a	CHEEK	11	4	[0, 0, 0]	n/a	FR1	2	R1222M
638.874	1.616	645984	WORD	n/a	wordpools/wordpool_EN.txt	STAIR	12	4	[0, 0, 0]	n/a	FR1	2	R1222M
640.49	0.0	647600	DISTRACT_START	n/a	n/a	n/a	-999	4	[0, 0, 0]	n/a	FR1	2	R1222M
640.49	0.0	647600	WORD_OFF	n/a	n/a	STAIR	12	4	[0, 0, 0]	n/a	FR1	2	R1222M
640.49	0.016	647600	START	n/a	n/a	n/a	-999	4	[-999, -999, -999]	n/a	FR1	2	R1222M
640.506	5.402	647616	PROB	5.402	n/a	n/a	-999	4	[3, 3, 5]	11	FR1	2	R1222M
645.908	7.168	653018	PROB	7.168	n/a	n/a	-999	4	[9, 4, 4]	17	FR1	2	R1222M
653.076	6.918	660185	PROB	6.918	n/a	n/a	-999	4	[8, 4, 5]	17	FR1	2	R1222M
659.994	6.027	667103	PROB	6.027	n/a	n/a	-999	4	[5, 7, 5]	17	FR1	2	R1222M
666.021	0.008	673129	STOP	n/a	n/a	n/a	-999	4	[-999, -999, -999]	n/a	FR1	2	R1222M
666.029	0.582	673137	DISTRACT_END	n/a	n/a	n/a	-999	4	[0, 0, 0]	n/a	FR1	2	R1222M
666.611	0.519	673719	RETRIEVAL_ORIENT	n/a	n/a	n/a	-999	4	[0, 0, 0]	n/a	FR1	2	R1222M
667.13	0.739	674238	REC_START	n/a	n/a	n/a	-999	4	[0, 0, 0]	n/a	FR1	2	R1222M
667.869	5.142	674977	REC_WORD	5.142	n/a	SPRING	-999	4	[0, 0, 0]	n/a	FR1	2	R1222M
673.011	15.176	680119	REC_WORD	15.176	n/a	HOOF	-999	4	[0, 0, 0]	n/a	FR1	2	R1222M
688.187	6.856	695294	REC_WORD	6.856	n/a	SAIL	-999	4	[0, 0, 0]	n/a	FR1	2	R1222M
695.043	2.096	702150	REC_WORD	2.096	n/a	OWL	-999	4	[0, 0, 0]	n/a	FR1	2	R1222M
697.139	9.064	704246	REC_END	n/a	n/a	n/a	-999	4	[0, 0, 0]	n/a	FR1	2	R1222M
706.203	0.5	713309	TRIAL	n/a	n/a	n/a	-999	5	[0, 0, 0]	n/a	FR1	2	R1222M
706.703	10.428	713809	COUNTDOWN_START	n/a	n/a	n/a	-999	5	[0, 0, 0]	n/a	FR1	2	R1222M
717.131	0.008	724237	COUNTDOWN_END	n/a	n/a	n/a	-999	5	[0, 0, 0]	n/a	FR1	2	R1222M
717.139	1.617	724245	ORIENT	n/a	n/a	n/a	-999	5	[0, 0, 0]	n/a	FR1	2	R1222M
718.756	2.067	725861	ORIENT_OFF	n/a	n/a	n/a	-999	5	[0, 0, 0]	n/a	FR1	2	R1222M
720.823	1.616	727928	WORD	n/a	wordpools/wordpool_EN.txt	MOOSE	1	5	[0, 0, 0]	n/a	FR1	2	R1222M
722.439	1.0	729544	WORD_OFF	n/a	n/a	MOOSE	1	5	[0, 0, 0]	n/a	FR1	2	R1222M
723.439	1.618	730544	WORD	n/a	wordpools/wordpool_EN.txt	NEST	2	5	[0, 0, 0]	n/a	FR1	2	R1222M
725.057	0.767	732162	WORD_OFF	n/a	n/a	NEST	2	5	[0, 0, 0]	n/a	FR1	2	R1222M
725.824	1.616	732929	WORD	n/a	wordpools/wordpool_EN.txt	CONE	3	5	[0, 0, 0]	n/a	FR1	2	R1222M
727.44	0.966	734545	WORD_OFF	n/a	n/a	CONE	3	5	[0, 0, 0]	n/a	FR1	2	R1222M
728.406	1.602	735511	WORD	n/a	wordpools/wordpool_EN.txt	FOAM	4	5	[0, 0, 0]	n/a	FR1	2	R1222M
730.008	0.933	737113	WORD_OFF	n/a	n/a	FOAM	4	5	[0, 0, 0]	n/a	FR1	2	R1222M
730.941	1.616	738046	WORD	n/a	wordpools/wordpool_EN.txt	POND	5	5	[0, 0, 0]	n/a	FR1	2	R1222M
732.557	0.784	739662	WORD_OFF	n/a	n/a	POND	5	5	[0, 0, 0]	n/a	FR1	2	R1222M
733.341	1.601	740446	WORD	n/a	wordpools/wordpool_EN.txt	GOLD	6	5	[0, 0, 0]	n/a	FR1	2	R1222M
734.942	1.001	742046	WORD_OFF	n/a	n/a	GOLD	6	5	[0, 0, 0]	n/a	FR1	2	R1222M
735.943	1.615	743047	WORD	n/a	wordpools/wordpool_EN.txt	BEACH	7	5	[0, 0, 0]	n/a	FR1	2	R1222M
737.558	0.784	744662	WORD_OFF	n/a	n/a	BEACH	7	5	[0, 0, 0]	n/a	FR1	2	R1222M
738.342	1.618	745446	WORD	n/a	wordpools/wordpool_EN.txt	GEESE	8	5	[0, 0, 0]	n/a	FR1	2	R1222M
739.96	0.867	747064	WORD_OFF	n/a	n/a	GEESE	8	5	[0, 0, 0]	n/a	FR1	2	R1222M
740.827	1.616	747931	WORD	n/a	wordpools/wordpool_EN.txt	SMOKE	9	5	[0, 0, 0]	n/a	FR1	2	R1222M
742.443	0.966	749547	WORD_OFF	n/a	n/a	SMOKE	9	5	[0, 0, 0]	n/a	FR1	2	R1222M
743.409	1.618	750513	WORD	n/a	wordpools/wordpool_EN.txt	OAK	10	5	[0, 0, 0]	n/a	FR1	2	R1222M
745.027	0.884	752131	WORD_OFF	n/a	n/a	OAK	10	5	[0, 0, 0]	n/a	FR1	2	R1222M
745.911	1.616	753015	WORD	n/a	wordpools/wordpool_EN.txt	WHEEL	11	5	[0, 0, 0]	n/a	FR1	2	R1222M
747.527	0.9	754631	WORD_OFF	n/a	n/a	WHEEL	11	5	[0, 0, 0]	n/a	FR1	2	R1222M
748.427	1.601	755531	WORD	n/a	wordpools/wordpool_EN.txt	TANK	12	5	[0, 0, 0]	n/a	FR1	2	R1222M
750.028	0.0	757132	WORD_OFF	n/a	n/a	TANK	12	5	[0, 0, 0]	n/a	FR1	2	R1222M
750.028	0.001	757132	DISTRACT_START	n/a	n/a	n/a	-999	5	[0, 0, 0]	n/a	FR1	2	R1222M
750.029	0.016	757133	START	n/a	n/a	n/a	-999	5	[-999, -999, -999]	n/a	FR1	2	R1222M
750.045	4.584	757149	PROB	4.584	n/a	n/a	-999	5	[4, 1, 3]	8	FR1	2	R1222M
754.629	5.168	761732	PROB	5.168	n/a	n/a	-999	5	[5, 8, 5]	18	FR1	2	R1222M
759.797	4.8	766900	PROB	4.8	n/a	n/a	-999	5	[1, 2, 9]	12	FR1	2	R1222M
764.597	6.545	771700	PROB	6.545	n/a	n/a	-999	5	[1, 2, 7]	10	FR1	2	R1222M
771.142	0.007	778244	STOP	n/a	n/a	n/a	-999	5	[-999, -999, -999]	n/a	FR1	2	R1222M
771.149	0.6	778251	DISTRACT_END	n/a	n/a	n/a	-999	5	[0, 0, 0]	n/a	FR1	2	R1222M
771.749	0.517	778851	RETRIEVAL_ORIENT	n/a	n/a	n/a	-999	5	[0, 0, 0]	n/a	FR1	2	R1222M
772.266	0.979	779368	REC_START	n/a	n/a	n/a	-999	5	[0, 0, 0]	n/a	FR1	2	R1222M
773.245	1.782	780347	REC_WORD	1.782	n/a	TANK	-999	5	[0, 0, 0]	n/a	FR1	2	R1222M
775.027	15.903	782129	REC_WORD	15.903	n/a	SMOKE	-999	5	[0, 0, 0]	n/a	FR1	2	R1222M
790.93	4.069	798031	REC_WORD	4.069	n/a	POND	-999	5	[0, 0, 0]	n/a	FR1	2	R1222M
794.999	7.278	802100	REC_WORD	7.278	n/a	FOAM	-999	5	[0, 0, 0]	n/a	FR1	2	R1222M
802.277	16.365	809378	REC_END	n/a	n/a	n/a	-999	5	[0, 0, 0]	n/a	FR1	2	R1222M
818.642	0.5	825742	TRIAL	n/a	n/a	n/a	-999	6	[0, 0, 0]	n/a	FR1	2	R1222M
819.142	10.428	826242	COUNTDOWN_START	n/a	n/a	n/a	-999	6	[0, 0, 0]	n/a	FR1	2	R1222M
829.57	0.006	836669	COUNTDOWN_END	n/a	n/a	n/a	-999	6	[0, 0, 0]	n/a	FR1	2	R1222M
829.576	1.618	836675	ORIENT	n/a	n/a	n/a	-999	6	[0, 0, 0]	n/a	FR1	2	R1222M
831.194	1.934	838293	ORIENT_OFF	n/a	n/a	n/a	-999	6	[0, 0, 0]	n/a	FR1	2	R1222M
833.128	1.617	840227	WORD	n/a	wordpools/wordpool_EN.txt	FENCE	1	6	[0, 0, 0]	n/a	FR1	2	R1222M
834.745	0.95	841844	WORD_OFF	n/a	n/a	FENCE	1	6	[0, 0, 0]	n/a	FR1	2	R1222M
835.695	1.616	842794	WORD	n/a	wordpools/wordpool_EN.txt	FLEA	2	6	[0, 0, 0]	n/a	FR1	2	R1222M
837.311	0.901	844410	WORD_OFF	n/a	n/a	FLEA	2	6	[0, 0, 0]	n/a	FR1	2	R1222M
838.212	1.617	845311	WORD	n/a	wordpools/wordpool_EN.txt	MUG	3	6	[0, 0, 0]	n/a	FR1	2	R1222M
839.829	0.9	846927	WORD_OFF	n/a	n/a	MUG	3	6	[0, 0, 0]	n/a	FR1	2	R1222M
840.729	1.616	847827	WORD	n/a	wordpools/wordpool_EN.txt	STRING	4	6	[0, 0, 0]	n/a	FR1	2	R1222M
842.345	0.967	849443	WORD_OFF	n/a	n/a	STRING	4	6	[0, 0, 0]	n/a	FR1	2	R1222M
843.312	1.618	850410	WORD	n/a	wordpools/wordpool_EN.txt	SEAL	5	6	[0, 0, 0]	n/a	FR1	2	R1222M
844.93	0.883	852028	WORD_OFF	n/a	n/a	SEAL	5	6	[0, 0, 0]	n/a	FR1	2	R1222M
845.813	1.617	852911	WORD	n/a	wordpools/wordpool_EN.txt	PIN	6	6	[0, 0, 0]	n/a	FR1	2	R1222M
847.43	0.966	854528	WORD_OFF	n/a	n/a	PIN	6	6	[0, 0, 0]	n/a	FR1	2	R1222M
848.396	1.618	855494	WORD	n/a	wordpools/wordpool_EN.txt	ARM	7	6	[0, 0, 0]	n/a	FR1	2	R1222M
850.014	0.801	857112	WORD_OFF	n/a	n/a	ARM	7	6	[0, 0, 0]	n/a	FR1	2	R1222M
850.815	1.616	857913	WORD	n/a	wordpools/wordpool_EN.txt	SUIT	8	6	[0, 0, 0]	n/a	FR1	2	R1222M
852.431	0.833	859529	WORD_OFF	n/a	n/a	SUIT	8	6	[0, 0, 0]	n/a	FR1	2	R1222M
853.264	1.618	860362	WORD	n/a	wordpools/wordpool_EN.txt	FLUTE	9	6	[0, 0, 0]	n/a	FR1	2	R1222M
854.882	0.767	861980	WORD_OFF	n/a	n/a	FLUTE	9	6	[0, 0, 0]	n/a	FR1	2	R1222M
855.649	1.616	862747	WORD	n/a	wordpools/wordpool_EN.txt	YARD	10	6	[0, 0, 0]	n/a	FR1	2	R1222M
857.265	0.934	864362	WORD_OFF	n/a	n/a	YARD	10	6	[0, 0, 0]	n/a	FR1	2	R1222M
858.199	1.617	865296	WORD	n/a	wordpools/wordpool_EN.txt	FACE	11	6	[0, 0, 0]	n/a	FR1	2	R1222M
859.816	0.917	866913	WORD_OFF	n/a	n/a	FACE	11	6	[0, 0, 0]	n/a	FR1	2	R1222M
860.733	1.616	867830	WORD	n/a	wordpools/wordpool_EN.txt	TOAST	12	6	[0, 0, 0]	n/a	FR1	2	R1222M
862.349	0.0	869446	WORD_OFF	n/a	n/a	TOAST	12	6	[0, 0, 0]	n/a	FR1	2	R1222M
862.349	0.001	869446	DISTRACT_START	n/a	n/a	n/a	-999	6	[0, 0, 0]	n/a	FR1	2	R1222M
862.35	0.016	869447	START	n/a	n/a	n/a	-999	6	[-999, -999, -999]	n/a	FR1	2	R1222M
862.366	7.385	869463	PROB	7.385	n/a	n/a	-999	6	[9, 6, 6]	21	FR1	2	R1222M
869.751	5.202	876848	PROB	5.202	n/a	n/a	-999	6	[9, 1, 8]	18	FR1	2	R1222M
874.953	6.017	882049	PROB	6.017	n/a	n/a	-999	6	[8, 5, 2]	15	FR1	2	R1222M
880.97	5.684	888066	PROB	5.684	n/a	n/a	-999	6	[9, 4, 9]	22	FR1	2	R1222M
886.654	0.017	893750	STOP	n/a	n/a	n/a	-999	6	[-999, -999, -999]	n/a	FR1	2	R1222M
886.671	0.65	893767	DISTRACT_END	n/a	n/a	n/a	-999	6	[0, 0, 0]	n/a	FR1	2	R1222M
887.321	0.518	894417	RETRIEVAL_ORIENT	n/a	n/a	n/a	-999	6	[0, 0, 0]	n/a	FR1	2	R1222M
887.839	0.754	894935	REC_START	n/a	n/a	n/a	-999	6	[0, 0, 0]	n/a	FR1	2	R1222M
888.593	1.541	895689	REC_WORD	1.541	n/a	ARM	-999	6	[0, 0, 0]	n/a	FR1	2	R1222M
890.134	2.523	897230	REC_WORD	2.523	n/a	FACE	-999	6	[0, 0, 0]	n/a	FR1	2	R1222M
892.657	7.287	899752	REC_WORD	7.287	n/a	STRING	-999	6	[0, 0, 0]	n/a	FR1	2	R1222M
899.944	17.904	907039	REC_WORD	17.904	n/a	FLEA	-999	6	[0, 0, 0]	n/a	FR1	2	R1222M
917.848	5.997	924942	REC_END	n/a	n/a	n/a	-999	6	[0, 0, 0]	n/a	FR1	2	R1222M
923.845	0.5	930939	TRIAL	n/a	n/a	n/a	-999	7	[0, 0, 0]	n/a	FR1	2	R1222M
924.345	10.428	931439	COUNTDOWN_START	n/a	n/a	n/a	-999	7	[0, 0, 0]	n/a	FR1	2	R1222M
934.773	0.008	941866	COUNTDOWN_END	n/a	n/a	n/a	-999	7	[0, 0, 0]	n/a	FR1	2	R1222M
934.781	1.616	941874	ORIENT	n/a	n/a	n/a	-999	7	[0, 0, 0]	n/a	FR1	2	R1222M
936.397	2.183	943490	ORIENT_OFF	n/a	n/a	n/a	-999	7	[0, 0, 0]	n/a	FR1	2	R1222M
938.58	1.618	945673	WORD	n/a	wordpools/wordpool_EN.txt	CLOUD	1	7	[0, 0, 0]	n/a	FR1	2	R1222M
940.198	0.934	947291	WORD_OFF	n/a	n/a	CLOUD	1	7	[0, 0, 0]	n/a	FR1	2	R1222M
941.132	1.617	948225	WORD	n/a	wordpools/wordpool_EN.txt	DRUM	2	7	[0, 0, 0]	n/a	FR1	2	R1222M
942.749	0.799	949842	WORD_OFF	n/a	n/a	DRUM	2	7	[0, 0, 0]	n/a	FR1	2	R1222M
943.548	1.618	950641	WORD	n/a	wordpools/wordpool_EN.txt	PASTE	3	7	[0, 0, 0]	n/a	FR1	2	R1222M
945.166	0.967	952258	WORD_OFF	n/a	n/a	PASTE	3	7	[0, 0, 0]	n/a	FR1	2	R1222M
946.133	1.617	953225	WORD	n/a	wordpools/wordpool_EN.txt	SHIP	4	7	[0, 0, 0]	n/a	FR1	2	R1222M
947.75	0.799	954842	WORD_OFF	n/a	n/a	SHIP	4	7	[0, 0, 0]	n/a	FR1	2	R1222M
948.549	1.618	955641	WORD	n/a	wordpools/wordpool_EN.txt	SLIME	5	7	[0, 0, 0]	n/a	FR1	2	R1222M
950.167	0.767	957259	WORD_OFF	n/a	n/a	SLIME	5	7	[0, 0, 0]	n/a	FR1	2	R1222M
950.934	1.616	958026	WORD	n/a	wordpools/wordpool_EN.txt	JEEP	6	7	[0, 0, 0]	n/a	FR1	2	R1222M
952.55	1.0	959642	WORD_OFF	n/a	n/a	JEEP	6	7	[0, 0, 0]	n/a	FR1	2	R1222M
953.55	1.618	960642	WORD	n/a	wordpools/wordpool_EN.txt	SHEET	7	7	[0, 0, 0]	n/a	FR1	2	R1222M
955.168	1.0	962260	WORD_OFF	n/a	n/a	SHEET	7	7	[0, 0, 0]	n/a	FR1	2	R1222M
956.168	1.617	963260	WORD	n/a	wordpools/wordpool_EN.txt	STORE	8	7	[0, 0, 0]	n/a	FR1	2	R1222M
957.785	0.95	964877	WORD_OFF	n/a	n/a	STORE	8	7	[0, 0, 0]	n/a	FR1	2	R1222M
958.735	1.616	965827	WORD	n/a	wordpools/wordpool_EN.txt	TEETH	9	7	[0, 0, 0]	n/a	FR1	2	R1222M
960.351	0.785	967443	WORD_OFF	n/a	n/a	TEETH	9	7	[0, 0, 0]	n/a	FR1	2	R1222M
961.136	1.617	968228	WORD	n/a	wordpools/wordpool_EN.txt	CHIEF	10	7	[0, 0, 0]	n/a	FR1	2	R1222M
962.753	0.917	969844	WORD_OFF	n/a	n/a	CHIEF	10	7	[0, 0, 0]	n/a	FR1	2	R1222M
963.67	1.616	970761	WORD	n/a	wordpools/wordpool_EN.txt	PIT	11	7	[0, 0, 0]	n/a	FR1	2	R1222M
965.286	0.917	972377	WORD_OFF	n/a	n/a	PIT	11	7	[0, 0, 0]	n/a	FR1	2	R1222M
966.203	1.617	973294	WORD	n/a	wordpools/wordpool_EN.txt	SKI	12	7	[0, 0, 0]	n/a	FR1	2	R1222M
967.82	0.0	974911	WORD_OFF	n/a	n/a	SKI	12	7	[0, 0, 0]	n/a	FR1	2	R1222M
967.82	0.001	974911	DISTRACT_START	n/a	n/a	n/a	-999	7	[0, 0, 0]	n/a	FR1	2	R1222M
967.821	0.016	974912	START	n/a	n/a	n/a	-999	7	[-999, -999, -999]	n/a	FR1	2	R1222M
967.837	7.6	974928	PROB	7.6	n/a	n/a	-999	7	[5, 4, 4]	13	FR1	2	R1222M
975.437	4.985	982528	PROB	4.985	n/a	n/a	-999	7	[2, 4, 8]	14	FR1	2	R1222M
980.422	6.951	987512	PROB	6.951	n/a	n/a	-999	7	[5, 6, 3]	14	FR1	2	R1222M
987.373	7.048	994463	PROB	7.048	n/a	n/a	-999	7	[8, 8, 7]	23	FR1	2	R1222M
994.421	0.02	1001511	STOP	n/a	n/a	n/a	-999	7	[-999, -999, -999]	n/a	FR1	2	R1222M
994.441	0.685	1001531	DISTRACT_END	n/a	n/a	n/a	-999	7	[0, 0, 0]	n/a	FR1	2	R1222M
995.126	0.517	1002216	RETRIEVAL_ORIENT	n/a	n/a	n/a	-999	7	[0, 0, 0]	n/a	FR1	2	R1222M
995.643	0.951	1002733	REC_START	n/a	n/a	n/a	-999	7	[0, 0, 0]	n/a	FR1	2	R1222M
996.594	9.524	1003683	REC_WORD	9.524	n/a	SKI	-999	7	[0, 0, 0]	n/a	FR1	2	R1222M
1006.118	3.412	1013207	REC_WORD	3.412	n/a	TEETH	-999	7	[0, 0, 0]	n/a	FR1	2	R1222M
1009.53	6.334	1016619	REC_WORD	6.334	n/a	CHIEF	-999	7	[0, 0, 0]	n/a	FR1	2	R1222M
1015.864	9.788	1022952	REC_WORD	9.788	n/a	PIT	-999	7	[0, 0, 0]	n/a	FR1	2	R1222M
1025.652	6.314	1032740	REC_END	n/a	n/a	n/a	-999	7	[0, 0, 0]	n/a	FR1	2	R1222M
1031.966	0.5	1039053	TRIAL	n/a	n/a	n/a	-999	8	[0, 0, 0]	n/a	FR1	2	R1222M
1032.466	10.428	1039553	COUNTDOWN_START	n/a	n/a	n/a	-999	8	[0, 0, 0]	n/a	FR1	2	R1222M
1042.894	0.008	1049981	COUNTDOWN_END	n/a	n/a	n/a	-999	8	[0, 0, 0]	n/a	FR1	2	R1222M
1042.902	1.616	1049989	ORIENT	n/a	n/a	n/a	-999	8	[0, 0, 0]	n/a	FR1	2	R1222M
1044.518	1.883	1051605	ORIENT_OFF	n/a	n/a	n/a	-999	8	[0, 0, 0]	n/a	FR1	2	R1222M
1046.401	1.601	1053488	WORD	n/a	wordpools/wordpool_EN.txt	DESK	1	8	[0, 0, 0]	n/a	FR1	2	R1222M
1048.002	0.768	1055089	WORD_OFF	n/a	n/a	DESK	1	8	[0, 0, 0]	n/a	FR1	2	R1222M
1048.77	1.615	1055856	WORD	n/a	wordpools/wordpool_EN.txt	THREAD	2	8	[0, 0, 0]	n/a	FR1	2	R1222M
1050.385	0.934	1057471	WORD_OFF	n/a	n/a	THREAD	2	8	[0, 0, 0]	n/a	FR1	2	R1222M
1051.319	1.618	1058405	WORD	n/a	wordpools/wordpool_EN.txt	VINE	3	8	[0, 0, 0]	n/a	FR1	2	R1222M
1052.937	0.817	1060023	WORD_OFF	n/a	n/a	VINE	3	8	[0, 0, 0]	n/a	FR1	2	R1222M
1053.754	1.616	1060840	WORD	n/a	wordpools/wordpool_EN.txt	HORN	4	8	[0, 0, 0]	n/a	FR1	2	R1222M
1055.37	0.767	1062456	WORD_OFF	n/a	n/a	HORN	4	8	[0, 0, 0]	n/a	FR1	2	R1222M
1056.137	1.617	1063223	WORD	n/a	wordpools/wordpool_EN.txt	KEY	5	8	[0, 0, 0]	n/a	FR1	2	R1222M
1057.754	0.984	1064840	WORD_OFF	n/a	n/a	KEY	5	8	[0, 0, 0]	n/a	FR1	2	R1222M
1058.738	1.616	1065824	WORD	n/a	wordpools/wordpool_EN.txt	ANT	6	8	[0, 0, 0]	n/a	FR1	2	R1222M
1060.354	0.933	1067440	WORD_OFF	n/a	n/a	ANT	6	8	[0, 0, 0]	n/a	FR1	2	R1222M
1061.287	1.602	1068373	WORD	n/a	wordpools/wordpool_EN.txt	SHARK	7	8	[0, 0, 0]	n/a	FR1	2	R1222M
1062.889	0.883	1069975	WORD_OFF	n/a	n/a	SHARK	7	8	[0, 0, 0]	n/a	FR1	2	R1222M
1063.772	1.616	1070858	WORD	n/a	wordpools/wordpool_EN.txt	SPEAR	8	8	[0, 0, 0]	n/a	FR1	2	R1222M
1065.388	0.818	1072474	WORD_OFF	n/a	n/a	SPEAR	8	8	[0, 0, 0]	n/a	FR1	2	R1222M
1066.206	1.617	1073291	WORD	n/a	wordpools/wordpool_EN.txt	DRESS	9	8	[0, 0, 0]	n/a	FR1	2	R1222M
1067.823	0.799	1074908	WORD_OFF	n/a	n/a	DRESS	9	8	[0, 0, 0]	n/a	FR1	2	R1222M
1068.622	1.602	1075707	WORD	n/a	wordpools/wordpool_EN.txt	BOAT	10	8	[0, 0, 0]	n/a	FR1	2	R1222M
1070.224	0.95	1077309	WORD_OFF	n/a	n/a	BOAT	10	8	[0, 0, 0]	n/a	FR1	2	R1222M
1071.174	1.617	1078259	WORD	n/a	wordpools/wordpool_EN.txt	FOOD	11	8	[0, 0, 0]	n/a	FR1	2	R1222M
1072.791	0.95	1079876	WORD_OFF	n/a	n/a	FOOD	11	8	[0, 0, 0]	n/a	FR1	2	R1222M
1073.741	1.616	1080826	WORD	n/a	wordpools/wordpool_EN.txt	BAND	12	8	[0, 0, 0]	n/a	FR1	2	R1222M
1075.357	0.0	1082442	WORD_OFF	n/a	n/a	BAND	12	8	[0, 0, 0]	n/a	FR1	2	R1222M
1075.357	0.0	1082442	DISTRACT_START	n/a	n/a	n/a	-999	8	[0, 0, 0]	n/a	FR1	2	R1222M
1075.357	0.016	1082442	START	n/a	n/a	n/a	-999	8	[-999, -999, -999]	n/a	FR1	2	R1222M
1075.373	6.703	1082458	PROB	6.703	n/a	n/a	-999	8	[4, 7, 8]	19	FR1	2	R1222M
1082.076	4.183	1089161	PROB	4.183	n/a	n/a	-999	8	[1, 6, 1]	8	FR1	2	R1222M
1086.259	5.519	1093343	PROB	5.519	n/a	n/a	-999	8	[6, 4, 3]	13	FR1	2	R1222M
1091.778	7.643	1098862	PROB	7.643	n/a	n/a	-999	8	[9, 2, 4]	15	FR1	2	R1222M
1099.421	0.007	1106505	STOP	n/a	n/a	n/a	-999	8	[-999, -999, -999]	n/a	FR1	2	R1222M
1099.428	0.568	1106512	DISTRACT_END	n/a	n/a	n/a	-999	8	[0, 0, 0]	n/a	FR1	2	R1222M
1099.996	0.516	1107080	RETRIEVAL_ORIENT	n/a	n/a	n/a	-999	8	[0, 0, 0]	n/a	FR1	2	R1222M
1100.512	1.444	1107596	REC_START	n/a	n/a	n/a	-999	8	[0, 0, 0]	n/a	FR1	2	R1222M
1101.956	27.003	1109039	REC_WORD	27.003	n/a	DRESS	-999	8	[0, 0, 0]	n/a	FR1	2	R1222M
1128.959	1.565	1136041	REC_WORD	1.565	n/a	DESK	-999	8	[0, 0, 0]	n/a	FR1	2	R1222M
1130.524	7.129	1137606	REC_END	n/a	n/a	n/a	-999	8	[0, 0, 0]	n/a	FR1	2	R1222M
1137.653	0.5	1144734	TRIAL	n/a	n/a	n/a	-999	9	[0, 0, 0]	n/a	FR1	2	R1222M
1138.153	10.428	1145234	COUNTDOWN_START	n/a	n/a	n/a	-999	9	[0, 0, 0]	n/a	FR1	2	R1222M
1148.581	0.007	1155662	COUNTDOWN_END	n/a	n/a	n/a	-999	9	[0, 0, 0]	n/a	FR1	2	R1222M
1148.588	1.618	1155669	ORIENT	n/a	n/a	n/a	-999	9	[0, 0, 0]	n/a	FR1	2	R1222M
1150.206	1.85	1157287	ORIENT_OFF	n/a	n/a	n/a	-999	9	[0, 0, 0]	n/a	FR1	2	R1222M
1152.056	1.617	1159137	WORD	n/a	wordpools/wordpool_EN.txt	ROOT	1	9	[0, 0, 0]	n/a	FR1	2	R1222M
1153.673	0.766	1160753	WORD_OFF	n/a	n/a	ROOT	1	9	[0, 0, 0]	n/a	FR1	2	R1222M
1154.439	1.618	1161519	WORD	n/a	wordpools/wordpool_EN.txt	ICE	2	9	[0, 0, 0]	n/a	FR1	2	R1222M
1156.057	0.917	1163137	WORD_OFF	n/a	n/a	ICE	2	9	[0, 0, 0]	n/a	FR1	2	R1222M
1156.974	1.616	1164054	WORD	n/a	wordpools/wordpool_EN.txt	FROG	3	9	[0, 0, 0]	n/a	FR1	2	R1222M
1158.59	0.783	1165670	WORD_OFF	n/a	n/a	FROG	3	9	[0, 0, 0]	n/a	FR1	2	R1222M
1159.373	1.618	1166453	WORD	n/a	wordpools/wordpool_EN.txt	JAIL	4	9	[0, 0, 0]	n/a	FR1	2	R1222M
1160.991	0.834	1168071	WORD_OFF	n/a	n/a	JAIL	4	9	[0, 0, 0]	n/a	FR1	2	R1222M
1161.825	1.616	1168905	WORD	n/a	wordpools/wordpool_EN.txt	BRUSH	5	9	[0, 0, 0]	n/a	FR1	2	R1222M
1163.441	1.0	1170521	WORD_OFF	n/a	n/a	BRUSH	5	9	[0, 0, 0]	n/a	FR1	2	R1222M
1164.441	1.618	1171521	WORD	n/a	wordpools/wordpool_EN.txt	SCHOOL	6	9	[0, 0, 0]	n/a	FR1	2	R1222M
1166.059	0.917	1173139	WORD_OFF	n/a	n/a	SCHOOL	6	9	[0, 0, 0]	n/a	FR1	2	R1222M
1166.976	1.616	1174056	WORD	n/a	wordpools/wordpool_EN.txt	BRIDGE	7	9	[0, 0, 0]	n/a	FR1	2	R1222M
1168.592	0.833	1175672	WORD_OFF	n/a	n/a	BRIDGE	7	9	[0, 0, 0]	n/a	FR1	2	R1222M
1169.425	1.618	1176505	WORD	n/a	wordpools/wordpool_EN.txt	HAT	8	9	[0, 0, 0]	n/a	FR1	2	R1222M
1171.043	0.817	1178122	WORD_OFF	n/a	n/a	HAT	8	9	[0, 0, 0]	n/a	FR1	2	R1222M
1171.86	1.616	1178939	WORD	n/a	wordpools/wordpool_EN.txt	TOAD	9	9	[0, 0, 0]	n/a	FR1	2	R1222M
1173.476	0.8	1180555	WORD_OFF	n/a	n/a	TOAD	9	9	[0, 0, 0]	n/a	FR1	2	R1222M
1174.276	1.618	1181355	WORD	n/a	wordpools/wordpool_EN.txt	INK	10	9	[0, 0, 0]	n/a	FR1	2	R1222M
1175.894	0.966	1182973	WORD_OFF	n/a	n/a	INK	10	9	[0, 0, 0]	n/a	FR1	2	R1222M
1176.86	1.617	1183939	WORD	n/a	wordpools/wordpool_EN.txt	ROAD	11	9	[0, 0, 0]	n/a	FR1	2	R1222M
1178.477	0.85	1185556	WORD_OFF	n/a	n/a	ROAD	11	9	[0, 0, 0]	n/a	FR1	2	R1222M
1179.327	1.618	1186406	WORD	n/a	wordpools/wordpool_EN.txt	JUICE	12	9	[0, 0, 0]	n/a	FR1	2	R1222M
1180.945	0.0	1188024	WORD_OFF	n/a	n/a	JUICE	12	9	[0, 0, 0]	n/a	FR1	2	R1222M
1180.945	0.0	1188024	DISTRACT_START	n/a	n/a	n/a	-999	9	[0, 0, 0]	n/a	FR1	2	R1222M
1180.945	0.017	1188024	START	n/a	n/a	n/a	-999	9	[-999, -999, -999]	n/a	FR1	2	R1222M
1180.962	6.533	1188041	PROB	6.533	n/a	n/a	-999	9	[9, 5, 2]	16	FR1	2	R1222M
1187.495	6.286	1194574	PROB	6.286	n/a	n/a	-999	9	[8, 4, 3]	15	FR1	2	R1222M
1193.781	7.225	1200859	PROB	7.225	n/a	n/a	-999	9	[5, 9, 6]	20	FR1	2	R1222M
1201.006	0.009	1208084	STOP	n/a	n/a	n/a	-999	9	[-999, -999, -999]	n/a	FR1	2	R1222M
1201.015	0.599	1208093	DISTRACT_END	n/a	n/a	n/a	-999	9	[0, 0, 0]	n/a	FR1	2	R1222M
1201.614	0.519	1208692	RETRIEVAL_ORIENT	n/a	n/a	n/a	-999	9	[0, 0, 0]	n/a	FR1	2	R1222M
1202.133	0.859	1209211	REC_START	n/a	n/a	n/a	-999	9	[0, 0, 0]	n/a	FR1	2	R1222M
1202.992	1.409	1210070	REC_WORD	1.409	n/a	INK	-999	9	[0, 0, 0]	n/a	FR1	2	R1222M
1204.401	1.675	1211479	REC_WORD	1.675	n/a	ROAD	-999	9	[0, 0, 0]	n/a	FR1	2	R1222M
1206.076	2.035	1213153	REC_WORD	2.035	n/a	BRIDGE	-999	9	[0, 0, 0]	n/a	FR1	2	R1222M
1208.111	1.941	1215188	REC_WORD	1.941	n/a	HAT	-999	9	[0, 0, 0]	n/a	FR1	2	R1222M
1210.052	22.092	1217129	REC_WORD	22.092	n/a	SCHOOL	-999	9	[0, 0, 0]	n/a	FR1	2	R1222M
1232.144	7.228	1239220	REC_END	n/a	n/a	n/a	-999	9	[0, 0, 0]	n/a	FR1	2	R1222M
1239.372	0.5	1246448	TRIAL	n/a	n/a	n/a	-999	10	[0, 0, 0]	n/a	FR1	2	R1222M
1239.872	10.428	1246948	COUNTDOWN_START	n/a	n/a	n/a	-999	10	[0, 0, 0]	n/a	FR1	2	R1222M
1250.3	0.007	1257375	COUNTDOWN_END	n/a	n/a	n/a	-999	10	[0, 0, 0]	n/a	FR1	2	R1222M
1250.307	1.618	1257382	ORIENT	n/a	n/a	n/a	-999	10	[0, 0, 0]	n/a	FR1	2	R1222M
1251.925	2.051	1259000	ORIENT_OFF	n/a	n/a	n/a	-999	10	[0, 0, 0]	n/a	FR1	2	R1222M
1253.976	1.616	1261051	WORD	n/a	wordpools/wordpool_EN.txt	STORM	1	10	[0, 0, 0]	n/a	FR1	2	R1222M
1255.592	0.966	1262667	WORD_OFF	n/a	n/a	STORM	1	10	[0, 0, 0]	n/a	FR1	2	R1222M
1256.558	1.602	1263633	WORD	n/a	wordpools/wordpool_EN.txt	CLOWN	2	10	[0, 0, 0]	n/a	FR1	2	R1222M
1258.16	0.9	1265234	WORD_OFF	n/a	n/a	CLOWN	2	10	[0, 0, 0]	n/a	FR1	2	R1222M
1259.06	1.617	1266134	WORD	n/a	wordpools/wordpool_EN.txt	BEE	3	10	[0, 0, 0]	n/a	FR1	2	R1222M
1260.677	0.882	1267751	WORD_OFF	n/a	n/a	BEE	3	10	[0, 0, 0]	n/a	FR1	2	R1222M
1261.559	1.618	1268633	WORD	n/a	wordpools/wordpool_EN.txt	HOLE	4	10	[0, 0, 0]	n/a	FR1	2	R1222M
1263.177	0.901	1270251	WORD_OFF	n/a	n/a	HOLE	4	10	[0, 0, 0]	n/a	FR1	2	R1222M
1264.078	1.617	1271152	WORD	n/a	wordpools/wordpool_EN.txt	VEST	5	10	[0, 0, 0]	n/a	FR1	2	R1222M
1265.695	0.815	1272769	WORD_OFF	n/a	n/a	VEST	5	10	[0, 0, 0]	n/a	FR1	2	R1222M
1266.51	1.618	1273584	WORD	n/a	wordpools/wordpool_EN.txt	BANK	6	10	[0, 0, 0]	n/a	FR1	2	R1222M
1268.128	0.951	1275202	WORD_OFF	n/a	n/a	BANK	6	10	[0, 0, 0]	n/a	FR1	2	R1222M
1269.079	1.617	1276153	WORD	n/a	wordpools/wordpool_EN.txt	LAMP	7	10	[0, 0, 0]	n/a	FR1	2	R1222M
1270.696	0.983	1277770	WORD_OFF	n/a	n/a	LAMP	7	10	[0, 0, 0]	n/a	FR1	2	R1222M
1271.679	1.616	1278753	WORD	n/a	wordpools/wordpool_EN.txt	BROOM	8	10	[0, 0, 0]	n/a	FR1	2	R1222M
1273.295	0.984	1280369	WORD_OFF	n/a	n/a	BROOM	8	10	[0, 0, 0]	n/a	FR1	2	R1222M
1274.279	1.618	1281353	WORD	n/a	wordpools/wordpool_EN.txt	JAR	9	10	[0, 0, 0]	n/a	FR1	2	R1222M
1275.897	0.95	1282970	WORD_OFF	n/a	n/a	JAR	9	10	[0, 0, 0]	n/a	FR1	2	R1222M
1276.847	1.616	1283920	WORD	n/a	wordpools/wordpool_EN.txt	TOY	10	10	[0, 0, 0]	n/a	FR1	2	R1222M
1278.463	0.867	1285536	WORD_OFF	n/a	n/a	TOY	10	10	[0, 0, 0]	n/a	FR1	2	R1222M
1279.33	1.618	1286403	WORD	n/a	wordpools/wordpool_EN.txt	MUD	11	10	[0, 0, 0]	n/a	FR1	2	R1222M
1280.948	0.833	1288021	WORD_OFF	n/a	n/a	MUD	11	10	[0, 0, 0]	n/a	FR1	2	R1222M
1281.781	1.616	1288854	WORD	n/a	wordpools/wordpool_EN.txt	SOCK	12	10	[0, 0, 0]	n/a	FR1	2	R1222M
1283.397	0.0	1290470	WORD_OFF	n/a	n/a	SOCK	12	10	[0, 0, 0]	n/a	FR1	2	R1222M
1283.397	0.001	1290470	DISTRACT_START	n/a	n/a	n/a	-999	10	[0, 0, 0]	n/a	FR1	2	R1222M
1283.398	0.016	1290471	START	n/a	n/a	n/a	-999	10	[-999, -999, -999]	n/a	FR1	2	R1222M
1283.414	5.917	1290487	PROB	5.917	n/a	n/a	-999	10	[6, 1, 7]	14	FR1	2	R1222M
1289.331	5.168	1296404	PROB	5.168	n/a	n/a	-999	10	[9, 4, 3]	16	FR1	2	R1222M
1294.499	6.001	1301571	PROB	6.001	n/a	n/a	-999	10	[1, 8, 5]	14	FR1	2	R1222M
1300.5	5.586	1307572	PROB	5.586	n/a	n/a	-999	10	[7, 3, 8]	18	FR1	2	R1222M
1306.086	0.016	1313158	STOP	n/a	n/a	n/a	-999	10	[-999, -999, -999]	n/a	FR1	2	R1222M
1306.102	0.701	1313174	DISTRACT_END	n/a	n/a	n/a	-999	10	[0, 0, 0]	n/a	FR1	2	R1222M
1306.803	0.516	1313875	RETRIEVAL_ORIENT	n/a	n/a	n/a	-999	10	[0, 0, 0]	n/a	FR1	2	R1222M
1307.319	1.303	1314391	REC_START	n/a	n/a	n/a	-999	10	[0, 0, 0]	n/a	FR1	2	R1222M
1308.622	18.129	1315694	REC_WORD	18.129	n/a	SOCK	-999	10	[0, 0, 0]	n/a	FR1	2	R1222M
1326.751	2.096	1333822	REC_WORD	2.096	n/a	FROG	-999	10	[0, 0, 0]	n/a	FR1	2	R1222M
1328.847	8.484	1335917	REC_WORD	8.484	n/a	TOAD	-999	10	[0, 0, 0]	n/a	FR1	2	R1222M
1337.331	18.664	1344401	REC_END	n/a	n/a	n/a	-999	10	[0, 0, 0]	n/a	FR1	2	R1222M
1355.995	0.5	1363064	TRIAL	n/a	n/a	n/a	-999	11	[0, 0, 0]	n/a	FR1	2	R1222M
1356.495	10.428	1363564	COUNTDOWN_START	n/a	n/a	n/a	-999	11	[0, 0, 0]	n/a	FR1	2	R1222M
1366.923	0.008	1373991	COUNTDOWN_END	n/a	n/a	n/a	-999	11	[0, 0, 0]	n/a	FR1	2	R1222M
1366.931	1.616	1373999	ORIENT	n/a	n/a	n/a	-999	11	[0, 0, 0]	n/a	FR1	2	R1222M
1368.547	2.285	1375615	ORIENT_OFF	n/a	n/a	n/a	-999	11	[0, 0, 0]	n/a	FR1	2	R1222M
1370.832	1.616	1377900	WORD	n/a	wordpools/wordpool_EN.txt	GUARD	1	11	[0, 0, 0]	n/a	FR1	2	R1222M
1372.448	0.816	1379516	WORD_OFF	n/a	n/a	GUARD	1	11	[0, 0, 0]	n/a	FR1	2	R1222M
1373.264	1.618	1380332	WORD	n/a	wordpools/wordpool_EN.txt	CHAIR	2	11	[0, 0, 0]	n/a	FR1	2	R1222M
1374.882	0.817	1381950	WORD_OFF	n/a	n/a	CHAIR	2	11	[0, 0, 0]	n/a	FR1	2	R1222M
1375.699	1.616	1382767	WORD	n/a	wordpools/wordpool_EN.txt	NAIL	3	11	[0, 0, 0]	n/a	FR1	2	R1222M
1377.315	0.851	1384383	WORD_OFF	n/a	n/a	NAIL	3	11	[0, 0, 0]	n/a	FR1	2	R1222M
1378.166	1.617	1385234	WORD	n/a	wordpools/wordpool_EN.txt	LAND	4	11	[0, 0, 0]	n/a	FR1	2	R1222M
1379.783	0.884	1386851	WORD_OFF	n/a	n/a	LAND	4	11	[0, 0, 0]	n/a	FR1	2	R1222M
1380.667	1.616	1387734	WORD	n/a	wordpools/wordpool_EN.txt	LOCK	5	11	[0, 0, 0]	n/a	FR1	2	R1222M
1382.283	0.951	1389350	WORD_OFF	n/a	n/a	LOCK	5	11	[0, 0, 0]	n/a	FR1	2	R1222M
1383.234	1.617	1390301	WORD	n/a	wordpools/wordpool_EN.txt	STONE	6	11	[0, 0, 0]	n/a	FR1	2	R1222M
1384.851	0.867	1391918	WORD_OFF	n/a	n/a	STONE	6	11	[0, 0, 0]	n/a	FR1	2	R1222M
1385.718	1.616	1392785	WORD	n/a	wordpools/wordpool_EN.txt	CRANE	7	11	[0, 0, 0]	n/a	FR1	2	R1222M
1387.334	0.967	1394401	WORD_OFF	n/a	n/a	CRANE	7	11	[0, 0, 0]	n/a	FR1	2	R1222M
1388.301	1.601	1395368	WORD	n/a	wordpools/wordpool_EN.txt	BAG	8	11	[0, 0, 0]	n/a	FR1	2	R1222M
1389.902	0.984	1396969	WORD_OFF	n/a	n/a	BAG	8	11	[0, 0, 0]	n/a	FR1	2	R1222M
1390.886	1.615	1397953	WORD	n/a	wordpools/wordpool_EN.txt	WORLD	9	11	[0, 0, 0]	n/a	FR1	2	R1222M
1392.501	0.851	1399568	WORD_OFF	n/a	n/a	WORLD	9	11	[0, 0, 0]	n/a	FR1	2	R1222M
1393.352	1.618	1400419	WORD	n/a	wordpools/wordpool_EN.txt	STOOL	10	11	[0, 0, 0]	n/a	FR1	2	R1222M
1394.97	0.866	1402037	WORD_OFF	n/a	n/a	STOOL	10	11	[0, 0, 0]	n/a	FR1	2	R1222M
1395.836	1.616	1402903	WORD	n/a	wordpools/wordpool_EN.txt	NOSE	11	11	[0, 0, 0]	n/a	FR1	2	R1222M
1397.452	0.951	1404518	WORD_OFF	n/a	n/a	NOSE	11	11	[0, 0, 0]	n/a	FR1	2	R1222M
1398.403	1.618	1405469	WORD	n/a	wordpools/wordpool_EN.txt	PEN	12	11	[0, 0, 0]	n/a	FR1	2	R1222M
1400.021	0.0	1407087	WORD_OFF	n/a	n/a	PEN	12	11	[0, 0, 0]	n/a	FR1	2	R1222M
1400.021	0.0	1407087	DISTRACT_START	n/a	n/a	n/a	-999	11	[0, 0, 0]	n/a	FR1	2	R1222M
1400.021	0.016	1407087	START	n/a	n/a	n/a	-999	11	[-999, -999, -999]	n/a	FR1	2	R1222M
1400.037	8.085	1407103	PROB	8.085	n/a	n/a	-999	11	[3, 8, 6]	17	FR1	2	R1222M
1408.122	7.702	1415188	PROB	7.702	n/a	n/a	-999	11	[9, 9, 5]	23	FR1	2	R1222M
1415.824	7.484	1422889	PROB	7.484	n/a	n/a	-999	11	[8, 8, 3]	19	FR1	2	R1222M
1423.308	0.016	1430373	STOP	n/a	n/a	n/a	-999	11	[-999, -999, -999]	n/a	FR1	2	R1222M
1423.324	0.551	1430389	DISTRACT_END	n/a	n/a	n/a	-999	11	[0, 0, 0]	n/a	FR1	2	R1222M
1423.875	0.517	1430940	RETRIEVAL_ORIENT	n/a	n/a	n/a	-999	11	[0, 0, 0]	n/a	FR1	2	R1222M
1424.392	2.622	1431457	REC_START	n/a	n/a	n/a	-999	11	[0, 0, 0]	n/a	FR1	2	R1222M
1427.014	1.464	1434079	REC_WORD	1.464	n/a	CHAIR	-999	11	[0, 0, 0]	n/a	FR1	2	R1222M
1428.478	11.435	1435543	REC_WORD	11.435	n/a	STOOL	-999	11	[0, 0, 0]	n/a	FR1	2	R1222M
1439.913	14.491	1446977	REC_WORD	14.491	n/a	LAND	-999	11	[0, 0, 0]	n/a	FR1	2	R1222M
1454.404	7.295	1461467	REC_END	n/a	n/a	n/a	-999	11	[0, 0, 0]	n/a	FR1	2	R1222M
1461.699	0.5	1468762	TRIAL	n/a	n/a	n/a	-999	12	[0, 0, 0]	n/a	FR1	2	R1222M
1462.199	10.428	1469262	COUNTDOWN_START	n/a	n/a	n/a	-999	12	[0, 0, 0]	n/a	FR1	2	R1222M
1472.627	0.008	1479689	COUNTDOWN_END	n/a	n/a	n/a	-999	12	[0, 0, 0]	n/a	FR1	2	R1222M
1472.635	1.616	1479697	ORIENT	n/a	n/a	n/a	-999	12	[0, 0, 0]	n/a	FR1	2	R1222M
1474.251	2.15	1481313	ORIENT_OFF	n/a	n/a	n/a	-999	12	[0, 0, 0]	n/a	FR1	2	R1222M
1476.401	1.618	1483463	WORD	n/a	wordpools/wordpool_EN.txt	FLOOR	1	12	[0, 0, 0]	n/a	FR1	2	R1222M
1478.019	1.0	1485081	WORD_OFF	n/a	n/a	FLOOR	1	12	[0, 0, 0]	n/a	FR1	2	R1222M
1479.019	1.617	1486081	WORD	n/a	wordpools/wordpool_EN.txt	TRASH	2	12	[0, 0, 0]	n/a	FR1	2	R1222M
1480.636	1.0	1487698	WORD_OFF	n/a	n/a	TRASH	2	12	[0, 0, 0]	n/a	FR1	2	R1222M
1481.636	1.616	1488698	WORD	n/a	wordpools/wordpool_EN.txt	SHELL	3	12	[0, 0, 0]	n/a	FR1	2	R1222M
1483.252	0.968	1490314	WORD_OFF	n/a	n/a	SHELL	3	12	[0, 0, 0]	n/a	FR1	2	R1222M
1484.22	1.617	1491282	WORD	n/a	wordpools/wordpool_EN.txt	GOAT	4	12	[0, 0, 0]	n/a	FR1	2	R1222M
1485.837	0.884	1492898	WORD_OFF	n/a	n/a	GOAT	4	12	[0, 0, 0]	n/a	FR1	2	R1222M
1486.721	1.616	1493782	WORD	n/a	wordpools/wordpool_EN.txt	OAR	5	12	[0, 0, 0]	n/a	FR1	2	R1222M
1488.337	0.767	1495398	WORD_OFF	n/a	n/a	OAR	5	12	[0, 0, 0]	n/a	FR1	2	R1222M
1489.104	1.617	1496165	WORD	n/a	wordpools/wordpool_EN.txt	LAKE	6	12	[0, 0, 0]	n/a	FR1	2	R1222M
1490.721	1.001	1497782	WORD_OFF	n/a	n/a	LAKE	6	12	[0, 0, 0]	n/a	FR1	2	R1222M
1491.722	1.616	1498783	WORD	n/a	wordpools/wordpool_EN.txt	STEAM	7	12	[0, 0, 0]	n/a	FR1	2	R1222M
1493.338	0.817	1500399	WORD_OFF	n/a	n/a	STEAM	7	12	[0, 0, 0]	n/a	FR1	2	R1222M
1494.155	1.617	1501216	WORD	n/a	wordpools/wordpool_EN.txt	HOSE	8	12	[0, 0, 0]	n/a	FR1	2	R1222M
1495.772	0.967	1502833	WORD_OFF	n/a	n/a	HOSE	8	12	[0, 0, 0]	n/a	FR1	2	R1222M
1496.739	1.616	1503800	WORD	n/a	wordpools/wordpool_EN.txt	GLOVE	9	12	[0, 0, 0]	n/a	FR1	2	R1222M
1498.355	0.785	1505416	WORD_OFF	n/a	n/a	GLOVE	9	12	[0, 0, 0]	n/a	FR1	2	R1222M
1499.14	1.617	1506201	WORD	n/a	wordpools/wordpool_EN.txt	MOLE	10	12	[0, 0, 0]	n/a	FR1	2	R1222M
1500.757	0.983	1507818	WORD_OFF	n/a	n/a	MOLE	10	12	[0, 0, 0]	n/a	FR1	2	R1222M
1501.74	1.616	1508801	WORD	n/a	wordpools/wordpool_EN.txt	POLE	11	12	[0, 0, 0]	n/a	FR1	2	R1222M
1503.356	0.851	1510416	WORD_OFF	n/a	n/a	POLE	11	12	[0, 0, 0]	n/a	FR1	2	R1222M
1504.207	1.617	1511267	WORD	n/a	wordpools/wordpool_EN.txt	ZOO	12	12	[0, 0, 0]	n/a	FR1	2	R1222M
1505.824	0.0	1512884	WORD_OFF	n/a	n/a	ZOO	12	12	[0, 0, 0]	n/a	FR1	2	R1222M
1505.824	0.001	1512884	DISTRACT_START	n/a	n/a	n/a	-999	12	[0, 0, 0]	n/a	FR1	2	R1222M
1505.825	0.016	1512885	START	n/a	n/a	n/a	-999	12	[-999, -999, -999]	n/a	FR1	2	R1222M
1505.841	5.667	1512901	PROB	5.667	n/a	n/a	-999	12	[8, 2, 6]	16	FR1	2	R1222M
1511.508	7.084	1518568	PROB	7.084	n/a	n/a	-999	12	[6, 9, 3]	18	FR1	2	R1222M
1518.592	4.602	1525652	PROB	4.602	n/a	n/a	-999	12	[4, 1, 2]	7	FR1	2	R1222M
1523.194	8.059	1530253	PROB	8.059	n/a	n/a	-999	12	[7, 7, 8]	22	FR1	2	R1222M
1531.253	0.009	1538312	STOP	n/a	n/a	n/a	-999	12	[-999, -999, -999]	n/a	FR1	2	R1222M
1531.262	0.517	1538321	DISTRACT_END	n/a	n/a	n/a	-999	12	[0, 0, 0]	n/a	FR1	2	R1222M
1531.779	0.517	1538838	RETRIEVAL_ORIENT	n/a	n/a	n/a	-999	12	[0, 0, 0]	n/a	FR1	2	R1222M
1532.296	1.905	1539355	REC_START	n/a	n/a	n/a	-999	12	[0, 0, 0]	n/a	FR1	2	R1222M
1534.201	9.143	1541260	REC_WORD	9.143	n/a	POLE	-999	12	[0, 0, 0]	n/a	FR1	2	R1222M
1543.344	2.225	1550402	REC_WORD	2.225	n/a	OAR	-999	12	[0, 0, 0]	n/a	FR1	2	R1222M
1545.569	8.208	1552627	REC_WORD	8.208	n/a	LAKE	-999	12	[0, 0, 0]	n/a	FR1	2	R1222M
1553.777	8.531	1560835	REC_WORD	8.531	n/a	GUARD	-999	12	[0, 0, 0]	n/a	FR1	2	R1222M
1562.308	23.332	1569365	REC_END	n/a	n/a	n/a	-999	12	[0, 0, 0]	n/a	FR1	2	R1222M
1585.64	0.5	1592696	TRIAL	n/a	n/a	n/a	-999	13	[0, 0, 0]	n/a	FR1	2	R1222M
1586.14	10.428	1593196	COUNTDOWN_START	n/a	n/a	n/a	-999	13	[0, 0, 0]	n/a	FR1	2	R1222M
1596.568	0.006	1603623	COUNTDOWN_END	n/a	n/a	n/a	-999	13	[0, 0, 0]	n/a	FR1	2	R1222M
1596.574	1.618	1603629	ORIENT	n/a	n/a	n/a	-999	13	[0, 0, 0]	n/a	FR1	2	R1222M
1598.192	2.166	1605247	ORIENT_OFF	n/a	n/a	n/a	-999	13	[0, 0, 0]	n/a	FR1	2	R1222M
1600.358	1.618	1607413	WORD	n/a	wordpools/wordpool_EN.txt	FLAME	1	13	[0, 0, 0]	n/a	FR1	2	R1222M
1601.976	0.767	1609031	WORD_OFF	n/a	n/a	FLAME	1	13	[0, 0, 0]	n/a	FR1	2	R1222M
1602.743	1.616	1609798	WORD	n/a	wordpools/wordpool_EN.txt	SEA	2	13	[0, 0, 0]	n/a	FR1	2	R1222M
1604.359	0.884	1611414	WORD_OFF	n/a	n/a	SEA	2	13	[0, 0, 0]	n/a	FR1	2	R1222M
1605.243	1.618	1612298	WORD	n/a	wordpools/wordpool_EN.txt	FORK	3	13	[0, 0, 0]	n/a	FR1	2	R1222M
1606.861	0.883	1613915	WORD_OFF	n/a	n/a	FORK	3	13	[0, 0, 0]	n/a	FR1	2	R1222M
1607.744	1.616	1614798	WORD	n/a	wordpools/wordpool_EN.txt	HOOK	4	13	[0, 0, 0]	n/a	FR1	2	R1222M
1609.36	0.768	1616414	WORD_OFF	n/a	n/a	HOOK	4	13	[0, 0, 0]	n/a	FR1	2	R1222M
1610.128	1.617	1617182	WORD	n/a	wordpools/wordpool_EN.txt	LAMB	5	13	[0, 0, 0]	n/a	FR1	2	R1222M
1611.745	0.9	1618799	WORD_OFF	n/a	n/a	LAMB	5	13	[0, 0, 0]	n/a	FR1	2	R1222M
1612.645	1.616	1619699	WORD	n/a	wordpools/wordpool_EN.txt	CAR	6	13	[0, 0, 0]	n/a	FR1	2	R1222M
1614.261	0.951	1621315	WORD_OFF	n/a	n/a	CAR	6	13	[0, 0, 0]	n/a	FR1	2	R1222M
1615.212	1.617	1622266	WORD	n/a	wordpools/wordpool_EN.txt	EAR	7	13	[0, 0, 0]	n/a	FR1	2	R1222M
1616.829	0.95	1623883	WORD_OFF	n/a	n/a	EAR	7	13	[0, 0, 0]	n/a	FR1	2	R1222M
1617.779	1.616	1624833	WORD	n/a	wordpools/wordpool_EN.txt	DITCH	8	13	[0, 0, 0]	n/a	FR1	2	R1222M
1619.395	0.917	1626449	WORD_OFF	n/a	n/a	DITCH	8	13	[0, 0, 0]	n/a	FR1	2	R1222M
1620.312	1.618	1627366	WORD	n/a	wordpools/wordpool_EN.txt	KITE	9	13	[0, 0, 0]	n/a	FR1	2	R1222M
1621.93	0.9	1628984	WORD_OFF	n/a	n/a	KITE	9	13	[0, 0, 0]	n/a	FR1	2	R1222M
1622.83	1.616	1629884	WORD	n/a	wordpools/wordpool_EN.txt	MAP	10	13	[0, 0, 0]	n/a	FR1	2	R1222M
1624.446	0.917	1631499	WORD_OFF	n/a	n/a	MAP	10	13	[0, 0, 0]	n/a	FR1	2	R1222M
1625.363	1.618	1632416	WORD	n/a	wordpools/wordpool_EN.txt	PARK	11	13	[0, 0, 0]	n/a	FR1	2	R1222M
1626.981	1.0	1634034	WORD_OFF	n/a	n/a	PARK	11	13	[0, 0, 0]	n/a	FR1	2	R1222M
1627.981	1.616	1635034	WORD	n/a	wordpools/wordpool_EN.txt	CROWN	12	13	[0, 0, 0]	n/a	FR1	2	R1222M
1629.597	0.0	1636650	DISTRACT_START	n/a	n/a	n/a	-999	13	[0, 0, 0]	n/a	FR1	2	R1222M
1629.597	0.001	1636650	WORD_OFF	n/a	n/a	CROWN	12	13	[0, 0, 0]	n/a	FR1	2	R1222M
1629.598	0.016	1636651	START	n/a	n/a	n/a	-999	13	[-999, -999, -999]	n/a	FR1	2	R1222M
1629.614	5.102	1636667	PROB	5.102	n/a	n/a	-999	13	[9, 1, 3]	13	FR1	2	R1222M
1634.716	3.733	1641769	PROB	3.733	n/a	n/a	-999	13	[5, 2, 2]	9	FR1	2	R1222M
1638.449	4.984	1645502	PROB	4.984	n/a	n/a	-999	13	[2, 4, 6]	12	FR1	2	R1222M
1643.433	6.9	1650485	PROB	6.9	n/a	n/a	-999	13	[9, 4, 8]	21	FR1	2	R1222M
1650.333	0.018	1657385	STOP	n/a	n/a	n/a	-999	13	[-999, -999, -999]	n/a	FR1	2	R1222M
1650.351	0.585	1657403	DISTRACT_END	n/a	n/a	n/a	-999	13	[0, 0, 0]	n/a	FR1	2	R1222M
1650.936	0.516	1657988	RETRIEVAL_ORIENT	n/a	n/a	n/a	-999	13	[0, 0, 0]	n/a	FR1	2	R1222M
1651.452	1.498	1658504	REC_START	n/a	n/a	n/a	-999	13	[0, 0, 0]	n/a	FR1	2	R1222M
1652.95	3.874	1660002	REC_WORD	3.874	n/a	CROWN	-999	13	[0, 0, 0]	n/a	FR1	2	R1222M
1656.824	19.833	1663876	REC_WORD	19.833	n/a	FLAME	-999	13	[0, 0, 0]	n/a	FR1	2	R1222M
1676.657	4.805	1683707	REC_WORD	4.805	n/a	KITE	-999	13	[0, 0, 0]	n/a	FR1	2	R1222M
1681.462	6.748	1688512	REC_END	n/a	n/a	n/a	-999	13	[0, 0, 0]	n/a	FR1	2	R1222M
1688.21	0.5	1695260	TRIAL	n/a	n/a	n/a	-999	14	[0, 0, 0]	n/a	FR1	2	R1222M
1688.71	10.428	1695760	COUNTDOWN_START	n/a	n/a	n/a	-999	14	[0, 0, 0]	n/a	FR1	2	R1222M
1699.138	0.007	1706187	COUNTDOWN_END	n/a	n/a	n/a	-999	14	[0, 0, 0]	n/a	FR1	2	R1222M
1699.145	1.617	1706194	ORIENT	n/a	n/a	n/a	-999	14	[0, 0, 0]	n/a	FR1	2	R1222M
1700.762	1.95	1707811	ORIENT_OFF	n/a	n/a	n/a	-999	14	[0, 0, 0]	n/a	FR1	2	R1222M
1702.712	1.616	1709761	WORD	n/a	wordpools/wordpool_EN.txt	BLUSH	1	14	[0, 0, 0]	n/a	FR1	2	R1222M
1704.328	0.818	1711377	WORD_OFF	n/a	n/a	BLUSH	1	14	[0, 0, 0]	n/a	FR1	2	R1222M
1705.146	1.617	1712195	WORD	n/a	wordpools/wordpool_EN.txt	SLEEVE	2	14	[0, 0, 0]	n/a	FR1	2	R1222M
1706.763	0.884	1713812	WORD_OFF	n/a	n/a	SLEEVE	2	14	[0, 0, 0]	n/a	FR1	2	R1222M
1707.647	1.616	1714696	WORD	n/a	wordpools/wordpool_EN.txt	WEB	3	14	[0, 0, 0]	n/a	FR1	2	R1222M
1709.263	0.917	1716312	WORD_OFF	n/a	n/a	WEB	3	14	[0, 0, 0]	n/a	FR1	2	R1222M
1710.18	1.618	1717229	WORD	n/a	wordpools/wordpool_EN.txt	CLOCK	4	14	[0, 0, 0]	n/a	FR1	2	R1222M
1711.798	1.0	1718846	WORD_OFF	n/a	n/a	CLOCK	4	14	[0, 0, 0]	n/a	FR1	2	R1222M
1712.798	1.616	1719846	WORD	n/a	wordpools/wordpool_EN.txt	CAVE	5	14	[0, 0, 0]	n/a	FR1	2	R1222M
1714.414	0.917	1721462	WORD_OFF	n/a	n/a	CAVE	5	14	[0, 0, 0]	n/a	FR1	2	R1222M
1715.331	1.618	1722379	WORD	n/a	wordpools/wordpool_EN.txt	CHIN	6	14	[0, 0, 0]	n/a	FR1	2	R1222M
1716.949	0.916	1723997	WORD_OFF	n/a	n/a	CHIN	6	14	[0, 0, 0]	n/a	FR1	2	R1222M
1717.865	1.616	1724913	WORD	n/a	wordpools/wordpool_EN.txt	PIPE	7	14	[0, 0, 0]	n/a	FR1	2	R1222M
1719.481	0.768	1726529	WORD_OFF	n/a	n/a	PIPE	7	14	[0, 0, 0]	n/a	FR1	2	R1222M
1720.249	1.617	1727297	WORD	n/a	wordpools/wordpool_EN.txt	PLANE	8	14	[0, 0, 0]	n/a	FR1	2	R1222M
1721.866	0.917	1728914	WORD_OFF	n/a	n/a	PLANE	8	14	[0, 0, 0]	n/a	FR1	2	R1222M
1722.783	1.616	1729831	WORD	n/a	wordpools/wordpool_EN.txt	LEG	9	14	[0, 0, 0]	n/a	FR1	2	R1222M
1724.399	0.883	1731447	WORD_OFF	n/a	n/a	LEG	9	14	[0, 0, 0]	n/a	FR1	2	R1222M
1725.282	1.601	1732330	WORD	n/a	wordpools/wordpool_EN.txt	SHIELD	10	14	[0, 0, 0]	n/a	FR1	2	R1222M
1726.883	0.934	1733931	WORD_OFF	n/a	n/a	SHIELD	10	14	[0, 0, 0]	n/a	FR1	2	R1222M
1727.817	1.616	1734865	WORD	n/a	wordpools/wordpool_EN.txt	FOX	11	14	[0, 0, 0]	n/a	FR1	2	R1222M
1729.433	0.801	1736480	WORD_OFF	n/a	n/a	FOX	11	14	[0, 0, 0]	n/a	FR1	2	R1222M
1730.234	1.617	1737281	WORD	n/a	wordpools/wordpool_EN.txt	FOOT	12	14	[0, 0, 0]	n/a	FR1	2	R1222M
1731.851	0.0	1738898	WORD_OFF	n/a	n/a	FOOT	12	14	[0, 0, 0]	n/a	FR1	2	R1222M
1731.851	0.001	1738898	DISTRACT_START	n/a	n/a	n/a	-999	14	[0, 0, 0]	n/a	FR1	2	R1222M
1731.852	0.016	1738899	START	n/a	n/a	n/a	-999	14	[-999, -999, -999]	n/a	FR1	2	R1222M
1731.868	6.434	1738915	PROB	6.434	n/a	n/a	-999	14	[9, 9, 3]	21	FR1	2	R1222M
1738.302	6.502	1745349	PROB	6.502	n/a	n/a	-999	14	[1, 2, 4]	7	FR1	2	R1222M
1744.804	13.258	1751851	PROB	13.258	n/a	n/a	-999	14	[8, 8, 8]	24	FR1	2	R1222M
1758.062	0.011	1765108	STOP	n/a	n/a	n/a	-999	14	[-999, -999, -999]	n/a	FR1	2	R1222M
1758.073	0.684	1765119	DISTRACT_END	n/a	n/a	n/a	-999	14	[0, 0, 0]	n/a	FR1	2	R1222M
1758.757	0.516	1765803	RETRIEVAL_ORIENT	n/a	n/a	n/a	-999	14	[0, 0, 0]	n/a	FR1	2	R1222M
1759.273	1.248	1766319	REC_START	n/a	n/a	n/a	-999	14	[0, 0, 0]	n/a	FR1	2	R1222M
1760.521	2.859	1767567	REC_WORD	2.859	n/a	FOOT	-999	14	[0, 0, 0]	n/a	FR1	2	R1222M
1763.38	7.489	1770425	REC_WORD	7.489	n/a	WEB	-999	14	[0, 0, 0]	n/a	FR1	2	R1222M
1770.869	12.999	1777914	REC_WORD	12.999	n/a	SHIELD	-999	14	[0, 0, 0]	n/a	FR1	2	R1222M
1783.868	5.415	1790912	REC_WORD	5.415	n/a	SLEEVE	-999	14	[0, 0, 0]	n/a	FR1	2	R1222M
1789.283	6.664	1796327	REC_END	n/a	n/a	n/a	-999	14	[0, 0, 0]	n/a	FR1	2	R1222M
1795.947	0.5	1802991	TRIAL	n/a	n/a	n/a	-999	15	[0, 0, 0]	n/a	FR1	2	R1222M
1796.447	10.428	1803491	COUNTDOWN_START	n/a	n/a	n/a	-999	15	[0, 0, 0]	n/a	FR1	2	R1222M
1806.875	0.007	1813918	COUNTDOWN_END	n/a	n/a	n/a	-999	15	[0, 0, 0]	n/a	FR1	2	R1222M
1806.882	1.616	1813925	ORIENT	n/a	n/a	n/a	-999	15	[0, 0, 0]	n/a	FR1	2	R1222M
1808.498	2.269	1815541	ORIENT_OFF	n/a	n/a	n/a	-999	15	[0, 0, 0]	n/a	FR1	2	R1222M
1810.767	1.616	1817810	WORD	n/a	wordpools/wordpool_EN.txt	PEA	1	15	[0, 0, 0]	n/a	FR1	2	R1222M
1812.383	0.9	1819426	WORD_OFF	n/a	n/a	PEA	1	15	[0, 0, 0]	n/a	FR1	2	R1222M
1813.283	1.618	1820326	WORD	n/a	wordpools/wordpool_EN.txt	CUP	2	15	[0, 0, 0]	n/a	FR1	2	R1222M
1814.901	0.85	1821944	WORD_OFF	n/a	n/a	CUP	2	15	[0, 0, 0]	n/a	FR1	2	R1222M
1815.751	1.616	1822793	WORD	n/a	wordpools/wordpool_EN.txt	SEED	3	15	[0, 0, 0]	n/a	FR1	2	R1222M
1817.367	0.834	1824409	WORD_OFF	n/a	n/a	SEED	3	15	[0, 0, 0]	n/a	FR1	2	R1222M
1818.201	1.617	1825243	WORD	n/a	wordpools/wordpool_EN.txt	BOX	4	15	[0, 0, 0]	n/a	FR1	2	R1222M
1819.818	0.984	1826860	WORD_OFF	n/a	n/a	BOX	4	15	[0, 0, 0]	n/a	FR1	2	R1222M
1820.802	1.616	1827844	WORD	n/a	wordpools/wordpool_EN.txt	PEARL	5	15	[0, 0, 0]	n/a	FR1	2	R1222M
1822.418	0.801	1829460	WORD_OFF	n/a	n/a	PEARL	5	15	[0, 0, 0]	n/a	FR1	2	R1222M
1823.219	1.617	1830261	WORD	n/a	wordpools/wordpool_EN.txt	DIME	6	15	[0, 0, 0]	n/a	FR1	2	R1222M
1824.836	0.983	1831878	WORD_OFF	n/a	n/a	DIME	6	15	[0, 0, 0]	n/a	FR1	2	R1222M
1825.819	1.616	1832861	WORD	n/a	wordpools/wordpool_EN.txt	FRUIT	7	15	[0, 0, 0]	n/a	FR1	2	R1222M
1827.435	0.967	1834477	WORD_OFF	n/a	n/a	FRUIT	7	15	[0, 0, 0]	n/a	FR1	2	R1222M
1828.402	1.618	1835444	WORD	n/a	wordpools/wordpool_EN.txt	SINK	8	15	[0, 0, 0]	n/a	FR1	2	R1222M
1830.02	0.934	1837062	WORD_OFF	n/a	n/a	SINK	8	15	[0, 0, 0]	n/a	FR1	2	R1222M
1830.954	1.616	1837996	WORD	n/a	wordpools/wordpool_EN.txt	STEM	9	15	[0, 0, 0]	n/a	FR1	2	R1222M
1832.57	0.767	1839612	WORD_OFF	n/a	n/a	STEM	9	15	[0, 0, 0]	n/a	FR1	2	R1222M
1833.337	1.618	1840378	WORD	n/a	wordpools/wordpool_EN.txt	WORM	10	15	[0, 0, 0]	n/a	FR1	2	R1222M
1834.955	1.0	1841996	WORD_OFF	n/a	n/a	WORM	10	15	[0, 0, 0]	n/a	FR1	2	R1222M
1835.955	1.616	1842996	WORD	n/a	wordpools/wordpool_EN.txt	SPOON	11	15	[0, 0, 0]	n/a	FR1	2	R1222M
1837.571	0.783	1844612	WORD_OFF	n/a	n/a	SPOON	11	15	[0, 0, 0]	n/a	FR1	2	R1222M
1838.354	1.618	1845395	WORD	n/a	wordpools/wordpool_EN.txt	PET	12	15	[0, 0, 0]	n/a	FR1	2	R1222M
1839.972	0.0	1847013	DISTRACT_START	n/a	n/a	n/a	-999	15	[0, 0, 0]	n/a	FR1	2	R1222M
1839.972	0.001	1847013	WORD_OFF	n/a	n/a	PET	12	15	[0, 0, 0]	n/a	FR1	2	R1222M
1839.973	0.016	1847014	START	n/a	n/a	n/a	-999	15	[-999, -999, -999]	n/a	FR1	2	R1222M
1839.989	6.334	1847030	PROB	6.334	n/a	n/a	-999	15	[6, 4, 8]	18	FR1	2	R1222M
1846.323	4.167	1853364	PROB	4.167	n/a	n/a	-999	15	[1, 5, 3]	9	FR1	2	R1222M
1850.49	4.385	1857530	PROB	4.385	n/a	n/a	-999	15	[6, 1, 1]	8	FR1	2	R1222M
1854.875	4.918	1861915	PROB	4.918	n/a	n/a	-999	15	[7, 3, 3]	13	FR1	2	R1222M
1859.793	12.221	1866833	PROB	12.221	n/a	n/a	-999	15	[4, 9, 6]	19	FR1	2	R1222M
1872.014	0.015	1879053	STOP	n/a	n/a	n/a	-999	15	[-999, -999, -999]	n/a	FR1	2	R1222M
1872.029	0.65	1879068	DISTRACT_END	n/a	n/a	n/a	-999	15	[0, 0, 0]	n/a	FR1	2	R1222M
1872.679	0.517	1879718	RETRIEVAL_ORIENT	n/a	n/a	n/a	-999	15	[0, 0, 0]	n/a	FR1	2	R1222M
1873.196	1.532	1880235	REC_START	n/a	n/a	n/a	-999	15	[0, 0, 0]	n/a	FR1	2	R1222M
1874.728	1.437	1881767	REC_WORD	1.437	n/a	PET	-999	15	[0, 0, 0]	n/a	FR1	2	R1222M
1876.165	3.861	1883204	REC_WORD	3.861	n/a	SPOON	-999	15	[0, 0, 0]	n/a	FR1	2	R1222M
1880.026	23.18	1887065	REC_WORD	23.18	n/a	FRUIT	-999	15	[0, 0, 0]	n/a	FR1	2	R1222M
1903.206	6.329	1910243	REC_END	n/a	n/a	n/a	-999	15	[0, 0, 0]	n/a	FR1	2	R1222M
1909.535	0.5	1916572	TRIAL	n/a	n/a	n/a	-999	16	[0, 0, 0]	n/a	FR1	2	R1222M
1910.035	10.428	1917072	COUNTDOWN_START	n/a	n/a	n/a	-999	16	[0, 0, 0]	n/a	FR1	2	R1222M
1920.463	0.007	1927499	COUNTDOWN_END	n/a	n/a	n/a	-999	16	[0, 0, 0]	n/a	FR1	2	R1222M
1920.47	1.618	1927506	ORIENT	n/a	n/a	n/a	-999	16	[0, 0, 0]	n/a	FR1	2	R1222M
1922.088	1.917	1929124	ORIENT_OFF	n/a	n/a	n/a	-999	16	[0, 0, 0]	n/a	FR1	2	R1222M
1924.005	1.616	1931041	WORD	n/a	wordpools/wordpool_EN.txt	WAND	1	16	[0, 0, 0]	n/a	FR1	2	R1222M
1925.621	0.817	1932657	WORD_OFF	n/a	n/a	WAND	1	16	[0, 0, 0]	n/a	FR1	2	R1222M
1926.438	1.618	1933474	WORD	n/a	wordpools/wordpool_EN.txt	WAVE	2	16	[0, 0, 0]	n/a	FR1	2	R1222M
1928.056	0.967	1935092	WORD_OFF	n/a	n/a	WAVE	2	16	[0, 0, 0]	n/a	FR1	2	R1222M
1929.023	1.617	1936059	WORD	n/a	wordpools/wordpool_EN.txt	FLAG	3	16	[0, 0, 0]	n/a	FR1	2	R1222M
1930.64	0.866	1937676	WORD_OFF	n/a	n/a	FLAG	3	16	[0, 0, 0]	n/a	FR1	2	R1222M
1931.506	1.618	1938542	WORD	n/a	wordpools/wordpool_EN.txt	PIG	4	16	[0, 0, 0]	n/a	FR1	2	R1222M
1933.124	0.816	1940160	WORD_OFF	n/a	n/a	PIG	4	16	[0, 0, 0]	n/a	FR1	2	R1222M
1933.94	1.616	1940976	WORD	n/a	wordpools/wordpool_EN.txt	CAT	5	16	[0, 0, 0]	n/a	FR1	2	R1222M
1935.556	1.001	1942592	WORD_OFF	n/a	n/a	CAT	5	16	[0, 0, 0]	n/a	FR1	2	R1222M
1936.557	1.618	1943593	WORD	n/a	wordpools/wordpool_EN.txt	TEA	6	16	[0, 0, 0]	n/a	FR1	2	R1222M
1938.175	1.0	1945210	WORD_OFF	n/a	n/a	TEA	6	16	[0, 0, 0]	n/a	FR1	2	R1222M
1939.175	1.617	1946210	WORD	n/a	wordpools/wordpool_EN.txt	ROCK	7	16	[0, 0, 0]	n/a	FR1	2	R1222M
1940.792	0.95	1947827	WORD_OFF	n/a	n/a	ROCK	7	16	[0, 0, 0]	n/a	FR1	2	R1222M
1941.742	1.616	1948777	WORD	n/a	wordpools/wordpool_EN.txt	CLIFF	8	16	[0, 0, 0]	n/a	FR1	2	R1222M
1943.358	0.834	1950393	WORD_OFF	n/a	n/a	CLIFF	8	16	[0, 0, 0]	n/a	FR1	2	R1222M
1944.192	1.617	1951227	WORD	n/a	wordpools/wordpool_EN.txt	DEER	9	16	[0, 0, 0]	n/a	FR1	2	R1222M
1945.809	0.984	1952844	WORD_OFF	n/a	n/a	DEER	9	16	[0, 0, 0]	n/a	FR1	2	R1222M
1946.793	1.616	1953828	WORD	n/a	wordpools/wordpool_EN.txt	WALL	10	16	[0, 0, 0]	n/a	FR1	2	R1222M
1948.409	0.867	1955444	WORD_OFF	n/a	n/a	WALL	10	16	[0, 0, 0]	n/a	FR1	2	R1222M
1949.276	1.618	1956311	WORD	n/a	wordpools/wordpool_EN.txt	EGG	11	16	[0, 0, 0]	n/a	FR1	2	R1222M
1950.894	0.95	1957929	WORD_OFF	n/a	n/a	EGG	11	16	[0, 0, 0]	n/a	FR1	2	R1222M
1951.844	1.616	1958879	WORD	n/a	wordpools/wordpool_EN.txt	SALT	12	16	[0, 0, 0]	n/a	FR1	2	R1222M
1953.46	0.0	1960495	WORD_OFF	n/a	n/a	SALT	12	16	[0, 0, 0]	n/a	FR1	2	R1222M
1953.46	0.0	1960495	DISTRACT_START	n/a	n/a	n/a	-999	16	[0, 0, 0]	n/a	FR1	2	R1222M
1953.46	0.017	1960495	START	n/a	n/a	n/a	-999	16	[-999, -999, -999]	n/a	FR1	2	R1222M
1953.477	6.017	1960512	PROB	6.017	n/a	n/a	-999	16	[5, 2, 4]	11	FR1	2	R1222M
1959.494	5.302	1966528	PROB	5.302	n/a	n/a	-999	16	[8, 6, 4]	18	FR1	2	R1222M
1964.796	3.834	1971830	PROB	3.834	n/a	n/a	-999	16	[1, 1, 6]	8	FR1	2	R1222M
1968.63	6.0	1975664	PROB	6.0	n/a	n/a	-999	16	[7, 8, 1]	16	FR1	2	R1222M
1974.63	0.018	1981663	STOP	n/a	n/a	n/a	-999	16	[-999, -999, -999]	n/a	FR1	2	R1222M
1974.648	0.567	1981681	DISTRACT_END	n/a	n/a	n/a	-999	16	[0, 0, 0]	n/a	FR1	2	R1222M
1975.215	0.518	1982248	RETRIEVAL_ORIENT	n/a	n/a	n/a	-999	16	[0, 0, 0]	n/a	FR1	2	R1222M
1975.733	1.1	1982766	REC_START	n/a	n/a	n/a	-999	16	[0, 0, 0]	n/a	FR1	2	R1222M
1976.833	1.431	1983866	REC_WORD	1.431	n/a	ROCK	-999	16	[0, 0, 0]	n/a	FR1	2	R1222M
1978.264	1.881	1985297	REC_WORD	1.881	n/a	CLIFF	-999	16	[0, 0, 0]	n/a	FR1	2	R1222M
1980.145	1.989	1987178	REC_WORD	1.989	n/a	WALL	-999	16	[0, 0, 0]	n/a	FR1	2	R1222M
1982.134	3.175	1989167	REC_WORD	3.175	n/a	DEER	-999	16	[0, 0, 0]	n/a	FR1	2	R1222M
1985.309	2.153	1992342	REC_WORD	2.153	n/a	SALT	-999	16	[0, 0, 0]	n/a	FR1	2	R1222M
1987.462	18.283	1994495	REC_WORD	18.283	n/a	EGG	-999	16	[0, 0, 0]	n/a	FR1	2	R1222M
2005.745	7.977	2012777	REC_END	n/a	n/a	n/a	-999	16	[0, 0, 0]	n/a	FR1	2	R1222M
2013.722	0.5	2020753	TRIAL	n/a	n/a	n/a	-999	17	[0, 0, 0]	n/a	FR1	2	R1222M
2014.222	10.428	2021253	COUNTDOWN_START	n/a	n/a	n/a	-999	17	[0, 0, 0]	n/a	FR1	2	R1222M
2024.65	0.008	2031681	COUNTDOWN_END	n/a	n/a	n/a	-999	17	[0, 0, 0]	n/a	FR1	2	R1222M
2024.658	1.616	2031689	ORIENT	n/a	n/a	n/a	-999	17	[0, 0, 0]	n/a	FR1	2	R1222M
2026.274	2.15	2033304	ORIENT_OFF	n/a	n/a	n/a	-999	17	[0, 0, 0]	n/a	FR1	2	R1222M
2028.424	1.601	2035454	WORD	n/a	wordpools/wordpool_EN.txt	HAND	1	17	[0, 0, 0]	n/a	FR1	2	R1222M
2030.025	0.984	2037055	WORD_OFF	n/a	n/a	HAND	1	17	[0, 0, 0]	n/a	FR1	2	R1222M
2031.009	1.617	2038039	WORD	n/a	wordpools/wordpool_EN.txt	JUDGE	2	17	[0, 0, 0]	n/a	FR1	2	R1222M
2032.626	0.916	2039656	WORD_OFF	n/a	n/a	JUDGE	2	17	[0, 0, 0]	n/a	FR1	2	R1222M
2033.542	1.618	2040572	WORD	n/a	wordpools/wordpool_EN.txt	CART	3	17	[0, 0, 0]	n/a	FR1	2	R1222M
2035.16	0.783	2042190	WORD_OFF	n/a	n/a	CART	3	17	[0, 0, 0]	n/a	FR1	2	R1222M
2035.943	1.616	2042973	WORD	n/a	wordpools/wordpool_EN.txt	COUCH	4	17	[0, 0, 0]	n/a	FR1	2	R1222M
2037.559	0.801	2044589	WORD_OFF	n/a	n/a	COUCH	4	17	[0, 0, 0]	n/a	FR1	2	R1222M
2038.36	1.618	2045390	WORD	n/a	wordpools/wordpool_EN.txt	TRAY	5	17	[0, 0, 0]	n/a	FR1	2	R1222M
2039.978	0.833	2047008	WORD_OFF	n/a	n/a	TRAY	5	17	[0, 0, 0]	n/a	FR1	2	R1222M
2040.811	1.616	2047841	WORD	n/a	wordpools/wordpool_EN.txt	MOON	6	17	[0, 0, 0]	n/a	FR1	2	R1222M
2042.427	0.9	2049456	WORD_OFF	n/a	n/a	MOON	6	17	[0, 0, 0]	n/a	FR1	2	R1222M
2043.327	1.601	2050356	WORD	n/a	wordpools/wordpool_EN.txt	SOUP	7	17	[0, 0, 0]	n/a	FR1	2	R1222M
2044.928	0.967	2051957	WORD_OFF	n/a	n/a	SOUP	7	17	[0, 0, 0]	n/a	FR1	2	R1222M
2045.895	1.616	2052924	WORD	n/a	wordpools/wordpool_EN.txt	SKY	8	17	[0, 0, 0]	n/a	FR1	2	R1222M
2047.511	0.817	2054540	WORD_OFF	n/a	n/a	SKY	8	17	[0, 0, 0]	n/a	FR1	2	R1222M
2048.328	1.602	2055357	WORD	n/a	wordpools/wordpool_EN.txt	ELF	9	17	[0, 0, 0]	n/a	FR1	2	R1222M
2049.93	0.85	2056959	WORD_OFF	n/a	n/a	ELF	9	17	[0, 0, 0]	n/a	FR1	2	R1222M
2050.78	1.616	2057809	WORD	n/a	wordpools/wordpool_EN.txt	BADGE	10	17	[0, 0, 0]	n/a	FR1	2	R1222M
2052.396	0.767	2059425	WORD_OFF	n/a	n/a	BADGE	10	17	[0, 0, 0]	n/a	FR1	2	R1222M
2053.163	1.618	2060192	WORD	n/a	wordpools/wordpool_EN.txt	LAWN	11	17	[0, 0, 0]	n/a	FR1	2	R1222M
2054.781	0.9	2061810	WORD_OFF	n/a	n/a	LAWN	11	17	[0, 0, 0]	n/a	FR1	2	R1222M
2055.681	1.616	2062710	WORD	n/a	wordpools/wordpool_EN.txt	SHRIMP	12	17	[0, 0, 0]	n/a	FR1	2	R1222M
2057.297	0.0	2064326	WORD_OFF	n/a	n/a	SHRIMP	12	17	[0, 0, 0]	n/a	FR1	2	R1222M
2057.297	0.0	2064326	DISTRACT_START	n/a	n/a	n/a	-999	17	[0, 0, 0]	n/a	FR1	2	R1222M
2057.297	0.016	2064326	START	n/a	n/a	n/a	-999	17	[-999, -999, -999]	n/a	FR1	2	R1222M
2057.313	6.686	2064342	PROB	6.686	n/a	n/a	-999	17	[7, 5, 4]	16	FR1	2	R1222M
2063.999	4.701	2071027	PROB	4.701	n/a	n/a	-999	17	[9, 5, 5]	19	FR1	2	R1222M
2068.7	6.767	2075728	PROB	6.767	n/a	n/a	-999	17	[5, 6, 9]	20	FR1	2	R1222M
2075.467	5.539	2082495	PROB	5.539	n/a	n/a	-999	17	[8, 1, 2]	11	FR1	2	R1222M
2081.006	0.013	2088033	STOP	n/a	n/a	n/a	-999	17	[-999, -999, -999]	n/a	FR1	2	R1222M
2081.019	0.516	2088046	DISTRACT_END	n/a	n/a	n/a	-999	17	[0, 0, 0]	n/a	FR1	2	R1222M
2081.535	0.518	2088562	RETRIEVAL_ORIENT	n/a	n/a	n/a	-999	17	[0, 0, 0]	n/a	FR1	2	R1222M
2082.053	0.912	2089080	REC_START	n/a	n/a	n/a	-999	17	[0, 0, 0]	n/a	FR1	2	R1222M
2082.965	2.153	2089992	REC_WORD	2.153	n/a	SHRIMP	-999	17	[0, 0, 0]	n/a	FR1	2	R1222M
2085.118	2.638	2092145	REC_WORD	2.638	n/a	LAWN	-999	17	[0, 0, 0]	n/a	FR1	2	R1222M
2087.756	24.307	2094783	REC_WORD	24.307	n/a	JUDGE	-999	17	[0, 0, 0]	n/a	FR1	2	R1222M
2112.063	44.02	2119088	REC_END	n/a	n/a	n/a	-999	17	[0, 0, 0]	n/a	FR1	2	R1222M
2156.083	0.0	2163106	TRIAL	n/a	n/a	n/a	-999	18	[0, 0, 0]	n/a	FR1	2	R1222M
