onset	duration	sample	trial_type	response_time	stim_file	item_name	serialpos	list	test	answer	experiment	session	subject
0.0	0.0	141291	INSTRUCT_START	n/a	n/a	n/a	-999	-999	[0, 0, 0]	n/a	FR1	0	R1230J
0.0	11.058	141291	INSTRUCT_END	n/a	n/a	n/a	-999	-999	[0, 0, 0]	n/a	FR1	0	R1230J
11.058	0.0	152349	SESS_START	n/a	n/a	n/a	-999	-999	[0, 0, 0]	n/a	FR1	0	R1230J
11.058	252.122	152349	MIC_TEST	n/a	n/a	n/a	-999	-999	[0, 0, 0]	n/a	FR1	0	R1230J
263.18	1.739	404470	PRACTICE_TRIAL	n/a	n/a	n/a	-999	-1	[0, 0, 0]	n/a	FR1	0	R1230J
264.919	10.428	406209	COUNTDOWN_START	n/a	n/a	n/a	-999	-1	[0, 0, 0]	n/a	FR1	0	R1230J
275.347	0.007	416637	COUNTDOWN_END	n/a	n/a	n/a	-999	-1	[0, 0, 0]	n/a	FR1	0	R1230J
275.354	1.617	416644	PRACTICE_ORIENT	n/a	n/a	n/a	-999	-1	[0, 0, 0]	n/a	FR1	0	R1230J
276.971	1.917	418261	PRACTICE_ORIENT_OFF	n/a	n/a	n/a	-999	-1	[0, 0, 0]	n/a	FR1	0	R1230J
278.888	1.617	420178	PRACTICE_WORD	n/a	n/a	CAMEL	1	-1	[0, 0, 0]	n/a	FR1	0	R1230J
280.505	0.966	421795	PRACTICE_WORD_OFF	n/a	n/a	CAMEL	-999	-1	[0, 0, 0]	n/a	FR1	0	R1230J
281.471	1.601	422761	PRACTICE_WORD	n/a	n/a	COTTON	2	-1	[0, 0, 0]	n/a	FR1	0	R1230J
283.072	0.767	424362	PRACTICE_WORD_OFF	n/a	n/a	COTTON	-999	-1	[0, 0, 0]	n/a	FR1	0	R1230J
283.839	1.617	425129	PRACTICE_WORD	n/a	n/a	RING	3	-1	[0, 0, 0]	n/a	FR1	0	R1230J
285.456	0.833	426746	PRACTICE_WORD_OFF	n/a	n/a	RING	-999	-1	[0, 0, 0]	n/a	FR1	0	R1230J
286.289	1.617	427579	PRACTICE_WORD	n/a	n/a	CHEST	4	-1	[0, 0, 0]	n/a	FR1	0	R1230J
287.906	0.9	429195	PRACTICE_WORD_OFF	n/a	n/a	CHEST	-999	-1	[0, 0, 0]	n/a	FR1	0	R1230J
288.806	1.617	430095	PRACTICE_WORD	n/a	n/a	TONGUE	5	-1	[0, 0, 0]	n/a	FR1	0	R1230J
290.423	0.917	431712	PRACTICE_WORD_OFF	n/a	n/a	TONGUE	-999	-1	[0, 0, 0]	n/a	FR1	0	R1230J
291.34	1.617	432629	PRACTICE_WORD	n/a	n/a	WAGON	6	-1	[0, 0, 0]	n/a	FR1	0	R1230J
292.957	0.917	434246	PRACTICE_WORD_OFF	n/a	n/a	WAGON	-999	-1	[0, 0, 0]	n/a	FR1	0	R1230J
293.874	1.617	435163	PRACTICE_WORD	n/a	n/a	FLOOD	7	-1	[0, 0, 0]	n/a	FR1	0	R1230J
295.491	0.95	436780	PRACTICE_WORD_OFF	n/a	n/a	FLOOD	-999	-1	[0, 0, 0]	n/a	FR1	0	R1230J
296.441	1.616	437730	PRACTICE_WORD	n/a	n/a	BEAM	8	-1	[0, 0, 0]	n/a	FR1	0	R1230J
298.057	1.017	439346	PRACTICE_WORD_OFF	n/a	n/a	BEAM	-999	-1	[0, 0, 0]	n/a	FR1	0	R1230J
299.074	1.618	440363	PRACTICE_WORD	n/a	n/a	ATTIC	9	-1	[0, 0, 0]	n/a	FR1	0	R1230J
300.692	0.783	441981	PRACTICE_WORD_OFF	n/a	n/a	ATTIC	-999	-1	[0, 0, 0]	n/a	FR1	0	R1230J
301.475	1.616	442764	PRACTICE_WORD	n/a	n/a	WATCH	10	-1	[0, 0, 0]	n/a	FR1	0	R1230J
303.091	1.001	444380	PRACTICE_WORD_OFF	n/a	n/a	WATCH	-999	-1	[0, 0, 0]	n/a	FR1	0	R1230J
304.092	1.618	445381	PRACTICE_WORD	n/a	n/a	IRON	11	-1	[0, 0, 0]	n/a	FR1	0	R1230J
305.71	0.815	446999	PRACTICE_WORD_OFF	n/a	n/a	IRON	-999	-1	[0, 0, 0]	n/a	FR1	0	R1230J
306.525	1.617	447814	PRACTICE_WORD	n/a	n/a	RHINO	12	-1	[0, 0, 0]	n/a	FR1	0	R1230J
308.142	0.0	449431	PRACTICE_WORD_OFF	n/a	n/a	RHINO	-999	-1	[0, 0, 0]	n/a	FR1	0	R1230J
308.142	0.001	449431	DISTRACT_START	n/a	n/a	n/a	-999	-1	[0, 0, 0]	n/a	FR1	0	R1230J
308.143	0.016	449432	START	n/a	n/a	n/a	-999	-1	[-999, -999, -999]	n/a	FR1	0	R1230J
308.159	11.084	449448	PROB	11.084	n/a	n/a	-999	-1	[1, 1, 3]	5	FR1	0	R1230J
319.243	3.551	460532	PROB	3.551	n/a	n/a	-999	-1	[7, 3, 2]	12	FR1	0	R1230J
322.794	5.134	464083	PROB	5.134	n/a	n/a	-999	-1	[3, 5, 7]	15	FR1	0	R1230J
327.928	4.098	469217	PROB	4.098	n/a	n/a	-999	-1	[4, 4, 9]	17	FR1	0	R1230J
332.026	0.019	473315	STOP	n/a	n/a	n/a	-999	-1	[-999, -999, -999]	n/a	FR1	0	R1230J
332.045	0.668	473334	DISTRACT_END	n/a	n/a	n/a	-999	-1	[0, 0, 0]	n/a	FR1	0	R1230J
332.713	0.52	474002	RETRIEVAL_ORIENT	n/a	n/a	n/a	-999	-1	[0, 0, 0]	n/a	FR1	0	R1230J
333.233	30.004	474522	PRACTICE_REC_START	n/a	n/a	n/a	-999	-1	[0, 0, 0]	n/a	FR1	0	R1230J
363.237	61.954	504526	PRACTICE_REC_END	n/a	n/a	n/a	-999	-1	[0, 0, 0]	n/a	FR1	0	R1230J
425.191	0.5	566480	TRIAL	n/a	n/a	n/a	-999	1	[0, 0, 0]	n/a	FR1	0	R1230J
425.691	10.428	566980	COUNTDOWN_START	n/a	n/a	n/a	-999	1	[0, 0, 0]	n/a	FR1	0	R1230J
436.119	0.007	577408	COUNTDOWN_END	n/a	n/a	n/a	-999	1	[0, 0, 0]	n/a	FR1	0	R1230J
436.126	1.618	577415	ORIENT	n/a	n/a	n/a	-999	1	[0, 0, 0]	n/a	FR1	0	R1230J
437.744	2.232	579033	ORIENT_OFF	n/a	n/a	n/a	-999	1	[0, 0, 0]	n/a	FR1	0	R1230J
439.976	1.617	581265	WORD	n/a	wordpools/wordpool_EN.txt	PIG	1	1	[0, 0, 0]	n/a	FR1	0	R1230J
441.593	0.8	582882	WORD_OFF	n/a	n/a	PIG	1	1	[0, 0, 0]	n/a	FR1	0	R1230J
442.393	1.617	583682	WORD	n/a	wordpools/wordpool_EN.txt	BADGE	2	1	[0, 0, 0]	n/a	FR1	0	R1230J
444.01	0.984	585299	WORD_OFF	n/a	n/a	BADGE	2	1	[0, 0, 0]	n/a	FR1	0	R1230J
444.994	1.617	586283	WORD	n/a	wordpools/wordpool_EN.txt	ROOF	3	1	[0, 0, 0]	n/a	FR1	0	R1230J
446.611	0.9	587900	WORD_OFF	n/a	n/a	ROOF	3	1	[0, 0, 0]	n/a	FR1	0	R1230J
447.511	1.616	588800	WORD	n/a	wordpools/wordpool_EN.txt	CLIFF	4	1	[0, 0, 0]	n/a	FR1	0	R1230J
449.127	0.901	590416	WORD_OFF	n/a	n/a	CLIFF	4	1	[0, 0, 0]	n/a	FR1	0	R1230J
450.028	1.617	591317	WORD	n/a	wordpools/wordpool_EN.txt	FUR	5	1	[0, 0, 0]	n/a	FR1	0	R1230J
451.645	1.0	592934	WORD_OFF	n/a	n/a	FUR	5	1	[0, 0, 0]	n/a	FR1	0	R1230J
452.645	1.617	593934	WORD	n/a	wordpools/wordpool_EN.txt	TRUCK	6	1	[0, 0, 0]	n/a	FR1	0	R1230J
454.262	0.883	595551	WORD_OFF	n/a	n/a	TRUCK	6	1	[0, 0, 0]	n/a	FR1	0	R1230J
455.145	1.601	596434	WORD	n/a	wordpools/wordpool_EN.txt	RIB	7	1	[0, 0, 0]	n/a	FR1	0	R1230J
456.746	0.816	598035	WORD_OFF	n/a	n/a	RIB	7	1	[0, 0, 0]	n/a	FR1	0	R1230J
457.562	1.617	598851	WORD	n/a	wordpools/wordpool_EN.txt	STORM	8	1	[0, 0, 0]	n/a	FR1	0	R1230J
459.179	0.833	600468	WORD_OFF	n/a	n/a	STORM	8	1	[0, 0, 0]	n/a	FR1	0	R1230J
460.012	1.617	601301	WORD	n/a	wordpools/wordpool_EN.txt	ROSE	9	1	[0, 0, 0]	n/a	FR1	0	R1230J
461.629	1.0	602918	WORD_OFF	n/a	n/a	ROSE	9	1	[0, 0, 0]	n/a	FR1	0	R1230J
462.629	1.617	603918	WORD	n/a	wordpools/wordpool_EN.txt	TAIL	10	1	[0, 0, 0]	n/a	FR1	0	R1230J
464.246	0.967	605535	WORD_OFF	n/a	n/a	TAIL	10	1	[0, 0, 0]	n/a	FR1	0	R1230J
465.213	1.617	606502	WORD	n/a	wordpools/wordpool_EN.txt	GOLD	11	1	[0, 0, 0]	n/a	FR1	0	R1230J
466.83	0.934	608119	WORD_OFF	n/a	n/a	GOLD	11	1	[0, 0, 0]	n/a	FR1	0	R1230J
467.764	1.617	609053	WORD	n/a	wordpools/wordpool_EN.txt	BAND	12	1	[0, 0, 0]	n/a	FR1	0	R1230J
469.381	0.0	610670	WORD_OFF	n/a	n/a	BAND	12	1	[0, 0, 0]	n/a	FR1	0	R1230J
469.381	0.0	610670	DISTRACT_START	n/a	n/a	n/a	-999	1	[0, 0, 0]	n/a	FR1	0	R1230J
469.381	0.016	610670	START	n/a	n/a	n/a	-999	1	[-999, -999, -999]	n/a	FR1	0	R1230J
469.397	4.468	610686	PROB	4.468	n/a	n/a	-999	1	[4, 4, 1]	9	FR1	0	R1230J
473.865	4.183	615154	PROB	4.183	n/a	n/a	-999	1	[1, 7, 2]	10	FR1	0	R1230J
478.048	4.751	619337	PROB	4.751	n/a	n/a	-999	1	[4, 9, 3]	16	FR1	0	R1230J
482.799	4.417	624088	PROB	4.417	n/a	n/a	-999	1	[1, 4, 7]	15	FR1	0	R1230J
487.216	6.469	628505	PROB	6.469	n/a	n/a	-999	1	[9, 6, 9]	24	FR1	0	R1230J
493.685	0.016	634974	STOP	n/a	n/a	n/a	-999	1	[-999, -999, -999]	n/a	FR1	0	R1230J
493.701	0.566	634990	DISTRACT_END	n/a	n/a	n/a	-999	1	[0, 0, 0]	n/a	FR1	0	R1230J
494.267	0.518	635556	RETRIEVAL_ORIENT	n/a	n/a	n/a	-999	1	[0, 0, 0]	n/a	FR1	0	R1230J
494.785	1.098	636074	REC_START	n/a	n/a	n/a	-999	1	[0, 0, 0]	n/a	FR1	0	R1230J
495.883	0.946	637172	REC_WORD_VV	0.946	n/a	<>	-999	1	[0, 0, 0]	n/a	FR1	0	R1230J
496.829	0.756	638118	REC_WORD	0.756	n/a	PIG	-999	1	[0, 0, 0]	n/a	FR1	0	R1230J
497.585	1.726	638874	REC_WORD	1.726	n/a	PLUS SIGN	-999	1	[0, 0, 0]	n/a	FR1	0	R1230J
499.311	2.151	640600	REC_WORD	2.151	n/a	TRUCK	-999	1	[0, 0, 0]	n/a	FR1	0	R1230J
501.462	2.403	642751	REC_WORD	2.403	n/a	BADGE	-999	1	[0, 0, 0]	n/a	FR1	0	R1230J
503.865	2.015	645154	REC_WORD	2.015	n/a	FIG	-999	1	[0, 0, 0]	n/a	FR1	0	R1230J
505.88	0.78	647169	REC_WORD_VV	0.78	n/a	<>	-999	1	[0, 0, 0]	n/a	FR1	0	R1230J
506.66	4.698	647949	REC_WORD	4.698	n/a	FUR	-999	1	[0, 0, 0]	n/a	FR1	0	R1230J
511.358	4.277	652647	REC_WORD_VV	4.277	n/a	<>	-999	1	[0, 0, 0]	n/a	FR1	0	R1230J
515.635	4.804	656924	REC_WORD_VV	4.804	n/a	<>	-999	1	[0, 0, 0]	n/a	FR1	0	R1230J
520.439	2.159	661728	REC_WORD_VV	2.159	n/a	<>	-999	1	[0, 0, 0]	n/a	FR1	0	R1230J
522.598	0.381	663887	REC_WORD	0.381	n/a	PIG	-999	1	[0, 0, 0]	n/a	FR1	0	R1230J
522.979	1.816	664268	REC_WORD	1.816	n/a	PLUS SIGN	-999	1	[0, 0, 0]	n/a	FR1	0	R1230J
524.795	23.646	666084	REC_END	n/a	n/a	n/a	-999	1	[0, 0, 0]	n/a	FR1	0	R1230J
548.441	0.5	689729	TRIAL	n/a	n/a	n/a	-999	2	[0, 0, 0]	n/a	FR1	0	R1230J
548.941	10.428	690229	COUNTDOWN_START	n/a	n/a	n/a	-999	2	[0, 0, 0]	n/a	FR1	0	R1230J
559.369	0.007	700657	COUNTDOWN_END	n/a	n/a	n/a	-999	2	[0, 0, 0]	n/a	FR1	0	R1230J
559.376	1.617	700664	ORIENT	n/a	n/a	n/a	-999	2	[0, 0, 0]	n/a	FR1	0	R1230J
560.993	2.05	702281	ORIENT_OFF	n/a	n/a	n/a	-999	2	[0, 0, 0]	n/a	FR1	0	R1230J
563.043	1.618	704331	WORD	n/a	wordpools/wordpool_EN.txt	SAIL	1	2	[0, 0, 0]	n/a	FR1	0	R1230J
564.661	0.916	705949	WORD_OFF	n/a	n/a	SAIL	1	2	[0, 0, 0]	n/a	FR1	0	R1230J
565.577	1.617	706865	WORD	n/a	wordpools/wordpool_EN.txt	SOUP	2	2	[0, 0, 0]	n/a	FR1	0	R1230J
567.194	0.799	708482	WORD_OFF	n/a	n/a	SOUP	2	2	[0, 0, 0]	n/a	FR1	0	R1230J
567.993	1.617	709281	WORD	n/a	wordpools/wordpool_EN.txt	GRASS	3	2	[0, 0, 0]	n/a	FR1	0	R1230J
569.61	0.867	710898	WORD_OFF	n/a	n/a	GRASS	3	2	[0, 0, 0]	n/a	FR1	0	R1230J
570.477	1.617	711765	WORD	n/a	wordpools/wordpool_EN.txt	TENT	4	2	[0, 0, 0]	n/a	FR1	0	R1230J
572.094	0.95	713382	WORD_OFF	n/a	n/a	TENT	4	2	[0, 0, 0]	n/a	FR1	0	R1230J
573.044	1.618	714332	WORD	n/a	wordpools/wordpool_EN.txt	BOOK	5	2	[0, 0, 0]	n/a	FR1	0	R1230J
574.662	0.849	715950	WORD_OFF	n/a	n/a	BOOK	5	2	[0, 0, 0]	n/a	FR1	0	R1230J
575.511	1.617	716799	WORD	n/a	wordpools/wordpool_EN.txt	FUDGE	6	2	[0, 0, 0]	n/a	FR1	0	R1230J
577.128	0.85	718416	WORD_OFF	n/a	n/a	FUDGE	6	2	[0, 0, 0]	n/a	FR1	0	R1230J
577.978	1.617	719266	WORD	n/a	wordpools/wordpool_EN.txt	FRUIT	7	2	[0, 0, 0]	n/a	FR1	0	R1230J
579.595	0.85	720883	WORD_OFF	n/a	n/a	FRUIT	7	2	[0, 0, 0]	n/a	FR1	0	R1230J
580.445	1.617	721733	WORD	n/a	wordpools/wordpool_EN.txt	LAKE	8	2	[0, 0, 0]	n/a	FR1	0	R1230J
582.062	0.967	723350	WORD_OFF	n/a	n/a	LAKE	8	2	[0, 0, 0]	n/a	FR1	0	R1230J
583.029	1.617	724317	WORD	n/a	wordpools/wordpool_EN.txt	RICE	9	2	[0, 0, 0]	n/a	FR1	0	R1230J
584.646	0.95	725934	WORD_OFF	n/a	n/a	RICE	9	2	[0, 0, 0]	n/a	FR1	0	R1230J
585.596	1.617	726884	WORD	n/a	wordpools/wordpool_EN.txt	BEE	10	2	[0, 0, 0]	n/a	FR1	0	R1230J
587.213	0.983	728501	WORD_OFF	n/a	n/a	BEE	10	2	[0, 0, 0]	n/a	FR1	0	R1230J
588.196	1.617	729484	WORD	n/a	wordpools/wordpool_EN.txt	ROAD	11	2	[0, 0, 0]	n/a	FR1	0	R1230J
589.813	0.951	731101	WORD_OFF	n/a	n/a	ROAD	11	2	[0, 0, 0]	n/a	FR1	0	R1230J
590.764	1.617	732052	WORD	n/a	wordpools/wordpool_EN.txt	BAT	12	2	[0, 0, 0]	n/a	FR1	0	R1230J
592.381	0.0	733669	WORD_OFF	n/a	n/a	BAT	12	2	[0, 0, 0]	n/a	FR1	0	R1230J
592.381	0.0	733669	DISTRACT_START	n/a	n/a	n/a	-999	2	[0, 0, 0]	n/a	FR1	0	R1230J
592.381	0.016	733669	START	n/a	n/a	n/a	-999	2	[-999, -999, -999]	n/a	FR1	0	R1230J
592.397	8.118	733685	PROB	8.118	n/a	n/a	-999	2	[9, 4, 7]	20	FR1	0	R1230J
600.515	5.301	741803	PROB	5.301	n/a	n/a	-999	2	[6, 1, 3]	10	FR1	0	R1230J
605.816	3.05	747104	PROB	3.05	n/a	n/a	-999	2	[2, 3, 4]	9	FR1	0	R1230J
608.866	2.785	750154	PROB	2.785	n/a	n/a	-999	2	[3, 1, 3]	7	FR1	0	R1230J
611.651	3.612	752939	PROB	3.612	n/a	n/a	-999	2	[3, 5, 7]	11	FR1	0	R1230J
615.263	0.021	756551	STOP	n/a	n/a	n/a	-999	2	[-999, -999, -999]	n/a	FR1	0	R1230J
615.284	0.616	756572	DISTRACT_END	n/a	n/a	n/a	-999	2	[0, 0, 0]	n/a	FR1	0	R1230J
615.9	0.518	757188	RETRIEVAL_ORIENT	n/a	n/a	n/a	-999	2	[0, 0, 0]	n/a	FR1	0	R1230J
616.418	1.016	757706	REC_START	n/a	n/a	n/a	-999	2	[0, 0, 0]	n/a	FR1	0	R1230J
617.434	1.523	758722	REC_WORD	1.523	n/a	BAT	-999	2	[0, 0, 0]	n/a	FR1	0	R1230J
618.957	1.043	760245	REC_WORD	1.043	n/a	PLUS SIGN	-999	2	[0, 0, 0]	n/a	FR1	0	R1230J
620.0	2.238	761288	REC_WORD	2.238	n/a	SAIL	1	2	[0, 0, 0]	n/a	FR1	0	R1230J
622.238	3.056	763526	REC_WORD_VV	3.056	n/a	<>	-999	2	[0, 0, 0]	n/a	FR1	0	R1230J
625.294	2.9	766582	REC_WORD_VV	2.9	n/a	<>	-999	2	[0, 0, 0]	n/a	FR1	0	R1230J
628.194	1.14	769482	REC_WORD_VV	1.14	n/a	<>	-999	2	[0, 0, 0]	n/a	FR1	0	R1230J
629.334	16.089	770622	REC_WORD	16.089	n/a	TOOL	-999	2	[0, 0, 0]	n/a	FR1	0	R1230J
645.423	1.006	786711	REC_WORD	1.006	n/a	FUR	-999	2	[0, 0, 0]	n/a	FR1	0	R1230J
646.429	23.279	787717	REC_END	n/a	n/a	n/a	-999	2	[0, 0, 0]	n/a	FR1	0	R1230J
669.708	0.5	810996	TRIAL	n/a	n/a	n/a	-999	3	[0, 0, 0]	n/a	FR1	0	R1230J
670.208	10.428	811496	COUNTDOWN_START	n/a	n/a	n/a	-999	3	[0, 0, 0]	n/a	FR1	0	R1230J
680.636	0.006	821924	COUNTDOWN_END	n/a	n/a	n/a	-999	3	[0, 0, 0]	n/a	FR1	0	R1230J
680.642	1.617	821930	ORIENT	n/a	n/a	n/a	-999	3	[0, 0, 0]	n/a	FR1	0	R1230J
682.259	2.034	823547	ORIENT_OFF	n/a	n/a	n/a	-999	3	[0, 0, 0]	n/a	FR1	0	R1230J
684.293	1.617	825581	WORD	n/a	wordpools/wordpool_EN.txt	BROOM	1	3	[0, 0, 0]	n/a	FR1	0	R1230J
685.91	1.0	827198	WORD_OFF	n/a	n/a	BROOM	1	3	[0, 0, 0]	n/a	FR1	0	R1230J
686.91	1.616	828198	WORD	n/a	wordpools/wordpool_EN.txt	ROOM	2	3	[0, 0, 0]	n/a	FR1	0	R1230J
688.526	0.834	829814	WORD_OFF	n/a	n/a	ROOM	2	3	[0, 0, 0]	n/a	FR1	0	R1230J
689.36	1.617	830648	WORD	n/a	wordpools/wordpool_EN.txt	WORM	3	3	[0, 0, 0]	n/a	FR1	0	R1230J
690.977	1.0	832265	WORD_OFF	n/a	n/a	WORM	3	3	[0, 0, 0]	n/a	FR1	0	R1230J
691.977	1.617	833265	WORD	n/a	wordpools/wordpool_EN.txt	SUIT	4	3	[0, 0, 0]	n/a	FR1	0	R1230J
693.594	0.983	834882	WORD_OFF	n/a	n/a	SUIT	4	3	[0, 0, 0]	n/a	FR1	0	R1230J
694.577	1.617	835865	WORD	n/a	wordpools/wordpool_EN.txt	PEAR	5	3	[0, 0, 0]	n/a	FR1	0	R1230J
696.194	0.984	837482	WORD_OFF	n/a	n/a	PEAR	5	3	[0, 0, 0]	n/a	FR1	0	R1230J
697.178	1.616	838466	WORD	n/a	wordpools/wordpool_EN.txt	STAIR	6	3	[0, 0, 0]	n/a	FR1	0	R1230J
698.794	0.868	840082	WORD_OFF	n/a	n/a	STAIR	6	3	[0, 0, 0]	n/a	FR1	0	R1230J
699.662	1.616	840950	WORD	n/a	wordpools/wordpool_EN.txt	PIE	7	3	[0, 0, 0]	n/a	FR1	0	R1230J
701.278	0.934	842566	WORD_OFF	n/a	n/a	PIE	7	3	[0, 0, 0]	n/a	FR1	0	R1230J
702.212	1.617	843500	WORD	n/a	wordpools/wordpool_EN.txt	FOG	8	3	[0, 0, 0]	n/a	FR1	0	R1230J
703.829	0.766	845117	WORD_OFF	n/a	n/a	FOG	8	3	[0, 0, 0]	n/a	FR1	0	R1230J
704.595	1.617	845883	WORD	n/a	wordpools/wordpool_EN.txt	PANTS	9	3	[0, 0, 0]	n/a	FR1	0	R1230J
706.212	0.984	847500	WORD_OFF	n/a	n/a	PANTS	9	3	[0, 0, 0]	n/a	FR1	0	R1230J
707.196	1.617	848484	WORD	n/a	wordpools/wordpool_EN.txt	NAIL	10	3	[0, 0, 0]	n/a	FR1	0	R1230J
708.813	0.917	850101	WORD_OFF	n/a	n/a	NAIL	10	3	[0, 0, 0]	n/a	FR1	0	R1230J
709.73	1.616	851018	WORD	n/a	wordpools/wordpool_EN.txt	SLUSH	11	3	[0, 0, 0]	n/a	FR1	0	R1230J
711.346	0.967	852634	WORD_OFF	n/a	n/a	SLUSH	11	3	[0, 0, 0]	n/a	FR1	0	R1230J
712.313	1.617	853601	WORD	n/a	wordpools/wordpool_EN.txt	WOOD	12	3	[0, 0, 0]	n/a	FR1	0	R1230J
713.93	0.0	855218	WORD_OFF	n/a	n/a	WOOD	12	3	[0, 0, 0]	n/a	FR1	0	R1230J
713.93	0.001	855218	DISTRACT_START	n/a	n/a	n/a	-999	3	[0, 0, 0]	n/a	FR1	0	R1230J
713.931	0.016	855219	START	n/a	n/a	n/a	-999	3	[-999, -999, -999]	n/a	FR1	0	R1230J
713.947	5.384	855235	PROB	5.384	n/a	n/a	-999	3	[6, 9, 5]	20	FR1	0	R1230J
719.331	6.984	860619	PROB	6.984	n/a	n/a	-999	3	[3, 9, 5]	17	FR1	0	R1230J
726.315	3.984	867603	PROB	3.984	n/a	n/a	-999	3	[5, 8, 2]	15	FR1	0	R1230J
730.299	6.154	871587	PROB	6.154	n/a	n/a	-999	3	[7, 5, 9]	21	FR1	0	R1230J
736.453	0.014	877741	STOP	n/a	n/a	n/a	-999	3	[-999, -999, -999]	n/a	FR1	0	R1230J
736.467	0.533	877755	DISTRACT_END	n/a	n/a	n/a	-999	3	[0, 0, 0]	n/a	FR1	0	R1230J
737.0	0.517	878288	RETRIEVAL_ORIENT	n/a	n/a	n/a	-999	3	[0, 0, 0]	n/a	FR1	0	R1230J
737.517	0.986	878805	REC_START	n/a	n/a	n/a	-999	3	[0, 0, 0]	n/a	FR1	0	R1230J
738.503	0.755	879791	REC_WORD	0.755	n/a	BROOM	1	3	[0, 0, 0]	n/a	FR1	0	R1230J
739.258	2.358	880546	REC_WORD	2.358	n/a	ROOM	2	3	[0, 0, 0]	n/a	FR1	0	R1230J
741.616	4.944	882904	REC_WORD	4.944	n/a	SUIT	4	3	[0, 0, 0]	n/a	FR1	0	R1230J
746.56	2.647	887848	REC_WORD	2.647	n/a	NOTE	-999	3	[0, 0, 0]	n/a	FR1	0	R1230J
749.207	0.425	890495	REC_WORD	0.425	n/a	BROOM	1	3	[0, 0, 0]	n/a	FR1	0	R1230J
749.632	0.467	890920	REC_WORD	0.467	n/a	ROOM	2	3	[0, 0, 0]	n/a	FR1	0	R1230J
750.099	1.342	891387	REC_WORD	1.342	n/a	SUIT	4	3	[0, 0, 0]	n/a	FR1	0	R1230J
751.441	8.394	892729	REC_WORD	8.394	n/a	FUEL	-999	3	[0, 0, 0]	n/a	FR1	0	R1230J
759.835	2.49	901123	REC_WORD_VV	2.49	n/a	<>	-999	3	[0, 0, 0]	n/a	FR1	0	R1230J
762.325	0.145	903613	REC_WORD_VV	0.145	n/a	<>	-999	3	[0, 0, 0]	n/a	FR1	0	R1230J
762.47	0.504	903758	REC_WORD	0.504	n/a	SUIT	4	3	[0, 0, 0]	n/a	FR1	0	R1230J
762.974	4.555	904262	REC_WORD_VV	4.555	n/a	<>	-999	3	[0, 0, 0]	n/a	FR1	0	R1230J
767.529	5.676	908817	REC_END	n/a	n/a	n/a	-999	3	[0, 0, 0]	n/a	FR1	0	R1230J
773.205	0.5	914493	TRIAL	n/a	n/a	n/a	-999	4	[0, 0, 0]	n/a	FR1	0	R1230J
773.705	10.428	914993	COUNTDOWN_START	n/a	n/a	n/a	-999	4	[0, 0, 0]	n/a	FR1	0	R1230J
784.133	0.007	925421	COUNTDOWN_END	n/a	n/a	n/a	-999	4	[0, 0, 0]	n/a	FR1	0	R1230J
784.14	1.617	925428	ORIENT	n/a	n/a	n/a	-999	4	[0, 0, 0]	n/a	FR1	0	R1230J
785.757	2.15	927045	ORIENT_OFF	n/a	n/a	n/a	-999	4	[0, 0, 0]	n/a	FR1	0	R1230J
787.907	1.616	929195	WORD	n/a	wordpools/wordpool_EN.txt	BED	1	4	[0, 0, 0]	n/a	FR1	0	R1230J
789.523	0.984	930811	WORD_OFF	n/a	n/a	BED	1	4	[0, 0, 0]	n/a	FR1	0	R1230J
790.507	1.617	931795	WORD	n/a	wordpools/wordpool_EN.txt	TOY	2	4	[0, 0, 0]	n/a	FR1	0	R1230J
792.124	0.8	933412	WORD_OFF	n/a	n/a	TOY	2	4	[0, 0, 0]	n/a	FR1	0	R1230J
792.924	1.617	934212	WORD	n/a	wordpools/wordpool_EN.txt	CALF	3	4	[0, 0, 0]	n/a	FR1	0	R1230J
794.541	0.984	935829	WORD_OFF	n/a	n/a	CALF	3	4	[0, 0, 0]	n/a	FR1	0	R1230J
795.525	1.617	936813	WORD	n/a	wordpools/wordpool_EN.txt	ROPE	4	4	[0, 0, 0]	n/a	FR1	0	R1230J
797.142	0.899	938430	WORD_OFF	n/a	n/a	ROPE	4	4	[0, 0, 0]	n/a	FR1	0	R1230J
798.041	1.618	939329	WORD	n/a	wordpools/wordpool_EN.txt	SPOON	5	4	[0, 0, 0]	n/a	FR1	0	R1230J
799.659	1.0	940946	WORD_OFF	n/a	n/a	SPOON	5	4	[0, 0, 0]	n/a	FR1	0	R1230J
800.659	1.616	941946	WORD	n/a	wordpools/wordpool_EN.txt	PIPE	6	4	[0, 0, 0]	n/a	FR1	0	R1230J
802.275	0.917	943562	WORD_OFF	n/a	n/a	PIPE	6	4	[0, 0, 0]	n/a	FR1	0	R1230J
803.192	1.617	944479	WORD	n/a	wordpools/wordpool_EN.txt	DOG	7	4	[0, 0, 0]	n/a	FR1	0	R1230J
804.809	0.95	946096	WORD_OFF	n/a	n/a	DOG	7	4	[0, 0, 0]	n/a	FR1	0	R1230J
805.759	1.617	947046	WORD	n/a	wordpools/wordpool_EN.txt	RUG	8	4	[0, 0, 0]	n/a	FR1	0	R1230J
807.376	0.933	948663	WORD_OFF	n/a	n/a	RUG	8	4	[0, 0, 0]	n/a	FR1	0	R1230J
808.309	1.617	949596	WORD	n/a	wordpools/wordpool_EN.txt	BARN	9	4	[0, 0, 0]	n/a	FR1	0	R1230J
809.926	0.818	951213	WORD_OFF	n/a	n/a	BARN	9	4	[0, 0, 0]	n/a	FR1	0	R1230J
810.744	1.616	952031	WORD	n/a	wordpools/wordpool_EN.txt	BOY	10	4	[0, 0, 0]	n/a	FR1	0	R1230J
812.36	0.8	953647	WORD_OFF	n/a	n/a	BOY	10	4	[0, 0, 0]	n/a	FR1	0	R1230J
813.16	1.617	954447	WORD	n/a	wordpools/wordpool_EN.txt	CHEEK	11	4	[0, 0, 0]	n/a	FR1	0	R1230J
814.777	0.85	956064	WORD_OFF	n/a	n/a	CHEEK	11	4	[0, 0, 0]	n/a	FR1	0	R1230J
815.627	1.617	956914	WORD	n/a	wordpools/wordpool_EN.txt	LAWN	12	4	[0, 0, 0]	n/a	FR1	0	R1230J
817.244	0.0	958531	WORD_OFF	n/a	n/a	LAWN	12	4	[0, 0, 0]	n/a	FR1	0	R1230J
817.244	0.001	958531	DISTRACT_START	n/a	n/a	n/a	-999	4	[0, 0, 0]	n/a	FR1	0	R1230J
817.245	0.016	958532	START	n/a	n/a	n/a	-999	4	[-999, -999, -999]	n/a	FR1	0	R1230J
817.261	3.6	958548	PROB	3.6	n/a	n/a	-999	4	[3, 6, 4]	13	FR1	0	R1230J
820.861	5.117	962148	PROB	5.117	n/a	n/a	-999	4	[8, 6, 8]	22	FR1	0	R1230J
825.978	5.185	967265	PROB	5.185	n/a	n/a	-999	4	[6, 6, 7]	19	FR1	0	R1230J
831.163	3.417	972450	PROB	3.417	n/a	n/a	-999	4	[7, 6, 1]	14	FR1	0	R1230J
834.58	3.868	975867	PROB	3.868	n/a	n/a	-999	4	[9, 5, 4]	16	FR1	0	R1230J
838.448	0.015	979735	STOP	n/a	n/a	n/a	-999	4	[-999, -999, -999]	n/a	FR1	0	R1230J
838.463	0.634	979750	DISTRACT_END	n/a	n/a	n/a	-999	4	[0, 0, 0]	n/a	FR1	0	R1230J
839.097	0.518	980384	RETRIEVAL_ORIENT	n/a	n/a	n/a	-999	4	[0, 0, 0]	n/a	FR1	0	R1230J
839.615	1.221	980902	REC_START	n/a	n/a	n/a	-999	4	[0, 0, 0]	n/a	FR1	0	R1230J
840.836	1.588	982123	REC_WORD_VV	1.588	n/a	<>	-999	4	[0, 0, 0]	n/a	FR1	0	R1230J
842.424	1.065	983711	REC_WORD	1.065	n/a	DOG	7	4	[0, 0, 0]	n/a	FR1	0	R1230J
843.489	2.092	984776	REC_WORD	2.092	n/a	CAT	-999	4	[0, 0, 0]	n/a	FR1	0	R1230J
845.581	1.466	986868	REC_WORD	1.466	n/a	TOY	2	4	[0, 0, 0]	n/a	FR1	0	R1230J
847.047	6.049	988334	REC_WORD	6.049	n/a	SPOON	5	4	[0, 0, 0]	n/a	FR1	0	R1230J
853.096	0.654	994383	REC_WORD	0.654	n/a	FUR	-999	4	[0, 0, 0]	n/a	FR1	0	R1230J
853.75	0.878	995037	REC_WORD_VV	0.878	n/a	<>	-999	4	[0, 0, 0]	n/a	FR1	0	R1230J
854.628	0.847	995915	REC_WORD	0.847	n/a	FUR	-999	4	[0, 0, 0]	n/a	FR1	0	R1230J
855.475	0.833	996762	REC_WORD_VV	0.833	n/a	<>	-999	4	[0, 0, 0]	n/a	FR1	0	R1230J
856.308	1.869	997595	REC_WORD	1.869	n/a	SPOON	5	4	[0, 0, 0]	n/a	FR1	0	R1230J
858.177	1.0	999464	REC_WORD_VV	1.0	n/a	<>	-999	4	[0, 0, 0]	n/a	FR1	0	R1230J
859.177	3.635	1000464	REC_WORD_VV	3.635	n/a	<>	-999	4	[0, 0, 0]	n/a	FR1	0	R1230J
862.812	0.433	1004099	REC_WORD_VV	0.433	n/a	<>	-999	4	[0, 0, 0]	n/a	FR1	0	R1230J
863.245	3.207	1004532	REC_WORD	3.207	n/a	TOY	2	4	[0, 0, 0]	n/a	FR1	0	R1230J
866.452	0.536	1007739	REC_WORD	0.536	n/a	CAT	-999	4	[0, 0, 0]	n/a	FR1	0	R1230J
866.988	0.298	1008275	REC_WORD	0.298	n/a	TOY	2	4	[0, 0, 0]	n/a	FR1	0	R1230J
867.286	0.543	1008573	REC_WORD	0.543	n/a	CAT	-999	4	[0, 0, 0]	n/a	FR1	0	R1230J
867.829	1.794	1009116	REC_WORD_VV	1.794	n/a	<>	-999	4	[0, 0, 0]	n/a	FR1	0	R1230J
869.623	43.451	1010910	REC_END	n/a	n/a	n/a	-999	4	[0, 0, 0]	n/a	FR1	0	R1230J
913.074	0.5	1054361	TRIAL	n/a	n/a	n/a	-999	5	[0, 0, 0]	n/a	FR1	0	R1230J
913.574	10.428	1054861	COUNTDOWN_START	n/a	n/a	n/a	-999	5	[0, 0, 0]	n/a	FR1	0	R1230J
924.002	0.006	1065289	COUNTDOWN_END	n/a	n/a	n/a	-999	5	[0, 0, 0]	n/a	FR1	0	R1230J
924.008	1.617	1065295	ORIENT	n/a	n/a	n/a	-999	5	[0, 0, 0]	n/a	FR1	0	R1230J
925.625	1.867	1066912	ORIENT_OFF	n/a	n/a	n/a	-999	5	[0, 0, 0]	n/a	FR1	0	R1230J
927.492	1.617	1068779	WORD	n/a	wordpools/wordpool_EN.txt	HOOK	1	5	[0, 0, 0]	n/a	FR1	0	R1230J
929.109	0.95	1070396	WORD_OFF	n/a	n/a	HOOK	1	5	[0, 0, 0]	n/a	FR1	0	R1230J
930.059	1.618	1071346	WORD	n/a	wordpools/wordpool_EN.txt	CHIN	2	5	[0, 0, 0]	n/a	FR1	0	R1230J
931.677	1.0	1072964	WORD_OFF	n/a	n/a	CHIN	2	5	[0, 0, 0]	n/a	FR1	0	R1230J
932.677	1.616	1073964	WORD	n/a	wordpools/wordpool_EN.txt	NOSE	3	5	[0, 0, 0]	n/a	FR1	0	R1230J
934.293	1.0	1075580	WORD_OFF	n/a	n/a	NOSE	3	5	[0, 0, 0]	n/a	FR1	0	R1230J
935.293	1.617	1076580	WORD	n/a	wordpools/wordpool_EN.txt	MAT	4	5	[0, 0, 0]	n/a	FR1	0	R1230J
936.91	0.95	1078197	WORD_OFF	n/a	n/a	MAT	4	5	[0, 0, 0]	n/a	FR1	0	R1230J
937.86	1.617	1079147	WORD	n/a	wordpools/wordpool_EN.txt	THREAD	5	5	[0, 0, 0]	n/a	FR1	0	R1230J
939.477	0.867	1080764	WORD_OFF	n/a	n/a	THREAD	5	5	[0, 0, 0]	n/a	FR1	0	R1230J
940.344	1.617	1081631	WORD	n/a	wordpools/wordpool_EN.txt	STREET	6	5	[0, 0, 0]	n/a	FR1	0	R1230J
941.961	0.8	1083248	WORD_OFF	n/a	n/a	STREET	6	5	[0, 0, 0]	n/a	FR1	0	R1230J
942.761	1.617	1084048	WORD	n/a	wordpools/wordpool_EN.txt	COUCH	7	5	[0, 0, 0]	n/a	FR1	0	R1230J
944.378	0.817	1085665	WORD_OFF	n/a	n/a	COUCH	7	5	[0, 0, 0]	n/a	FR1	0	R1230J
945.195	1.616	1086482	WORD	n/a	wordpools/wordpool_EN.txt	FLUTE	8	5	[0, 0, 0]	n/a	FR1	0	R1230J
946.811	0.967	1088098	WORD_OFF	n/a	n/a	FLUTE	8	5	[0, 0, 0]	n/a	FR1	0	R1230J
947.778	1.617	1089065	WORD	n/a	wordpools/wordpool_EN.txt	VINE	9	5	[0, 0, 0]	n/a	FR1	0	R1230J
949.395	0.8	1090682	WORD_OFF	n/a	n/a	VINE	9	5	[0, 0, 0]	n/a	FR1	0	R1230J
950.195	1.617	1091482	WORD	n/a	wordpools/wordpool_EN.txt	DIME	10	5	[0, 0, 0]	n/a	FR1	0	R1230J
951.812	0.885	1093099	WORD_OFF	n/a	n/a	DIME	10	5	[0, 0, 0]	n/a	FR1	0	R1230J
952.697	1.616	1093984	WORD	n/a	wordpools/wordpool_EN.txt	HOLE	11	5	[0, 0, 0]	n/a	FR1	0	R1230J
954.313	0.966	1095600	WORD_OFF	n/a	n/a	HOLE	11	5	[0, 0, 0]	n/a	FR1	0	R1230J
955.279	1.617	1096566	WORD	n/a	wordpools/wordpool_EN.txt	FISH	12	5	[0, 0, 0]	n/a	FR1	0	R1230J
956.896	0.0	1098183	WORD_OFF	n/a	n/a	FISH	12	5	[0, 0, 0]	n/a	FR1	0	R1230J
956.896	0.001	1098183	DISTRACT_START	n/a	n/a	n/a	-999	5	[0, 0, 0]	n/a	FR1	0	R1230J
956.897	0.016	1098184	START	n/a	n/a	n/a	-999	5	[-999, -999, -999]	n/a	FR1	0	R1230J
956.913	5.984	1098200	PROB	5.984	n/a	n/a	-999	5	[9, 2, 8]	19	FR1	0	R1230J
962.897	4.917	1104184	PROB	4.917	n/a	n/a	-999	5	[5, 9, 9]	23	FR1	0	R1230J
967.814	3.617	1109101	PROB	3.617	n/a	n/a	-999	5	[4, 4, 5]	14	FR1	0	R1230J
971.431	3.768	1112718	PROB	3.768	n/a	n/a	-999	5	[5, 9, 1]	15	FR1	0	R1230J
975.199	3.462	1116486	PROB	3.462	n/a	n/a	-999	5	[2, 6, 4]	12	FR1	0	R1230J
978.661	0.022	1119948	STOP	n/a	n/a	n/a	-999	5	[-999, -999, -999]	n/a	FR1	0	R1230J
978.683	0.699	1119970	DISTRACT_END	n/a	n/a	n/a	-999	5	[0, 0, 0]	n/a	FR1	0	R1230J
979.382	0.518	1120669	RETRIEVAL_ORIENT	n/a	n/a	n/a	-999	5	[0, 0, 0]	n/a	FR1	0	R1230J
979.9	0.681	1121187	REC_START	n/a	n/a	n/a	-999	5	[0, 0, 0]	n/a	FR1	0	R1230J
980.581	0.436	1121868	REC_WORD	0.436	n/a	HOOK	1	5	[0, 0, 0]	n/a	FR1	0	R1230J
981.017	0.596	1122304	REC_WORD	0.596	n/a	CHIN	2	5	[0, 0, 0]	n/a	FR1	0	R1230J
981.613	0.629	1122900	REC_WORD	0.629	n/a	NOSE	3	5	[0, 0, 0]	n/a	FR1	0	R1230J
982.242	1.67	1123529	REC_WORD	1.67	n/a	MAT	4	5	[0, 0, 0]	n/a	FR1	0	R1230J
983.912	2.279	1125199	REC_WORD	2.279	n/a	DIME	10	5	[0, 0, 0]	n/a	FR1	0	R1230J
986.191	0.208	1127478	REC_WORD	0.208	n/a	HOOK	1	5	[0, 0, 0]	n/a	FR1	0	R1230J
986.399	0.166	1127686	REC_WORD	0.166	n/a	CHIN	2	5	[0, 0, 0]	n/a	FR1	0	R1230J
986.565	0.44	1127852	REC_WORD	0.44	n/a	NOSE	3	5	[0, 0, 0]	n/a	FR1	0	R1230J
987.005	0.542	1128292	REC_WORD	0.542	n/a	MAT	4	5	[0, 0, 0]	n/a	FR1	0	R1230J
987.547	4.405	1128834	REC_WORD	4.405	n/a	DIME	10	5	[0, 0, 0]	n/a	FR1	0	R1230J
991.952	2.011	1133239	REC_WORD	2.011	n/a	SPOON	-999	5	[0, 0, 0]	n/a	FR1	0	R1230J
993.963	7.916	1135250	REC_WORD	7.916	n/a	FLUTE	8	5	[0, 0, 0]	n/a	FR1	0	R1230J
1001.879	8.031	1143166	REC_WORD	8.031	n/a	CHIN	2	5	[0, 0, 0]	n/a	FR1	0	R1230J
1009.91	5.311	1151197	REC_END	n/a	n/a	n/a	-999	5	[0, 0, 0]	n/a	FR1	0	R1230J
1015.221	0.5	1156508	TRIAL	n/a	n/a	n/a	-999	6	[0, 0, 0]	n/a	FR1	0	R1230J
1015.721	10.428	1157008	COUNTDOWN_START	n/a	n/a	n/a	-999	6	[0, 0, 0]	n/a	FR1	0	R1230J
1026.149	0.007	1167436	COUNTDOWN_END	n/a	n/a	n/a	-999	6	[0, 0, 0]	n/a	FR1	0	R1230J
1026.156	1.617	1167443	ORIENT	n/a	n/a	n/a	-999	6	[0, 0, 0]	n/a	FR1	0	R1230J
1027.773	1.884	1169060	ORIENT_OFF	n/a	n/a	n/a	-999	6	[0, 0, 0]	n/a	FR1	0	R1230J
1029.657	1.616	1170944	WORD	n/a	wordpools/wordpool_EN.txt	GEESE	1	6	[0, 0, 0]	n/a	FR1	0	R1230J
1031.273	0.85	1172560	WORD_OFF	n/a	n/a	GEESE	1	6	[0, 0, 0]	n/a	FR1	0	R1230J
1032.123	1.601	1173410	WORD	n/a	wordpools/wordpool_EN.txt	TRAY	2	6	[0, 0, 0]	n/a	FR1	0	R1230J
1033.724	0.766	1175011	WORD_OFF	n/a	n/a	TRAY	2	6	[0, 0, 0]	n/a	FR1	0	R1230J
1034.49	1.617	1175777	WORD	n/a	wordpools/wordpool_EN.txt	TOAST	3	6	[0, 0, 0]	n/a	FR1	0	R1230J
1036.107	0.967	1177394	WORD_OFF	n/a	n/a	TOAST	3	6	[0, 0, 0]	n/a	FR1	0	R1230J
1037.074	1.617	1178361	WORD	n/a	wordpools/wordpool_EN.txt	SINK	4	6	[0, 0, 0]	n/a	FR1	0	R1230J
1038.691	0.833	1179978	WORD_OFF	n/a	n/a	SINK	4	6	[0, 0, 0]	n/a	FR1	0	R1230J
1039.524	1.617	1180811	WORD	n/a	wordpools/wordpool_EN.txt	NEST	5	6	[0, 0, 0]	n/a	FR1	0	R1230J
1041.141	1.0	1182428	WORD_OFF	n/a	n/a	NEST	5	6	[0, 0, 0]	n/a	FR1	0	R1230J
1042.141	1.617	1183428	WORD	n/a	wordpools/wordpool_EN.txt	SNOW	6	6	[0, 0, 0]	n/a	FR1	0	R1230J
1043.758	0.8	1185045	WORD_OFF	n/a	n/a	SNOW	6	6	[0, 0, 0]	n/a	FR1	0	R1230J
1044.558	1.617	1185845	WORD	n/a	wordpools/wordpool_EN.txt	FENCE	7	6	[0, 0, 0]	n/a	FR1	0	R1230J
1046.175	0.783	1187462	WORD_OFF	n/a	n/a	FENCE	7	6	[0, 0, 0]	n/a	FR1	0	R1230J
1046.958	1.617	1188245	WORD	n/a	wordpools/wordpool_EN.txt	WEED	8	6	[0, 0, 0]	n/a	FR1	0	R1230J
1048.575	0.883	1189862	WORD_OFF	n/a	n/a	WEED	8	6	[0, 0, 0]	n/a	FR1	0	R1230J
1049.458	1.617	1190745	WORD	n/a	wordpools/wordpool_EN.txt	BAG	9	6	[0, 0, 0]	n/a	FR1	0	R1230J
1051.075	0.85	1192362	WORD_OFF	n/a	n/a	BAG	9	6	[0, 0, 0]	n/a	FR1	0	R1230J
1051.925	1.617	1193212	WORD	n/a	wordpools/wordpool_EN.txt	FOAM	10	6	[0, 0, 0]	n/a	FR1	0	R1230J
1053.542	0.834	1194829	WORD_OFF	n/a	n/a	FOAM	10	6	[0, 0, 0]	n/a	FR1	0	R1230J
1054.376	1.617	1195662	WORD	n/a	wordpools/wordpool_EN.txt	PALM	11	6	[0, 0, 0]	n/a	FR1	0	R1230J
1055.993	0.8	1197279	WORD_OFF	n/a	n/a	PALM	11	6	[0, 0, 0]	n/a	FR1	0	R1230J
1056.793	1.616	1198079	WORD	n/a	wordpools/wordpool_EN.txt	COW	12	6	[0, 0, 0]	n/a	FR1	0	R1230J
1058.409	0.0	1199695	WORD_OFF	n/a	n/a	COW	12	6	[0, 0, 0]	n/a	FR1	0	R1230J
1058.409	0.001	1199695	DISTRACT_START	n/a	n/a	n/a	-999	6	[0, 0, 0]	n/a	FR1	0	R1230J
1058.41	0.016	1199696	START	n/a	n/a	n/a	-999	6	[-999, -999, -999]	n/a	FR1	0	R1230J
1058.426	4.101	1199712	PROB	4.101	n/a	n/a	-999	6	[9, 4, 9]	22	FR1	0	R1230J
1062.527	3.85	1203813	PROB	3.85	n/a	n/a	-999	6	[7, 7, 2]	16	FR1	0	R1230J
1066.377	2.601	1207663	PROB	2.601	n/a	n/a	-999	6	[1, 7, 3]	11	FR1	0	R1230J
1068.978	2.685	1210264	PROB	2.685	n/a	n/a	-999	6	[6, 6, 1]	13	FR1	0	R1230J
1071.663	2.816	1212949	PROB	2.816	n/a	n/a	-999	6	[5, 5, 4]	14	FR1	0	R1230J
1074.479	5.498	1215765	PROB	5.498	n/a	n/a	-999	6	[3, 2, 9]	14	FR1	0	R1230J
1079.977	0.019	1221263	STOP	n/a	n/a	n/a	-999	6	[-999, -999, -999]	n/a	FR1	0	R1230J
1079.996	0.633	1221282	DISTRACT_END	n/a	n/a	n/a	-999	6	[0, 0, 0]	n/a	FR1	0	R1230J
1080.629	0.518	1221915	RETRIEVAL_ORIENT	n/a	n/a	n/a	-999	6	[0, 0, 0]	n/a	FR1	0	R1230J
1081.147	0.912	1222433	REC_START	n/a	n/a	n/a	-999	6	[0, 0, 0]	n/a	FR1	0	R1230J
1082.059	1.204	1223345	REC_WORD	1.204	n/a	SNOW	6	6	[0, 0, 0]	n/a	FR1	0	R1230J
1083.263	3.628	1224549	REC_WORD	3.628	n/a	GEESE	1	6	[0, 0, 0]	n/a	FR1	0	R1230J
1086.891	1.0	1228177	REC_WORD	1.0	n/a	FENCE	7	6	[0, 0, 0]	n/a	FR1	0	R1230J
1087.891	6.732	1229177	REC_WORD_VV	6.732	n/a	<>	-999	6	[0, 0, 0]	n/a	FR1	0	R1230J
1094.623	6.076	1235909	REC_WORD	6.076	n/a	HOOK	-999	6	[0, 0, 0]	n/a	FR1	0	R1230J
1100.699	10.459	1241985	REC_WORD_VV	10.459	n/a	<>	-999	6	[0, 0, 0]	n/a	FR1	0	R1230J
1111.158	7.426	1252444	REC_END	n/a	n/a	n/a	-999	6	[0, 0, 0]	n/a	FR1	0	R1230J
1118.584	0.5	1259870	TRIAL	n/a	n/a	n/a	-999	7	[0, 0, 0]	n/a	FR1	0	R1230J
1119.084	10.428	1260370	COUNTDOWN_START	n/a	n/a	n/a	-999	7	[0, 0, 0]	n/a	FR1	0	R1230J
1129.512	0.007	1270798	COUNTDOWN_END	n/a	n/a	n/a	-999	7	[0, 0, 0]	n/a	FR1	0	R1230J
1129.519	1.617	1270805	ORIENT	n/a	n/a	n/a	-999	7	[0, 0, 0]	n/a	FR1	0	R1230J
1131.136	1.967	1272422	ORIENT_OFF	n/a	n/a	n/a	-999	7	[0, 0, 0]	n/a	FR1	0	R1230J
1133.103	1.618	1274389	WORD	n/a	wordpools/wordpool_EN.txt	HORN	1	7	[0, 0, 0]	n/a	FR1	0	R1230J
1134.721	0.916	1276007	WORD_OFF	n/a	n/a	HORN	1	7	[0, 0, 0]	n/a	FR1	0	R1230J
1135.637	1.617	1276923	WORD	n/a	wordpools/wordpool_EN.txt	DRUM	2	7	[0, 0, 0]	n/a	FR1	0	R1230J
1137.254	0.783	1278540	WORD_OFF	n/a	n/a	DRUM	2	7	[0, 0, 0]	n/a	FR1	0	R1230J
1138.037	1.618	1279323	WORD	n/a	wordpools/wordpool_EN.txt	POND	3	7	[0, 0, 0]	n/a	FR1	0	R1230J
1139.655	0.966	1280941	WORD_OFF	n/a	n/a	POND	3	7	[0, 0, 0]	n/a	FR1	0	R1230J
1140.621	1.617	1281907	WORD	n/a	wordpools/wordpool_EN.txt	TOAD	4	7	[0, 0, 0]	n/a	FR1	0	R1230J
1142.238	0.783	1283524	WORD_OFF	n/a	n/a	TOAD	4	7	[0, 0, 0]	n/a	FR1	0	R1230J
1143.021	1.617	1284307	WORD	n/a	wordpools/wordpool_EN.txt	HOUSE	5	7	[0, 0, 0]	n/a	FR1	0	R1230J
1144.638	1.0	1285924	WORD_OFF	n/a	n/a	HOUSE	5	7	[0, 0, 0]	n/a	FR1	0	R1230J
1145.638	1.617	1286924	WORD	n/a	wordpools/wordpool_EN.txt	PLANE	6	7	[0, 0, 0]	n/a	FR1	0	R1230J
1147.255	0.817	1288541	WORD_OFF	n/a	n/a	PLANE	6	7	[0, 0, 0]	n/a	FR1	0	R1230J
1148.072	1.618	1289358	WORD	n/a	wordpools/wordpool_EN.txt	EEL	7	7	[0, 0, 0]	n/a	FR1	0	R1230J
1149.69	0.765	1290976	WORD_OFF	n/a	n/a	EEL	7	7	[0, 0, 0]	n/a	FR1	0	R1230J
1150.455	1.617	1291741	WORD	n/a	wordpools/wordpool_EN.txt	JUDGE	8	7	[0, 0, 0]	n/a	FR1	0	R1230J
1152.072	0.951	1293358	WORD_OFF	n/a	n/a	JUDGE	8	7	[0, 0, 0]	n/a	FR1	0	R1230J
1153.023	1.616	1294309	WORD	n/a	wordpools/wordpool_EN.txt	SHIP	9	7	[0, 0, 0]	n/a	FR1	0	R1230J
1154.639	0.917	1295925	WORD_OFF	n/a	n/a	SHIP	9	7	[0, 0, 0]	n/a	FR1	0	R1230J
1155.556	1.617	1296842	WORD	n/a	wordpools/wordpool_EN.txt	CORD	10	7	[0, 0, 0]	n/a	FR1	0	R1230J
1157.173	0.783	1298459	WORD_OFF	n/a	n/a	CORD	10	7	[0, 0, 0]	n/a	FR1	0	R1230J
1157.956	1.617	1299242	WORD	n/a	wordpools/wordpool_EN.txt	LEAF	11	7	[0, 0, 0]	n/a	FR1	0	R1230J
1159.573	0.934	1300859	WORD_OFF	n/a	n/a	LEAF	11	7	[0, 0, 0]	n/a	FR1	0	R1230J
1160.507	1.617	1301793	WORD	n/a	wordpools/wordpool_EN.txt	HORSE	12	7	[0, 0, 0]	n/a	FR1	0	R1230J
1162.124	0.0	1303410	WORD_OFF	n/a	n/a	HORSE	12	7	[0, 0, 0]	n/a	FR1	0	R1230J
1162.124	0.001	1303410	DISTRACT_START	n/a	n/a	n/a	-999	7	[0, 0, 0]	n/a	FR1	0	R1230J
1162.125	0.015	1303411	START	n/a	n/a	n/a	-999	7	[-999, -999, -999]	n/a	FR1	0	R1230J
1162.14	3.901	1303426	PROB	3.901	n/a	n/a	-999	7	[1, 2, 9]	12	FR1	0	R1230J
1166.041	3.4	1307327	PROB	3.4	n/a	n/a	-999	7	[7, 3, 5]	15	FR1	0	R1230J
1169.441	3.417	1310727	PROB	3.417	n/a	n/a	-999	7	[7, 4, 6]	17	FR1	0	R1230J
1172.858	4.451	1314144	PROB	4.451	n/a	n/a	-999	7	[8, 8, 7]	21	FR1	0	R1230J
1177.309	3.584	1318595	PROB	3.584	n/a	n/a	-999	7	[3, 5, 2]	11	FR1	0	R1230J
1180.893	3.321	1322179	PROB	3.321	n/a	n/a	-999	7	[6, 4, 5]	15	FR1	0	R1230J
1184.214	0.013	1325500	STOP	n/a	n/a	n/a	-999	7	[-999, -999, -999]	n/a	FR1	0	R1230J
1184.227	0.533	1325513	DISTRACT_END	n/a	n/a	n/a	-999	7	[0, 0, 0]	n/a	FR1	0	R1230J
1184.76	0.518	1326046	RETRIEVAL_ORIENT	n/a	n/a	n/a	-999	7	[0, 0, 0]	n/a	FR1	0	R1230J
1185.278	0.642	1326564	REC_START	n/a	n/a	n/a	-999	7	[0, 0, 0]	n/a	FR1	0	R1230J
1185.92	0.751	1327206	REC_WORD	0.751	n/a	HORN	1	7	[0, 0, 0]	n/a	FR1	0	R1230J
1186.671	1.743	1327957	REC_WORD	1.743	n/a	DRUM	2	7	[0, 0, 0]	n/a	FR1	0	R1230J
1188.414	3.217	1329700	REC_WORD	3.217	n/a	TOAD	4	7	[0, 0, 0]	n/a	FR1	0	R1230J
1191.631	4.059	1332917	REC_WORD	4.059	n/a	MODE	-999	7	[0, 0, 0]	n/a	FR1	0	R1230J
1195.69	4.433	1336976	REC_WORD	4.433	n/a	EEL	7	7	[0, 0, 0]	n/a	FR1	0	R1230J
1200.123	3.307	1341409	REC_WORD	3.307	n/a	HORSE	12	7	[0, 0, 0]	n/a	FR1	0	R1230J
1203.43	0.449	1344716	REC_WORD_VV	0.449	n/a	<>	-999	7	[0, 0, 0]	n/a	FR1	0	R1230J
1203.879	0.436	1345165	REC_WORD	0.436	n/a	DRUM	2	7	[0, 0, 0]	n/a	FR1	0	R1230J
1204.315	1.705	1345601	REC_WORD	1.705	n/a	CALF	-999	7	[0, 0, 0]	n/a	FR1	0	R1230J
1206.02	0.244	1347306	REC_WORD_VV	0.244	n/a	<>	-999	7	[0, 0, 0]	n/a	FR1	0	R1230J
1206.264	0.424	1347550	REC_WORD	0.424	n/a	DRUM	2	7	[0, 0, 0]	n/a	FR1	0	R1230J
1206.688	2.106	1347974	REC_WORD	2.106	n/a	CAT	-999	7	[0, 0, 0]	n/a	FR1	0	R1230J
1208.794	1.0	1350080	REC_WORD_VV	1.0	n/a	<>	-999	7	[0, 0, 0]	n/a	FR1	0	R1230J
1209.794	5.494	1351080	REC_WORD_VV	5.494	n/a	<>	-999	7	[0, 0, 0]	n/a	FR1	0	R1230J
1215.288	5.327	1356574	REC_END	n/a	n/a	n/a	-999	7	[0, 0, 0]	n/a	FR1	0	R1230J
1220.615	0.5	1361901	TRIAL	n/a	n/a	n/a	-999	8	[0, 0, 0]	n/a	FR1	0	R1230J
1221.115	10.428	1362401	COUNTDOWN_START	n/a	n/a	n/a	-999	8	[0, 0, 0]	n/a	FR1	0	R1230J
1231.543	0.007	1372829	COUNTDOWN_END	n/a	n/a	n/a	-999	8	[0, 0, 0]	n/a	FR1	0	R1230J
1231.55	1.616	1372836	ORIENT	n/a	n/a	n/a	-999	8	[0, 0, 0]	n/a	FR1	0	R1230J
1233.166	2.201	1374452	ORIENT_OFF	n/a	n/a	n/a	-999	8	[0, 0, 0]	n/a	FR1	0	R1230J
1235.367	1.617	1376653	WORD	n/a	wordpools/wordpool_EN.txt	DOLL	1	8	[0, 0, 0]	n/a	FR1	0	R1230J
1236.984	0.833	1378270	WORD_OFF	n/a	n/a	DOLL	1	8	[0, 0, 0]	n/a	FR1	0	R1230J
1237.817	1.617	1379103	WORD	n/a	wordpools/wordpool_EN.txt	MOOSE	2	8	[0, 0, 0]	n/a	FR1	0	R1230J
1239.434	0.817	1380720	WORD_OFF	n/a	n/a	MOOSE	2	8	[0, 0, 0]	n/a	FR1	0	R1230J
1240.251	1.617	1381537	WORD	n/a	wordpools/wordpool_EN.txt	FOX	3	8	[0, 0, 0]	n/a	FR1	0	R1230J
1241.868	0.851	1383154	WORD_OFF	n/a	n/a	FOX	3	8	[0, 0, 0]	n/a	FR1	0	R1230J
1242.719	1.616	1384005	WORD	n/a	wordpools/wordpool_EN.txt	ARM	4	8	[0, 0, 0]	n/a	FR1	0	R1230J
1244.335	0.8	1385621	WORD_OFF	n/a	n/a	ARM	4	8	[0, 0, 0]	n/a	FR1	0	R1230J
1245.135	1.617	1386421	WORD	n/a	wordpools/wordpool_EN.txt	LOCK	5	8	[0, 0, 0]	n/a	FR1	0	R1230J
1246.752	0.951	1388038	WORD_OFF	n/a	n/a	LOCK	5	8	[0, 0, 0]	n/a	FR1	0	R1230J
1247.703	1.616	1388989	WORD	n/a	wordpools/wordpool_EN.txt	STEAK	6	8	[0, 0, 0]	n/a	FR1	0	R1230J
1249.319	0.983	1390605	WORD_OFF	n/a	n/a	STEAK	6	8	[0, 0, 0]	n/a	FR1	0	R1230J
1250.302	1.617	1391588	WORD	n/a	wordpools/wordpool_EN.txt	BRICK	7	8	[0, 0, 0]	n/a	FR1	0	R1230J
1251.919	0.801	1393205	WORD_OFF	n/a	n/a	BRICK	7	8	[0, 0, 0]	n/a	FR1	0	R1230J
1252.72	1.616	1394006	WORD	n/a	wordpools/wordpool_EN.txt	VEST	8	8	[0, 0, 0]	n/a	FR1	0	R1230J
1254.336	0.834	1395622	WORD_OFF	n/a	n/a	VEST	8	8	[0, 0, 0]	n/a	FR1	0	R1230J
1255.17	1.617	1396456	WORD	n/a	wordpools/wordpool_EN.txt	SHOE	9	8	[0, 0, 0]	n/a	FR1	0	R1230J
1256.787	0.884	1398073	WORD_OFF	n/a	n/a	SHOE	9	8	[0, 0, 0]	n/a	FR1	0	R1230J
1257.671	1.616	1398957	WORD	n/a	wordpools/wordpool_EN.txt	JEEP	10	8	[0, 0, 0]	n/a	FR1	0	R1230J
1259.287	0.783	1400573	WORD_OFF	n/a	n/a	JEEP	10	8	[0, 0, 0]	n/a	FR1	0	R1230J
1260.07	1.618	1401356	WORD	n/a	wordpools/wordpool_EN.txt	LEG	11	8	[0, 0, 0]	n/a	FR1	0	R1230J
1261.688	0.766	1402974	WORD_OFF	n/a	n/a	LEG	11	8	[0, 0, 0]	n/a	FR1	0	R1230J
1262.454	1.617	1403740	WORD	n/a	wordpools/wordpool_EN.txt	SHIRT	12	8	[0, 0, 0]	n/a	FR1	0	R1230J
1264.071	0.0	1405357	WORD_OFF	n/a	n/a	SHIRT	12	8	[0, 0, 0]	n/a	FR1	0	R1230J
1264.071	0.001	1405357	DISTRACT_START	n/a	n/a	n/a	-999	8	[0, 0, 0]	n/a	FR1	0	R1230J
1264.072	0.016	1405358	START	n/a	n/a	n/a	-999	8	[-999, -999, -999]	n/a	FR1	0	R1230J
1264.088	3.767	1405374	PROB	3.767	n/a	n/a	-999	8	[7, 4, 4]	15	FR1	0	R1230J
1267.855	6.067	1409141	PROB	6.067	n/a	n/a	-999	8	[7, 6, 6]	19	FR1	0	R1230J
1273.922	3.534	1415208	PROB	3.534	n/a	n/a	-999	8	[3, 4, 5]	12	FR1	0	R1230J
1277.456	3.35	1418742	PROB	3.35	n/a	n/a	-999	8	[4, 4, 2]	10	FR1	0	R1230J
1280.806	7.242	1422092	PROB	7.242	n/a	n/a	-999	8	[7, 8, 9]	23	FR1	0	R1230J
1288.048	0.009	1429334	STOP	n/a	n/a	n/a	-999	8	[-999, -999, -999]	n/a	FR1	0	R1230J
1288.057	0.55	1429343	DISTRACT_END	n/a	n/a	n/a	-999	8	[0, 0, 0]	n/a	FR1	0	R1230J
1288.607	0.518	1429893	RETRIEVAL_ORIENT	n/a	n/a	n/a	-999	8	[0, 0, 0]	n/a	FR1	0	R1230J
1289.125	2.624	1430411	REC_START	n/a	n/a	n/a	-999	8	[0, 0, 0]	n/a	FR1	0	R1230J
1291.749	3.839	1433035	REC_WORD	3.839	n/a	HORSE	-999	8	[0, 0, 0]	n/a	FR1	0	R1230J
1295.588	4.212	1436874	REC_WORD	4.212	n/a	ARM	4	8	[0, 0, 0]	n/a	FR1	0	R1230J
1299.8	8.816	1441086	REC_WORD_VV	8.816	n/a	<>	-999	8	[0, 0, 0]	n/a	FR1	0	R1230J
1308.616	3.56	1449902	REC_WORD_VV	3.56	n/a	<>	-999	8	[0, 0, 0]	n/a	FR1	0	R1230J
1312.176	0.463	1453461	REC_WORD	0.463	n/a	ARM	4	8	[0, 0, 0]	n/a	FR1	0	R1230J
1312.639	5.62	1453924	REC_WORD	5.62	n/a	LEG	11	8	[0, 0, 0]	n/a	FR1	0	R1230J
1318.259	0.875	1459544	REC_WORD	0.875	n/a	TOAD	-999	8	[0, 0, 0]	n/a	FR1	0	R1230J
1319.134	6.012	1460419	REC_END	n/a	n/a	n/a	-999	8	[0, 0, 0]	n/a	FR1	0	R1230J
1325.146	0.5	1466431	TRIAL	n/a	n/a	n/a	-999	9	[0, 0, 0]	n/a	FR1	0	R1230J
1325.646	10.428	1466931	COUNTDOWN_START	n/a	n/a	n/a	-999	9	[0, 0, 0]	n/a	FR1	0	R1230J
1336.074	0.007	1477359	COUNTDOWN_END	n/a	n/a	n/a	-999	9	[0, 0, 0]	n/a	FR1	0	R1230J
1336.081	1.618	1477366	ORIENT	n/a	n/a	n/a	-999	9	[0, 0, 0]	n/a	FR1	0	R1230J
1337.699	1.983	1478984	ORIENT_OFF	n/a	n/a	n/a	-999	9	[0, 0, 0]	n/a	FR1	0	R1230J
1339.682	1.616	1480967	WORD	n/a	wordpools/wordpool_EN.txt	LIP	1	9	[0, 0, 0]	n/a	FR1	0	R1230J
1341.298	0.983	1482583	WORD_OFF	n/a	n/a	LIP	1	9	[0, 0, 0]	n/a	FR1	0	R1230J
1342.281	1.617	1483566	WORD	n/a	wordpools/wordpool_EN.txt	SHIELD	2	9	[0, 0, 0]	n/a	FR1	0	R1230J
1343.898	0.967	1485183	WORD_OFF	n/a	n/a	SHIELD	2	9	[0, 0, 0]	n/a	FR1	0	R1230J
1344.865	1.617	1486150	WORD	n/a	wordpools/wordpool_EN.txt	SWORD	3	9	[0, 0, 0]	n/a	FR1	0	R1230J
1346.482	0.833	1487767	WORD_OFF	n/a	n/a	SWORD	3	9	[0, 0, 0]	n/a	FR1	0	R1230J
1347.315	1.617	1488600	WORD	n/a	wordpools/wordpool_EN.txt	LAMP	4	9	[0, 0, 0]	n/a	FR1	0	R1230J
1348.932	0.983	1490217	WORD_OFF	n/a	n/a	LAMP	4	9	[0, 0, 0]	n/a	FR1	0	R1230J
1349.915	1.617	1491200	WORD	n/a	wordpools/wordpool_EN.txt	FACE	5	9	[0, 0, 0]	n/a	FR1	0	R1230J
1351.532	0.801	1492817	WORD_OFF	n/a	n/a	FACE	5	9	[0, 0, 0]	n/a	FR1	0	R1230J
1352.333	1.616	1493618	WORD	n/a	wordpools/wordpool_EN.txt	ARK	6	9	[0, 0, 0]	n/a	FR1	0	R1230J
1353.949	0.802	1495234	WORD_OFF	n/a	n/a	ARK	6	9	[0, 0, 0]	n/a	FR1	0	R1230J
1354.751	1.616	1496036	WORD	n/a	wordpools/wordpool_EN.txt	SPEAR	7	9	[0, 0, 0]	n/a	FR1	0	R1230J
1356.367	0.933	1497652	WORD_OFF	n/a	n/a	SPEAR	7	9	[0, 0, 0]	n/a	FR1	0	R1230J
1357.3	1.617	1498585	WORD	n/a	wordpools/wordpool_EN.txt	GOAT	8	9	[0, 0, 0]	n/a	FR1	0	R1230J
1358.917	0.933	1500202	WORD_OFF	n/a	n/a	GOAT	8	9	[0, 0, 0]	n/a	FR1	0	R1230J
1359.85	1.617	1501135	WORD	n/a	wordpools/wordpool_EN.txt	STEAM	9	9	[0, 0, 0]	n/a	FR1	0	R1230J
1361.467	0.817	1502752	WORD_OFF	n/a	n/a	STEAM	9	9	[0, 0, 0]	n/a	FR1	0	R1230J
1362.284	1.617	1503569	WORD	n/a	wordpools/wordpool_EN.txt	SEAT	10	9	[0, 0, 0]	n/a	FR1	0	R1230J
1363.901	0.85	1505186	WORD_OFF	n/a	n/a	SEAT	10	9	[0, 0, 0]	n/a	FR1	0	R1230J
1364.751	1.617	1506036	WORD	n/a	wordpools/wordpool_EN.txt	LAMB	11	9	[0, 0, 0]	n/a	FR1	0	R1230J
1366.368	0.783	1507653	WORD_OFF	n/a	n/a	LAMB	11	9	[0, 0, 0]	n/a	FR1	0	R1230J
1367.151	1.617	1508436	WORD	n/a	wordpools/wordpool_EN.txt	DESK	12	9	[0, 0, 0]	n/a	FR1	0	R1230J
1368.768	0.0	1510053	WORD_OFF	n/a	n/a	DESK	12	9	[0, 0, 0]	n/a	FR1	0	R1230J
1368.768	0.001	1510053	DISTRACT_START	n/a	n/a	n/a	-999	9	[0, 0, 0]	n/a	FR1	0	R1230J
1368.769	0.015	1510054	START	n/a	n/a	n/a	-999	9	[-999, -999, -999]	n/a	FR1	0	R1230J
1368.784	3.784	1510069	PROB	3.784	n/a	n/a	-999	9	[3, 2, 1]	6	FR1	0	R1230J
1372.568	3.834	1513853	PROB	3.834	n/a	n/a	-999	9	[2, 1, 6]	9	FR1	0	R1230J
1376.402	3.134	1517687	PROB	3.134	n/a	n/a	-999	9	[9, 1, 1]	11	FR1	0	R1230J
1379.536	3.884	1520821	PROB	3.884	n/a	n/a	-999	9	[4, 6, 8]	18	FR1	0	R1230J
1383.42	3.634	1524705	PROB	3.634	n/a	n/a	-999	9	[3, 7, 5]	15	FR1	0	R1230J
1387.054	5.127	1528339	PROB	5.127	n/a	n/a	-999	9	[9, 2, 7]	18	FR1	0	R1230J
1392.181	0.006	1533466	STOP	n/a	n/a	n/a	-999	9	[-999, -999, -999]	n/a	FR1	0	R1230J
1392.187	0.634	1533472	DISTRACT_END	n/a	n/a	n/a	-999	9	[0, 0, 0]	n/a	FR1	0	R1230J
1392.821	0.517	1534106	RETRIEVAL_ORIENT	n/a	n/a	n/a	-999	9	[0, 0, 0]	n/a	FR1	0	R1230J
1393.338	0.869	1534623	REC_START	n/a	n/a	n/a	-999	9	[0, 0, 0]	n/a	FR1	0	R1230J
1394.207	1.827	1535492	REC_WORD	1.827	n/a	LIP	1	9	[0, 0, 0]	n/a	FR1	0	R1230J
1396.034	1.034	1537319	REC_WORD_VV	1.034	n/a	<>	-999	9	[0, 0, 0]	n/a	FR1	0	R1230J
1397.068	1.904	1538353	REC_WORD	1.904	n/a	LIP	1	9	[0, 0, 0]	n/a	FR1	0	R1230J
1398.972	3.87	1540257	REC_WORD	3.87	n/a	LAMP	4	9	[0, 0, 0]	n/a	FR1	0	R1230J
1402.842	5.013	1544127	REC_WORD_VV	5.013	n/a	<>	-999	9	[0, 0, 0]	n/a	FR1	0	R1230J
1407.855	0.708	1549140	REC_WORD_VV	0.708	n/a	<>	-999	9	[0, 0, 0]	n/a	FR1	0	R1230J
1408.563	4.839	1549848	REC_WORD	4.839	n/a	SHEEP	-999	9	[0, 0, 0]	n/a	FR1	0	R1230J
1413.402	4.845	1554687	REC_WORD	4.845	n/a	TASK	-999	9	[0, 0, 0]	n/a	FR1	0	R1230J
1418.247	4.343	1559532	REC_WORD	4.343	n/a	BOMB	-999	9	[0, 0, 0]	n/a	FR1	0	R1230J
1422.59	0.76	1563875	REC_WORD_VV	0.76	n/a	<>	-999	9	[0, 0, 0]	n/a	FR1	0	R1230J
1423.35	5.726	1564635	REC_END	n/a	n/a	n/a	-999	9	[0, 0, 0]	n/a	FR1	0	R1230J
1429.076	0.5	1570361	TRIAL	n/a	n/a	n/a	-999	10	[0, 0, 0]	n/a	FR1	0	R1230J
1429.576	10.428	1570861	COUNTDOWN_START	n/a	n/a	n/a	-999	10	[0, 0, 0]	n/a	FR1	0	R1230J
1440.004	0.007	1581289	COUNTDOWN_END	n/a	n/a	n/a	-999	10	[0, 0, 0]	n/a	FR1	0	R1230J
1440.011	1.617	1581296	ORIENT	n/a	n/a	n/a	-999	10	[0, 0, 0]	n/a	FR1	0	R1230J
1441.628	2.0	1582913	ORIENT_OFF	n/a	n/a	n/a	-999	10	[0, 0, 0]	n/a	FR1	0	R1230J
1443.628	1.617	1584913	WORD	n/a	wordpools/wordpool_EN.txt	FARM	1	10	[0, 0, 0]	n/a	FR1	0	R1230J
1445.245	0.783	1586530	WORD_OFF	n/a	n/a	FARM	1	10	[0, 0, 0]	n/a	FR1	0	R1230J
1446.028	1.617	1587313	WORD	n/a	wordpools/wordpool_EN.txt	SPARK	2	10	[0, 0, 0]	n/a	FR1	0	R1230J
1447.645	0.967	1588930	WORD_OFF	n/a	n/a	SPARK	2	10	[0, 0, 0]	n/a	FR1	0	R1230J
1448.612	1.617	1589897	WORD	n/a	wordpools/wordpool_EN.txt	FLAG	3	10	[0, 0, 0]	n/a	FR1	0	R1230J
1450.229	0.8	1591514	WORD_OFF	n/a	n/a	FLAG	3	10	[0, 0, 0]	n/a	FR1	0	R1230J
1451.029	1.617	1592314	WORD	n/a	wordpools/wordpool_EN.txt	SHEEP	4	10	[0, 0, 0]	n/a	FR1	0	R1230J
1452.646	0.783	1593931	WORD_OFF	n/a	n/a	SHEEP	4	10	[0, 0, 0]	n/a	FR1	0	R1230J
1453.429	1.617	1594714	WORD	n/a	wordpools/wordpool_EN.txt	CHALK	5	10	[0, 0, 0]	n/a	FR1	0	R1230J
1455.046	0.817	1596331	WORD_OFF	n/a	n/a	CHALK	5	10	[0, 0, 0]	n/a	FR1	0	R1230J
1455.863	1.617	1597148	WORD	n/a	wordpools/wordpool_EN.txt	RAT	6	10	[0, 0, 0]	n/a	FR1	0	R1230J
1457.48	0.85	1598765	WORD_OFF	n/a	n/a	RAT	6	10	[0, 0, 0]	n/a	FR1	0	R1230J
1458.33	1.617	1599615	WORD	n/a	wordpools/wordpool_EN.txt	CLOUD	7	10	[0, 0, 0]	n/a	FR1	0	R1230J
1459.947	0.983	1601232	WORD_OFF	n/a	n/a	CLOUD	7	10	[0, 0, 0]	n/a	FR1	0	R1230J
1460.93	1.617	1602215	WORD	n/a	wordpools/wordpool_EN.txt	SHARK	8	10	[0, 0, 0]	n/a	FR1	0	R1230J
1462.547	0.767	1603832	WORD_OFF	n/a	n/a	SHARK	8	10	[0, 0, 0]	n/a	FR1	0	R1230J
1463.314	1.617	1604599	WORD	n/a	wordpools/wordpool_EN.txt	SNAIL	9	10	[0, 0, 0]	n/a	FR1	0	R1230J
1464.931	0.917	1606216	WORD_OFF	n/a	n/a	SNAIL	9	10	[0, 0, 0]	n/a	FR1	0	R1230J
1465.848	1.616	1607133	WORD	n/a	wordpools/wordpool_EN.txt	SEED	10	10	[0, 0, 0]	n/a	FR1	0	R1230J
1467.464	0.8	1608749	WORD_OFF	n/a	n/a	SEED	10	10	[0, 0, 0]	n/a	FR1	0	R1230J
1468.264	1.617	1609549	WORD	n/a	wordpools/wordpool_EN.txt	SWAMP	11	10	[0, 0, 0]	n/a	FR1	0	R1230J
1469.881	0.9	1611166	WORD_OFF	n/a	n/a	SWAMP	11	10	[0, 0, 0]	n/a	FR1	0	R1230J
1470.781	1.617	1612066	WORD	n/a	wordpools/wordpool_EN.txt	CANE	12	10	[0, 0, 0]	n/a	FR1	0	R1230J
1472.398	0.0	1613683	DISTRACT_START	n/a	n/a	n/a	-999	10	[0, 0, 0]	n/a	FR1	0	R1230J
1472.398	0.001	1613683	WORD_OFF	n/a	n/a	CANE	12	10	[0, 0, 0]	n/a	FR1	0	R1230J
1472.399	0.016	1613684	START	n/a	n/a	n/a	-999	10	[-999, -999, -999]	n/a	FR1	0	R1230J
1472.415	4.235	1613700	PROB	4.235	n/a	n/a	-999	10	[3, 1, 2]	5	FR1	0	R1230J
1476.65	7.067	1617935	PROB	7.067	n/a	n/a	-999	10	[7, 9, 5]	21	FR1	0	R1230J
1483.717	3.5	1625002	PROB	3.5	n/a	n/a	-999	10	[2, 9, 9]	20	FR1	0	R1230J
1487.217	6.778	1628502	PROB	6.778	n/a	n/a	-999	10	[3, 4, 9]	16	FR1	0	R1230J
1493.995	0.007	1635280	STOP	n/a	n/a	n/a	-999	10	[-999, -999, -999]	n/a	FR1	0	R1230J
1494.002	0.533	1635287	DISTRACT_END	n/a	n/a	n/a	-999	10	[0, 0, 0]	n/a	FR1	0	R1230J
1494.535	0.518	1635820	RETRIEVAL_ORIENT	n/a	n/a	n/a	-999	10	[0, 0, 0]	n/a	FR1	0	R1230J
1495.053	1.795	1636338	REC_START	n/a	n/a	n/a	-999	10	[0, 0, 0]	n/a	FR1	0	R1230J
1496.848	1.436	1638133	REC_WORD	1.436	n/a	SWAMP	11	10	[0, 0, 0]	n/a	FR1	0	R1230J
1498.284	2.312	1639569	REC_WORD	2.312	n/a	SNAIL	9	10	[0, 0, 0]	n/a	FR1	0	R1230J
1500.596	4.045	1641881	REC_WORD	4.045	n/a	RAT	6	10	[0, 0, 0]	n/a	FR1	0	R1230J
1504.641	8.677	1645926	REC_WORD	8.677	n/a	FARM	1	10	[0, 0, 0]	n/a	FR1	0	R1230J
1513.318	9.011	1654603	REC_WORD	9.011	n/a	CHALK	5	10	[0, 0, 0]	n/a	FR1	0	R1230J
1522.329	2.735	1663614	REC_WORD	2.735	n/a	STORE	-999	10	[0, 0, 0]	n/a	FR1	0	R1230J
1525.064	4.575	1666349	REC_END	n/a	n/a	n/a	-999	10	[0, 0, 0]	n/a	FR1	0	R1230J
1529.639	0.5	1670924	TRIAL	n/a	n/a	n/a	-999	11	[0, 0, 0]	n/a	FR1	0	R1230J
1530.139	10.428	1671424	COUNTDOWN_START	n/a	n/a	n/a	-999	11	[0, 0, 0]	n/a	FR1	0	R1230J
1540.567	0.007	1681852	COUNTDOWN_END	n/a	n/a	n/a	-999	11	[0, 0, 0]	n/a	FR1	0	R1230J
1540.574	1.617	1681859	ORIENT	n/a	n/a	n/a	-999	11	[0, 0, 0]	n/a	FR1	0	R1230J
1542.191	1.95	1683476	ORIENT_OFF	n/a	n/a	n/a	-999	11	[0, 0, 0]	n/a	FR1	0	R1230J
1544.141	1.617	1685426	WORD	n/a	wordpools/wordpool_EN.txt	FLOOR	1	11	[0, 0, 0]	n/a	FR1	0	R1230J
1545.758	0.884	1687043	WORD_OFF	n/a	n/a	FLOOR	1	11	[0, 0, 0]	n/a	FR1	0	R1230J
1546.642	1.617	1687927	WORD	n/a	wordpools/wordpool_EN.txt	HOOF	2	11	[0, 0, 0]	n/a	FR1	0	R1230J
1548.259	1.0	1689544	WORD_OFF	n/a	n/a	HOOF	2	11	[0, 0, 0]	n/a	FR1	0	R1230J
1549.259	1.617	1690544	WORD	n/a	wordpools/wordpool_EN.txt	SKUNK	3	11	[0, 0, 0]	n/a	FR1	0	R1230J
1550.876	0.95	1692161	WORD_OFF	n/a	n/a	SKUNK	3	11	[0, 0, 0]	n/a	FR1	0	R1230J
1551.826	1.617	1693111	WORD	n/a	wordpools/wordpool_EN.txt	SNAKE	4	11	[0, 0, 0]	n/a	FR1	0	R1230J
1553.443	0.917	1694728	WORD_OFF	n/a	n/a	SNAKE	4	11	[0, 0, 0]	n/a	FR1	0	R1230J
1554.36	1.617	1695645	WORD	n/a	wordpools/wordpool_EN.txt	CAKE	5	11	[0, 0, 0]	n/a	FR1	0	R1230J
1555.977	0.883	1697262	WORD_OFF	n/a	n/a	CAKE	5	11	[0, 0, 0]	n/a	FR1	0	R1230J
1556.86	1.617	1698145	WORD	n/a	wordpools/wordpool_EN.txt	CHAIR	6	11	[0, 0, 0]	n/a	FR1	0	R1230J
1558.477	0.766	1699762	WORD_OFF	n/a	n/a	CHAIR	6	11	[0, 0, 0]	n/a	FR1	0	R1230J
1559.243	1.617	1700528	WORD	n/a	wordpools/wordpool_EN.txt	STICK	7	11	[0, 0, 0]	n/a	FR1	0	R1230J
1560.86	0.868	1702145	WORD_OFF	n/a	n/a	STICK	7	11	[0, 0, 0]	n/a	FR1	0	R1230J
1561.728	1.616	1703013	WORD	n/a	wordpools/wordpool_EN.txt	PEACH	8	11	[0, 0, 0]	n/a	FR1	0	R1230J
1563.344	0.8	1704629	WORD_OFF	n/a	n/a	PEACH	8	11	[0, 0, 0]	n/a	FR1	0	R1230J
1564.144	1.601	1705429	WORD	n/a	wordpools/wordpool_EN.txt	POOL	9	11	[0, 0, 0]	n/a	FR1	0	R1230J
1565.745	0.934	1707029	WORD_OFF	n/a	n/a	POOL	9	11	[0, 0, 0]	n/a	FR1	0	R1230J
1566.679	1.615	1707963	WORD	n/a	wordpools/wordpool_EN.txt	PASTE	10	11	[0, 0, 0]	n/a	FR1	0	R1230J
1568.294	0.784	1709578	WORD_OFF	n/a	n/a	PASTE	10	11	[0, 0, 0]	n/a	FR1	0	R1230J
1569.078	1.618	1710362	WORD	n/a	wordpools/wordpool_EN.txt	SOCK	11	11	[0, 0, 0]	n/a	FR1	0	R1230J
1570.696	0.799	1711980	WORD_OFF	n/a	n/a	SOCK	11	11	[0, 0, 0]	n/a	FR1	0	R1230J
1571.495	1.617	1712779	WORD	n/a	wordpools/wordpool_EN.txt	CAGE	12	11	[0, 0, 0]	n/a	FR1	0	R1230J
1573.112	0.0	1714396	WORD_OFF	n/a	n/a	CAGE	12	11	[0, 0, 0]	n/a	FR1	0	R1230J
1573.112	0.001	1714396	DISTRACT_START	n/a	n/a	n/a	-999	11	[0, 0, 0]	n/a	FR1	0	R1230J
1573.113	0.016	1714397	START	n/a	n/a	n/a	-999	11	[-999, -999, -999]	n/a	FR1	0	R1230J
1573.129	3.585	1714413	PROB	3.585	n/a	n/a	-999	11	[9, 9, 3]	21	FR1	0	R1230J
1576.714	3.95	1717998	PROB	3.95	n/a	n/a	-999	11	[5, 3, 6]	13	FR1	0	R1230J
1580.664	3.749	1721948	PROB	3.749	n/a	n/a	-999	11	[8, 1, 3]	12	FR1	0	R1230J
1584.413	3.967	1725697	PROB	3.967	n/a	n/a	-999	11	[4, 2, 5]	11	FR1	0	R1230J
1588.38	2.834	1729664	PROB	2.834	n/a	n/a	-999	11	[5, 4, 3]	11	FR1	0	R1230J
1591.214	3.729	1732498	PROB	3.729	n/a	n/a	-999	11	[2, 5, 3]	10	FR1	0	R1230J
1594.943	0.005	1736227	STOP	n/a	n/a	n/a	-999	11	[-999, -999, -999]	n/a	FR1	0	R1230J
1594.948	0.534	1736232	DISTRACT_END	n/a	n/a	n/a	-999	11	[0, 0, 0]	n/a	FR1	0	R1230J
1595.482	0.517	1736766	RETRIEVAL_ORIENT	n/a	n/a	n/a	-999	11	[0, 0, 0]	n/a	FR1	0	R1230J
1595.999	9.837	1737283	REC_START	n/a	n/a	n/a	-999	11	[0, 0, 0]	n/a	FR1	0	R1230J
1605.836	0.9	1747120	REC_WORD	0.9	n/a	CART	-999	11	[0, 0, 0]	n/a	FR1	0	R1230J
1606.736	4.965	1748020	REC_WORD	4.965	n/a	CANE	-999	11	[0, 0, 0]	n/a	FR1	0	R1230J
1611.701	5.562	1752985	REC_WORD_VV	5.562	n/a	<>	-999	11	[0, 0, 0]	n/a	FR1	0	R1230J
1617.263	8.747	1758547	REC_WORD	8.747	n/a	FARM	-999	11	[0, 0, 0]	n/a	FR1	0	R1230J
1626.01	4.593	1767294	REC_END	n/a	n/a	n/a	-999	11	[0, 0, 0]	n/a	FR1	0	R1230J
1630.603	0.5	1771887	TRIAL	n/a	n/a	n/a	-999	12	[0, 0, 0]	n/a	FR1	0	R1230J
1631.103	10.428	1772387	COUNTDOWN_START	n/a	n/a	n/a	-999	12	[0, 0, 0]	n/a	FR1	0	R1230J
1641.531	0.007	1782815	COUNTDOWN_END	n/a	n/a	n/a	-999	12	[0, 0, 0]	n/a	FR1	0	R1230J
1641.538	1.617	1782822	ORIENT	n/a	n/a	n/a	-999	12	[0, 0, 0]	n/a	FR1	0	R1230J
1643.155	2.05	1784439	ORIENT_OFF	n/a	n/a	n/a	-999	12	[0, 0, 0]	n/a	FR1	0	R1230J
1645.205	1.617	1786489	WORD	n/a	wordpools/wordpool_EN.txt	TOOTH	1	12	[0, 0, 0]	n/a	FR1	0	R1230J
1646.822	0.767	1788106	WORD_OFF	n/a	n/a	TOOTH	1	12	[0, 0, 0]	n/a	FR1	0	R1230J
1647.589	1.616	1788873	WORD	n/a	wordpools/wordpool_EN.txt	CAVE	2	12	[0, 0, 0]	n/a	FR1	0	R1230J
1649.205	0.784	1790489	WORD_OFF	n/a	n/a	CAVE	2	12	[0, 0, 0]	n/a	FR1	0	R1230J
1649.989	1.617	1791273	WORD	n/a	wordpools/wordpool_EN.txt	TEA	3	12	[0, 0, 0]	n/a	FR1	0	R1230J
1651.606	0.85	1792890	WORD_OFF	n/a	n/a	TEA	3	12	[0, 0, 0]	n/a	FR1	0	R1230J
1652.456	1.617	1793740	WORD	n/a	wordpools/wordpool_EN.txt	SLIME	4	12	[0, 0, 0]	n/a	FR1	0	R1230J
1654.073	0.833	1795357	WORD_OFF	n/a	n/a	SLIME	4	12	[0, 0, 0]	n/a	FR1	0	R1230J
1654.906	1.617	1796190	WORD	n/a	wordpools/wordpool_EN.txt	BIRD	5	12	[0, 0, 0]	n/a	FR1	0	R1230J
1656.523	0.834	1797807	WORD_OFF	n/a	n/a	BIRD	5	12	[0, 0, 0]	n/a	FR1	0	R1230J
1657.357	1.616	1798641	WORD	n/a	wordpools/wordpool_EN.txt	AXE	6	12	[0, 0, 0]	n/a	FR1	0	R1230J
1658.973	0.867	1800257	WORD_OFF	n/a	n/a	AXE	6	12	[0, 0, 0]	n/a	FR1	0	R1230J
1659.84	1.617	1801124	WORD	n/a	wordpools/wordpool_EN.txt	ANT	7	12	[0, 0, 0]	n/a	FR1	0	R1230J
1661.457	0.966	1802741	WORD_OFF	n/a	n/a	ANT	7	12	[0, 0, 0]	n/a	FR1	0	R1230J
1662.423	1.617	1803707	WORD	n/a	wordpools/wordpool_EN.txt	SOAP	8	12	[0, 0, 0]	n/a	FR1	0	R1230J
1664.04	0.85	1805324	WORD_OFF	n/a	n/a	SOAP	8	12	[0, 0, 0]	n/a	FR1	0	R1230J
1664.89	1.617	1806174	WORD	n/a	wordpools/wordpool_EN.txt	BOMB	9	12	[0, 0, 0]	n/a	FR1	0	R1230J
1666.507	0.917	1807791	WORD_OFF	n/a	n/a	BOMB	9	12	[0, 0, 0]	n/a	FR1	0	R1230J
1667.424	1.617	1808708	WORD	n/a	wordpools/wordpool_EN.txt	STOVE	10	12	[0, 0, 0]	n/a	FR1	0	R1230J
1669.041	0.934	1810325	WORD_OFF	n/a	n/a	STOVE	10	12	[0, 0, 0]	n/a	FR1	0	R1230J
1669.975	1.617	1811259	WORD	n/a	wordpools/wordpool_EN.txt	HILL	11	12	[0, 0, 0]	n/a	FR1	0	R1230J
1671.592	0.916	1812876	WORD_OFF	n/a	n/a	HILL	11	12	[0, 0, 0]	n/a	FR1	0	R1230J
1672.508	1.617	1813792	WORD	n/a	wordpools/wordpool_EN.txt	PLANT	12	12	[0, 0, 0]	n/a	FR1	0	R1230J
1674.125	0.0	1815409	WORD_OFF	n/a	n/a	PLANT	12	12	[0, 0, 0]	n/a	FR1	0	R1230J
1674.125	0.0	1815409	DISTRACT_START	n/a	n/a	n/a	-999	12	[0, 0, 0]	n/a	FR1	0	R1230J
1674.125	0.017	1815409	START	n/a	n/a	n/a	-999	12	[-999, -999, -999]	n/a	FR1	0	R1230J
1674.142	8.519	1815426	PROB	8.519	n/a	n/a	-999	12	[3, 9, 7]	19	FR1	0	R1230J
1682.661	3.983	1823945	PROB	3.983	n/a	n/a	-999	12	[9, 9, 1]	19	FR1	0	R1230J
1686.644	4.467	1827928	PROB	4.467	n/a	n/a	-999	12	[4, 7, 7]	18	FR1	0	R1230J
1691.111	3.083	1832395	PROB	3.083	n/a	n/a	-999	12	[5, 5, 6]	16	FR1	0	R1230J
1694.194	0.017	1835478	STOP	n/a	n/a	n/a	-999	12	[-999, -999, -999]	n/a	FR1	0	R1230J
1694.211	0.65	1835495	DISTRACT_END	n/a	n/a	n/a	-999	12	[0, 0, 0]	n/a	FR1	0	R1230J
1694.861	0.518	1836145	RETRIEVAL_ORIENT	n/a	n/a	n/a	-999	12	[0, 0, 0]	n/a	FR1	0	R1230J
1695.379	1.203	1836663	REC_START	n/a	n/a	n/a	-999	12	[0, 0, 0]	n/a	FR1	0	R1230J
1696.582	0.175	1837866	REC_WORD_VV	0.175	n/a	<>	-999	12	[0, 0, 0]	n/a	FR1	0	R1230J
1696.757	1.798	1838041	REC_WORD	1.798	n/a	ANT	7	12	[0, 0, 0]	n/a	FR1	0	R1230J
1698.555	0.16	1839839	REC_WORD_VV	0.16	n/a	<>	-999	12	[0, 0, 0]	n/a	FR1	0	R1230J
1698.715	4.534	1839999	REC_WORD	4.534	n/a	CAVE	2	12	[0, 0, 0]	n/a	FR1	0	R1230J
1703.249	4.244	1844533	REC_WORD_VV	4.244	n/a	<>	-999	12	[0, 0, 0]	n/a	FR1	0	R1230J
1707.493	2.667	1848777	REC_WORD_VV	2.667	n/a	<>	-999	12	[0, 0, 0]	n/a	FR1	0	R1230J
1710.16	0.581	1851444	REC_WORD	0.581	n/a	ANT	7	12	[0, 0, 0]	n/a	FR1	0	R1230J
1710.741	2.511	1852025	REC_WORD	2.511	n/a	CAVE	2	12	[0, 0, 0]	n/a	FR1	0	R1230J
1713.252	1.356	1854536	REC_WORD	1.356	n/a	CANE	-999	12	[0, 0, 0]	n/a	FR1	0	R1230J
1714.608	2.613	1855892	REC_WORD	2.613	n/a	TOOTH	1	12	[0, 0, 0]	n/a	FR1	0	R1230J
1717.221	1.048	1858505	REC_WORD	1.048	n/a	TOOTH	1	12	[0, 0, 0]	n/a	FR1	0	R1230J
1718.269	7.121	1859553	REC_WORD	7.121	n/a	AXE	6	12	[0, 0, 0]	n/a	FR1	0	R1230J
1725.39	4.926	1866674	REC_END	n/a	n/a	n/a	-999	12	[0, 0, 0]	n/a	FR1	0	R1230J
1730.316	0.5	1871600	TRIAL	n/a	n/a	n/a	-999	13	[0, 0, 0]	n/a	FR1	0	R1230J
1730.816	10.428	1872100	COUNTDOWN_START	n/a	n/a	n/a	-999	13	[0, 0, 0]	n/a	FR1	0	R1230J
1741.244	0.007	1882528	COUNTDOWN_END	n/a	n/a	n/a	-999	13	[0, 0, 0]	n/a	FR1	0	R1230J
1741.251	1.617	1882535	ORIENT	n/a	n/a	n/a	-999	13	[0, 0, 0]	n/a	FR1	0	R1230J
1742.868	2.033	1884152	ORIENT_OFF	n/a	n/a	n/a	-999	13	[0, 0, 0]	n/a	FR1	0	R1230J
1744.901	1.618	1886185	WORD	n/a	wordpools/wordpool_EN.txt	HAT	1	13	[0, 0, 0]	n/a	FR1	0	R1230J
1746.519	0.816	1887803	WORD_OFF	n/a	n/a	HAT	1	13	[0, 0, 0]	n/a	FR1	0	R1230J
1747.335	1.617	1888619	WORD	n/a	wordpools/wordpool_EN.txt	RAKE	2	13	[0, 0, 0]	n/a	FR1	0	R1230J
1748.952	0.817	1890236	WORD_OFF	n/a	n/a	RAKE	2	13	[0, 0, 0]	n/a	FR1	0	R1230J
1749.769	1.617	1891053	WORD	n/a	wordpools/wordpool_EN.txt	YARD	3	13	[0, 0, 0]	n/a	FR1	0	R1230J
1751.386	0.9	1892670	WORD_OFF	n/a	n/a	YARD	3	13	[0, 0, 0]	n/a	FR1	0	R1230J
1752.286	1.617	1893570	WORD	n/a	wordpools/wordpool_EN.txt	POLE	4	13	[0, 0, 0]	n/a	FR1	0	R1230J
1753.903	0.866	1895187	WORD_OFF	n/a	n/a	POLE	4	13	[0, 0, 0]	n/a	FR1	0	R1230J
1754.769	1.617	1896053	WORD	n/a	wordpools/wordpool_EN.txt	DITCH	5	13	[0, 0, 0]	n/a	FR1	0	R1230J
1756.386	0.884	1897670	WORD_OFF	n/a	n/a	DITCH	5	13	[0, 0, 0]	n/a	FR1	0	R1230J
1757.27	1.616	1898554	WORD	n/a	wordpools/wordpool_EN.txt	TOOL	6	13	[0, 0, 0]	n/a	FR1	0	R1230J
1758.886	0.934	1900170	WORD_OFF	n/a	n/a	TOOL	6	13	[0, 0, 0]	n/a	FR1	0	R1230J
1759.82	1.617	1901104	WORD	n/a	wordpools/wordpool_EN.txt	CONE	7	13	[0, 0, 0]	n/a	FR1	0	R1230J
1761.437	0.85	1902721	WORD_OFF	n/a	n/a	CONE	7	13	[0, 0, 0]	n/a	FR1	0	R1230J
1762.287	1.617	1903571	WORD	n/a	wordpools/wordpool_EN.txt	CART	8	13	[0, 0, 0]	n/a	FR1	0	R1230J
1763.904	0.933	1905188	WORD_OFF	n/a	n/a	CART	8	13	[0, 0, 0]	n/a	FR1	0	R1230J
1764.837	1.617	1906121	WORD	n/a	wordpools/wordpool_EN.txt	THUMB	9	13	[0, 0, 0]	n/a	FR1	0	R1230J
1766.454	0.834	1907738	WORD_OFF	n/a	n/a	THUMB	9	13	[0, 0, 0]	n/a	FR1	0	R1230J
1767.288	1.616	1908572	WORD	n/a	wordpools/wordpool_EN.txt	WAND	10	13	[0, 0, 0]	n/a	FR1	0	R1230J
1768.904	1.0	1910188	WORD_OFF	n/a	n/a	WAND	10	13	[0, 0, 0]	n/a	FR1	0	R1230J
1769.904	1.617	1911188	WORD	n/a	wordpools/wordpool_EN.txt	BREAD	11	13	[0, 0, 0]	n/a	FR1	0	R1230J
1771.521	1.001	1912805	WORD_OFF	n/a	n/a	BREAD	11	13	[0, 0, 0]	n/a	FR1	0	R1230J
1772.522	1.617	1913806	WORD	n/a	wordpools/wordpool_EN.txt	HEN	12	13	[0, 0, 0]	n/a	FR1	0	R1230J
1774.139	0.0	1915423	DISTRACT_START	n/a	n/a	n/a	-999	13	[0, 0, 0]	n/a	FR1	0	R1230J
1774.139	0.0	1915423	WORD_OFF	n/a	n/a	HEN	12	13	[0, 0, 0]	n/a	FR1	0	R1230J
1774.139	0.016	1915423	START	n/a	n/a	n/a	-999	13	[-999, -999, -999]	n/a	FR1	0	R1230J
1774.155	5.051	1915439	PROB	5.051	n/a	n/a	-999	13	[2, 7, 5]	14	FR1	0	R1230J
1779.206	3.117	1920490	PROB	3.117	n/a	n/a	-999	13	[3, 7, 5]	15	FR1	0	R1230J
1782.323	3.034	1923607	PROB	3.034	n/a	n/a	-999	13	[7, 5, 5]	17	FR1	0	R1230J
1785.357	3.584	1926641	PROB	3.584	n/a	n/a	-999	13	[2, 6, 1]	10	FR1	0	R1230J
1788.941	4.317	1930225	PROB	4.317	n/a	n/a	-999	13	[7, 8, 2]	17	FR1	0	R1230J
1793.258	2.588	1934542	PROB	2.588	n/a	n/a	-999	13	[6, 6, 1]	13	FR1	0	R1230J
1795.846	0.013	1937130	STOP	n/a	n/a	n/a	-999	13	[-999, -999, -999]	n/a	FR1	0	R1230J
1795.859	0.55	1937143	DISTRACT_END	n/a	n/a	n/a	-999	13	[0, 0, 0]	n/a	FR1	0	R1230J
1796.409	0.517	1937693	RETRIEVAL_ORIENT	n/a	n/a	n/a	-999	13	[0, 0, 0]	n/a	FR1	0	R1230J
1796.926	0.863	1938210	REC_START	n/a	n/a	n/a	-999	13	[0, 0, 0]	n/a	FR1	0	R1230J
1797.789	0.02	1939073	REC_WORD_VV	0.02	n/a	<>	-999	13	[0, 0, 0]	n/a	FR1	0	R1230J
1797.809	0.878	1939093	REC_WORD	0.878	n/a	HAT	1	13	[0, 0, 0]	n/a	FR1	0	R1230J
1798.687	0.175	1939971	REC_WORD_VV	0.175	n/a	<>	-999	13	[0, 0, 0]	n/a	FR1	0	R1230J
1798.862	0.632	1940146	REC_WORD	0.632	n/a	RAKE	2	13	[0, 0, 0]	n/a	FR1	0	R1230J
1799.494	0.165	1940778	REC_WORD_VV	0.165	n/a	<>	-999	13	[0, 0, 0]	n/a	FR1	0	R1230J
1799.659	2.052	1940943	REC_WORD	2.052	n/a	CANE	-999	13	[0, 0, 0]	n/a	FR1	0	R1230J
1801.711	2.7	1942995	REC_WORD	2.7	n/a	CORN	-999	13	[0, 0, 0]	n/a	FR1	0	R1230J
1804.411	6.039	1945695	REC_WORD	6.039	n/a	TOOL	6	13	[0, 0, 0]	n/a	FR1	0	R1230J
1810.45	16.485	1951734	REC_WORD_VV	16.485	n/a	<>	-999	13	[0, 0, 0]	n/a	FR1	0	R1230J
1826.935	5.444	1968218	REC_END	n/a	n/a	n/a	-999	13	[0, 0, 0]	n/a	FR1	0	R1230J
1832.379	0.5	1973662	TRIAL	n/a	n/a	n/a	-999	14	[0, 0, 0]	n/a	FR1	0	R1230J
1832.879	10.428	1974162	COUNTDOWN_START	n/a	n/a	n/a	-999	14	[0, 0, 0]	n/a	FR1	0	R1230J
1843.307	0.007	1984590	COUNTDOWN_END	n/a	n/a	n/a	-999	14	[0, 0, 0]	n/a	FR1	0	R1230J
1843.314	1.617	1984597	ORIENT	n/a	n/a	n/a	-999	14	[0, 0, 0]	n/a	FR1	0	R1230J
1844.931	2.301	1986214	ORIENT_OFF	n/a	n/a	n/a	-999	14	[0, 0, 0]	n/a	FR1	0	R1230J
1847.232	1.617	1988515	WORD	n/a	wordpools/wordpool_EN.txt	GLASS	1	14	[0, 0, 0]	n/a	FR1	0	R1230J
1848.849	0.983	1990132	WORD_OFF	n/a	n/a	GLASS	1	14	[0, 0, 0]	n/a	FR1	0	R1230J
1849.832	1.617	1991115	WORD	n/a	wordpools/wordpool_EN.txt	RAIN	2	14	[0, 0, 0]	n/a	FR1	0	R1230J
1851.449	0.884	1992732	WORD_OFF	n/a	n/a	RAIN	2	14	[0, 0, 0]	n/a	FR1	0	R1230J
1852.333	1.617	1993616	WORD	n/a	wordpools/wordpool_EN.txt	EGG	3	14	[0, 0, 0]	n/a	FR1	0	R1230J
1853.95	0.883	1995233	WORD_OFF	n/a	n/a	EGG	3	14	[0, 0, 0]	n/a	FR1	0	R1230J
1854.833	1.617	1996116	WORD	n/a	wordpools/wordpool_EN.txt	BEAR	4	14	[0, 0, 0]	n/a	FR1	0	R1230J
1856.45	1.0	1997733	WORD_OFF	n/a	n/a	BEAR	4	14	[0, 0, 0]	n/a	FR1	0	R1230J
1857.45	1.617	1998733	WORD	n/a	wordpools/wordpool_EN.txt	BUSH	5	14	[0, 0, 0]	n/a	FR1	0	R1230J
1859.067	1.0	2000350	WORD_OFF	n/a	n/a	BUSH	5	14	[0, 0, 0]	n/a	FR1	0	R1230J
1860.067	1.618	2001350	WORD	n/a	wordpools/wordpool_EN.txt	CUBE	6	14	[0, 0, 0]	n/a	FR1	0	R1230J
1861.685	0.899	2002968	WORD_OFF	n/a	n/a	CUBE	6	14	[0, 0, 0]	n/a	FR1	0	R1230J
1862.584	1.617	2003867	WORD	n/a	wordpools/wordpool_EN.txt	DRESS	7	14	[0, 0, 0]	n/a	FR1	0	R1230J
1864.201	0.9	2005484	WORD_OFF	n/a	n/a	DRESS	7	14	[0, 0, 0]	n/a	FR1	0	R1230J
1865.101	1.618	2006384	WORD	n/a	wordpools/wordpool_EN.txt	PIT	8	14	[0, 0, 0]	n/a	FR1	0	R1230J
1866.719	0.882	2008002	WORD_OFF	n/a	n/a	PIT	8	14	[0, 0, 0]	n/a	FR1	0	R1230J
1867.601	1.617	2008884	WORD	n/a	wordpools/wordpool_EN.txt	SHEET	9	14	[0, 0, 0]	n/a	FR1	0	R1230J
1869.218	0.95	2010501	WORD_OFF	n/a	n/a	SHEET	9	14	[0, 0, 0]	n/a	FR1	0	R1230J
1870.168	1.617	2011451	WORD	n/a	wordpools/wordpool_EN.txt	CROWN	10	14	[0, 0, 0]	n/a	FR1	0	R1230J
1871.785	0.85	2013068	WORD_OFF	n/a	n/a	CROWN	10	14	[0, 0, 0]	n/a	FR1	0	R1230J
1872.635	1.617	2013918	WORD	n/a	wordpools/wordpool_EN.txt	PARK	11	14	[0, 0, 0]	n/a	FR1	0	R1230J
1874.252	0.783	2015535	WORD_OFF	n/a	n/a	PARK	11	14	[0, 0, 0]	n/a	FR1	0	R1230J
1875.035	1.619	2016318	WORD	n/a	wordpools/wordpool_EN.txt	SMILE	12	14	[0, 0, 0]	n/a	FR1	0	R1230J
1876.654	0.0	2017937	WORD_OFF	n/a	n/a	SMILE	12	14	[0, 0, 0]	n/a	FR1	0	R1230J
1876.654	0.0	2017937	DISTRACT_START	n/a	n/a	n/a	-999	14	[0, 0, 0]	n/a	FR1	0	R1230J
1876.654	0.016	2017937	START	n/a	n/a	n/a	-999	14	[-999, -999, -999]	n/a	FR1	0	R1230J
1876.67	6.116	2017953	PROB	6.116	n/a	n/a	-999	14	[4, 8, 9]	21	FR1	0	R1230J
1882.786	4.701	2024069	PROB	4.701	n/a	n/a	-999	14	[2, 7, 1]	10	FR1	0	R1230J
1887.487	5.202	2028770	PROB	5.202	n/a	n/a	-999	14	[7, 5, 8]	20	FR1	0	R1230J
1892.689	3.466	2033972	PROB	3.466	n/a	n/a	-999	14	[5, 6, 5]	16	FR1	0	R1230J
1896.155	3.289	2037438	PROB	3.289	n/a	n/a	-999	14	[8, 5, 8]	21	FR1	0	R1230J
1899.444	0.011	2040727	STOP	n/a	n/a	n/a	-999	14	[-999, -999, -999]	n/a	FR1	0	R1230J
1899.455	0.584	2040738	DISTRACT_END	n/a	n/a	n/a	-999	14	[0, 0, 0]	n/a	FR1	0	R1230J
1900.039	0.518	2041322	RETRIEVAL_ORIENT	n/a	n/a	n/a	-999	14	[0, 0, 0]	n/a	FR1	0	R1230J
1900.557	0.784	2041840	REC_START	n/a	n/a	n/a	-999	14	[0, 0, 0]	n/a	FR1	0	R1230J
1901.341	0.459	2042624	REC_WORD	0.459	n/a	GLASS	1	14	[0, 0, 0]	n/a	FR1	0	R1230J
1901.8	0.574	2043083	REC_WORD	0.574	n/a	EGG	3	14	[0, 0, 0]	n/a	FR1	0	R1230J
1902.374	0.655	2043657	REC_WORD	0.655	n/a	RAIN	2	14	[0, 0, 0]	n/a	FR1	0	R1230J
1903.029	1.989	2044312	REC_WORD	1.989	n/a	BEAR	4	14	[0, 0, 0]	n/a	FR1	0	R1230J
1905.018	8.792	2046301	REC_WORD	8.792	n/a	SHOUT	-999	14	[0, 0, 0]	n/a	FR1	0	R1230J
1913.81	4.116	2055093	REC_WORD	4.116	n/a	FLOWER	-999	14	[0, 0, 0]	n/a	FR1	0	R1230J
1917.926	5.618	2059209	REC_WORD_VV	5.618	n/a	<>	-999	14	[0, 0, 0]	n/a	FR1	0	R1230J
1923.544	7.022	2064827	REC_WORD	7.022	n/a	EGG	3	14	[0, 0, 0]	n/a	FR1	0	R1230J
1930.566	5.295	2071849	REC_END	n/a	n/a	n/a	-999	14	[0, 0, 0]	n/a	FR1	0	R1230J
1935.861	0.5	2077144	TRIAL	n/a	n/a	n/a	-999	15	[0, 0, 0]	n/a	FR1	0	R1230J
1936.361	10.428	2077644	COUNTDOWN_START	n/a	n/a	n/a	-999	15	[0, 0, 0]	n/a	FR1	0	R1230J
1946.789	0.006	2088072	COUNTDOWN_END	n/a	n/a	n/a	-999	15	[0, 0, 0]	n/a	FR1	0	R1230J
1946.795	1.617	2088078	ORIENT	n/a	n/a	n/a	-999	15	[0, 0, 0]	n/a	FR1	0	R1230J
1948.412	1.983	2089695	ORIENT_OFF	n/a	n/a	n/a	-999	15	[0, 0, 0]	n/a	FR1	0	R1230J
1950.395	1.617	2091678	WORD	n/a	wordpools/wordpool_EN.txt	HAWK	1	15	[0, 0, 0]	n/a	FR1	0	R1230J
1952.012	0.784	2093295	WORD_OFF	n/a	n/a	HAWK	1	15	[0, 0, 0]	n/a	FR1	0	R1230J
1952.796	1.617	2094079	WORD	n/a	wordpools/wordpool_EN.txt	SEAL	2	15	[0, 0, 0]	n/a	FR1	0	R1230J
1954.413	1.0	2095696	WORD_OFF	n/a	n/a	SEAL	2	15	[0, 0, 0]	n/a	FR1	0	R1230J
1955.413	1.617	2096696	WORD	n/a	wordpools/wordpool_EN.txt	DUCK	3	15	[0, 0, 0]	n/a	FR1	0	R1230J
1957.03	0.983	2098313	WORD_OFF	n/a	n/a	DUCK	3	15	[0, 0, 0]	n/a	FR1	0	R1230J
1958.013	1.617	2099296	WORD	n/a	wordpools/wordpool_EN.txt	BRANCH	4	15	[0, 0, 0]	n/a	FR1	0	R1230J
1959.63	0.767	2100913	WORD_OFF	n/a	n/a	BRANCH	4	15	[0, 0, 0]	n/a	FR1	0	R1230J
1960.397	1.617	2101680	WORD	n/a	wordpools/wordpool_EN.txt	CASH	5	15	[0, 0, 0]	n/a	FR1	0	R1230J
1962.014	0.8	2103297	WORD_OFF	n/a	n/a	CASH	5	15	[0, 0, 0]	n/a	FR1	0	R1230J
1962.814	1.617	2104097	WORD	n/a	wordpools/wordpool_EN.txt	BANK	6	15	[0, 0, 0]	n/a	FR1	0	R1230J
1964.431	0.883	2105714	WORD_OFF	n/a	n/a	BANK	6	15	[0, 0, 0]	n/a	FR1	0	R1230J
1965.314	1.617	2106597	WORD	n/a	wordpools/wordpool_EN.txt	WEB	7	15	[0, 0, 0]	n/a	FR1	0	R1230J
1966.931	1.0	2108214	WORD_OFF	n/a	n/a	WEB	7	15	[0, 0, 0]	n/a	FR1	0	R1230J
1967.931	1.617	2109214	WORD	n/a	wordpools/wordpool_EN.txt	BOAT	8	15	[0, 0, 0]	n/a	FR1	0	R1230J
1969.548	1.001	2110831	WORD_OFF	n/a	n/a	BOAT	8	15	[0, 0, 0]	n/a	FR1	0	R1230J
1970.549	1.616	2111832	WORD	n/a	wordpools/wordpool_EN.txt	TANK	9	15	[0, 0, 0]	n/a	FR1	0	R1230J
1972.165	0.934	2113448	WORD_OFF	n/a	n/a	TANK	9	15	[0, 0, 0]	n/a	FR1	0	R1230J
1973.099	1.618	2114382	WORD	n/a	wordpools/wordpool_EN.txt	MUG	10	15	[0, 0, 0]	n/a	FR1	0	R1230J
1974.717	0.782	2116000	WORD_OFF	n/a	n/a	MUG	10	15	[0, 0, 0]	n/a	FR1	0	R1230J
1975.499	1.617	2116782	WORD	n/a	wordpools/wordpool_EN.txt	DEER	11	15	[0, 0, 0]	n/a	FR1	0	R1230J
1977.116	0.883	2118399	WORD_OFF	n/a	n/a	DEER	11	15	[0, 0, 0]	n/a	FR1	0	R1230J
1977.999	1.617	2119282	WORD	n/a	wordpools/wordpool_EN.txt	APE	12	15	[0, 0, 0]	n/a	FR1	0	R1230J
1979.616	0.0	2120899	WORD_OFF	n/a	n/a	APE	12	15	[0, 0, 0]	n/a	FR1	0	R1230J
1979.616	0.001	2120899	DISTRACT_START	n/a	n/a	n/a	-999	15	[0, 0, 0]	n/a	FR1	0	R1230J
1979.617	0.016	2120900	START	n/a	n/a	n/a	-999	15	[-999, -999, -999]	n/a	FR1	0	R1230J
1979.633	4.068	2120916	PROB	4.068	n/a	n/a	-999	15	[8, 2, 1]	11	FR1	0	R1230J
1983.701	5.617	2124984	PROB	5.617	n/a	n/a	-999	15	[8, 4, 8]	20	FR1	0	R1230J
1989.318	3.6	2130601	PROB	3.6	n/a	n/a	-999	15	[7, 2, 4]	13	FR1	0	R1230J
1992.918	3.284	2134201	PROB	3.284	n/a	n/a	-999	15	[1, 1, 3]	5	FR1	0	R1230J
1996.202	3.765	2137485	PROB	3.765	n/a	n/a	-999	15	[3, 2, 5]	10	FR1	0	R1230J
1999.967	0.019	2141250	STOP	n/a	n/a	n/a	-999	15	[-999, -999, -999]	n/a	FR1	0	R1230J
1999.986	0.583	2141269	DISTRACT_END	n/a	n/a	n/a	-999	15	[0, 0, 0]	n/a	FR1	0	R1230J
2000.569	0.518	2141852	RETRIEVAL_ORIENT	n/a	n/a	n/a	-999	15	[0, 0, 0]	n/a	FR1	0	R1230J
2001.087	0.707	2142370	REC_START	n/a	n/a	n/a	-999	15	[0, 0, 0]	n/a	FR1	0	R1230J
2001.794	0.1	2143077	REC_WORD_VV	0.1	n/a	<>	-999	15	[0, 0, 0]	n/a	FR1	0	R1230J
2001.894	0.691	2143177	REC_WORD	0.691	n/a	HAWK	1	15	[0, 0, 0]	n/a	FR1	0	R1230J
2002.585	0.433	2143868	REC_WORD_VV	0.433	n/a	<>	-999	15	[0, 0, 0]	n/a	FR1	0	R1230J
2003.018	0.929	2144301	REC_WORD	0.929	n/a	TANK	9	15	[0, 0, 0]	n/a	FR1	0	R1230J
2003.947	0.09	2145230	REC_WORD_VV	0.09	n/a	<>	-999	15	[0, 0, 0]	n/a	FR1	0	R1230J
2004.037	7.925	2145320	REC_WORD	7.925	n/a	SEAL	2	15	[0, 0, 0]	n/a	FR1	0	R1230J
2011.962	4.579	2153245	REC_WORD	4.579	n/a	BRANCH	4	15	[0, 0, 0]	n/a	FR1	0	R1230J
2016.541	2.472	2157824	REC_WORD_VV	2.472	n/a	<>	-999	15	[0, 0, 0]	n/a	FR1	0	R1230J
2019.013	1.0	2160296	REC_WORD_VV	1.0	n/a	<>	-999	15	[0, 0, 0]	n/a	FR1	0	R1230J
2020.013	0.269	2161296	REC_WORD_VV	0.269	n/a	<>	-999	15	[0, 0, 0]	n/a	FR1	0	R1230J
2020.282	0.813	2161565	REC_WORD	0.813	n/a	BRANCH	4	15	[0, 0, 0]	n/a	FR1	0	R1230J
2021.095	2.849	2162378	REC_WORD_VV	2.849	n/a	<>	-999	15	[0, 0, 0]	n/a	FR1	0	R1230J
2023.944	0.351	2165227	REC_WORD_VV	0.351	n/a	<>	-999	15	[0, 0, 0]	n/a	FR1	0	R1230J
2024.295	0.486	2165578	REC_WORD	0.486	n/a	SEAL	2	15	[0, 0, 0]	n/a	FR1	0	R1230J
2024.781	2.36	2166064	REC_WORD	2.36	n/a	SEAL	2	15	[0, 0, 0]	n/a	FR1	0	R1230J
2027.141	0.353	2168424	REC_WORD_VV	0.353	n/a	<>	-999	15	[0, 0, 0]	n/a	FR1	0	R1230J
2027.494	2.615	2168777	REC_WORD	2.615	n/a	AXE	-999	15	[0, 0, 0]	n/a	FR1	0	R1230J
2030.109	0.192	2171392	REC_WORD_VV	0.192	n/a	<>	-999	15	[0, 0, 0]	n/a	FR1	0	R1230J
2030.301	0.796	2171584	REC_WORD	0.796	n/a	BONE	-999	15	[0, 0, 0]	n/a	FR1	0	R1230J
2031.097	5.277	2172380	REC_END	n/a	n/a	n/a	-999	15	[0, 0, 0]	n/a	FR1	0	R1230J
2036.374	0.5	2177657	TRIAL	n/a	n/a	n/a	-999	16	[0, 0, 0]	n/a	FR1	0	R1230J
2036.874	10.428	2178157	COUNTDOWN_START	n/a	n/a	n/a	-999	16	[0, 0, 0]	n/a	FR1	0	R1230J
2047.302	0.007	2188585	COUNTDOWN_END	n/a	n/a	n/a	-999	16	[0, 0, 0]	n/a	FR1	0	R1230J
2047.309	1.617	2188592	ORIENT	n/a	n/a	n/a	-999	16	[0, 0, 0]	n/a	FR1	0	R1230J
2048.926	2.15	2190209	ORIENT_OFF	n/a	n/a	n/a	-999	16	[0, 0, 0]	n/a	FR1	0	R1230J
2051.076	1.618	2192359	WORD	n/a	wordpools/wordpool_EN.txt	BEAN	1	16	[0, 0, 0]	n/a	FR1	0	R1230J
2052.694	0.899	2193977	WORD_OFF	n/a	n/a	BEAN	1	16	[0, 0, 0]	n/a	FR1	0	R1230J
2053.593	1.617	2194876	WORD	n/a	wordpools/wordpool_EN.txt	FAN	2	16	[0, 0, 0]	n/a	FR1	0	R1230J
2055.21	1.0	2196493	WORD_OFF	n/a	n/a	FAN	2	16	[0, 0, 0]	n/a	FR1	0	R1230J
2056.21	1.617	2197493	WORD	n/a	wordpools/wordpool_EN.txt	CROW	3	16	[0, 0, 0]	n/a	FR1	0	R1230J
2057.827	0.917	2199110	WORD_OFF	n/a	n/a	CROW	3	16	[0, 0, 0]	n/a	FR1	0	R1230J
2058.744	1.616	2200027	WORD	n/a	wordpools/wordpool_EN.txt	DART	4	16	[0, 0, 0]	n/a	FR1	0	R1230J
2060.36	0.817	2201643	WORD_OFF	n/a	n/a	DART	4	16	[0, 0, 0]	n/a	FR1	0	R1230J
2061.177	1.617	2202460	WORD	n/a	wordpools/wordpool_EN.txt	JAR	5	16	[0, 0, 0]	n/a	FR1	0	R1230J
2062.794	0.967	2204077	WORD_OFF	n/a	n/a	JAR	5	16	[0, 0, 0]	n/a	FR1	0	R1230J
2063.761	1.617	2205044	WORD	n/a	wordpools/wordpool_EN.txt	HAND	6	16	[0, 0, 0]	n/a	FR1	0	R1230J
2065.378	0.983	2206661	WORD_OFF	n/a	n/a	HAND	6	16	[0, 0, 0]	n/a	FR1	0	R1230J
2066.361	1.617	2207644	WORD	n/a	wordpools/wordpool_EN.txt	BOX	7	16	[0, 0, 0]	n/a	FR1	0	R1230J
2067.978	0.95	2209261	WORD_OFF	n/a	n/a	BOX	7	16	[0, 0, 0]	n/a	FR1	0	R1230J
2068.928	1.617	2210211	WORD	n/a	wordpools/wordpool_EN.txt	WAVE	8	16	[0, 0, 0]	n/a	FR1	0	R1230J
2070.545	0.883	2211828	WORD_OFF	n/a	n/a	WAVE	8	16	[0, 0, 0]	n/a	FR1	0	R1230J
2071.428	1.617	2212711	WORD	n/a	wordpools/wordpool_EN.txt	CLOTH	9	16	[0, 0, 0]	n/a	FR1	0	R1230J
2073.045	0.801	2214328	WORD_OFF	n/a	n/a	CLOTH	9	16	[0, 0, 0]	n/a	FR1	0	R1230J
2073.846	1.617	2215129	WORD	n/a	wordpools/wordpool_EN.txt	CLOWN	10	16	[0, 0, 0]	n/a	FR1	0	R1230J
2075.463	0.9	2216745	WORD_OFF	n/a	n/a	CLOWN	10	16	[0, 0, 0]	n/a	FR1	0	R1230J
2076.363	1.616	2217645	WORD	n/a	wordpools/wordpool_EN.txt	CLAY	11	16	[0, 0, 0]	n/a	FR1	0	R1230J
2077.979	0.834	2219261	WORD_OFF	n/a	n/a	CLAY	11	16	[0, 0, 0]	n/a	FR1	0	R1230J
2078.813	1.617	2220095	WORD	n/a	wordpools/wordpool_EN.txt	TIE	12	16	[0, 0, 0]	n/a	FR1	0	R1230J
2080.43	0.0	2221712	WORD_OFF	n/a	n/a	TIE	12	16	[0, 0, 0]	n/a	FR1	0	R1230J
2080.43	0.0	2221712	DISTRACT_START	n/a	n/a	n/a	-999	16	[0, 0, 0]	n/a	FR1	0	R1230J
2080.43	0.016	2221712	START	n/a	n/a	n/a	-999	16	[-999, -999, -999]	n/a	FR1	0	R1230J
2080.446	4.384	2221728	PROB	4.384	n/a	n/a	-999	16	[7, 8, 6]	21	FR1	0	R1230J
2084.83	3.751	2226112	PROB	3.751	n/a	n/a	-999	16	[4, 2, 6]	12	FR1	0	R1230J
2088.581	3.701	2229863	PROB	3.701	n/a	n/a	-999	16	[9, 4, 3]	16	FR1	0	R1230J
2092.282	8.251	2233564	PROB	8.251	n/a	n/a	-999	16	[5, 9, 8]	22	FR1	0	R1230J
2100.533	0.016	2241815	STOP	n/a	n/a	n/a	-999	16	[-999, -999, -999]	n/a	FR1	0	R1230J
2100.549	0.584	2241831	DISTRACT_END	n/a	n/a	n/a	-999	16	[0, 0, 0]	n/a	FR1	0	R1230J
2101.133	0.518	2242415	RETRIEVAL_ORIENT	n/a	n/a	n/a	-999	16	[0, 0, 0]	n/a	FR1	0	R1230J
2101.651	1.874	2242933	REC_START	n/a	n/a	n/a	-999	16	[0, 0, 0]	n/a	FR1	0	R1230J
2103.525	1.971	2244807	REC_WORD_VV	1.971	n/a	<>	-999	16	[0, 0, 0]	n/a	FR1	0	R1230J
2105.496	2.438	2246778	REC_WORD_VV	2.438	n/a	<>	-999	16	[0, 0, 0]	n/a	FR1	0	R1230J
2107.934	0.909	2249216	REC_WORD_VV	0.909	n/a	<>	-999	16	[0, 0, 0]	n/a	FR1	0	R1230J
2108.843	3.264	2250125	REC_WORD	3.264	n/a	CLOWN	10	16	[0, 0, 0]	n/a	FR1	0	R1230J
2112.107	0.113	2253389	REC_WORD_VV	0.113	n/a	<>	-999	16	[0, 0, 0]	n/a	FR1	0	R1230J
2112.22	2.927	2253502	REC_WORD	2.927	n/a	BOX	7	16	[0, 0, 0]	n/a	FR1	0	R1230J
2115.147	3.317	2256429	REC_WORD_VV	3.317	n/a	<>	-999	16	[0, 0, 0]	n/a	FR1	0	R1230J
2118.464	1.0	2259746	REC_WORD_VV	1.0	n/a	<>	-999	16	[0, 0, 0]	n/a	FR1	0	R1230J
2119.464	2.176	2260746	REC_WORD_VV	2.176	n/a	<>	-999	16	[0, 0, 0]	n/a	FR1	0	R1230J
2121.64	9.247	2262922	REC_WORD_VV	9.247	n/a	<>	-999	16	[0, 0, 0]	n/a	FR1	0	R1230J
2130.887	0.774	2272169	REC_WORD_VV	0.774	n/a	<>	-999	16	[0, 0, 0]	n/a	FR1	0	R1230J
2131.661	11.061	2272943	REC_END	n/a	n/a	n/a	-999	16	[0, 0, 0]	n/a	FR1	0	R1230J
2142.722	0.5	2284004	TRIAL	n/a	n/a	n/a	-999	17	[0, 0, 0]	n/a	FR1	0	R1230J
2143.222	10.428	2284504	COUNTDOWN_START	n/a	n/a	n/a	-999	17	[0, 0, 0]	n/a	FR1	0	R1230J
2153.65	0.008	2294932	COUNTDOWN_END	n/a	n/a	n/a	-999	17	[0, 0, 0]	n/a	FR1	0	R1230J
2153.658	1.615	2294940	ORIENT	n/a	n/a	n/a	-999	17	[0, 0, 0]	n/a	FR1	0	R1230J
2155.273	1.951	2296555	ORIENT_OFF	n/a	n/a	n/a	-999	17	[0, 0, 0]	n/a	FR1	0	R1230J
2157.224	1.616	2298506	WORD	n/a	wordpools/wordpool_EN.txt	CUP	1	17	[0, 0, 0]	n/a	FR1	0	R1230J
2158.84	0.818	2300122	WORD_OFF	n/a	n/a	CUP	1	17	[0, 0, 0]	n/a	FR1	0	R1230J
2159.658	1.616	2300940	WORD	n/a	wordpools/wordpool_EN.txt	VAN	2	17	[0, 0, 0]	n/a	FR1	0	R1230J
2161.274	0.95	2302556	WORD_OFF	n/a	n/a	VAN	2	17	[0, 0, 0]	n/a	FR1	0	R1230J
2162.224	1.617	2303506	WORD	n/a	wordpools/wordpool_EN.txt	PEA	3	17	[0, 0, 0]	n/a	FR1	0	R1230J
2163.841	1.017	2305123	WORD_OFF	n/a	n/a	PEA	3	17	[0, 0, 0]	n/a	FR1	0	R1230J
2164.858	1.617	2306140	WORD	n/a	wordpools/wordpool_EN.txt	PLATE	4	17	[0, 0, 0]	n/a	FR1	0	R1230J
2166.475	0.85	2307757	WORD_OFF	n/a	n/a	PLATE	4	17	[0, 0, 0]	n/a	FR1	0	R1230J
2167.325	1.617	2308607	WORD	n/a	wordpools/wordpool_EN.txt	FLAME	5	17	[0, 0, 0]	n/a	FR1	0	R1230J
2168.942	0.784	2310224	WORD_OFF	n/a	n/a	FLAME	5	17	[0, 0, 0]	n/a	FR1	0	R1230J
2169.726	1.616	2311008	WORD	n/a	wordpools/wordpool_EN.txt	SUN	6	17	[0, 0, 0]	n/a	FR1	0	R1230J
2171.342	0.95	2312624	WORD_OFF	n/a	n/a	SUN	6	17	[0, 0, 0]	n/a	FR1	0	R1230J
2172.292	1.617	2313574	WORD	n/a	wordpools/wordpool_EN.txt	CORN	7	17	[0, 0, 0]	n/a	FR1	0	R1230J
2173.909	1.017	2315191	WORD_OFF	n/a	n/a	CORN	7	17	[0, 0, 0]	n/a	FR1	0	R1230J
2174.926	1.617	2316208	WORD	n/a	wordpools/wordpool_EN.txt	PEN	8	17	[0, 0, 0]	n/a	FR1	0	R1230J
2176.543	0.8	2317825	WORD_OFF	n/a	n/a	PEN	8	17	[0, 0, 0]	n/a	FR1	0	R1230J
2177.343	1.617	2318625	WORD	n/a	wordpools/wordpool_EN.txt	GATE	9	17	[0, 0, 0]	n/a	FR1	0	R1230J
2178.96	0.8	2320242	WORD_OFF	n/a	n/a	GATE	9	17	[0, 0, 0]	n/a	FR1	0	R1230J
2179.76	1.617	2321042	WORD	n/a	wordpools/wordpool_EN.txt	BRUSH	10	17	[0, 0, 0]	n/a	FR1	0	R1230J
2181.377	0.883	2322659	WORD_OFF	n/a	n/a	BRUSH	10	17	[0, 0, 0]	n/a	FR1	0	R1230J
2182.26	1.617	2323542	WORD	n/a	wordpools/wordpool_EN.txt	HOSE	11	17	[0, 0, 0]	n/a	FR1	0	R1230J
2183.877	0.917	2325159	WORD_OFF	n/a	n/a	HOSE	11	17	[0, 0, 0]	n/a	FR1	0	R1230J
2184.794	1.617	2326076	WORD	n/a	wordpools/wordpool_EN.txt	BATH	12	17	[0, 0, 0]	n/a	FR1	0	R1230J
2186.411	0.0	2327693	WORD_OFF	n/a	n/a	BATH	12	17	[0, 0, 0]	n/a	FR1	0	R1230J
2186.411	0.001	2327693	DISTRACT_START	n/a	n/a	n/a	-999	17	[0, 0, 0]	n/a	FR1	0	R1230J
2186.412	0.016	2327694	START	n/a	n/a	n/a	-999	17	[-999, -999, -999]	n/a	FR1	0	R1230J
2186.428	5.733	2327710	PROB	5.733	n/a	n/a	-999	17	[4, 9, 8]	21	FR1	0	R1230J
2192.161	4.334	2333443	PROB	4.334	n/a	n/a	-999	17	[9, 7, 9]	16	FR1	0	R1230J
2196.495	5.351	2337777	PROB	5.351	n/a	n/a	-999	17	[9, 5, 9]	23	FR1	0	R1230J
2201.846	4.351	2343128	PROB	4.351	n/a	n/a	-999	17	[8, 6, 3]	17	FR1	0	R1230J
2206.197	3.38	2347479	PROB	3.38	n/a	n/a	-999	17	[4, 3, 3]	10	FR1	0	R1230J
2209.577	0.02	2350859	STOP	n/a	n/a	n/a	-999	17	[-999, -999, -999]	n/a	FR1	0	R1230J
2209.597	0.617	2350879	DISTRACT_END	n/a	n/a	n/a	-999	17	[0, 0, 0]	n/a	FR1	0	R1230J
2210.214	0.518	2351496	RETRIEVAL_ORIENT	n/a	n/a	n/a	-999	17	[0, 0, 0]	n/a	FR1	0	R1230J
2210.732	0.966	2352014	REC_START	n/a	n/a	n/a	-999	17	[0, 0, 0]	n/a	FR1	0	R1230J
2211.698	1.0	2352980	REC_WORD_VV	1.0	n/a	<>	-999	17	[0, 0, 0]	n/a	FR1	0	R1230J
2212.698	0.279	2353980	REC_WORD_VV	0.279	n/a	<>	-999	17	[0, 0, 0]	n/a	FR1	0	R1230J
2212.977	1.03	2354259	REC_WORD	1.03	n/a	CUP	1	17	[0, 0, 0]	n/a	FR1	0	R1230J
2214.007	1.143	2355289	REC_WORD	1.143	n/a	TEA	-999	17	[0, 0, 0]	n/a	FR1	0	R1230J
2215.15	0.08	2356432	REC_WORD_VV	0.08	n/a	<>	-999	17	[0, 0, 0]	n/a	FR1	0	R1230J
2215.23	0.788	2356512	REC_WORD	0.788	n/a	HOSE	11	17	[0, 0, 0]	n/a	FR1	0	R1230J
2216.018	0.104	2357300	REC_WORD_VV	0.104	n/a	<>	-999	17	[0, 0, 0]	n/a	FR1	0	R1230J
2216.122	3.829	2357404	REC_WORD	3.829	n/a	PLANT	-999	17	[0, 0, 0]	n/a	FR1	0	R1230J
2219.951	2.91	2361233	REC_WORD	2.91	n/a	BOAT	-999	17	[0, 0, 0]	n/a	FR1	0	R1230J
2222.861	8.252	2364143	REC_WORD	8.252	n/a	CUP	1	17	[0, 0, 0]	n/a	FR1	0	R1230J
2231.113	3.454	2372395	REC_WORD_VV	3.454	n/a	<>	-999	17	[0, 0, 0]	n/a	FR1	0	R1230J
2234.567	6.175	2375849	REC_WORD_VV	6.175	n/a	<>	-999	17	[0, 0, 0]	n/a	FR1	0	R1230J
2240.742	9.527	2382024	REC_END	n/a	n/a	n/a	-999	17	[0, 0, 0]	n/a	FR1	0	R1230J
2250.269	0.5	2391551	TRIAL	n/a	n/a	n/a	-999	18	[0, 0, 0]	n/a	FR1	0	R1230J
2250.769	10.428	2392051	COUNTDOWN_START	n/a	n/a	n/a	-999	18	[0, 0, 0]	n/a	FR1	0	R1230J
2261.197	0.007	2402479	COUNTDOWN_END	n/a	n/a	n/a	-999	18	[0, 0, 0]	n/a	FR1	0	R1230J
2261.204	1.617	2402486	ORIENT	n/a	n/a	n/a	-999	18	[0, 0, 0]	n/a	FR1	0	R1230J
2262.821	1.95	2404103	ORIENT_OFF	n/a	n/a	n/a	-999	18	[0, 0, 0]	n/a	FR1	0	R1230J
2264.771	1.617	2406053	WORD	n/a	wordpools/wordpool_EN.txt	PEARL	1	18	[0, 0, 0]	n/a	FR1	0	R1230J
2266.388	1.0	2407670	WORD_OFF	n/a	n/a	PEARL	1	18	[0, 0, 0]	n/a	FR1	0	R1230J
2267.388	1.617	2408670	WORD	n/a	wordpools/wordpool_EN.txt	PHONE	2	18	[0, 0, 0]	n/a	FR1	0	R1230J
2269.005	0.784	2410287	WORD_OFF	n/a	n/a	PHONE	2	18	[0, 0, 0]	n/a	FR1	0	R1230J
2269.789	1.617	2411071	WORD	n/a	wordpools/wordpool_EN.txt	HEART	3	18	[0, 0, 0]	n/a	FR1	0	R1230J
2271.406	0.767	2412688	WORD_OFF	n/a	n/a	HEART	3	18	[0, 0, 0]	n/a	FR1	0	R1230J
2272.173	1.616	2413455	WORD	n/a	wordpools/wordpool_EN.txt	FROG	4	18	[0, 0, 0]	n/a	FR1	0	R1230J
2273.789	0.901	2415071	WORD_OFF	n/a	n/a	FROG	4	18	[0, 0, 0]	n/a	FR1	0	R1230J
2274.69	1.616	2415972	WORD	n/a	wordpools/wordpool_EN.txt	FORK	5	18	[0, 0, 0]	n/a	FR1	0	R1230J
2276.306	0.917	2417588	WORD_OFF	n/a	n/a	FORK	5	18	[0, 0, 0]	n/a	FR1	0	R1230J
2277.223	1.617	2418505	WORD	n/a	wordpools/wordpool_EN.txt	FLEA	6	18	[0, 0, 0]	n/a	FR1	0	R1230J
2278.84	0.8	2420122	WORD_OFF	n/a	n/a	FLEA	6	18	[0, 0, 0]	n/a	FR1	0	R1230J
2279.64	1.617	2420922	WORD	n/a	wordpools/wordpool_EN.txt	FORT	7	18	[0, 0, 0]	n/a	FR1	0	R1230J
2281.257	0.883	2422539	WORD_OFF	n/a	n/a	FORT	7	18	[0, 0, 0]	n/a	FR1	0	R1230J
2282.14	1.601	2423422	WORD	n/a	wordpools/wordpool_EN.txt	ROCK	8	18	[0, 0, 0]	n/a	FR1	0	R1230J
2283.741	0.833	2425023	WORD_OFF	n/a	n/a	ROCK	8	18	[0, 0, 0]	n/a	FR1	0	R1230J
2284.574	1.617	2425856	WORD	n/a	wordpools/wordpool_EN.txt	STONE	9	18	[0, 0, 0]	n/a	FR1	0	R1230J
2286.191	0.767	2427473	WORD_OFF	n/a	n/a	STONE	9	18	[0, 0, 0]	n/a	FR1	0	R1230J
2286.958	1.616	2428240	WORD	n/a	wordpools/wordpool_EN.txt	CLOCK	10	18	[0, 0, 0]	n/a	FR1	0	R1230J
2288.574	0.801	2429856	WORD_OFF	n/a	n/a	CLOCK	10	18	[0, 0, 0]	n/a	FR1	0	R1230J
2289.375	1.616	2430657	WORD	n/a	wordpools/wordpool_EN.txt	SKI	11	18	[0, 0, 0]	n/a	FR1	0	R1230J
2290.991	0.851	2432273	WORD_OFF	n/a	n/a	SKI	11	18	[0, 0, 0]	n/a	FR1	0	R1230J
2291.842	1.617	2433124	WORD	n/a	wordpools/wordpool_EN.txt	OAK	12	18	[0, 0, 0]	n/a	FR1	0	R1230J
2293.459	0.0	2434741	WORD_OFF	n/a	n/a	OAK	12	18	[0, 0, 0]	n/a	FR1	0	R1230J
2293.459	0.0	2434741	DISTRACT_START	n/a	n/a	n/a	-999	18	[0, 0, 0]	n/a	FR1	0	R1230J
2293.459	0.016	2434741	START	n/a	n/a	n/a	-999	18	[-999, -999, -999]	n/a	FR1	0	R1230J
2293.475	5.185	2434757	PROB	5.185	n/a	n/a	-999	18	[2, 9, 6]	17	FR1	0	R1230J
2298.66	4.833	2439942	PROB	4.833	n/a	n/a	-999	18	[4, 8, 1]	13	FR1	0	R1230J
2303.493	3.284	2444775	PROB	3.284	n/a	n/a	-999	18	[7, 1, 7]	15	FR1	0	R1230J
2306.777	3.45	2448059	PROB	3.45	n/a	n/a	-999	18	[1, 9, 6]	16	FR1	0	R1230J
2310.227	5.835	2451509	PROB	5.835	n/a	n/a	-999	18	[5, 8, 4]	17	FR1	0	R1230J
2316.062	0.016	2457344	STOP	n/a	n/a	n/a	-999	18	[-999, -999, -999]	n/a	FR1	0	R1230J
2316.078	0.635	2457360	DISTRACT_END	n/a	n/a	n/a	-999	18	[0, 0, 0]	n/a	FR1	0	R1230J
2316.713	0.516	2457995	RETRIEVAL_ORIENT	n/a	n/a	n/a	-999	18	[0, 0, 0]	n/a	FR1	0	R1230J
2317.229	0.938	2458511	REC_START	n/a	n/a	n/a	-999	18	[0, 0, 0]	n/a	FR1	0	R1230J
2318.167	0.13	2459449	REC_WORD_VV	0.13	n/a	<>	-999	18	[0, 0, 0]	n/a	FR1	0	R1230J
2318.297	3.198	2459579	REC_WORD	3.198	n/a	PEARL	1	18	[0, 0, 0]	n/a	FR1	0	R1230J
2321.495	1.966	2462777	REC_WORD_VV	1.966	n/a	<>	-999	18	[0, 0, 0]	n/a	FR1	0	R1230J
2323.461	8.086	2464743	REC_WORD	8.086	n/a	SKI	11	18	[0, 0, 0]	n/a	FR1	0	R1230J
2331.547	3.091	2472828	REC_WORD	3.091	n/a	OAK	12	18	[0, 0, 0]	n/a	FR1	0	R1230J
2334.638	0.545	2475919	REC_WORD	0.545	n/a	SKI	11	18	[0, 0, 0]	n/a	FR1	0	R1230J
2335.183	12.056	2476464	REC_WORD	12.056	n/a	OAK	12	18	[0, 0, 0]	n/a	FR1	0	R1230J
2347.239	5.077	2488520	REC_END	n/a	n/a	n/a	-999	18	[0, 0, 0]	n/a	FR1	0	R1230J
2352.316	0.5	2493597	TRIAL	n/a	n/a	n/a	-999	19	[0, 0, 0]	n/a	FR1	0	R1230J
2352.816	10.428	2494097	COUNTDOWN_START	n/a	n/a	n/a	-999	19	[0, 0, 0]	n/a	FR1	0	R1230J
2363.244	0.007	2504525	COUNTDOWN_END	n/a	n/a	n/a	-999	19	[0, 0, 0]	n/a	FR1	0	R1230J
2363.251	1.617	2504532	ORIENT	n/a	n/a	n/a	-999	19	[0, 0, 0]	n/a	FR1	0	R1230J
2364.868	2.117	2506149	ORIENT_OFF	n/a	n/a	n/a	-999	19	[0, 0, 0]	n/a	FR1	0	R1230J
2366.985	1.617	2508266	WORD	n/a	wordpools/wordpool_EN.txt	CAT	1	19	[0, 0, 0]	n/a	FR1	0	R1230J
2368.602	0.933	2509883	WORD_OFF	n/a	n/a	CAT	1	19	[0, 0, 0]	n/a	FR1	0	R1230J
2369.535	1.617	2510816	WORD	n/a	wordpools/wordpool_EN.txt	COIN	2	19	[0, 0, 0]	n/a	FR1	0	R1230J
2371.152	0.917	2512433	WORD_OFF	n/a	n/a	COIN	2	19	[0, 0, 0]	n/a	FR1	0	R1230J
2372.069	1.601	2513350	WORD	n/a	wordpools/wordpool_EN.txt	SEA	3	19	[0, 0, 0]	n/a	FR1	0	R1230J
2373.67	0.933	2514951	WORD_OFF	n/a	n/a	SEA	3	19	[0, 0, 0]	n/a	FR1	0	R1230J
2374.603	1.617	2515884	WORD	n/a	wordpools/wordpool_EN.txt	FOOT	4	19	[0, 0, 0]	n/a	FR1	0	R1230J
2376.22	0.966	2517501	WORD_OFF	n/a	n/a	FOOT	4	19	[0, 0, 0]	n/a	FR1	0	R1230J
2377.186	1.617	2518467	WORD	n/a	wordpools/wordpool_EN.txt	ROOT	5	19	[0, 0, 0]	n/a	FR1	0	R1230J
2378.803	0.851	2520084	WORD_OFF	n/a	n/a	ROOT	5	19	[0, 0, 0]	n/a	FR1	0	R1230J
2379.654	1.616	2520935	WORD	n/a	wordpools/wordpool_EN.txt	STEM	6	19	[0, 0, 0]	n/a	FR1	0	R1230J
2381.27	0.967	2522551	WORD_OFF	n/a	n/a	STEM	6	19	[0, 0, 0]	n/a	FR1	0	R1230J
2382.237	1.617	2523518	WORD	n/a	wordpools/wordpool_EN.txt	SPRING	7	19	[0, 0, 0]	n/a	FR1	0	R1230J
2383.854	0.767	2525135	WORD_OFF	n/a	n/a	SPRING	7	19	[0, 0, 0]	n/a	FR1	0	R1230J
2384.621	1.617	2525902	WORD	n/a	wordpools/wordpool_EN.txt	MAIL	8	19	[0, 0, 0]	n/a	FR1	0	R1230J
2386.238	0.9	2527519	WORD_OFF	n/a	n/a	MAIL	8	19	[0, 0, 0]	n/a	FR1	0	R1230J
2387.138	1.617	2528419	WORD	n/a	wordpools/wordpool_EN.txt	MILK	9	19	[0, 0, 0]	n/a	FR1	0	R1230J
2388.755	0.85	2530036	WORD_OFF	n/a	n/a	MILK	9	19	[0, 0, 0]	n/a	FR1	0	R1230J
2389.605	1.617	2530886	WORD	n/a	wordpools/wordpool_EN.txt	ELF	10	19	[0, 0, 0]	n/a	FR1	0	R1230J
2391.222	0.8	2532503	WORD_OFF	n/a	n/a	ELF	10	19	[0, 0, 0]	n/a	FR1	0	R1230J
2392.022	1.617	2533303	WORD	n/a	wordpools/wordpool_EN.txt	GUARD	11	19	[0, 0, 0]	n/a	FR1	0	R1230J
2393.639	0.833	2534920	WORD_OFF	n/a	n/a	GUARD	11	19	[0, 0, 0]	n/a	FR1	0	R1230J
2394.472	1.617	2535753	WORD	n/a	wordpools/wordpool_EN.txt	MOUTH	12	19	[0, 0, 0]	n/a	FR1	0	R1230J
2396.089	0.0	2537370	WORD_OFF	n/a	n/a	MOUTH	12	19	[0, 0, 0]	n/a	FR1	0	R1230J
2396.089	0.001	2537370	DISTRACT_START	n/a	n/a	n/a	-999	19	[0, 0, 0]	n/a	FR1	0	R1230J
2396.09	0.016	2537371	START	n/a	n/a	n/a	-999	19	[-999, -999, -999]	n/a	FR1	0	R1230J
2396.106	3.917	2537387	PROB	3.917	n/a	n/a	-999	19	[1, 3, 8]	12	FR1	0	R1230J
2400.023	6.951	2541304	PROB	6.951	n/a	n/a	-999	19	[7, 9, 7]	23	FR1	0	R1230J
2406.974	3.884	2548255	PROB	3.884	n/a	n/a	-999	19	[5, 7, 8]	20	FR1	0	R1230J
2410.858	6.032	2552139	PROB	6.032	n/a	n/a	-999	19	[9, 9, 5]	22	FR1	0	R1230J
2416.89	0.019	2558171	STOP	n/a	n/a	n/a	-999	19	[-999, -999, -999]	n/a	FR1	0	R1230J
2416.909	0.533	2558190	DISTRACT_END	n/a	n/a	n/a	-999	19	[0, 0, 0]	n/a	FR1	0	R1230J
2417.442	0.517	2558723	RETRIEVAL_ORIENT	n/a	n/a	n/a	-999	19	[0, 0, 0]	n/a	FR1	0	R1230J
2417.959	1.048	2559240	REC_START	n/a	n/a	n/a	-999	19	[0, 0, 0]	n/a	FR1	0	R1230J
2419.007	0.105	2560288	REC_WORD_VV	0.105	n/a	<>	-999	19	[0, 0, 0]	n/a	FR1	0	R1230J
2419.112	1.143	2560393	REC_WORD	1.143	n/a	CAT	1	19	[0, 0, 0]	n/a	FR1	0	R1230J
2420.255	0.473	2561536	REC_WORD_VV	0.473	n/a	<>	-999	19	[0, 0, 0]	n/a	FR1	0	R1230J
2420.728	5.106	2562009	REC_WORD	5.106	n/a	ELF	10	19	[0, 0, 0]	n/a	FR1	0	R1230J
2425.834	10.861	2567115	REC_WORD	10.861	n/a	STEAM	-999	19	[0, 0, 0]	n/a	FR1	0	R1230J
2436.695	5.108	2577976	REC_WORD	5.108	n/a	ROOF	-999	19	[0, 0, 0]	n/a	FR1	0	R1230J
2441.803	2.627	2583084	REC_WORD_VV	2.627	n/a	<>	-999	19	[0, 0, 0]	n/a	FR1	0	R1230J
2444.43	0.781	2585711	REC_WORD	0.781	n/a	CALF	-999	19	[0, 0, 0]	n/a	FR1	0	R1230J
2445.211	2.758	2586492	REC_WORD_VV	2.758	n/a	<>	-999	19	[0, 0, 0]	n/a	FR1	0	R1230J
2447.969	6.128	2589250	REC_END	n/a	n/a	n/a	-999	19	[0, 0, 0]	n/a	FR1	0	R1230J
2454.097	0.5	2595378	TRIAL	n/a	n/a	n/a	-999	20	[0, 0, 0]	n/a	FR1	0	R1230J
2454.597	10.428	2595878	COUNTDOWN_START	n/a	n/a	n/a	-999	20	[0, 0, 0]	n/a	FR1	0	R1230J
2465.025	0.007	2606306	COUNTDOWN_END	n/a	n/a	n/a	-999	20	[0, 0, 0]	n/a	FR1	0	R1230J
2465.032	1.618	2606313	ORIENT	n/a	n/a	n/a	-999	20	[0, 0, 0]	n/a	FR1	0	R1230J
2466.65	2.199	2607931	ORIENT_OFF	n/a	n/a	n/a	-999	20	[0, 0, 0]	n/a	FR1	0	R1230J
2468.849	1.617	2610130	WORD	n/a	wordpools/wordpool_EN.txt	SLEEVE	1	20	[0, 0, 0]	n/a	FR1	0	R1230J
2470.466	0.85	2611747	WORD_OFF	n/a	n/a	SLEEVE	1	20	[0, 0, 0]	n/a	FR1	0	R1230J
2471.316	1.617	2612597	WORD	n/a	wordpools/wordpool_EN.txt	DOOR	2	20	[0, 0, 0]	n/a	FR1	0	R1230J
2472.933	0.801	2614214	WORD_OFF	n/a	n/a	DOOR	2	20	[0, 0, 0]	n/a	FR1	0	R1230J
2473.734	1.616	2615015	WORD	n/a	wordpools/wordpool_EN.txt	STRAW	3	20	[0, 0, 0]	n/a	FR1	0	R1230J
2475.35	0.95	2616631	WORD_OFF	n/a	n/a	STRAW	3	20	[0, 0, 0]	n/a	FR1	0	R1230J
2476.3	1.617	2617581	WORD	n/a	wordpools/wordpool_EN.txt	VASE	4	20	[0, 0, 0]	n/a	FR1	0	R1230J
2477.917	0.95	2619198	WORD_OFF	n/a	n/a	VASE	4	20	[0, 0, 0]	n/a	FR1	0	R1230J
2478.867	1.617	2620148	WORD	n/a	wordpools/wordpool_EN.txt	SKY	5	20	[0, 0, 0]	n/a	FR1	0	R1230J
2480.484	0.8	2621765	WORD_OFF	n/a	n/a	SKY	5	20	[0, 0, 0]	n/a	FR1	0	R1230J
2481.284	1.617	2622565	WORD	n/a	wordpools/wordpool_EN.txt	GRAPE	6	20	[0, 0, 0]	n/a	FR1	0	R1230J
2482.901	0.966	2624182	WORD_OFF	n/a	n/a	GRAPE	6	20	[0, 0, 0]	n/a	FR1	0	R1230J
2483.867	1.617	2625148	WORD	n/a	wordpools/wordpool_EN.txt	PURSE	7	20	[0, 0, 0]	n/a	FR1	0	R1230J
2485.484	0.884	2626765	WORD_OFF	n/a	n/a	PURSE	7	20	[0, 0, 0]	n/a	FR1	0	R1230J
2486.368	1.616	2627649	WORD	n/a	wordpools/wordpool_EN.txt	TOE	8	20	[0, 0, 0]	n/a	FR1	0	R1230J
2487.984	0.967	2629265	WORD_OFF	n/a	n/a	TOE	8	20	[0, 0, 0]	n/a	FR1	0	R1230J
2488.951	1.617	2630232	WORD	n/a	wordpools/wordpool_EN.txt	BENCH	9	20	[0, 0, 0]	n/a	FR1	0	R1230J
2490.568	0.8	2631849	WORD_OFF	n/a	n/a	BENCH	9	20	[0, 0, 0]	n/a	FR1	0	R1230J
2491.368	1.617	2632649	WORD	n/a	wordpools/wordpool_EN.txt	STOOL	10	20	[0, 0, 0]	n/a	FR1	0	R1230J
2492.985	0.9	2634266	WORD_OFF	n/a	n/a	STOOL	10	20	[0, 0, 0]	n/a	FR1	0	R1230J
2493.885	1.617	2635166	WORD	n/a	wordpools/wordpool_EN.txt	OAR	11	20	[0, 0, 0]	n/a	FR1	0	R1230J
2495.502	0.917	2636783	WORD_OFF	n/a	n/a	OAR	11	20	[0, 0, 0]	n/a	FR1	0	R1230J
2496.419	1.617	2637700	WORD	n/a	wordpools/wordpool_EN.txt	MUD	12	20	[0, 0, 0]	n/a	FR1	0	R1230J
2498.036	0.0	2639317	WORD_OFF	n/a	n/a	MUD	12	20	[0, 0, 0]	n/a	FR1	0	R1230J
2498.036	0.0	2639317	DISTRACT_START	n/a	n/a	n/a	-999	20	[0, 0, 0]	n/a	FR1	0	R1230J
2498.036	0.016	2639317	START	n/a	n/a	n/a	-999	20	[-999, -999, -999]	n/a	FR1	0	R1230J
2498.052	2.984	2639333	PROB	2.984	n/a	n/a	-999	20	[8, 2, 1]	11	FR1	0	R1230J
2501.036	4.201	2642317	PROB	4.201	n/a	n/a	-999	20	[7, 2, 8]	17	FR1	0	R1230J
2505.237	3.934	2646518	PROB	3.934	n/a	n/a	-999	20	[6, 7, 9]	21	FR1	0	R1230J
2509.171	2.934	2650452	PROB	2.934	n/a	n/a	-999	20	[5, 4, 5]	14	FR1	0	R1230J
2512.105	5.451	2653386	PROB	5.451	n/a	n/a	-999	20	[7, 8, 5]	20	FR1	0	R1230J
2517.556	4.499	2658837	PROB	4.499	n/a	n/a	-999	20	[8, 6, 4]	18	FR1	0	R1230J
2522.055	0.018	2663336	STOP	n/a	n/a	n/a	-999	20	[-999, -999, -999]	n/a	FR1	0	R1230J
2522.073	0.566	2663354	DISTRACT_END	n/a	n/a	n/a	-999	20	[0, 0, 0]	n/a	FR1	0	R1230J
2522.639	0.518	2663920	RETRIEVAL_ORIENT	n/a	n/a	n/a	-999	20	[0, 0, 0]	n/a	FR1	0	R1230J
2523.157	0.422	2664438	REC_START	n/a	n/a	n/a	-999	20	[0, 0, 0]	n/a	FR1	0	R1230J
2523.579	0.055	2664860	REC_WORD_VV	0.055	n/a	<>	-999	20	[0, 0, 0]	n/a	FR1	0	R1230J
2523.634	0.869	2664915	REC_WORD	0.869	n/a	SLEEVE	1	20	[0, 0, 0]	n/a	FR1	0	R1230J
2524.503	0.735	2665784	REC_WORD	0.735	n/a	DRAWER	-999	20	[0, 0, 0]	n/a	FR1	0	R1230J
2525.238	1.9	2666519	REC_WORD	1.9	n/a	BENCH	9	20	[0, 0, 0]	n/a	FR1	0	R1230J
2527.138	6.063	2668419	REC_WORD	6.063	n/a	HAT	-999	20	[0, 0, 0]	n/a	FR1	0	R1230J
2533.201	0.172	2674482	REC_WORD_VV	0.172	n/a	<>	-999	20	[0, 0, 0]	n/a	FR1	0	R1230J
2533.373	0.541	2674654	REC_WORD	0.541	n/a	CALF	-999	20	[0, 0, 0]	n/a	FR1	0	R1230J
2533.914	0.177	2675195	REC_WORD_VV	0.177	n/a	<>	-999	20	[0, 0, 0]	n/a	FR1	0	R1230J
2534.091	0.656	2675372	REC_WORD	0.656	n/a	CALF	-999	20	[0, 0, 0]	n/a	FR1	0	R1230J
2534.747	9.148	2676028	REC_WORD_VV	9.148	n/a	<>	-999	20	[0, 0, 0]	n/a	FR1	0	R1230J
2543.895	0.207	2685176	REC_WORD_VV	0.207	n/a	<>	-999	20	[0, 0, 0]	n/a	FR1	0	R1230J
2544.102	9.066	2685383	REC_WORD	9.066	n/a	YARD	-999	20	[0, 0, 0]	n/a	FR1	0	R1230J
2553.168	5.726	2694449	REC_END	n/a	n/a	n/a	-999	20	[0, 0, 0]	n/a	FR1	0	R1230J
2558.894	0.5	2700175	TRIAL	n/a	n/a	n/a	-999	21	[0, 0, 0]	n/a	FR1	0	R1230J
2559.394	10.428	2700675	COUNTDOWN_START	n/a	n/a	n/a	-999	21	[0, 0, 0]	n/a	FR1	0	R1230J
2569.822	0.007	2711103	COUNTDOWN_END	n/a	n/a	n/a	-999	21	[0, 0, 0]	n/a	FR1	0	R1230J
2569.829	1.617	2711110	ORIENT	n/a	n/a	n/a	-999	21	[0, 0, 0]	n/a	FR1	0	R1230J
2571.446	2.301	2712727	ORIENT_OFF	n/a	n/a	n/a	-999	21	[0, 0, 0]	n/a	FR1	0	R1230J
2573.747	1.616	2715028	WORD	n/a	wordpools/wordpool_EN.txt	BRIDGE	1	21	[0, 0, 0]	n/a	FR1	0	R1230J
2575.363	0.95	2716644	WORD_OFF	n/a	n/a	BRIDGE	1	21	[0, 0, 0]	n/a	FR1	0	R1230J
2576.313	1.617	2717594	WORD	n/a	wordpools/wordpool_EN.txt	BLUSH	2	21	[0, 0, 0]	n/a	FR1	0	R1230J
2577.93	0.833	2719211	WORD_OFF	n/a	n/a	BLUSH	2	21	[0, 0, 0]	n/a	FR1	0	R1230J
2578.763	1.617	2720044	WORD	n/a	wordpools/wordpool_EN.txt	FILM	3	21	[0, 0, 0]	n/a	FR1	0	R1230J
2580.38	0.85	2721661	WORD_OFF	n/a	n/a	FILM	3	21	[0, 0, 0]	n/a	FR1	0	R1230J
2581.23	1.617	2722511	WORD	n/a	wordpools/wordpool_EN.txt	LAND	4	21	[0, 0, 0]	n/a	FR1	0	R1230J
2582.847	0.818	2724128	WORD_OFF	n/a	n/a	LAND	4	21	[0, 0, 0]	n/a	FR1	0	R1230J
2583.665	1.616	2724946	WORD	n/a	wordpools/wordpool_EN.txt	SALT	5	21	[0, 0, 0]	n/a	FR1	0	R1230J
2585.281	0.784	2726561	WORD_OFF	n/a	n/a	SALT	5	21	[0, 0, 0]	n/a	FR1	0	R1230J
2586.065	1.618	2727345	WORD	n/a	wordpools/wordpool_EN.txt	JET	6	21	[0, 0, 0]	n/a	FR1	0	R1230J
2587.683	0.782	2728963	WORD_OFF	n/a	n/a	JET	6	21	[0, 0, 0]	n/a	FR1	0	R1230J
2588.465	1.617	2729745	WORD	n/a	wordpools/wordpool_EN.txt	MOTH	7	21	[0, 0, 0]	n/a	FR1	0	R1230J
2590.082	0.9	2731362	WORD_OFF	n/a	n/a	MOTH	7	21	[0, 0, 0]	n/a	FR1	0	R1230J
2590.982	1.617	2732262	WORD	n/a	wordpools/wordpool_EN.txt	SQUARE	8	21	[0, 0, 0]	n/a	FR1	0	R1230J
2592.599	1.0	2733879	WORD_OFF	n/a	n/a	SQUARE	8	21	[0, 0, 0]	n/a	FR1	0	R1230J
2593.599	1.617	2734879	WORD	n/a	wordpools/wordpool_EN.txt	WING	9	21	[0, 0, 0]	n/a	FR1	0	R1230J
2595.216	1.017	2736496	WORD_OFF	n/a	n/a	WING	9	21	[0, 0, 0]	n/a	FR1	0	R1230J
2596.233	1.617	2737513	WORD	n/a	wordpools/wordpool_EN.txt	FOOD	10	21	[0, 0, 0]	n/a	FR1	0	R1230J
2597.85	0.85	2739130	WORD_OFF	n/a	n/a	FOOD	10	21	[0, 0, 0]	n/a	FR1	0	R1230J
2598.7	1.616	2739980	WORD	n/a	wordpools/wordpool_EN.txt	WOLF	11	21	[0, 0, 0]	n/a	FR1	0	R1230J
2600.316	0.934	2741596	WORD_OFF	n/a	n/a	WOLF	11	21	[0, 0, 0]	n/a	FR1	0	R1230J
2601.25	1.617	2742530	WORD	n/a	wordpools/wordpool_EN.txt	PET	12	21	[0, 0, 0]	n/a	FR1	0	R1230J
2602.867	0.0	2744147	DISTRACT_START	n/a	n/a	n/a	-999	21	[0, 0, 0]	n/a	FR1	0	R1230J
2602.867	0.0	2744147	WORD_OFF	n/a	n/a	PET	12	21	[0, 0, 0]	n/a	FR1	0	R1230J
2602.867	0.016	2744147	START	n/a	n/a	n/a	-999	21	[-999, -999, -999]	n/a	FR1	0	R1230J
2602.883	5.601	2744163	PROB	5.601	n/a	n/a	-999	21	[9, 7, 1]	17	FR1	0	R1230J
2608.484	4.751	2749764	PROB	4.751	n/a	n/a	-999	21	[7, 7, 3]	17	FR1	0	R1230J
2613.235	3.334	2754515	PROB	3.334	n/a	n/a	-999	21	[7, 5, 1]	13	FR1	0	R1230J
2616.569	4.151	2757849	PROB	4.151	n/a	n/a	-999	21	[6, 1, 8]	15	FR1	0	R1230J
2620.72	3.506	2762000	PROB	3.506	n/a	n/a	-999	21	[8, 3, 7]	18	FR1	0	R1230J
2624.226	0.01	2765506	STOP	n/a	n/a	n/a	-999	21	[-999, -999, -999]	n/a	FR1	0	R1230J
2624.236	0.567	2765516	DISTRACT_END	n/a	n/a	n/a	-999	21	[0, 0, 0]	n/a	FR1	0	R1230J
2624.803	0.518	2766083	RETRIEVAL_ORIENT	n/a	n/a	n/a	-999	21	[0, 0, 0]	n/a	FR1	0	R1230J
2625.321	0.342	2766601	REC_START	n/a	n/a	n/a	-999	21	[0, 0, 0]	n/a	FR1	0	R1230J
2625.663	0.822	2766943	REC_WORD	0.822	n/a	BRIDGE	1	21	[0, 0, 0]	n/a	FR1	0	R1230J
2626.485	0.725	2767765	REC_WORD	0.725	n/a	BRUSH	-999	21	[0, 0, 0]	n/a	FR1	0	R1230J
2627.21	0.931	2768490	REC_WORD	0.931	n/a	FILM	3	21	[0, 0, 0]	n/a	FR1	0	R1230J
2628.141	5.828	2769421	REC_WORD	5.828	n/a	BREAD	-999	21	[0, 0, 0]	n/a	FR1	0	R1230J
2633.969	6.024	2775249	REC_WORD	6.024	n/a	PET	12	21	[0, 0, 0]	n/a	FR1	0	R1230J
2639.993	1.0	2781273	REC_WORD_VV	1.0	n/a	<>	-999	21	[0, 0, 0]	n/a	FR1	0	R1230J
2640.993	0.241	2782273	REC_WORD_VV	0.241	n/a	<>	-999	21	[0, 0, 0]	n/a	FR1	0	R1230J
2641.234	5.379	2782514	REC_WORD	5.379	n/a	FLUSH	-999	21	[0, 0, 0]	n/a	FR1	0	R1230J
2646.613	3.381	2787893	REC_WORD_VV	3.381	n/a	<>	-999	21	[0, 0, 0]	n/a	FR1	0	R1230J
2649.994	5.336	2791274	REC_WORD	5.336	n/a	GUARD	-999	21	[0, 0, 0]	n/a	FR1	0	R1230J
2655.33	7.045	2796610	REC_END	n/a	n/a	n/a	-999	21	[0, 0, 0]	n/a	FR1	0	R1230J
2662.375	0.5	2803655	TRIAL	n/a	n/a	n/a	-999	22	[0, 0, 0]	n/a	FR1	0	R1230J
2662.875	10.428	2804155	COUNTDOWN_START	n/a	n/a	n/a	-999	22	[0, 0, 0]	n/a	FR1	0	R1230J
2673.303	0.007	2814583	COUNTDOWN_END	n/a	n/a	n/a	-999	22	[0, 0, 0]	n/a	FR1	0	R1230J
2673.31	1.616	2814590	ORIENT	n/a	n/a	n/a	-999	22	[0, 0, 0]	n/a	FR1	0	R1230J
2674.926	2.051	2816206	ORIENT_OFF	n/a	n/a	n/a	-999	22	[0, 0, 0]	n/a	FR1	0	R1230J
2676.977	1.616	2818257	WORD	n/a	wordpools/wordpool_EN.txt	BEACH	1	22	[0, 0, 0]	n/a	FR1	0	R1230J
2678.593	0.934	2819873	WORD_OFF	n/a	n/a	BEACH	1	22	[0, 0, 0]	n/a	FR1	0	R1230J
2679.527	1.617	2820807	WORD	n/a	wordpools/wordpool_EN.txt	SCHOOL	2	22	[0, 0, 0]	n/a	FR1	0	R1230J
2681.144	0.95	2822424	WORD_OFF	n/a	n/a	SCHOOL	2	22	[0, 0, 0]	n/a	FR1	0	R1230J
2682.094	1.618	2823374	WORD	n/a	wordpools/wordpool_EN.txt	NET	3	22	[0, 0, 0]	n/a	FR1	0	R1230J
2683.712	0.866	2824992	WORD_OFF	n/a	n/a	NET	3	22	[0, 0, 0]	n/a	FR1	0	R1230J
2684.578	1.617	2825858	WORD	n/a	wordpools/wordpool_EN.txt	BLOOM	4	22	[0, 0, 0]	n/a	FR1	0	R1230J
2686.195	0.883	2827475	WORD_OFF	n/a	n/a	BLOOM	4	22	[0, 0, 0]	n/a	FR1	0	R1230J
2687.078	1.618	2828358	WORD	n/a	wordpools/wordpool_EN.txt	SIGN	5	22	[0, 0, 0]	n/a	FR1	0	R1230J
2688.696	0.816	2829976	WORD_OFF	n/a	n/a	SIGN	5	22	[0, 0, 0]	n/a	FR1	0	R1230J
2689.512	1.617	2830792	WORD	n/a	wordpools/wordpool_EN.txt	BOWL	6	22	[0, 0, 0]	n/a	FR1	0	R1230J
2691.129	0.983	2832409	WORD_OFF	n/a	n/a	BOWL	6	22	[0, 0, 0]	n/a	FR1	0	R1230J
2692.112	1.618	2833392	WORD	n/a	wordpools/wordpool_EN.txt	MOON	7	22	[0, 0, 0]	n/a	FR1	0	R1230J
2693.73	0.766	2835010	WORD_OFF	n/a	n/a	MOON	7	22	[0, 0, 0]	n/a	FR1	0	R1230J
2694.496	1.617	2835776	WORD	n/a	wordpools/wordpool_EN.txt	BALL	8	22	[0, 0, 0]	n/a	FR1	0	R1230J
2696.113	0.783	2837393	WORD_OFF	n/a	n/a	BALL	8	22	[0, 0, 0]	n/a	FR1	0	R1230J
2696.896	1.617	2838176	WORD	n/a	wordpools/wordpool_EN.txt	STAR	9	22	[0, 0, 0]	n/a	FR1	0	R1230J
2698.513	0.95	2839793	WORD_OFF	n/a	n/a	STAR	9	22	[0, 0, 0]	n/a	FR1	0	R1230J
2699.463	1.617	2840743	WORD	n/a	wordpools/wordpool_EN.txt	MAZE	10	22	[0, 0, 0]	n/a	FR1	0	R1230J
2701.08	0.8	2842360	WORD_OFF	n/a	n/a	MAZE	10	22	[0, 0, 0]	n/a	FR1	0	R1230J
2701.88	1.617	2843160	WORD	n/a	wordpools/wordpool_EN.txt	KITE	11	22	[0, 0, 0]	n/a	FR1	0	R1230J
2703.497	0.95	2844777	WORD_OFF	n/a	n/a	KITE	11	22	[0, 0, 0]	n/a	FR1	0	R1230J
2704.447	1.617	2845727	WORD	n/a	wordpools/wordpool_EN.txt	SPONGE	12	22	[0, 0, 0]	n/a	FR1	0	R1230J
2706.064	0.0	2847344	WORD_OFF	n/a	n/a	SPONGE	12	22	[0, 0, 0]	n/a	FR1	0	R1230J
2706.064	0.001	2847344	DISTRACT_START	n/a	n/a	n/a	-999	22	[0, 0, 0]	n/a	FR1	0	R1230J
2706.065	0.016	2847345	START	n/a	n/a	n/a	-999	22	[-999, -999, -999]	n/a	FR1	0	R1230J
2706.081	6.284	2847361	PROB	6.284	n/a	n/a	-999	22	[1, 3, 9]	13	FR1	0	R1230J
2712.365	3.751	2853645	PROB	3.751	n/a	n/a	-999	22	[3, 7, 9]	19	FR1	0	R1230J
2716.116	3.75	2857396	PROB	3.75	n/a	n/a	-999	22	[8, 7, 6]	21	FR1	0	R1230J
2719.866	3.934	2861146	PROB	3.934	n/a	n/a	-999	22	[6, 9, 1]	16	FR1	0	R1230J
2723.8	3.256	2865080	PROB	3.256	n/a	n/a	-999	22	[5, 5, 5]	15	FR1	0	R1230J
2727.056	0.011	2868336	STOP	n/a	n/a	n/a	-999	22	[-999, -999, -999]	n/a	FR1	0	R1230J
2727.067	0.516	2868347	DISTRACT_END	n/a	n/a	n/a	-999	22	[0, 0, 0]	n/a	FR1	0	R1230J
2727.583	0.518	2868863	RETRIEVAL_ORIENT	n/a	n/a	n/a	-999	22	[0, 0, 0]	n/a	FR1	0	R1230J
2728.101	1.049	2869381	REC_START	n/a	n/a	n/a	-999	22	[0, 0, 0]	n/a	FR1	0	R1230J
2729.15	0.701	2870430	REC_WORD	0.701	n/a	BEACH	1	22	[0, 0, 0]	n/a	FR1	0	R1230J
2729.851	1.612	2871131	REC_WORD	1.612	n/a	BALL	8	22	[0, 0, 0]	n/a	FR1	0	R1230J
2731.463	2.68	2872743	REC_WORD	2.68	n/a	FENCE	-999	22	[0, 0, 0]	n/a	FR1	0	R1230J
2734.143	11.606	2875423	REC_WORD	11.606	n/a	NET	3	22	[0, 0, 0]	n/a	FR1	0	R1230J
2745.749	4.73	2887029	REC_WORD	4.73	n/a	BOAT	-999	22	[0, 0, 0]	n/a	FR1	0	R1230J
2750.479	6.202	2891759	REC_WORD	6.202	n/a	CART	-999	22	[0, 0, 0]	n/a	FR1	0	R1230J
2756.681	1.43	2897961	REC_WORD	1.43	n/a	SCHOOL	2	22	[0, 0, 0]	n/a	FR1	0	R1230J
2758.111	25.615	2899391	REC_END	n/a	n/a	n/a	-999	22	[0, 0, 0]	n/a	FR1	0	R1230J
2783.726	0.5	2925006	TRIAL	n/a	n/a	n/a	-999	23	[0, 0, 0]	n/a	FR1	0	R1230J
2784.226	10.428	2925506	COUNTDOWN_START	n/a	n/a	n/a	-999	23	[0, 0, 0]	n/a	FR1	0	R1230J
2794.654	0.006	2935934	COUNTDOWN_END	n/a	n/a	n/a	-999	23	[0, 0, 0]	n/a	FR1	0	R1230J
2794.66	1.616	2935940	ORIENT	n/a	n/a	n/a	-999	23	[0, 0, 0]	n/a	FR1	0	R1230J
2796.276	2.05	2937556	ORIENT_OFF	n/a	n/a	n/a	-999	23	[0, 0, 0]	n/a	FR1	0	R1230J
2798.326	1.617	2939606	WORD	n/a	wordpools/wordpool_EN.txt	JUICE	1	23	[0, 0, 0]	n/a	FR1	0	R1230J
2799.943	0.95	2941223	WORD_OFF	n/a	n/a	JUICE	1	23	[0, 0, 0]	n/a	FR1	0	R1230J
2800.893	1.617	2942173	WORD	n/a	wordpools/wordpool_EN.txt	KEY	2	23	[0, 0, 0]	n/a	FR1	0	R1230J
2802.51	0.9	2943790	WORD_OFF	n/a	n/a	KEY	2	23	[0, 0, 0]	n/a	FR1	0	R1230J
2803.41	1.617	2944690	WORD	n/a	wordpools/wordpool_EN.txt	BEAK	3	23	[0, 0, 0]	n/a	FR1	0	R1230J
2805.027	0.817	2946307	WORD_OFF	n/a	n/a	BEAK	3	23	[0, 0, 0]	n/a	FR1	0	R1230J
2805.844	1.617	2947124	WORD	n/a	wordpools/wordpool_EN.txt	TRASH	4	23	[0, 0, 0]	n/a	FR1	0	R1230J
2807.461	0.933	2948741	WORD_OFF	n/a	n/a	TRASH	4	23	[0, 0, 0]	n/a	FR1	0	R1230J
2808.394	1.617	2949674	WORD	n/a	wordpools/wordpool_EN.txt	SHELL	5	23	[0, 0, 0]	n/a	FR1	0	R1230J
2810.011	0.984	2951291	WORD_OFF	n/a	n/a	SHELL	5	23	[0, 0, 0]	n/a	FR1	0	R1230J
2810.995	1.617	2952275	WORD	n/a	wordpools/wordpool_EN.txt	BOARD	6	23	[0, 0, 0]	n/a	FR1	0	R1230J
2812.612	0.933	2953892	WORD_OFF	n/a	n/a	BOARD	6	23	[0, 0, 0]	n/a	FR1	0	R1230J
2813.545	1.617	2954825	WORD	n/a	wordpools/wordpool_EN.txt	MULE	7	23	[0, 0, 0]	n/a	FR1	0	R1230J
2815.162	0.984	2956442	WORD_OFF	n/a	n/a	MULE	7	23	[0, 0, 0]	n/a	FR1	0	R1230J
2816.146	1.617	2957426	WORD	n/a	wordpools/wordpool_EN.txt	BOOT	8	23	[0, 0, 0]	n/a	FR1	0	R1230J
2817.763	0.849	2959043	WORD_OFF	n/a	n/a	BOOT	8	23	[0, 0, 0]	n/a	FR1	0	R1230J
2818.612	1.617	2959892	WORD	n/a	wordpools/wordpool_EN.txt	CRANE	9	23	[0, 0, 0]	n/a	FR1	0	R1230J
2820.229	0.767	2961509	WORD_OFF	n/a	n/a	CRANE	9	23	[0, 0, 0]	n/a	FR1	0	R1230J
2820.996	1.617	2962276	WORD	n/a	wordpools/wordpool_EN.txt	SHRIMP	10	23	[0, 0, 0]	n/a	FR1	0	R1230J
2822.613	0.834	2963893	WORD_OFF	n/a	n/a	SHRIMP	10	23	[0, 0, 0]	n/a	FR1	0	R1230J
2823.447	1.617	2964727	WORD	n/a	wordpools/wordpool_EN.txt	TRAIN	11	23	[0, 0, 0]	n/a	FR1	0	R1230J
2825.064	0.9	2966344	WORD_OFF	n/a	n/a	TRAIN	11	23	[0, 0, 0]	n/a	FR1	0	R1230J
2825.964	1.617	2967244	WORD	n/a	wordpools/wordpool_EN.txt	PIN	12	23	[0, 0, 0]	n/a	FR1	0	R1230J
2827.581	0.0	2968861	WORD_OFF	n/a	n/a	PIN	12	23	[0, 0, 0]	n/a	FR1	0	R1230J
2827.581	0.0	2968861	DISTRACT_START	n/a	n/a	n/a	-999	23	[0, 0, 0]	n/a	FR1	0	R1230J
2827.581	0.016	2968861	START	n/a	n/a	n/a	-999	23	[-999, -999, -999]	n/a	FR1	0	R1230J
2827.597	4.934	2968877	PROB	4.934	n/a	n/a	-999	23	[1, 7, 6]	14	FR1	0	R1230J
2832.531	3.884	2973811	PROB	3.884	n/a	n/a	-999	23	[4, 5, 6]	14	FR1	0	R1230J
2836.415	3.934	2977695	PROB	3.934	n/a	n/a	-999	23	[4, 6, 4]	14	FR1	0	R1230J
2840.349	5.05	2981629	PROB	5.05	n/a	n/a	-999	23	[2, 4, 3]	9	FR1	0	R1230J
2845.399	3.908	2986678	PROB	3.908	n/a	n/a	-999	23	[7, 8, 2]	17	FR1	0	R1230J
2849.307	0.009	2990586	STOP	n/a	n/a	n/a	-999	23	[-999, -999, -999]	n/a	FR1	0	R1230J
2849.316	0.701	2990595	DISTRACT_END	n/a	n/a	n/a	-999	23	[0, 0, 0]	n/a	FR1	0	R1230J
2850.017	0.517	2991296	RETRIEVAL_ORIENT	n/a	n/a	n/a	-999	23	[0, 0, 0]	n/a	FR1	0	R1230J
2850.534	0.413	2991813	REC_START	n/a	n/a	n/a	-999	23	[0, 0, 0]	n/a	FR1	0	R1230J
