onset	duration	sample	trial_type	response_time	stim_file	item_name	serialpos	list	test	answer	experiment	session	subject
0.0	10.751	172825	SESS_START	n/a	n/a	n/a	-999	-999	[0, 0, 0]	n/a	FR1	3	R1061T
10.751	10.428	183575	COUNTDOWN_START	n/a	n/a	n/a	-999	-999	[0, 0, 0]	n/a	FR1	3	R1061T
21.179	3.874	194003	COUNTDOWN_END	n/a	n/a	n/a	-999	-999	[0, 0, 0]	n/a	FR1	3	R1061T
25.053	2.518	197877	PRACTICE_WORD	n/a	n/a	ATTIC	1	-1	[0, 0, 0]	n/a	FR1	3	R1061T
27.571	2.5	200395	PRACTICE_WORD	n/a	n/a	WAGON	2	-1	[0, 0, 0]	n/a	FR1	3	R1061T
30.071	2.518	202895	PRACTICE_WORD	n/a	n/a	CHEST	3	-1	[0, 0, 0]	n/a	FR1	3	R1061T
32.589	2.416	205412	PRACTICE_WORD	n/a	n/a	BEAM	4	-1	[0, 0, 0]	n/a	FR1	3	R1061T
35.005	2.568	207828	PRACTICE_WORD	n/a	n/a	FLOOD	5	-1	[0, 0, 0]	n/a	FR1	3	R1061T
37.573	2.466	210396	PRACTICE_WORD	n/a	n/a	TONGUE	6	-1	[0, 0, 0]	n/a	FR1	3	R1061T
40.039	2.502	212862	PRACTICE_WORD	n/a	n/a	WATCH	7	-1	[0, 0, 0]	n/a	FR1	3	R1061T
42.541	2.466	215364	PRACTICE_WORD	n/a	n/a	CAMEL	8	-1	[0, 0, 0]	n/a	FR1	3	R1061T
45.007	2.518	217830	PRACTICE_WORD	n/a	n/a	RING	9	-1	[0, 0, 0]	n/a	FR1	3	R1061T
47.525	2.6	220348	PRACTICE_WORD	n/a	n/a	IRON	10	-1	[0, 0, 0]	n/a	FR1	3	R1061T
50.125	2.451	222948	PRACTICE_WORD	n/a	n/a	RHINO	11	-1	[0, 0, 0]	n/a	FR1	3	R1061T
52.576	1.616	225398	PRACTICE_WORD	n/a	n/a	COTTON	12	-1	[0, 0, 0]	n/a	FR1	3	R1061T
54.192	0.0	227014	PRACTICE_DISTRACT_START	n/a	n/a	n/a	-999	-1	[0, 0, 0]	n/a	FR1	3	R1061T
54.192	0.017	227014	START	n/a	n/a	n/a	-999	1	[-999, -999, -999]	n/a	FR1	3	R1061T
54.209	6.801	227031	PROB	6.801	n/a	n/a	-999	1	[1, 5, 6]	12	FR1	3	R1061T
61.01	3.151	233832	PROB	3.151	n/a	n/a	-999	1	[8, 5, 6]	19	FR1	3	R1061T
64.161	2.733	236983	PROB	2.733	n/a	n/a	-999	1	[4, 1, 5]	10	FR1	3	R1061T
66.894	3.284	239716	PROB	3.284	n/a	n/a	-999	1	[8, 3, 3]	14	FR1	3	R1061T
70.178	2.034	243000	PROB	2.034	n/a	n/a	-999	1	[6, 6, 2]	14	FR1	3	R1061T
72.212	2.479	245033	PROB	2.479	n/a	n/a	-999	1	[2, 2, 9]	13	FR1	3	R1061T
74.691	0.005	247512	STOP	n/a	n/a	n/a	-999	1	[-999, -999, -999]	n/a	FR1	3	R1061T
74.696	0.519	247517	PRACTICE_DISTRACT_END	n/a	n/a	n/a	-999	-1	[0, 0, 0]	n/a	FR1	3	R1061T
75.215	30.514	248036	PRACTICE_REC_START	n/a	n/a	n/a	-999	-1	[0, 0, 0]	n/a	FR1	3	R1061T
105.729	6.575	278549	PRACTICE_REC_END	n/a	n/a	n/a	-999	-1	[0, 0, 0]	n/a	FR1	3	R1061T
112.304	0.0	285123	COUNTDOWN_START	n/a	n/a	n/a	-999	1	[0, 0, 0]	n/a	FR1	3	R1061T
112.304	10.428	285123	TRIAL	n/a	n/a	n/a	-999	1	[0, 0, 0]	n/a	FR1	3	R1061T
122.732	0.006	295551	COUNTDOWN_END	n/a	n/a	n/a	-999	1	[0, 0, 0]	n/a	FR1	3	R1061T
122.738	2.483	295557	ORIENT	n/a	n/a	n/a	-999	1	[0, 0, 0]	n/a	FR1	3	R1061T
125.221	2.518	298040	WORD	n/a	wordpools/wordpool_EN.txt	JUICE	1	1	[0, 0, 0]	n/a	FR1	3	R1061T
127.739	2.433	300558	WORD	n/a	wordpools/wordpool_EN.txt	SPONGE	2	1	[0, 0, 0]	n/a	FR1	3	R1061T
130.172	2.551	302991	WORD	n/a	wordpools/wordpool_EN.txt	SOAP	3	1	[0, 0, 0]	n/a	FR1	3	R1061T
132.723	2.585	305541	WORD	n/a	wordpools/wordpool_EN.txt	FROG	4	1	[0, 0, 0]	n/a	FR1	3	R1061T
135.308	2.533	308126	WORD	n/a	wordpools/wordpool_EN.txt	ROOM	5	1	[0, 0, 0]	n/a	FR1	3	R1061T
137.841	2.584	310659	WORD	n/a	wordpools/wordpool_EN.txt	PALM	6	1	[0, 0, 0]	n/a	FR1	3	R1061T
140.425	2.583	313243	WORD	n/a	wordpools/wordpool_EN.txt	SEA	7	1	[0, 0, 0]	n/a	FR1	3	R1061T
143.008	2.568	315826	WORD	n/a	wordpools/wordpool_EN.txt	TEETH	8	1	[0, 0, 0]	n/a	FR1	3	R1061T
145.576	2.55	318394	WORD	n/a	wordpools/wordpool_EN.txt	PLATE	9	1	[0, 0, 0]	n/a	FR1	3	R1061T
148.126	2.517	320944	WORD	n/a	wordpools/wordpool_EN.txt	TOOTH	10	1	[0, 0, 0]	n/a	FR1	3	R1061T
150.643	2.534	323461	WORD	n/a	wordpools/wordpool_EN.txt	SNAIL	11	1	[0, 0, 0]	n/a	FR1	3	R1061T
153.177	1.617	325994	WORD	n/a	wordpools/wordpool_EN.txt	SALT	12	1	[0, 0, 0]	n/a	FR1	3	R1061T
154.794	0.001	327611	DISTRACT_START	n/a	n/a	n/a	-999	1	[0, 0, 0]	n/a	FR1	3	R1061T
154.795	0.015	327612	START	n/a	n/a	n/a	-999	2	[-999, -999, -999]	n/a	FR1	3	R1061T
154.81	8.786	327627	PROB	8.786	n/a	n/a	-999	2	[6, 9, 8]	23	FR1	3	R1061T
163.596	3.3	336413	PROB	3.3	n/a	n/a	-999	2	[7, 5, 3]	15	FR1	3	R1061T
166.896	2.167	339713	PROB	2.167	n/a	n/a	-999	2	[8, 3, 3]	14	FR1	3	R1061T
169.063	2.85	341880	PROB	2.85	n/a	n/a	-999	2	[6, 3, 3]	12	FR1	3	R1061T
171.913	2.217	344730	PROB	2.217	n/a	n/a	-999	2	[6, 1, 9]	16	FR1	3	R1061T
174.13	2.376	346946	PROB	2.376	n/a	n/a	-999	2	[6, 8, 1]	15	FR1	3	R1061T
176.506	0.009	349322	STOP	n/a	n/a	n/a	-999	2	[-999, -999, -999]	n/a	FR1	3	R1061T
176.515	1.217	349331	DISTRACT_END	n/a	n/a	n/a	-999	1	[0, 0, 0]	n/a	FR1	3	R1061T
177.732	1.392	350548	REC_START	n/a	n/a	n/a	-999	1	[0, 0, 0]	n/a	FR1	3	R1061T
179.124	1.162	351940	REC_WORD	1.162	n/a	PLATE	-999	1	[0, 0, 0]	n/a	FR1	3	R1061T
180.286	1.432	353102	REC_WORD	1.432	n/a	TOOTH	-999	1	[0, 0, 0]	n/a	FR1	3	R1061T
181.718	1.436	354534	REC_WORD	1.436	n/a	SEA	-999	1	[0, 0, 0]	n/a	FR1	3	R1061T
183.154	4.788	355970	REC_WORD	4.788	n/a	SNAIL	-999	1	[0, 0, 0]	n/a	FR1	3	R1061T
187.942	1.87	360758	REC_WORD	1.87	n/a	PALM	-999	1	[0, 0, 0]	n/a	FR1	3	R1061T
189.812	2.628	362628	REC_WORD	2.628	n/a	FROG	-999	1	[0, 0, 0]	n/a	FR1	3	R1061T
192.44	15.302	365256	REC_WORD	15.302	n/a	JUICE	-999	1	[0, 0, 0]	n/a	FR1	3	R1061T
207.742	2.195	380557	REC_END	n/a	n/a	n/a	-999	1	[0, 0, 0]	n/a	FR1	3	R1061T
209.937	0.0	382752	TRIAL	n/a	n/a	n/a	-999	2	[0, 0, 0]	n/a	FR1	3	R1061T
209.937	10.428	382752	COUNTDOWN_START	n/a	n/a	n/a	-999	2	[0, 0, 0]	n/a	FR1	3	R1061T
220.365	0.008	393179	COUNTDOWN_END	n/a	n/a	n/a	-999	2	[0, 0, 0]	n/a	FR1	3	R1061T
220.373	2.4	393187	ORIENT	n/a	n/a	n/a	-999	2	[0, 0, 0]	n/a	FR1	3	R1061T
222.773	2.568	395587	WORD	n/a	wordpools/wordpool_EN.txt	MAP	1	2	[0, 0, 0]	n/a	FR1	3	R1061T
225.341	2.533	398155	WORD	n/a	wordpools/wordpool_EN.txt	LAKE	2	2	[0, 0, 0]	n/a	FR1	3	R1061T
227.874	2.518	400688	WORD	n/a	wordpools/wordpool_EN.txt	SNOW	3	2	[0, 0, 0]	n/a	FR1	3	R1061T
230.392	2.382	403206	WORD	n/a	wordpools/wordpool_EN.txt	TRAIN	4	2	[0, 0, 0]	n/a	FR1	3	R1061T
232.774	2.535	405588	WORD	n/a	wordpools/wordpool_EN.txt	SKUNK	5	2	[0, 0, 0]	n/a	FR1	3	R1061T
235.309	2.5	408122	WORD	n/a	wordpools/wordpool_EN.txt	CAPE	6	2	[0, 0, 0]	n/a	FR1	3	R1061T
237.809	2.383	410622	WORD	n/a	wordpools/wordpool_EN.txt	ICE	7	2	[0, 0, 0]	n/a	FR1	3	R1061T
240.192	2.584	413005	WORD	n/a	wordpools/wordpool_EN.txt	ROCK	8	2	[0, 0, 0]	n/a	FR1	3	R1061T
242.776	2.585	415589	WORD	n/a	wordpools/wordpool_EN.txt	RAIN	9	2	[0, 0, 0]	n/a	FR1	3	R1061T
245.361	2.566	418174	WORD	n/a	wordpools/wordpool_EN.txt	POLE	10	2	[0, 0, 0]	n/a	FR1	3	R1061T
247.927	2.468	420740	WORD	n/a	wordpools/wordpool_EN.txt	BAND	11	2	[0, 0, 0]	n/a	FR1	3	R1061T
250.395	1.616	423208	WORD	n/a	wordpools/wordpool_EN.txt	SLIME	12	2	[0, 0, 0]	n/a	FR1	3	R1061T
252.011	0.001	424824	DISTRACT_START	n/a	n/a	n/a	-999	2	[0, 0, 0]	n/a	FR1	3	R1061T
252.012	0.016	424825	START	n/a	n/a	n/a	-999	3	[-999, -999, -999]	n/a	FR1	3	R1061T
252.028	8.436	424841	PROB	8.436	n/a	n/a	-999	3	[4, 8, 9]	22	FR1	3	R1061T
260.464	4.984	433276	PROB	4.984	n/a	n/a	-999	3	[4, 8, 9]	21	FR1	3	R1061T
265.448	2.084	438260	PROB	2.084	n/a	n/a	-999	3	[1, 9, 2]	12	FR1	3	R1061T
267.532	2.416	440344	PROB	2.416	n/a	n/a	-999	3	[5, 5, 9]	19	FR1	3	R1061T
269.948	2.416	442760	PROB	2.416	n/a	n/a	-999	3	[6, 4, 4]	14	FR1	3	R1061T
272.364	0.019	445176	STOP	n/a	n/a	n/a	-999	3	[-999, -999, -999]	n/a	FR1	3	R1061T
272.383	1.134	445195	DISTRACT_END	n/a	n/a	n/a	-999	2	[0, 0, 0]	n/a	FR1	3	R1061T
273.517	3.134	446329	REC_START	n/a	n/a	n/a	-999	2	[0, 0, 0]	n/a	FR1	3	R1061T
276.651	1.107	449462	REC_WORD	1.107	n/a	ICE	-999	2	[0, 0, 0]	n/a	FR1	3	R1061T
277.758	3.166	450569	REC_WORD	3.166	n/a	SNOW	-999	2	[0, 0, 0]	n/a	FR1	3	R1061T
280.924	12.928	453735	REC_WORD	12.928	n/a	TRAIN	-999	2	[0, 0, 0]	n/a	FR1	3	R1061T
293.852	9.675	466663	REC_WORD	9.675	n/a	MAP	-999	2	[0, 0, 0]	n/a	FR1	3	R1061T
303.527	1.627	476337	REC_END	n/a	n/a	n/a	-999	2	[0, 0, 0]	n/a	FR1	3	R1061T
305.154	0.001	477964	COUNTDOWN_START	n/a	n/a	n/a	-999	3	[0, 0, 0]	n/a	FR1	3	R1061T
305.155	10.427	477965	TRIAL	n/a	n/a	n/a	-999	3	[0, 0, 0]	n/a	FR1	3	R1061T
315.582	0.009	488391	COUNTDOWN_END	n/a	n/a	n/a	-999	3	[0, 0, 0]	n/a	FR1	3	R1061T
315.591	2.416	488400	ORIENT	n/a	n/a	n/a	-999	3	[0, 0, 0]	n/a	FR1	3	R1061T
318.007	2.501	490816	WORD	n/a	wordpools/wordpool_EN.txt	VASE	1	3	[0, 0, 0]	n/a	FR1	3	R1061T
320.508	2.499	493317	WORD	n/a	wordpools/wordpool_EN.txt	BIRD	2	3	[0, 0, 0]	n/a	FR1	3	R1061T
323.007	2.485	495816	WORD	n/a	wordpools/wordpool_EN.txt	NEST	3	3	[0, 0, 0]	n/a	FR1	3	R1061T
325.492	2.583	498301	WORD	n/a	wordpools/wordpool_EN.txt	SHARK	4	3	[0, 0, 0]	n/a	FR1	3	R1061T
328.075	2.502	500884	WORD	n/a	wordpools/wordpool_EN.txt	HOUSE	5	3	[0, 0, 0]	n/a	FR1	3	R1061T
330.577	2.616	503386	WORD	n/a	wordpools/wordpool_EN.txt	DOOR	6	3	[0, 0, 0]	n/a	FR1	3	R1061T
333.193	2.417	506002	WORD	n/a	wordpools/wordpool_EN.txt	WING	7	3	[0, 0, 0]	n/a	FR1	3	R1061T
335.61	2.6	508419	WORD	n/a	wordpools/wordpool_EN.txt	CAGE	8	3	[0, 0, 0]	n/a	FR1	3	R1061T
338.21	2.501	511018	WORD	n/a	wordpools/wordpool_EN.txt	ROPE	9	3	[0, 0, 0]	n/a	FR1	3	R1061T
340.711	2.467	513519	WORD	n/a	wordpools/wordpool_EN.txt	SEAL	10	3	[0, 0, 0]	n/a	FR1	3	R1061T
343.178	2.534	515986	WORD	n/a	wordpools/wordpool_EN.txt	WEB	11	3	[0, 0, 0]	n/a	FR1	3	R1061T
345.712	1.618	518520	WORD	n/a	wordpools/wordpool_EN.txt	SNAKE	12	3	[0, 0, 0]	n/a	FR1	3	R1061T
347.33	0.001	520138	DISTRACT_START	n/a	n/a	n/a	-999	3	[0, 0, 0]	n/a	FR1	3	R1061T
347.331	0.015	520139	START	n/a	n/a	n/a	-999	4	[-999, -999, -999]	n/a	FR1	3	R1061T
347.346	5.334	520154	PROB	5.334	n/a	n/a	-999	4	[1, 1, 5]	7	FR1	3	R1061T
352.68	2.083	525488	PROB	2.083	n/a	n/a	-999	4	[8, 3, 7]	18	FR1	3	R1061T
354.763	2.752	527571	PROB	2.752	n/a	n/a	-999	4	[4, 9, 6]	19	FR1	3	R1061T
357.515	4.116	530322	PROB	4.116	n/a	n/a	-999	4	[5, 7, 8]	20	FR1	3	R1061T
361.631	2.401	534438	PROB	2.401	n/a	n/a	-999	4	[3, 2, 2]	7	FR1	3	R1061T
364.032	2.368	536839	PROB	2.368	n/a	n/a	-999	4	[7, 2, 9]	18	FR1	3	R1061T
366.4	3.059	539207	PROB	3.059	n/a	n/a	-999	4	[4, 8, 6]	18	FR1	3	R1061T
369.459	0.008	542266	STOP	n/a	n/a	n/a	-999	4	[-999, -999, -999]	n/a	FR1	3	R1061T
369.467	1.067	542274	DISTRACT_END	n/a	n/a	n/a	-999	3	[0, 0, 0]	n/a	FR1	3	R1061T
370.534	2.242	543341	REC_START	n/a	n/a	n/a	-999	3	[0, 0, 0]	n/a	FR1	3	R1061T
372.776	1.472	545583	REC_WORD	1.472	n/a	WEB	-999	3	[0, 0, 0]	n/a	FR1	3	R1061T
374.248	26.3	547055	REC_WORD	26.3	n/a	SEAL	-999	3	[0, 0, 0]	n/a	FR1	3	R1061T
400.548	9.259	573353	REC_END	n/a	n/a	n/a	-999	3	[0, 0, 0]	n/a	FR1	3	R1061T
409.807	0.0	582612	TRIAL	n/a	n/a	n/a	-999	4	[0, 0, 0]	n/a	FR1	3	R1061T
409.807	10.428	582612	COUNTDOWN_START	n/a	n/a	n/a	-999	4	[0, 0, 0]	n/a	FR1	3	R1061T
420.235	0.008	593039	COUNTDOWN_END	n/a	n/a	n/a	-999	4	[0, 0, 0]	n/a	FR1	3	R1061T
420.243	2.516	593047	ORIENT	n/a	n/a	n/a	-999	4	[0, 0, 0]	n/a	FR1	3	R1061T
422.759	2.485	595563	WORD	n/a	wordpools/wordpool_EN.txt	SIGN	1	4	[0, 0, 0]	n/a	FR1	3	R1061T
425.244	2.416	598048	WORD	n/a	wordpools/wordpool_EN.txt	KEY	2	4	[0, 0, 0]	n/a	FR1	3	R1061T
427.66	2.567	600464	WORD	n/a	wordpools/wordpool_EN.txt	MOUTH	3	4	[0, 0, 0]	n/a	FR1	3	R1061T
430.227	2.467	603031	WORD	n/a	wordpools/wordpool_EN.txt	DRUM	4	4	[0, 0, 0]	n/a	FR1	3	R1061T
432.694	2.484	605498	WORD	n/a	wordpools/wordpool_EN.txt	JAIL	5	4	[0, 0, 0]	n/a	FR1	3	R1061T
435.178	2.6	607982	WORD	n/a	wordpools/wordpool_EN.txt	SCHOOL	6	4	[0, 0, 0]	n/a	FR1	3	R1061T
437.778	2.401	610581	WORD	n/a	wordpools/wordpool_EN.txt	JUDGE	7	4	[0, 0, 0]	n/a	FR1	3	R1061T
440.179	2.6	612982	WORD	n/a	wordpools/wordpool_EN.txt	BLUSH	8	4	[0, 0, 0]	n/a	FR1	3	R1061T
442.779	2.384	615582	WORD	n/a	wordpools/wordpool_EN.txt	FOOT	9	4	[0, 0, 0]	n/a	FR1	3	R1061T
445.163	2.501	617966	WORD	n/a	wordpools/wordpool_EN.txt	PASTE	10	4	[0, 0, 0]	n/a	FR1	3	R1061T
447.664	2.584	620467	WORD	n/a	wordpools/wordpool_EN.txt	INK	11	4	[0, 0, 0]	n/a	FR1	3	R1061T
450.248	1.616	623051	WORD	n/a	wordpools/wordpool_EN.txt	BOARD	12	4	[0, 0, 0]	n/a	FR1	3	R1061T
451.864	0.001	624667	DISTRACT_START	n/a	n/a	n/a	-999	4	[0, 0, 0]	n/a	FR1	3	R1061T
451.865	0.016	624668	START	n/a	n/a	n/a	-999	5	[-999, -999, -999]	n/a	FR1	3	R1061T
451.881	4.402	624684	PROB	4.402	n/a	n/a	-999	5	[2, 8, 4]	14	FR1	3	R1061T
456.283	2.034	629086	PROB	2.034	n/a	n/a	-999	5	[7, 7, 7]	21	FR1	3	R1061T
458.317	2.299	631119	PROB	2.299	n/a	n/a	-999	5	[1, 9, 4]	14	FR1	3	R1061T
460.616	1.718	633418	PROB	1.718	n/a	n/a	-999	5	[2, 3, 7]	12	FR1	3	R1061T
462.334	3.051	635136	PROB	3.051	n/a	n/a	-999	5	[6, 5, 7]	18	FR1	3	R1061T
465.385	4.867	638187	PROB	4.867	n/a	n/a	-999	5	[9, 8, 5]	22	FR1	3	R1061T
470.252	3.175	643054	PROB	3.175	n/a	n/a	-999	5	[4, 5, 7]	16	FR1	3	R1061T
473.427	0.009	646229	STOP	n/a	n/a	n/a	-999	5	[-999, -999, -999]	n/a	FR1	3	R1061T
473.436	1.134	646238	DISTRACT_END	n/a	n/a	n/a	-999	4	[0, 0, 0]	n/a	FR1	3	R1061T
474.57	2.148	647372	REC_START	n/a	n/a	n/a	-999	4	[0, 0, 0]	n/a	FR1	3	R1061T
476.718	1.507	649520	REC_WORD	1.507	n/a	FOOT	-999	4	[0, 0, 0]	n/a	FR1	3	R1061T
478.225	2.415	651027	REC_WORD	2.415	n/a	PASTE	-999	4	[0, 0, 0]	n/a	FR1	3	R1061T
480.64	2.13	653441	REC_WORD	2.13	n/a	INK	-999	4	[0, 0, 0]	n/a	FR1	3	R1061T
482.77	2.238	655571	REC_WORD	2.238	n/a	BOARD	-999	4	[0, 0, 0]	n/a	FR1	3	R1061T
485.008	2.244	657809	REC_WORD	2.244	n/a	SCHOOL	-999	4	[0, 0, 0]	n/a	FR1	3	R1061T
487.252	17.332	660053	REC_WORD	17.332	n/a	JAIL	-999	4	[0, 0, 0]	n/a	FR1	3	R1061T
504.584	2.29	677384	REC_END	n/a	n/a	n/a	-999	4	[0, 0, 0]	n/a	FR1	3	R1061T
506.874	0.001	679674	COUNTDOWN_START	n/a	n/a	n/a	-999	5	[0, 0, 0]	n/a	FR1	3	R1061T
506.875	10.427	679675	TRIAL	n/a	n/a	n/a	-999	5	[0, 0, 0]	n/a	FR1	3	R1061T
517.302	0.009	690102	COUNTDOWN_END	n/a	n/a	n/a	-999	5	[0, 0, 0]	n/a	FR1	3	R1061T
517.311	2.449	690111	ORIENT	n/a	n/a	n/a	-999	5	[0, 0, 0]	n/a	FR1	3	R1061T
519.76	2.434	692559	WORD	n/a	wordpools/wordpool_EN.txt	TRAY	1	5	[0, 0, 0]	n/a	FR1	3	R1061T
522.194	2.517	694993	WORD	n/a	wordpools/wordpool_EN.txt	JET	2	5	[0, 0, 0]	n/a	FR1	3	R1061T
524.711	2.517	697510	WORD	n/a	wordpools/wordpool_EN.txt	FORK	3	5	[0, 0, 0]	n/a	FR1	3	R1061T
527.228	2.534	700027	WORD	n/a	wordpools/wordpool_EN.txt	NOSE	4	5	[0, 0, 0]	n/a	FR1	3	R1061T
529.762	2.584	702561	WORD	n/a	wordpools/wordpool_EN.txt	TEA	5	5	[0, 0, 0]	n/a	FR1	3	R1061T
532.346	2.483	705145	WORD	n/a	wordpools/wordpool_EN.txt	SHIRT	6	5	[0, 0, 0]	n/a	FR1	3	R1061T
534.829	2.384	707628	WORD	n/a	wordpools/wordpool_EN.txt	RUG	7	5	[0, 0, 0]	n/a	FR1	3	R1061T
537.213	2.434	710012	WORD	n/a	wordpools/wordpool_EN.txt	LEG	8	5	[0, 0, 0]	n/a	FR1	3	R1061T
539.647	2.602	712445	WORD	n/a	wordpools/wordpool_EN.txt	HAT	9	5	[0, 0, 0]	n/a	FR1	3	R1061T
542.249	2.516	715047	WORD	n/a	wordpools/wordpool_EN.txt	TOE	10	5	[0, 0, 0]	n/a	FR1	3	R1061T
544.765	2.433	717563	WORD	n/a	wordpools/wordpool_EN.txt	CLOTH	11	5	[0, 0, 0]	n/a	FR1	3	R1061T
547.198	1.617	719996	WORD	n/a	wordpools/wordpool_EN.txt	RIB	12	5	[0, 0, 0]	n/a	FR1	3	R1061T
548.815	0.001	721613	DISTRACT_START	n/a	n/a	n/a	-999	5	[0, 0, 0]	n/a	FR1	3	R1061T
548.816	0.016	721614	START	n/a	n/a	n/a	-999	6	[-999, -999, -999]	n/a	FR1	3	R1061T
548.832	8.503	721630	PROB	8.503	n/a	n/a	-999	6	[8, 7, 2]	17	FR1	3	R1061T
557.335	2.582	730133	PROB	2.582	n/a	n/a	-999	6	[1, 3, 8]	12	FR1	3	R1061T
559.917	1.518	732714	PROB	1.518	n/a	n/a	-999	6	[2, 9, 1]	12	FR1	3	R1061T
561.435	3.483	734232	PROB	3.483	n/a	n/a	-999	6	[2, 5, 9]	16	FR1	3	R1061T
564.918	3.469	737715	PROB	3.469	n/a	n/a	-999	6	[7, 4, 5]	16	FR1	3	R1061T
568.387	2.72	741184	PROB	2.72	n/a	n/a	-999	6	[5, 5, 3]	13	FR1	3	R1061T
571.107	0.013	743904	STOP	n/a	n/a	n/a	-999	6	[-999, -999, -999]	n/a	FR1	3	R1061T
571.12	1.218	743917	DISTRACT_END	n/a	n/a	n/a	-999	5	[0, 0, 0]	n/a	FR1	3	R1061T
572.338	2.89	745135	REC_START	n/a	n/a	n/a	-999	5	[0, 0, 0]	n/a	FR1	3	R1061T
575.228	1.463	748025	REC_WORD	1.463	n/a	TEA	-999	5	[0, 0, 0]	n/a	FR1	3	R1061T
576.691	13.576	749488	REC_WORD	13.576	n/a	CLOTH	-999	5	[0, 0, 0]	n/a	FR1	3	R1061T
590.267	12.081	763063	REC_WORD	12.081	n/a	WEB	-999	5	[0, 0, 0]	n/a	FR1	3	R1061T
602.348	4.896	775143	REC_END	n/a	n/a	n/a	-999	5	[0, 0, 0]	n/a	FR1	3	R1061T
607.244	0.0	780039	TRIAL	n/a	n/a	n/a	-999	6	[0, 0, 0]	n/a	FR1	3	R1061T
607.244	10.428	780039	COUNTDOWN_START	n/a	n/a	n/a	-999	6	[0, 0, 0]	n/a	FR1	3	R1061T
617.672	0.006	790467	COUNTDOWN_END	n/a	n/a	n/a	-999	6	[0, 0, 0]	n/a	FR1	3	R1061T
617.678	2.55	790473	ORIENT	n/a	n/a	n/a	-999	6	[0, 0, 0]	n/a	FR1	3	R1061T
620.228	2.601	793023	WORD	n/a	wordpools/wordpool_EN.txt	BENCH	1	6	[0, 0, 0]	n/a	FR1	3	R1061T
622.829	2.518	795623	WORD	n/a	wordpools/wordpool_EN.txt	CLOCK	2	6	[0, 0, 0]	n/a	FR1	3	R1061T
625.347	2.516	798141	WORD	n/a	wordpools/wordpool_EN.txt	TRUCK	3	6	[0, 0, 0]	n/a	FR1	3	R1061T
627.863	2.418	800657	WORD	n/a	wordpools/wordpool_EN.txt	DESK	4	6	[0, 0, 0]	n/a	FR1	3	R1061T
630.281	2.566	803075	WORD	n/a	wordpools/wordpool_EN.txt	BATH	5	6	[0, 0, 0]	n/a	FR1	3	R1061T
632.847	2.485	805641	WORD	n/a	wordpools/wordpool_EN.txt	BAG	6	6	[0, 0, 0]	n/a	FR1	3	R1061T
635.332	2.533	808126	WORD	n/a	wordpools/wordpool_EN.txt	SPOON	7	6	[0, 0, 0]	n/a	FR1	3	R1061T
637.865	2.601	810659	WORD	n/a	wordpools/wordpool_EN.txt	FUDGE	8	6	[0, 0, 0]	n/a	FR1	3	R1061T
640.466	2.533	813260	WORD	n/a	wordpools/wordpool_EN.txt	BOX	9	6	[0, 0, 0]	n/a	FR1	3	R1061T
642.999	2.485	815792	WORD	n/a	wordpools/wordpool_EN.txt	MUG	10	6	[0, 0, 0]	n/a	FR1	3	R1061T
645.484	2.433	818277	WORD	n/a	wordpools/wordpool_EN.txt	HAND	11	6	[0, 0, 0]	n/a	FR1	3	R1061T
647.917	1.618	820710	WORD	n/a	wordpools/wordpool_EN.txt	VAN	12	6	[0, 0, 0]	n/a	FR1	3	R1061T
649.535	0.001	822328	DISTRACT_START	n/a	n/a	n/a	-999	6	[0, 0, 0]	n/a	FR1	3	R1061T
649.536	0.015	822329	START	n/a	n/a	n/a	-999	7	[-999, -999, -999]	n/a	FR1	3	R1061T
649.551	4.818	822344	PROB	4.818	n/a	n/a	-999	7	[2, 3, 8]	13	FR1	3	R1061T
654.369	2.616	827162	PROB	2.616	n/a	n/a	-999	7	[4, 1, 9]	14	FR1	3	R1061T
656.985	2.934	829778	PROB	2.934	n/a	n/a	-999	7	[6, 3, 8]	17	FR1	3	R1061T
659.919	3.0	832712	PROB	3.0	n/a	n/a	-999	7	[6, 7, 5]	18	FR1	3	R1061T
662.919	3.452	835711	PROB	3.452	n/a	n/a	-999	7	[4, 7, 5]	16	FR1	3	R1061T
666.371	2.483	839163	PROB	2.483	n/a	n/a	-999	7	[6, 1, 9]	16	FR1	3	R1061T
668.854	3.14	841646	PROB	3.14	n/a	n/a	-999	7	[8, 3, 4]	15	FR1	3	R1061T
671.994	0.011	844786	STOP	n/a	n/a	n/a	-999	7	[-999, -999, -999]	n/a	FR1	3	R1061T
672.005	1.117	844797	DISTRACT_END	n/a	n/a	n/a	-999	6	[0, 0, 0]	n/a	FR1	3	R1061T
673.122	1.986	845914	REC_START	n/a	n/a	n/a	-999	6	[0, 0, 0]	n/a	FR1	3	R1061T
675.108	1.349	847900	REC_WORD	1.349	n/a	SPOON	-999	6	[0, 0, 0]	n/a	FR1	3	R1061T
676.457	2.29	849249	REC_WORD	2.29	n/a	FUDGE	-999	6	[0, 0, 0]	n/a	FR1	3	R1061T
678.747	1.409	851539	REC_WORD	1.409	n/a	ROCK	-999	6	[0, 0, 0]	n/a	FR1	3	R1061T
680.156	8.644	852948	REC_WORD	8.644	n/a	VAN	-999	6	[0, 0, 0]	n/a	FR1	3	R1061T
688.8	14.332	861591	REC_WORD	14.332	n/a	CLOCK	-999	6	[0, 0, 0]	n/a	FR1	3	R1061T
703.132	2.446	875922	REC_END	n/a	n/a	n/a	-999	6	[0, 0, 0]	n/a	FR1	3	R1061T
705.578	0.001	878368	COUNTDOWN_START	n/a	n/a	n/a	-999	7	[0, 0, 0]	n/a	FR1	3	R1061T
705.579	10.427	878369	TRIAL	n/a	n/a	n/a	-999	7	[0, 0, 0]	n/a	FR1	3	R1061T
716.006	0.007	888796	COUNTDOWN_END	n/a	n/a	n/a	-999	7	[0, 0, 0]	n/a	FR1	3	R1061T
716.013	2.568	888803	ORIENT	n/a	n/a	n/a	-999	7	[0, 0, 0]	n/a	FR1	3	R1061T
718.581	2.433	891371	WORD	n/a	wordpools/wordpool_EN.txt	TANK	1	7	[0, 0, 0]	n/a	FR1	3	R1061T
721.014	2.401	893804	WORD	n/a	wordpools/wordpool_EN.txt	LIP	2	7	[0, 0, 0]	n/a	FR1	3	R1061T
723.415	2.549	896204	WORD	n/a	wordpools/wordpool_EN.txt	HOOF	3	7	[0, 0, 0]	n/a	FR1	3	R1061T
725.964	2.569	898753	WORD	n/a	wordpools/wordpool_EN.txt	PARK	4	7	[0, 0, 0]	n/a	FR1	3	R1061T
728.533	2.482	901322	WORD	n/a	wordpools/wordpool_EN.txt	STICK	5	7	[0, 0, 0]	n/a	FR1	3	R1061T
731.015	2.585	903804	WORD	n/a	wordpools/wordpool_EN.txt	CASH	6	7	[0, 0, 0]	n/a	FR1	3	R1061T
733.6	2.483	906389	WORD	n/a	wordpools/wordpool_EN.txt	FUR	7	7	[0, 0, 0]	n/a	FR1	3	R1061T
736.083	2.451	908872	WORD	n/a	wordpools/wordpool_EN.txt	CAVE	8	7	[0, 0, 0]	n/a	FR1	3	R1061T
738.534	2.433	911323	WORD	n/a	wordpools/wordpool_EN.txt	CALF	9	7	[0, 0, 0]	n/a	FR1	3	R1061T
740.967	2.435	913756	WORD	n/a	wordpools/wordpool_EN.txt	ZOO	10	7	[0, 0, 0]	n/a	FR1	3	R1061T
743.402	2.516	916190	WORD	n/a	wordpools/wordpool_EN.txt	SPRING	11	7	[0, 0, 0]	n/a	FR1	3	R1061T
745.918	1.601	918706	WORD	n/a	wordpools/wordpool_EN.txt	ARM	12	7	[0, 0, 0]	n/a	FR1	3	R1061T
747.519	0.001	920307	DISTRACT_START	n/a	n/a	n/a	-999	7	[0, 0, 0]	n/a	FR1	3	R1061T
747.52	0.016	920308	START	n/a	n/a	n/a	-999	8	[-999, -999, -999]	n/a	FR1	3	R1061T
747.536	4.918	920324	PROB	4.918	n/a	n/a	-999	8	[2, 3, 6]	11	FR1	3	R1061T
752.454	2.933	925242	PROB	2.933	n/a	n/a	-999	8	[8, 2, 5]	17	FR1	3	R1061T
755.387	3.201	928175	PROB	3.201	n/a	n/a	-999	8	[1, 1, 4]	6	FR1	3	R1061T
758.588	1.934	931376	PROB	1.934	n/a	n/a	-999	8	[2, 5, 4]	11	FR1	3	R1061T
760.522	2.216	933310	PROB	2.216	n/a	n/a	-999	8	[3, 4, 7]	14	FR1	3	R1061T
762.738	2.133	935526	PROB	2.133	n/a	n/a	-999	8	[9, 1, 6]	16	FR1	3	R1061T
764.871	2.318	937658	PROB	2.318	n/a	n/a	-999	8	[6, 4, 7]	17	FR1	3	R1061T
767.189	1.693	939976	PROB	1.693	n/a	n/a	-999	8	[9, 1, 1]	11	FR1	3	R1061T
768.882	0.007	941669	STOP	n/a	n/a	n/a	-999	8	[-999, -999, -999]	n/a	FR1	3	R1061T
768.889	1.151	941676	DISTRACT_END	n/a	n/a	n/a	-999	7	[0, 0, 0]	n/a	FR1	3	R1061T
770.04	2.042	942827	REC_START	n/a	n/a	n/a	-999	7	[0, 0, 0]	n/a	FR1	3	R1061T
772.082	2.24	944869	REC_WORD	2.24	n/a	CAVE	-999	7	[0, 0, 0]	n/a	FR1	3	R1061T
774.322	2.163	947109	REC_WORD	2.163	n/a	FOOT	-999	7	[0, 0, 0]	n/a	FR1	3	R1061T
776.485	1.397	949272	REC_WORD	1.397	n/a	CASH	-999	7	[0, 0, 0]	n/a	FR1	3	R1061T
777.882	12.384	950669	REC_WORD	12.384	n/a	CALF	-999	7	[0, 0, 0]	n/a	FR1	3	R1061T
790.266	9.784	963052	REC_WORD	9.784	n/a	SPRING	-999	7	[0, 0, 0]	n/a	FR1	3	R1061T
800.05	1.296	972836	REC_END	n/a	n/a	n/a	-999	7	[0, 0, 0]	n/a	FR1	3	R1061T
801.346	0.0	974132	TRIAL	n/a	n/a	n/a	-999	8	[0, 0, 0]	n/a	FR1	3	R1061T
801.346	10.428	974132	COUNTDOWN_START	n/a	n/a	n/a	-999	8	[0, 0, 0]	n/a	FR1	3	R1061T
811.774	0.006	984559	COUNTDOWN_END	n/a	n/a	n/a	-999	8	[0, 0, 0]	n/a	FR1	3	R1061T
811.78	2.552	984565	ORIENT	n/a	n/a	n/a	-999	8	[0, 0, 0]	n/a	FR1	3	R1061T
814.332	2.382	987117	WORD	n/a	wordpools/wordpool_EN.txt	SKI	1	8	[0, 0, 0]	n/a	FR1	3	R1061T
816.714	2.602	989499	WORD	n/a	wordpools/wordpool_EN.txt	SHRIMP	2	8	[0, 0, 0]	n/a	FR1	3	R1061T
819.316	2.549	992101	WORD	n/a	wordpools/wordpool_EN.txt	PLANE	3	8	[0, 0, 0]	n/a	FR1	3	R1061T
821.865	2.502	994650	WORD	n/a	wordpools/wordpool_EN.txt	DART	4	8	[0, 0, 0]	n/a	FR1	3	R1061T
824.367	2.616	997151	WORD	n/a	wordpools/wordpool_EN.txt	CLAY	5	8	[0, 0, 0]	n/a	FR1	3	R1061T
826.983	2.435	999767	WORD	n/a	wordpools/wordpool_EN.txt	CLOUD	6	8	[0, 0, 0]	n/a	FR1	3	R1061T
829.418	2.466	1002202	WORD	n/a	wordpools/wordpool_EN.txt	BALL	7	8	[0, 0, 0]	n/a	FR1	3	R1061T
831.884	2.501	1004668	WORD	n/a	wordpools/wordpool_EN.txt	BOMB	8	8	[0, 0, 0]	n/a	FR1	3	R1061T
834.385	2.516	1007169	WORD	n/a	wordpools/wordpool_EN.txt	MOON	9	8	[0, 0, 0]	n/a	FR1	3	R1061T
836.901	2.602	1009685	WORD	n/a	wordpools/wordpool_EN.txt	WHEEL	10	8	[0, 0, 0]	n/a	FR1	3	R1061T
839.503	2.599	1012287	WORD	n/a	wordpools/wordpool_EN.txt	FILM	11	8	[0, 0, 0]	n/a	FR1	3	R1061T
842.102	1.617	1014886	WORD	n/a	wordpools/wordpool_EN.txt	BAT	12	8	[0, 0, 0]	n/a	FR1	3	R1061T
843.719	0.001	1016503	DISTRACT_START	n/a	n/a	n/a	-999	8	[0, 0, 0]	n/a	FR1	3	R1061T
843.72	0.016	1016504	START	n/a	n/a	n/a	-999	9	[-999, -999, -999]	n/a	FR1	3	R1061T
843.736	5.752	1016520	PROB	5.752	n/a	n/a	-999	9	[4, 9, 1]	14	FR1	3	R1061T
849.488	2.666	1022271	PROB	2.666	n/a	n/a	-999	9	[6, 7, 2]	15	FR1	3	R1061T
852.154	2.418	1024937	PROB	2.418	n/a	n/a	-999	9	[4, 4, 9]	17	FR1	3	R1061T
854.572	2.701	1027355	PROB	2.701	n/a	n/a	-999	9	[4, 6, 6]	16	FR1	3	R1061T
857.273	3.383	1030056	PROB	3.383	n/a	n/a	-999	9	[3, 4, 3]	10	FR1	3	R1061T
860.656	2.751	1033439	PROB	2.751	n/a	n/a	-999	9	[6, 3, 6]	15	FR1	3	R1061T
863.407	3.1	1036190	PROB	3.1	n/a	n/a	-999	9	[7, 8, 3]	18	FR1	3	R1061T
866.507	0.017	1039289	STOP	n/a	n/a	n/a	-999	9	[-999, -999, -999]	n/a	FR1	3	R1061T
866.524	1.151	1039306	DISTRACT_END	n/a	n/a	n/a	-999	8	[0, 0, 0]	n/a	FR1	3	R1061T
867.675	3.015	1040457	REC_START	n/a	n/a	n/a	-999	8	[0, 0, 0]	n/a	FR1	3	R1061T
870.69	1.945	1043472	REC_WORD	1.945	n/a	SKI	-999	8	[0, 0, 0]	n/a	FR1	3	R1061T
872.635	13.552	1045417	REC_WORD	13.552	n/a	JUMP	-999	8	[0, 0, 0]	n/a	FR1	3	R1061T
886.187	3.617	1058968	REC_WORD	3.617	n/a	PLANE	-999	8	[0, 0, 0]	n/a	FR1	3	R1061T
889.804	7.881	1062585	REC_WORD	7.881	n/a	BOAT	-999	8	[0, 0, 0]	n/a	FR1	3	R1061T
897.685	1.762	1070466	REC_END	n/a	n/a	n/a	-999	8	[0, 0, 0]	n/a	FR1	3	R1061T
899.447	0.0	1072228	TRIAL	n/a	n/a	n/a	-999	9	[0, 0, 0]	n/a	FR1	3	R1061T
899.447	10.428	1072228	COUNTDOWN_START	n/a	n/a	n/a	-999	9	[0, 0, 0]	n/a	FR1	3	R1061T
909.875	0.006	1082655	COUNTDOWN_END	n/a	n/a	n/a	-999	9	[0, 0, 0]	n/a	FR1	3	R1061T
909.881	2.535	1082661	ORIENT	n/a	n/a	n/a	-999	9	[0, 0, 0]	n/a	FR1	3	R1061T
912.416	2.616	1085196	WORD	n/a	wordpools/wordpool_EN.txt	PURSE	1	9	[0, 0, 0]	n/a	FR1	3	R1061T
915.032	2.568	1087812	WORD	n/a	wordpools/wordpool_EN.txt	CHAIR	2	9	[0, 0, 0]	n/a	FR1	3	R1061T
917.6	2.383	1090380	WORD	n/a	wordpools/wordpool_EN.txt	KITE	3	9	[0, 0, 0]	n/a	FR1	3	R1061T
919.983	2.552	1092763	WORD	n/a	wordpools/wordpool_EN.txt	STOOL	4	9	[0, 0, 0]	n/a	FR1	3	R1061T
922.535	2.549	1095315	WORD	n/a	wordpools/wordpool_EN.txt	CHIN	5	9	[0, 0, 0]	n/a	FR1	3	R1061T
925.084	2.468	1097864	WORD	n/a	wordpools/wordpool_EN.txt	BRUSH	6	9	[0, 0, 0]	n/a	FR1	3	R1061T
927.552	2.616	1100331	WORD	n/a	wordpools/wordpool_EN.txt	CANE	7	9	[0, 0, 0]	n/a	FR1	3	R1061T
930.168	2.402	1102947	WORD	n/a	wordpools/wordpool_EN.txt	ROSE	8	9	[0, 0, 0]	n/a	FR1	3	R1061T
932.57	2.516	1105349	WORD	n/a	wordpools/wordpool_EN.txt	DRESS	9	9	[0, 0, 0]	n/a	FR1	3	R1061T
935.086	2.617	1107865	WORD	n/a	wordpools/wordpool_EN.txt	BLOOM	10	9	[0, 0, 0]	n/a	FR1	3	R1061T
937.703	2.45	1110482	WORD	n/a	wordpools/wordpool_EN.txt	SQUARE	11	9	[0, 0, 0]	n/a	FR1	3	R1061T
940.153	1.617	1112932	WORD	n/a	wordpools/wordpool_EN.txt	SOCK	12	9	[0, 0, 0]	n/a	FR1	3	R1061T
941.77	0.001	1114549	DISTRACT_START	n/a	n/a	n/a	-999	9	[0, 0, 0]	n/a	FR1	3	R1061T
941.771	0.016	1114550	START	n/a	n/a	n/a	-999	10	[-999, -999, -999]	n/a	FR1	3	R1061T
941.787	5.884	1114566	PROB	5.884	n/a	n/a	-999	10	[5, 2, 2]	9	FR1	3	R1061T
947.671	1.735	1120449	PROB	1.735	n/a	n/a	-999	10	[2, 1, 9]	12	FR1	3	R1061T
949.406	2.333	1122184	PROB	2.333	n/a	n/a	-999	10	[2, 2, 8]	14	FR1	3	R1061T
951.739	3.05	1124517	PROB	3.05	n/a	n/a	-999	10	[9, 7, 1]	17	FR1	3	R1061T
954.789	1.918	1127567	PROB	1.918	n/a	n/a	-999	10	[4, 6, 2]	12	FR1	3	R1061T
956.707	3.668	1129485	PROB	3.668	n/a	n/a	-999	10	[1, 8, 7]	16	FR1	3	R1061T
960.375	1.644	1133153	PROB	1.644	n/a	n/a	-999	10	[7, 2, 2]	11	FR1	3	R1061T
962.019	0.005	1134797	STOP	n/a	n/a	n/a	-999	10	[-999, -999, -999]	n/a	FR1	3	R1061T
962.024	1.168	1134802	DISTRACT_END	n/a	n/a	n/a	-999	9	[0, 0, 0]	n/a	FR1	3	R1061T
963.192	1.576	1135970	REC_START	n/a	n/a	n/a	-999	9	[0, 0, 0]	n/a	FR1	3	R1061T
964.768	1.802	1137546	REC_WORD	1.802	n/a	SQUARE	-999	9	[0, 0, 0]	n/a	FR1	3	R1061T
966.57	1.917	1139348	REC_WORD	1.917	n/a	DRESS	-999	9	[0, 0, 0]	n/a	FR1	3	R1061T
968.487	11.519	1141264	REC_WORD	11.519	n/a	BLOOM	-999	9	[0, 0, 0]	n/a	FR1	3	R1061T
980.006	13.197	1152783	REC_WORD	13.197	n/a	SOCK	-999	9	[0, 0, 0]	n/a	FR1	3	R1061T
993.203	1.295	1165979	REC_END	n/a	n/a	n/a	-999	9	[0, 0, 0]	n/a	FR1	3	R1061T
994.498	0.0	1167274	COUNTDOWN_START	n/a	n/a	n/a	-999	10	[0, 0, 0]	n/a	FR1	3	R1061T
994.498	10.428	1167274	TRIAL	n/a	n/a	n/a	-999	10	[0, 0, 0]	n/a	FR1	3	R1061T
1004.926	0.006	1177702	COUNTDOWN_END	n/a	n/a	n/a	-999	10	[0, 0, 0]	n/a	FR1	3	R1061T
1004.932	2.485	1177708	ORIENT	n/a	n/a	n/a	-999	10	[0, 0, 0]	n/a	FR1	3	R1061T
1007.417	2.516	1180193	WORD	n/a	wordpools/wordpool_EN.txt	PIE	1	10	[0, 0, 0]	n/a	FR1	3	R1061T
1009.933	2.418	1182708	WORD	n/a	wordpools/wordpool_EN.txt	CUP	2	10	[0, 0, 0]	n/a	FR1	3	R1061T
1012.351	2.599	1185126	WORD	n/a	wordpools/wordpool_EN.txt	SEAT	3	10	[0, 0, 0]	n/a	FR1	3	R1061T
1014.95	2.485	1187725	WORD	n/a	wordpools/wordpool_EN.txt	SINK	4	10	[0, 0, 0]	n/a	FR1	3	R1061T
1017.435	2.616	1190210	WORD	n/a	wordpools/wordpool_EN.txt	SMILE	5	10	[0, 0, 0]	n/a	FR1	3	R1061T
1020.051	2.601	1192826	WORD	n/a	wordpools/wordpool_EN.txt	VEST	6	10	[0, 0, 0]	n/a	FR1	3	R1061T
1022.652	2.601	1195427	WORD	n/a	wordpools/wordpool_EN.txt	OAR	7	10	[0, 0, 0]	n/a	FR1	3	R1061T
1025.253	2.533	1198028	WORD	n/a	wordpools/wordpool_EN.txt	PEACH	8	10	[0, 0, 0]	n/a	FR1	3	R1061T
1027.786	2.518	1200560	WORD	n/a	wordpools/wordpool_EN.txt	CAKE	9	10	[0, 0, 0]	n/a	FR1	3	R1061T
1030.304	2.45	1203078	WORD	n/a	wordpools/wordpool_EN.txt	SHIELD	10	10	[0, 0, 0]	n/a	FR1	3	R1061T
1032.754	2.601	1205528	WORD	n/a	wordpools/wordpool_EN.txt	GLOVE	11	10	[0, 0, 0]	n/a	FR1	3	R1061T
1035.355	1.616	1208129	WORD	n/a	wordpools/wordpool_EN.txt	DIME	12	10	[0, 0, 0]	n/a	FR1	3	R1061T
1036.971	0.001	1209745	DISTRACT_START	n/a	n/a	n/a	-999	10	[0, 0, 0]	n/a	FR1	3	R1061T
1036.972	0.016	1209746	START	n/a	n/a	n/a	-999	11	[-999, -999, -999]	n/a	FR1	3	R1061T
1036.988	7.385	1209762	PROB	7.385	n/a	n/a	-999	11	[1, 2, 7]	10	FR1	3	R1061T
1044.373	4.367	1217147	PROB	4.367	n/a	n/a	-999	11	[3, 9, 8]	20	FR1	3	R1061T
1048.74	2.635	1221513	PROB	2.635	n/a	n/a	-999	11	[3, 9, 7]	19	FR1	3	R1061T
1051.375	2.533	1224148	PROB	2.533	n/a	n/a	-999	11	[7, 7, 6]	20	FR1	3	R1061T
1053.908	4.263	1226681	PROB	4.263	n/a	n/a	-999	11	[8, 7, 5]	20	FR1	3	R1061T
1058.171	0.004	1230944	STOP	n/a	n/a	n/a	-999	11	[-999, -999, -999]	n/a	FR1	3	R1061T
1058.175	1.152	1230948	DISTRACT_END	n/a	n/a	n/a	-999	10	[0, 0, 0]	n/a	FR1	3	R1061T
1059.327	2.887	1232100	REC_START	n/a	n/a	n/a	-999	10	[0, 0, 0]	n/a	FR1	3	R1061T
1062.214	1.857	1234987	REC_WORD	1.857	n/a	SMILE	-999	10	[0, 0, 0]	n/a	FR1	3	R1061T
1064.071	1.804	1236844	REC_WORD	1.804	n/a	CAKE	-999	10	[0, 0, 0]	n/a	FR1	3	R1061T
1065.875	7.187	1238648	REC_WORD	7.187	n/a	SHIELD	-999	10	[0, 0, 0]	n/a	FR1	3	R1061T
1073.062	16.276	1245834	REC_WORD	16.276	n/a	GLOVE	-999	10	[0, 0, 0]	n/a	FR1	3	R1061T
1089.338	4.527	1262109	REC_END	n/a	n/a	n/a	-999	10	[0, 0, 0]	n/a	FR1	3	R1061T
1093.865	0.0	1266636	TRIAL	n/a	n/a	n/a	-999	11	[0, 0, 0]	n/a	FR1	3	R1061T
1093.865	10.428	1266636	COUNTDOWN_START	n/a	n/a	n/a	-999	11	[0, 0, 0]	n/a	FR1	3	R1061T
1104.293	0.008	1277064	COUNTDOWN_END	n/a	n/a	n/a	-999	11	[0, 0, 0]	n/a	FR1	3	R1061T
1104.301	2.566	1277072	ORIENT	n/a	n/a	n/a	-999	11	[0, 0, 0]	n/a	FR1	3	R1061T
1106.867	2.585	1279638	WORD	n/a	wordpools/wordpool_EN.txt	PET	1	11	[0, 0, 0]	n/a	FR1	3	R1061T
1109.452	2.516	1282222	WORD	n/a	wordpools/wordpool_EN.txt	HOLE	2	11	[0, 0, 0]	n/a	FR1	3	R1061T
1111.968	2.385	1284738	WORD	n/a	wordpools/wordpool_EN.txt	SLEEVE	3	11	[0, 0, 0]	n/a	FR1	3	R1061T
1114.353	2.499	1287123	WORD	n/a	wordpools/wordpool_EN.txt	CUBE	4	11	[0, 0, 0]	n/a	FR1	3	R1061T
1116.852	2.468	1289622	WORD	n/a	wordpools/wordpool_EN.txt	NAIL	5	11	[0, 0, 0]	n/a	FR1	3	R1061T
1119.32	2.517	1292090	WORD	n/a	wordpools/wordpool_EN.txt	COUCH	6	11	[0, 0, 0]	n/a	FR1	3	R1061T
1121.837	2.501	1294607	WORD	n/a	wordpools/wordpool_EN.txt	BARN	7	11	[0, 0, 0]	n/a	FR1	3	R1061T
1124.338	2.416	1297108	WORD	n/a	wordpools/wordpool_EN.txt	YARD	8	11	[0, 0, 0]	n/a	FR1	3	R1061T
1126.754	2.602	1299524	WORD	n/a	wordpools/wordpool_EN.txt	PIN	9	11	[0, 0, 0]	n/a	FR1	3	R1061T
1129.356	2.549	1302126	WORD	n/a	wordpools/wordpool_EN.txt	WALL	10	11	[0, 0, 0]	n/a	FR1	3	R1061T
1131.905	2.552	1304674	WORD	n/a	wordpools/wordpool_EN.txt	LAWN	11	11	[0, 0, 0]	n/a	FR1	3	R1061T
1134.457	1.615	1307226	WORD	n/a	wordpools/wordpool_EN.txt	TIE	12	11	[0, 0, 0]	n/a	FR1	3	R1061T
1136.072	0.001	1308841	DISTRACT_START	n/a	n/a	n/a	-999	11	[0, 0, 0]	n/a	FR1	3	R1061T
1136.073	0.016	1308842	START	n/a	n/a	n/a	-999	12	[-999, -999, -999]	n/a	FR1	3	R1061T
1136.089	3.352	1308858	PROB	3.352	n/a	n/a	-999	12	[8, 1, 2]	11	FR1	3	R1061T
1139.441	4.95	1312210	PROB	4.95	n/a	n/a	-999	12	[9, 5, 8]	22	FR1	3	R1061T
1144.391	3.317	1317160	PROB	3.317	n/a	n/a	-999	12	[8, 8, 3]	19	FR1	3	R1061T
1147.708	2.551	1320477	PROB	2.551	n/a	n/a	-999	12	[7, 2, 8]	17	FR1	3	R1061T
1150.259	2.001	1323027	PROB	2.001	n/a	n/a	-999	12	[4, 9, 9]	22	FR1	3	R1061T
1152.26	2.799	1325028	PROB	2.799	n/a	n/a	-999	12	[1, 8, 7]	16	FR1	3	R1061T
1155.059	2.968	1327827	PROB	2.968	n/a	n/a	-999	12	[4, 4, 5]	13	FR1	3	R1061T
1158.027	0.016	1330795	STOP	n/a	n/a	n/a	-999	12	[-999, -999, -999]	n/a	FR1	3	R1061T
1158.043	1.134	1330811	DISTRACT_END	n/a	n/a	n/a	-999	11	[0, 0, 0]	n/a	FR1	3	R1061T
1159.177	2.564	1331945	REC_START	n/a	n/a	n/a	-999	11	[0, 0, 0]	n/a	FR1	3	R1061T
1161.741	1.57	1334509	REC_WORD	1.57	n/a	PET	-999	11	[0, 0, 0]	n/a	FR1	3	R1061T
1163.311	1.858	1336079	REC_WORD	1.858	n/a	HOLE	-999	11	[0, 0, 0]	n/a	FR1	3	R1061T
1165.169	0.919	1337937	REC_WORD	0.919	n/a	YARD	-999	11	[0, 0, 0]	n/a	FR1	3	R1061T
1166.088	1.988	1338856	REC_WORD	1.988	n/a	BARN	-999	11	[0, 0, 0]	n/a	FR1	3	R1061T
1168.076	0.884	1340844	REC_WORD	0.884	n/a	WALL	-999	11	[0, 0, 0]	n/a	FR1	3	R1061T
1168.96	16.413	1341728	REC_WORD	16.413	n/a	PEN	-999	11	[0, 0, 0]	n/a	FR1	3	R1061T
1185.373	3.818	1358140	REC_WORD	3.818	n/a	COUCH	-999	11	[0, 0, 0]	n/a	FR1	3	R1061T
1189.191	4.376	1361958	REC_END	n/a	n/a	n/a	-999	11	[0, 0, 0]	n/a	FR1	3	R1061T
1193.567	0.001	1366333	COUNTDOWN_START	n/a	n/a	n/a	-999	12	[0, 0, 0]	n/a	FR1	3	R1061T
1193.568	10.427	1366334	TRIAL	n/a	n/a	n/a	-999	12	[0, 0, 0]	n/a	FR1	3	R1061T
1203.995	0.007	1376761	COUNTDOWN_END	n/a	n/a	n/a	-999	12	[0, 0, 0]	n/a	FR1	3	R1061T
1204.002	2.584	1376768	ORIENT	n/a	n/a	n/a	-999	12	[0, 0, 0]	n/a	FR1	3	R1061T
1206.586	2.55	1379352	WORD	n/a	wordpools/wordpool_EN.txt	HORN	1	12	[0, 0, 0]	n/a	FR1	3	R1061T
1209.136	2.584	1381902	WORD	n/a	wordpools/wordpool_EN.txt	PRINCE	2	12	[0, 0, 0]	n/a	FR1	3	R1061T
1211.72	2.584	1384485	WORD	n/a	wordpools/wordpool_EN.txt	GATE	3	12	[0, 0, 0]	n/a	FR1	3	R1061T
1214.304	2.583	1387069	WORD	n/a	wordpools/wordpool_EN.txt	FACE	4	12	[0, 0, 0]	n/a	FR1	3	R1061T
1216.887	2.568	1389652	WORD	n/a	wordpools/wordpool_EN.txt	THREAD	5	12	[0, 0, 0]	n/a	FR1	3	R1061T
1219.455	2.433	1392220	WORD	n/a	wordpools/wordpool_EN.txt	FENCE	6	12	[0, 0, 0]	n/a	FR1	3	R1061T
1221.888	2.485	1394653	WORD	n/a	wordpools/wordpool_EN.txt	ELF	7	12	[0, 0, 0]	n/a	FR1	3	R1061T
1224.373	2.616	1397138	WORD	n/a	wordpools/wordpool_EN.txt	POOL	8	12	[0, 0, 0]	n/a	FR1	3	R1061T
1226.989	2.368	1399754	WORD	n/a	wordpools/wordpool_EN.txt	STREET	9	12	[0, 0, 0]	n/a	FR1	3	R1061T
1229.357	2.583	1402122	WORD	n/a	wordpools/wordpool_EN.txt	SPARK	10	12	[0, 0, 0]	n/a	FR1	3	R1061T
1231.94	2.601	1404704	WORD	n/a	wordpools/wordpool_EN.txt	DOLL	11	12	[0, 0, 0]	n/a	FR1	3	R1061T
1234.541	1.616	1407305	WORD	n/a	wordpools/wordpool_EN.txt	TENT	12	12	[0, 0, 0]	n/a	FR1	3	R1061T
1236.157	0.001	1408921	DISTRACT_START	n/a	n/a	n/a	-999	12	[0, 0, 0]	n/a	FR1	3	R1061T
1236.158	0.016	1408922	START	n/a	n/a	n/a	-999	13	[-999, -999, -999]	n/a	FR1	3	R1061T
1236.174	3.584	1408938	PROB	3.584	n/a	n/a	-999	13	[3, 3, 7]	13	FR1	3	R1061T
1239.758	2.602	1412522	PROB	2.602	n/a	n/a	-999	13	[2, 6, 6]	14	FR1	3	R1061T
1242.36	1.599	1415124	PROB	1.599	n/a	n/a	-999	13	[9, 2, 1]	12	FR1	3	R1061T
1243.959	3.301	1416723	PROB	3.301	n/a	n/a	-999	13	[7, 8, 8]	23	FR1	3	R1061T
1247.26	3.633	1420024	PROB	3.633	n/a	n/a	-999	13	[7, 8, 3]	18	FR1	3	R1061T
1250.893	3.018	1423657	PROB	3.018	n/a	n/a	-999	13	[7, 2, 4]	13	FR1	3	R1061T
1253.911	1.767	1426674	PROB	1.767	n/a	n/a	-999	13	[1, 2, 1]	4	FR1	3	R1061T
1255.678	3.053	1428441	PROB	3.053	n/a	n/a	-999	13	[2, 8, 8]	18	FR1	3	R1061T
1258.731	0.014	1431494	STOP	n/a	n/a	n/a	-999	13	[-999, -999, -999]	n/a	FR1	3	R1061T
1258.745	1.084	1431508	DISTRACT_END	n/a	n/a	n/a	-999	12	[0, 0, 0]	n/a	FR1	3	R1061T
1259.829	3.171	1432592	REC_START	n/a	n/a	n/a	-999	12	[0, 0, 0]	n/a	FR1	3	R1061T
1263.0	8.7	1435763	REC_WORD	8.7	n/a	HORSE	-999	12	[0, 0, 0]	n/a	FR1	3	R1061T
1271.7	11.219	1444463	REC_WORD	11.219	n/a	ELF	-999	12	[0, 0, 0]	n/a	FR1	3	R1061T
1282.919	5.13	1455681	REC_WORD	5.13	n/a	POOL	-999	12	[0, 0, 0]	n/a	FR1	3	R1061T
1288.049	1.79	1460811	REC_WORD	1.79	n/a	VEST	-999	12	[0, 0, 0]	n/a	FR1	3	R1061T
1289.839	2.379	1462601	REC_END	n/a	n/a	n/a	-999	12	[0, 0, 0]	n/a	FR1	3	R1061T
1292.218	0.0	1464980	TRIAL	n/a	n/a	n/a	-999	13	[0, 0, 0]	n/a	FR1	3	R1061T
1292.218	10.428	1464980	COUNTDOWN_START	n/a	n/a	n/a	-999	13	[0, 0, 0]	n/a	FR1	3	R1061T
1302.646	0.007	1475407	COUNTDOWN_END	n/a	n/a	n/a	-999	13	[0, 0, 0]	n/a	FR1	3	R1061T
1302.653	2.534	1475414	ORIENT	n/a	n/a	n/a	-999	13	[0, 0, 0]	n/a	FR1	3	R1061T
1305.187	2.5	1477948	WORD	n/a	wordpools/wordpool_EN.txt	CAR	1	13	[0, 0, 0]	n/a	FR1	3	R1061T
1307.687	2.568	1480448	WORD	n/a	wordpools/wordpool_EN.txt	FLOOR	2	13	[0, 0, 0]	n/a	FR1	3	R1061T
1310.255	2.4	1483016	WORD	n/a	wordpools/wordpool_EN.txt	ROAD	3	13	[0, 0, 0]	n/a	FR1	3	R1061T
1312.655	2.618	1485416	WORD	n/a	wordpools/wordpool_EN.txt	GUARD	4	13	[0, 0, 0]	n/a	FR1	3	R1061T
1315.273	2.383	1488033	WORD	n/a	wordpools/wordpool_EN.txt	ROOF	5	13	[0, 0, 0]	n/a	FR1	3	R1061T
1317.656	2.533	1490416	WORD	n/a	wordpools/wordpool_EN.txt	GOAT	6	13	[0, 0, 0]	n/a	FR1	3	R1061T
1320.189	2.501	1492949	WORD	n/a	wordpools/wordpool_EN.txt	MUD	7	13	[0, 0, 0]	n/a	FR1	3	R1061T
1322.69	2.384	1495450	WORD	n/a	wordpools/wordpool_EN.txt	SLUSH	8	13	[0, 0, 0]	n/a	FR1	3	R1061T
1325.074	2.468	1497834	WORD	n/a	wordpools/wordpool_EN.txt	GLASS	9	13	[0, 0, 0]	n/a	FR1	3	R1061T
1327.542	2.383	1500302	WORD	n/a	wordpools/wordpool_EN.txt	STOVE	10	13	[0, 0, 0]	n/a	FR1	3	R1061T
1329.925	2.567	1502685	WORD	n/a	wordpools/wordpool_EN.txt	FAN	11	13	[0, 0, 0]	n/a	FR1	3	R1061T
1332.492	1.617	1505252	WORD	n/a	wordpools/wordpool_EN.txt	JEEP	12	13	[0, 0, 0]	n/a	FR1	3	R1061T
1334.109	0.001	1506868	DISTRACT_START	n/a	n/a	n/a	-999	13	[0, 0, 0]	n/a	FR1	3	R1061T
1334.11	0.015	1506869	START	n/a	n/a	n/a	-999	14	[-999, -999, -999]	n/a	FR1	3	R1061T
1334.125	4.235	1506884	PROB	4.235	n/a	n/a	-999	14	[1, 2, 4]	7	FR1	3	R1061T
1338.36	5.135	1511119	PROB	5.135	n/a	n/a	-999	14	[4, 4, 1]	9	FR1	3	R1061T
1343.495	3.199	1516254	PROB	3.199	n/a	n/a	-999	14	[9, 4, 2]	15	FR1	3	R1061T
1346.694	2.501	1519453	PROB	2.501	n/a	n/a	-999	14	[4, 7, 2]	13	FR1	3	R1061T
1349.195	2.401	1521954	PROB	2.401	n/a	n/a	-999	14	[9, 1, 8]	18	FR1	3	R1061T
1351.596	2.807	1524355	PROB	2.807	n/a	n/a	-999	14	[3, 3, 8]	14	FR1	3	R1061T
1354.403	0.01	1527161	STOP	n/a	n/a	n/a	-999	14	[-999, -999, -999]	n/a	FR1	3	R1061T
1354.413	1.068	1527171	DISTRACT_END	n/a	n/a	n/a	-999	13	[0, 0, 0]	n/a	FR1	3	R1061T
1355.481	3.26	1528239	REC_START	n/a	n/a	n/a	-999	13	[0, 0, 0]	n/a	FR1	3	R1061T
1358.741	1.029	1531499	REC_WORD	1.029	n/a	GAS	-999	13	[0, 0, 0]	n/a	FR1	3	R1061T
1359.77	6.985	1532528	REC_WORD	6.985	n/a	STOVE	-999	13	[0, 0, 0]	n/a	FR1	3	R1061T
1366.755	7.648	1539513	REC_WORD	7.648	n/a	SLUSH	-999	13	[0, 0, 0]	n/a	FR1	3	R1061T
1374.403	11.089	1547160	REC_WORD	11.089	n/a	ICE	-999	13	[0, 0, 0]	n/a	FR1	3	R1061T
1385.492	1.71	1558249	REC_END	n/a	n/a	n/a	-999	13	[0, 0, 0]	n/a	FR1	3	R1061T
1387.202	0.0	1559959	TRIAL	n/a	n/a	n/a	-999	14	[0, 0, 0]	n/a	FR1	3	R1061T
1387.202	10.428	1559959	COUNTDOWN_START	n/a	n/a	n/a	-999	14	[0, 0, 0]	n/a	FR1	3	R1061T
1397.63	0.007	1570386	COUNTDOWN_END	n/a	n/a	n/a	-999	14	[0, 0, 0]	n/a	FR1	3	R1061T
1397.637	2.55	1570393	ORIENT	n/a	n/a	n/a	-999	14	[0, 0, 0]	n/a	FR1	3	R1061T
1400.187	2.518	1572943	WORD	n/a	wordpools/wordpool_EN.txt	BRICK	1	14	[0, 0, 0]	n/a	FR1	3	R1061T
1402.705	2.568	1575461	WORD	n/a	wordpools/wordpool_EN.txt	CRANE	2	14	[0, 0, 0]	n/a	FR1	3	R1061T
1405.273	2.566	1578029	WORD	n/a	wordpools/wordpool_EN.txt	TOOL	3	14	[0, 0, 0]	n/a	FR1	3	R1061T
1407.839	2.418	1580595	WORD	n/a	wordpools/wordpool_EN.txt	HOSE	4	14	[0, 0, 0]	n/a	FR1	3	R1061T
1410.257	2.466	1583013	WORD	n/a	wordpools/wordpool_EN.txt	AXE	5	14	[0, 0, 0]	n/a	FR1	3	R1061T
1412.723	2.484	1585479	WORD	n/a	wordpools/wordpool_EN.txt	THUMB	6	14	[0, 0, 0]	n/a	FR1	3	R1061T
1415.207	2.5	1587962	WORD	n/a	wordpools/wordpool_EN.txt	VINE	7	14	[0, 0, 0]	n/a	FR1	3	R1061T
1417.707	2.384	1590462	WORD	n/a	wordpools/wordpool_EN.txt	SUIT	8	14	[0, 0, 0]	n/a	FR1	3	R1061T
1420.091	2.485	1592846	WORD	n/a	wordpools/wordpool_EN.txt	WOOD	9	14	[0, 0, 0]	n/a	FR1	3	R1061T
1422.576	2.399	1595331	WORD	n/a	wordpools/wordpool_EN.txt	PIPE	10	14	[0, 0, 0]	n/a	FR1	3	R1061T
1424.975	2.435	1597730	WORD	n/a	wordpools/wordpool_EN.txt	OAK	11	14	[0, 0, 0]	n/a	FR1	3	R1061T
1427.41	1.616	1600165	WORD	n/a	wordpools/wordpool_EN.txt	EEL	12	14	[0, 0, 0]	n/a	FR1	3	R1061T
1429.026	0.001	1601781	DISTRACT_START	n/a	n/a	n/a	-999	14	[0, 0, 0]	n/a	FR1	3	R1061T
1429.027	0.016	1601782	START	n/a	n/a	n/a	-999	15	[-999, -999, -999]	n/a	FR1	3	R1061T
1429.043	6.252	1601798	PROB	6.252	n/a	n/a	-999	15	[5, 6, 3]	14	FR1	3	R1061T
1435.295	4.301	1608049	PROB	4.301	n/a	n/a	-999	15	[7, 5, 1]	13	FR1	3	R1061T
1439.596	1.766	1612350	PROB	1.766	n/a	n/a	-999	15	[1, 3, 8]	12	FR1	3	R1061T
1441.362	5.235	1614116	PROB	5.235	n/a	n/a	-999	15	[9, 6, 7]	22	FR1	3	R1061T
1446.597	3.967	1619351	PROB	3.967	n/a	n/a	-999	15	[2, 4, 8]	14	FR1	3	R1061T
1450.564	0.017	1623318	STOP	n/a	n/a	n/a	-999	15	[-999, -999, -999]	n/a	FR1	3	R1061T
1450.581	1.15	1623335	DISTRACT_END	n/a	n/a	n/a	-999	14	[0, 0, 0]	n/a	FR1	3	R1061T
1451.731	2.408	1624485	REC_START	n/a	n/a	n/a	-999	14	[0, 0, 0]	n/a	FR1	3	R1061T
1454.139	1.792	1626893	REC_WORD	1.792	n/a	AXE	-999	14	[0, 0, 0]	n/a	FR1	3	R1061T
1455.931	2.136	1628684	REC_WORD	2.136	n/a	VINE	-999	14	[0, 0, 0]	n/a	FR1	3	R1061T
1458.067	15.871	1630820	REC_WORD	15.871	n/a	WOOD	-999	14	[0, 0, 0]	n/a	FR1	3	R1061T
1473.938	7.803	1646691	REC_WORD	7.803	n/a	SHIELD	-999	14	[0, 0, 0]	n/a	FR1	3	R1061T
1481.741	1.462	1654493	REC_END	n/a	n/a	n/a	-999	14	[0, 0, 0]	n/a	FR1	3	R1061T
1483.203	0.0	1655955	TRIAL	n/a	n/a	n/a	-999	15	[0, 0, 0]	n/a	FR1	3	R1061T
1483.203	10.428	1655955	COUNTDOWN_START	n/a	n/a	n/a	-999	15	[0, 0, 0]	n/a	FR1	3	R1061T
1493.631	0.007	1666383	COUNTDOWN_END	n/a	n/a	n/a	-999	15	[0, 0, 0]	n/a	FR1	3	R1061T
1493.638	2.434	1666390	ORIENT	n/a	n/a	n/a	-999	15	[0, 0, 0]	n/a	FR1	3	R1061T
1496.072	2.6	1668823	WORD	n/a	wordpools/wordpool_EN.txt	PEARL	1	15	[0, 0, 0]	n/a	FR1	3	R1061T
1498.672	2.55	1671423	WORD	n/a	wordpools/wordpool_EN.txt	MAIL	2	15	[0, 0, 0]	n/a	FR1	3	R1061T
1501.222	2.518	1673973	WORD	n/a	wordpools/wordpool_EN.txt	BOOK	3	15	[0, 0, 0]	n/a	FR1	3	R1061T
1503.74	2.518	1676491	WORD	n/a	wordpools/wordpool_EN.txt	MULE	4	15	[0, 0, 0]	n/a	FR1	3	R1061T
1506.258	2.432	1679009	WORD	n/a	wordpools/wordpool_EN.txt	SHEEP	5	15	[0, 0, 0]	n/a	FR1	3	R1061T
1508.69	2.585	1681441	WORD	n/a	wordpools/wordpool_EN.txt	BEAN	6	15	[0, 0, 0]	n/a	FR1	3	R1061T
1511.275	2.533	1684026	WORD	n/a	wordpools/wordpool_EN.txt	CORN	7	15	[0, 0, 0]	n/a	FR1	3	R1061T
1513.808	2.468	1686559	WORD	n/a	wordpools/wordpool_EN.txt	BEAK	8	15	[0, 0, 0]	n/a	FR1	3	R1061T
1516.276	2.549	1689026	WORD	n/a	wordpools/wordpool_EN.txt	GRAPE	9	15	[0, 0, 0]	n/a	FR1	3	R1061T
1518.825	2.469	1691575	WORD	n/a	wordpools/wordpool_EN.txt	RICE	10	15	[0, 0, 0]	n/a	FR1	3	R1061T
1521.294	2.433	1694044	WORD	n/a	wordpools/wordpool_EN.txt	LAND	11	15	[0, 0, 0]	n/a	FR1	3	R1061T
1523.727	1.618	1696477	WORD	n/a	wordpools/wordpool_EN.txt	GOLD	12	15	[0, 0, 0]	n/a	FR1	3	R1061T
1525.345	0.001	1698095	DISTRACT_START	n/a	n/a	n/a	-999	15	[0, 0, 0]	n/a	FR1	3	R1061T
1525.346	0.015	1698096	START	n/a	n/a	n/a	-999	16	[-999, -999, -999]	n/a	FR1	3	R1061T
1525.361	6.434	1698111	PROB	6.434	n/a	n/a	-999	16	[8, 3, 3]	14	FR1	3	R1061T
1531.795	2.183	1704545	PROB	2.183	n/a	n/a	-999	16	[2, 2, 2]	6	FR1	3	R1061T
1533.978	2.569	1706728	PROB	2.569	n/a	n/a	-999	16	[1, 3, 1]	5	FR1	3	R1061T
1536.547	4.0	1709296	PROB	4.0	n/a	n/a	-999	16	[2, 5, 1]	8	FR1	3	R1061T
1540.547	2.017	1713296	PROB	2.017	n/a	n/a	-999	16	[3, 2, 3]	8	FR1	3	R1061T
1542.564	2.583	1715313	PROB	2.583	n/a	n/a	-999	16	[4, 9, 9]	22	FR1	3	R1061T
1545.147	2.751	1717896	PROB	2.751	n/a	n/a	-999	16	[3, 5, 3]	11	FR1	3	R1061T
1547.898	0.016	1720647	STOP	n/a	n/a	n/a	-999	16	[-999, -999, -999]	n/a	FR1	3	R1061T
1547.914	1.101	1720663	DISTRACT_END	n/a	n/a	n/a	-999	15	[0, 0, 0]	n/a	FR1	3	R1061T
1549.015	1.289	1721764	REC_START	n/a	n/a	n/a	-999	15	[0, 0, 0]	n/a	FR1	3	R1061T
1550.304	1.702	1723053	REC_WORD	1.702	n/a	GRAPE	-999	15	[0, 0, 0]	n/a	FR1	3	R1061T
1552.006	2.438	1724755	REC_WORD	2.438	n/a	RICE	-999	15	[0, 0, 0]	n/a	FR1	3	R1061T
1554.444	2.035	1727193	REC_WORD	2.035	n/a	CORN	-999	15	[0, 0, 0]	n/a	FR1	3	R1061T
1556.479	1.724	1729228	REC_WORD	1.724	n/a	BEAK	-999	15	[0, 0, 0]	n/a	FR1	3	R1061T
1558.203	4.659	1730951	REC_WORD	4.659	n/a	BEAN	-999	15	[0, 0, 0]	n/a	FR1	3	R1061T
1562.862	7.733	1735610	REC_WORD	7.733	n/a	STALK	-999	15	[0, 0, 0]	n/a	FR1	3	R1061T
1570.595	8.43	1743343	REC_WORD	8.43	n/a	RICE	-999	15	[0, 0, 0]	n/a	FR1	3	R1061T
1579.025	1.629	1751772	REC_END	n/a	n/a	n/a	-999	15	[0, 0, 0]	n/a	FR1	3	R1061T
1580.654	0.0	1753401	COUNTDOWN_START	n/a	n/a	n/a	-999	16	[0, 0, 0]	n/a	FR1	3	R1061T
1580.654	10.428	1753401	TRIAL	n/a	n/a	n/a	-999	16	[0, 0, 0]	n/a	FR1	3	R1061T
1591.082	0.007	1763829	COUNTDOWN_END	n/a	n/a	n/a	-999	16	[0, 0, 0]	n/a	FR1	3	R1061T
1591.089	2.584	1763836	ORIENT	n/a	n/a	n/a	-999	16	[0, 0, 0]	n/a	FR1	3	R1061T
1593.673	2.417	1766420	WORD	n/a	wordpools/wordpool_EN.txt	MAT	1	16	[0, 0, 0]	n/a	FR1	3	R1061T
1596.09	2.501	1768837	WORD	n/a	wordpools/wordpool_EN.txt	HOOK	2	16	[0, 0, 0]	n/a	FR1	3	R1061T
1598.591	2.6	1771337	WORD	n/a	wordpools/wordpool_EN.txt	MOOSE	3	16	[0, 0, 0]	n/a	FR1	3	R1061T
1601.191	2.533	1773937	WORD	n/a	wordpools/wordpool_EN.txt	SKY	4	16	[0, 0, 0]	n/a	FR1	3	R1061T
1603.724	2.468	1776470	WORD	n/a	wordpools/wordpool_EN.txt	SUN	5	16	[0, 0, 0]	n/a	FR1	3	R1061T
1606.192	2.5	1778938	WORD	n/a	wordpools/wordpool_EN.txt	BEACH	6	16	[0, 0, 0]	n/a	FR1	3	R1061T
1608.692	2.517	1781438	WORD	n/a	wordpools/wordpool_EN.txt	DOCK	7	16	[0, 0, 0]	n/a	FR1	3	R1061T
1611.209	2.451	1783955	WORD	n/a	wordpools/wordpool_EN.txt	WAVE	8	16	[0, 0, 0]	n/a	FR1	3	R1061T
1613.66	2.533	1786406	WORD	n/a	wordpools/wordpool_EN.txt	FLAG	9	16	[0, 0, 0]	n/a	FR1	3	R1061T
1616.193	2.451	1788939	WORD	n/a	wordpools/wordpool_EN.txt	EAR	10	16	[0, 0, 0]	n/a	FR1	3	R1061T
1618.644	2.417	1791389	WORD	n/a	wordpools/wordpool_EN.txt	SPEAR	11	16	[0, 0, 0]	n/a	FR1	3	R1061T
1621.061	1.617	1793806	WORD	n/a	wordpools/wordpool_EN.txt	BADGE	12	16	[0, 0, 0]	n/a	FR1	3	R1061T
1622.678	0.001	1795423	DISTRACT_START	n/a	n/a	n/a	-999	16	[0, 0, 0]	n/a	FR1	3	R1061T
1622.679	0.016	1795424	START	n/a	n/a	n/a	-999	17	[-999, -999, -999]	n/a	FR1	3	R1061T
1622.695	8.434	1795440	PROB	8.434	n/a	n/a	-999	17	[7, 7, 6]	20	FR1	3	R1061T
1631.129	4.336	1803874	PROB	4.336	n/a	n/a	-999	17	[7, 2, 6]	15	FR1	3	R1061T
1635.465	2.216	1808210	PROB	2.216	n/a	n/a	-999	17	[8, 2, 3]	13	FR1	3	R1061T
1637.681	2.568	1810426	PROB	2.568	n/a	n/a	-999	17	[9, 5, 5]	19	FR1	3	R1061T
1640.249	3.291	1812993	PROB	3.291	n/a	n/a	-999	17	[9, 1, 6]	16	FR1	3	R1061T
1643.54	0.009	1816284	STOP	n/a	n/a	n/a	-999	17	[-999, -999, -999]	n/a	FR1	3	R1061T
1643.549	1.1	1816293	DISTRACT_END	n/a	n/a	n/a	-999	16	[0, 0, 0]	n/a	FR1	3	R1061T
1644.649	2.224	1817393	REC_START	n/a	n/a	n/a	-999	16	[0, 0, 0]	n/a	FR1	3	R1061T
1646.873	1.186	1819617	REC_WORD	1.186	n/a	WAVE	-999	16	[0, 0, 0]	n/a	FR1	3	R1061T
1648.059	4.52	1820803	REC_WORD	4.52	n/a	FLAG	-999	16	[0, 0, 0]	n/a	FR1	3	R1061T
1652.579	6.57	1825323	REC_WORD	6.57	n/a	EYE	-999	16	[0, 0, 0]	n/a	FR1	3	R1061T
1659.149	7.201	1831892	REC_WORD	7.201	n/a	SPEAR	-999	16	[0, 0, 0]	n/a	FR1	3	R1061T
1666.35	8.314	1839093	REC_WORD	8.314	n/a	SEA	-999	16	[0, 0, 0]	n/a	FR1	3	R1061T
1674.664	1.407	1847407	REC_END	n/a	n/a	n/a	-999	16	[0, 0, 0]	n/a	FR1	3	R1061T
1676.071	0.0	1848814	TRIAL	n/a	n/a	n/a	-999	17	[0, 0, 0]	n/a	FR1	3	R1061T
1676.071	10.428	1848814	COUNTDOWN_START	n/a	n/a	n/a	-999	17	[0, 0, 0]	n/a	FR1	3	R1061T
1686.499	0.008	1859241	COUNTDOWN_END	n/a	n/a	n/a	-999	17	[0, 0, 0]	n/a	FR1	3	R1061T
1686.507	2.533	1859249	ORIENT	n/a	n/a	n/a	-999	17	[0, 0, 0]	n/a	FR1	3	R1061T
1689.04	2.617	1861782	WORD	n/a	wordpools/wordpool_EN.txt	POND	1	17	[0, 0, 0]	n/a	FR1	3	R1061T
1691.657	2.534	1864399	WORD	n/a	wordpools/wordpool_EN.txt	COW	2	17	[0, 0, 0]	n/a	FR1	3	R1061T
1694.191	2.567	1866933	WORD	n/a	wordpools/wordpool_EN.txt	BOY	3	17	[0, 0, 0]	n/a	FR1	3	R1061T
1696.758	2.602	1869500	WORD	n/a	wordpools/wordpool_EN.txt	HEART	4	17	[0, 0, 0]	n/a	FR1	3	R1061T
1699.36	2.565	1872101	WORD	n/a	wordpools/wordpool_EN.txt	CORD	5	17	[0, 0, 0]	n/a	FR1	3	R1061T
1701.925	2.436	1874666	WORD	n/a	wordpools/wordpool_EN.txt	FOAM	6	17	[0, 0, 0]	n/a	FR1	3	R1061T
1704.361	2.432	1877102	WORD	n/a	wordpools/wordpool_EN.txt	PEAR	7	17	[0, 0, 0]	n/a	FR1	3	R1061T
1706.793	2.518	1879534	WORD	n/a	wordpools/wordpool_EN.txt	BED	8	17	[0, 0, 0]	n/a	FR1	3	R1061T
1709.311	2.466	1882052	WORD	n/a	wordpools/wordpool_EN.txt	EGG	9	17	[0, 0, 0]	n/a	FR1	3	R1061T
1711.777	2.569	1884518	WORD	n/a	wordpools/wordpool_EN.txt	TOAST	10	17	[0, 0, 0]	n/a	FR1	3	R1061T
1714.346	2.466	1887087	WORD	n/a	wordpools/wordpool_EN.txt	HILL	11	17	[0, 0, 0]	n/a	FR1	3	R1061T
1716.812	1.618	1889553	WORD	n/a	wordpools/wordpool_EN.txt	TOY	12	17	[0, 0, 0]	n/a	FR1	3	R1061T
1718.43	0.001	1891171	DISTRACT_START	n/a	n/a	n/a	-999	17	[0, 0, 0]	n/a	FR1	3	R1061T
1718.431	0.015	1891172	START	n/a	n/a	n/a	-999	18	[-999, -999, -999]	n/a	FR1	3	R1061T
1718.446	4.018	1891187	PROB	4.018	n/a	n/a	-999	18	[6, 2, 4]	12	FR1	3	R1061T
1722.464	2.416	1895204	PROB	2.416	n/a	n/a	-999	18	[3, 8, 1]	12	FR1	3	R1061T
1724.88	2.9	1897620	PROB	2.9	n/a	n/a	-999	18	[4, 4, 7]	15	FR1	3	R1061T
1727.78	2.334	1900520	PROB	2.334	n/a	n/a	-999	18	[6, 6, 3]	15	FR1	3	R1061T
1730.114	3.435	1902854	PROB	3.435	n/a	n/a	-999	18	[2, 6, 2]	10	FR1	3	R1061T
1733.549	4.083	1906289	PROB	4.083	n/a	n/a	-999	18	[9, 6, 3]	18	FR1	3	R1061T
1737.632	2.924	1910372	PROB	2.924	n/a	n/a	-999	18	[8, 3, 3]	14	FR1	3	R1061T
1740.556	0.011	1913295	STOP	n/a	n/a	n/a	-999	18	[-999, -999, -999]	n/a	FR1	3	R1061T
1740.567	1.05	1913306	DISTRACT_END	n/a	n/a	n/a	-999	17	[0, 0, 0]	n/a	FR1	3	R1061T
1741.617	9.464	1914356	REC_START	n/a	n/a	n/a	-999	17	[0, 0, 0]	n/a	FR1	3	R1061T
1751.081	20.546	1923820	REC_WORD	20.546	n/a	ROAD	-999	17	[0, 0, 0]	n/a	FR1	3	R1061T
1771.627	2.195	1944365	REC_END	n/a	n/a	n/a	-999	17	[0, 0, 0]	n/a	FR1	3	R1061T
1773.822	0.0	1946560	TRIAL	n/a	n/a	n/a	-999	18	[0, 0, 0]	n/a	FR1	3	R1061T
1773.822	10.428	1946560	COUNTDOWN_START	n/a	n/a	n/a	-999	18	[0, 0, 0]	n/a	FR1	3	R1061T
1784.25	0.008	1956987	COUNTDOWN_END	n/a	n/a	n/a	-999	18	[0, 0, 0]	n/a	FR1	3	R1061T
1784.258	2.383	1956995	ORIENT	n/a	n/a	n/a	-999	18	[0, 0, 0]	n/a	FR1	3	R1061T
1786.641	2.434	1959378	WORD	n/a	wordpools/wordpool_EN.txt	CONE	1	18	[0, 0, 0]	n/a	FR1	3	R1061T
1789.075	2.485	1961812	WORD	n/a	wordpools/wordpool_EN.txt	TRASH	2	18	[0, 0, 0]	n/a	FR1	3	R1061T
1791.56	2.432	1964297	WORD	n/a	wordpools/wordpool_EN.txt	PLANT	3	18	[0, 0, 0]	n/a	FR1	3	R1061T
1793.992	2.602	1966729	WORD	n/a	wordpools/wordpool_EN.txt	SMOKE	4	18	[0, 0, 0]	n/a	FR1	3	R1061T
1796.594	2.616	1969331	WORD	n/a	wordpools/wordpool_EN.txt	DOG	5	18	[0, 0, 0]	n/a	FR1	3	R1061T
1799.21	2.467	1971947	WORD	n/a	wordpools/wordpool_EN.txt	TOAD	6	18	[0, 0, 0]	n/a	FR1	3	R1061T
1801.677	2.434	1974413	WORD	n/a	wordpools/wordpool_EN.txt	FLAME	7	18	[0, 0, 0]	n/a	FR1	3	R1061T
1804.111	2.485	1976847	WORD	n/a	wordpools/wordpool_EN.txt	WEED	8	18	[0, 0, 0]	n/a	FR1	3	R1061T
1806.596	2.616	1979332	WORD	n/a	wordpools/wordpool_EN.txt	BEE	9	18	[0, 0, 0]	n/a	FR1	3	R1061T
1809.212	2.484	1981948	WORD	n/a	wordpools/wordpool_EN.txt	SEED	10	18	[0, 0, 0]	n/a	FR1	3	R1061T
1811.696	2.533	1984432	WORD	n/a	wordpools/wordpool_EN.txt	BUSH	11	18	[0, 0, 0]	n/a	FR1	3	R1061T
1814.229	1.617	1986965	WORD	n/a	wordpools/wordpool_EN.txt	FOG	12	18	[0, 0, 0]	n/a	FR1	3	R1061T
1815.846	0.001	1988582	DISTRACT_START	n/a	n/a	n/a	-999	18	[0, 0, 0]	n/a	FR1	3	R1061T
1815.847	0.016	1988583	START	n/a	n/a	n/a	-999	19	[-999, -999, -999]	n/a	FR1	3	R1061T
1815.863	7.636	1988599	PROB	7.636	n/a	n/a	-999	19	[4, 1, 7]	12	FR1	3	R1061T
1823.499	2.416	1996234	PROB	2.416	n/a	n/a	-999	19	[5, 4, 6]	15	FR1	3	R1061T
1825.915	2.685	1998650	PROB	2.685	n/a	n/a	-999	19	[1, 6, 2]	9	FR1	3	R1061T
1828.6	3.549	2001335	PROB	3.549	n/a	n/a	-999	19	[7, 5, 2]	14	FR1	3	R1061T
1832.149	2.884	2004884	PROB	2.884	n/a	n/a	-999	19	[3, 6, 2]	11	FR1	3	R1061T
1835.033	1.882	2007768	PROB	1.882	n/a	n/a	-999	19	[5, 6, 1]	13	FR1	3	R1061T
1836.915	0.019	2009650	STOP	n/a	n/a	n/a	-999	19	[-999, -999, -999]	n/a	FR1	3	R1061T
1836.934	1.15	2009669	DISTRACT_END	n/a	n/a	n/a	-999	18	[0, 0, 0]	n/a	FR1	3	R1061T
1838.084	4.315	2010819	REC_START	n/a	n/a	n/a	-999	18	[0, 0, 0]	n/a	FR1	3	R1061T
1842.399	1.997	2015133	REC_WORD	1.997	n/a	WAVE	-999	18	[0, 0, 0]	n/a	FR1	3	R1061T
1844.396	1.259	2017130	REC_WORD	1.259	n/a	FOAM	-999	18	[0, 0, 0]	n/a	FR1	3	R1061T
1845.655	5.997	2018389	REC_WORD	5.997	n/a	FOG	-999	18	[0, 0, 0]	n/a	FR1	3	R1061T
1851.652	9.989	2024386	REC_WORD	9.989	n/a	TRASH	-999	18	[0, 0, 0]	n/a	FR1	3	R1061T
1861.641	6.457	2034375	REC_WORD	6.457	n/a	BEE	-999	18	[0, 0, 0]	n/a	FR1	3	R1061T
1868.098	1.409	2040831	REC_END	n/a	n/a	n/a	-999	18	[0, 0, 0]	n/a	FR1	3	R1061T
1869.507	0.0	2042240	COUNTDOWN_START	n/a	n/a	n/a	-999	19	[0, 0, 0]	n/a	FR1	3	R1061T
1869.507	10.428	2042240	TRIAL	n/a	n/a	n/a	-999	19	[0, 0, 0]	n/a	FR1	3	R1061T
1879.935	0.007	2052668	COUNTDOWN_END	n/a	n/a	n/a	-999	19	[0, 0, 0]	n/a	FR1	3	R1061T
1879.942	2.517	2052675	ORIENT	n/a	n/a	n/a	-999	19	[0, 0, 0]	n/a	FR1	3	R1061T
1882.459	2.6	2055192	WORD	n/a	wordpools/wordpool_EN.txt	BROOM	1	19	[0, 0, 0]	n/a	FR1	3	R1061T
1885.059	2.567	2057791	WORD	n/a	wordpools/wordpool_EN.txt	PANTS	2	19	[0, 0, 0]	n/a	FR1	3	R1061T
1887.626	2.484	2060358	WORD	n/a	wordpools/wordpool_EN.txt	SWAMP	3	19	[0, 0, 0]	n/a	FR1	3	R1061T
1890.11	2.6	2062842	WORD	n/a	wordpools/wordpool_EN.txt	BREAD	4	19	[0, 0, 0]	n/a	FR1	3	R1061T
1892.71	2.569	2065442	WORD	n/a	wordpools/wordpool_EN.txt	BRANCH	5	19	[0, 0, 0]	n/a	FR1	3	R1061T
1895.279	2.599	2068011	WORD	n/a	wordpools/wordpool_EN.txt	FOX	6	19	[0, 0, 0]	n/a	FR1	3	R1061T
1897.878	2.385	2070610	WORD	n/a	wordpools/wordpool_EN.txt	BOWL	7	19	[0, 0, 0]	n/a	FR1	3	R1061T
1900.263	2.466	2072995	WORD	n/a	wordpools/wordpool_EN.txt	CROW	8	19	[0, 0, 0]	n/a	FR1	3	R1061T
1902.729	2.484	2075461	WORD	n/a	wordpools/wordpool_EN.txt	TREE	9	19	[0, 0, 0]	n/a	FR1	3	R1061T
1905.213	2.5	2077944	WORD	n/a	wordpools/wordpool_EN.txt	BEAR	10	19	[0, 0, 0]	n/a	FR1	3	R1061T
1907.713	2.467	2080444	WORD	n/a	wordpools/wordpool_EN.txt	SHOE	11	19	[0, 0, 0]	n/a	FR1	3	R1061T
1910.18	1.617	2082911	WORD	n/a	wordpools/wordpool_EN.txt	PEA	12	19	[0, 0, 0]	n/a	FR1	3	R1061T
1911.797	0.001	2084528	DISTRACT_START	n/a	n/a	n/a	-999	19	[0, 0, 0]	n/a	FR1	3	R1061T
1911.798	0.016	2084529	START	n/a	n/a	n/a	-999	20	[-999, -999, -999]	n/a	FR1	3	R1061T
1911.814	4.201	2084545	PROB	4.201	n/a	n/a	-999	20	[1, 2, 6]	9	FR1	3	R1061T
1916.015	2.2	2088746	PROB	2.2	n/a	n/a	-999	20	[1, 2, 1]	4	FR1	3	R1061T
1918.215	2.385	2090946	PROB	2.385	n/a	n/a	-999	20	[7, 3, 7]	17	FR1	3	R1061T
1920.6	2.049	2093331	PROB	2.049	n/a	n/a	-999	20	[4, 4, 2]	10	FR1	3	R1061T
1922.649	2.134	2095380	PROB	2.134	n/a	n/a	-999	20	[2, 2, 5]	9	FR1	3	R1061T
1924.783	2.084	2097513	PROB	2.084	n/a	n/a	-999	20	[5, 4, 5]	14	FR1	3	R1061T
1926.867	2.534	2099597	PROB	2.534	n/a	n/a	-999	20	[4, 4, 2]	10	FR1	3	R1061T
1929.401	2.867	2102131	PROB	2.867	n/a	n/a	-999	20	[7, 2, 9]	18	FR1	3	R1061T
1932.268	0.017	2104998	STOP	n/a	n/a	n/a	-999	20	[-999, -999, -999]	n/a	FR1	3	R1061T
1932.285	1.218	2105015	DISTRACT_END	n/a	n/a	n/a	-999	19	[0, 0, 0]	n/a	FR1	3	R1061T
1933.503	2.434	2106233	REC_START	n/a	n/a	n/a	-999	19	[0, 0, 0]	n/a	FR1	3	R1061T
1935.937	1.646	2108667	REC_WORD	1.646	n/a	PEA	-999	19	[0, 0, 0]	n/a	FR1	3	R1061T
1937.583	3.052	2110313	REC_WORD	3.052	n/a	BEAR	-999	19	[0, 0, 0]	n/a	FR1	3	R1061T
1940.635	5.475	2113365	REC_WORD	5.475	n/a	SHOE	-999	19	[0, 0, 0]	n/a	FR1	3	R1061T
1946.11	7.06	2118839	REC_WORD	7.06	n/a	CROW	-999	19	[0, 0, 0]	n/a	FR1	3	R1061T
1953.17	10.343	2125899	REC_WORD	10.343	n/a	BROOM	-999	19	[0, 0, 0]	n/a	FR1	3	R1061T
1963.513	1.577	2136242	REC_END	n/a	n/a	n/a	-999	19	[0, 0, 0]	n/a	FR1	3	R1061T
1965.09	0.001	2137818	COUNTDOWN_START	n/a	n/a	n/a	-999	20	[0, 0, 0]	n/a	FR1	3	R1061T
1965.091	10.427	2137819	TRIAL	n/a	n/a	n/a	-999	20	[0, 0, 0]	n/a	FR1	3	R1061T
1975.518	0.025	2148246	COUNTDOWN_END	n/a	n/a	n/a	-999	20	[0, 0, 0]	n/a	FR1	3	R1061T
1975.543	2.566	2148271	ORIENT	n/a	n/a	n/a	-999	20	[0, 0, 0]	n/a	FR1	3	R1061T
1978.109	2.468	2150837	WORD	n/a	wordpools/wordpool_EN.txt	STRING	1	20	[0, 0, 0]	n/a	FR1	3	R1061T
1980.577	2.533	2153305	WORD	n/a	wordpools/wordpool_EN.txt	BOAT	2	20	[0, 0, 0]	n/a	FR1	3	R1061T
1983.11	2.534	2155838	WORD	n/a	wordpools/wordpool_EN.txt	HEN	3	20	[0, 0, 0]	n/a	FR1	3	R1061T
1985.644	2.584	2158371	WORD	n/a	wordpools/wordpool_EN.txt	CLIFF	4	20	[0, 0, 0]	n/a	FR1	3	R1061T
1988.228	2.617	2160955	WORD	n/a	wordpools/wordpool_EN.txt	STEAM	5	20	[0, 0, 0]	n/a	FR1	3	R1061T
1990.845	2.401	2163572	WORD	n/a	wordpools/wordpool_EN.txt	CHALK	6	20	[0, 0, 0]	n/a	FR1	3	R1061T
1993.246	2.533	2165973	WORD	n/a	wordpools/wordpool_EN.txt	STONE	7	20	[0, 0, 0]	n/a	FR1	3	R1061T
1995.779	2.568	2168506	WORD	n/a	wordpools/wordpool_EN.txt	SHEET	8	20	[0, 0, 0]	n/a	FR1	3	R1061T
1998.347	2.4	2171074	WORD	n/a	wordpools/wordpool_EN.txt	OWL	9	20	[0, 0, 0]	n/a	FR1	3	R1061T
2000.747	2.518	2173474	WORD	n/a	wordpools/wordpool_EN.txt	PEN	10	20	[0, 0, 0]	n/a	FR1	3	R1061T
2003.265	2.399	2175992	WORD	n/a	wordpools/wordpool_EN.txt	WHALE	11	20	[0, 0, 0]	n/a	FR1	3	R1061T
2005.664	1.601	2178390	WORD	n/a	wordpools/wordpool_EN.txt	GRASS	12	20	[0, 0, 0]	n/a	FR1	3	R1061T
2007.265	0.001	2179991	DISTRACT_START	n/a	n/a	n/a	-999	20	[0, 0, 0]	n/a	FR1	3	R1061T
2007.266	0.016	2179992	START	n/a	n/a	n/a	-999	21	[-999, -999, -999]	n/a	FR1	3	R1061T
2007.282	3.583	2180008	PROB	3.583	n/a	n/a	-999	21	[3, 1, 2]	6	FR1	3	R1061T
2010.865	2.385	2183591	PROB	2.385	n/a	n/a	-999	21	[4, 7, 1]	12	FR1	3	R1061T
2013.25	3.4	2185976	PROB	3.4	n/a	n/a	-999	21	[9, 4, 5]	18	FR1	3	R1061T
2016.65	5.134	2189376	PROB	5.134	n/a	n/a	-999	21	[4, 8, 5]	17	FR1	3	R1061T
2021.784	2.95	2194510	PROB	2.95	n/a	n/a	-999	21	[8, 3, 6]	17	FR1	3	R1061T
2024.734	2.184	2197460	PROB	2.184	n/a	n/a	-999	21	[4, 4, 1]	9	FR1	3	R1061T
2026.918	2.598	2199643	PROB	2.598	n/a	n/a	-999	21	[7, 7, 6]	20	FR1	3	R1061T
2029.516	0.003	2202241	STOP	n/a	n/a	n/a	-999	21	[-999, -999, -999]	n/a	FR1	3	R1061T
2029.519	1.201	2202244	DISTRACT_END	n/a	n/a	n/a	-999	20	[0, 0, 0]	n/a	FR1	3	R1061T
2030.72	2.654	2203445	REC_START	n/a	n/a	n/a	-999	20	[0, 0, 0]	n/a	FR1	3	R1061T
2033.374	2.62	2206099	REC_WORD	2.62	n/a	STRING	-999	20	[0, 0, 0]	n/a	FR1	3	R1061T
2035.994	3.091	2208719	REC_WORD	3.091	n/a	BOAT	-999	20	[0, 0, 0]	n/a	FR1	3	R1061T
2039.085	3.087	2211810	REC_WORD	3.087	n/a	CHALK	-999	20	[0, 0, 0]	n/a	FR1	3	R1061T
2042.172	2.902	2214897	REC_WORD	2.902	n/a	STONE	-999	20	[0, 0, 0]	n/a	FR1	3	R1061T
2045.074	15.658	2217799	REC_WORD	15.658	n/a	CLIFF	-999	20	[0, 0, 0]	n/a	FR1	3	R1061T
2060.732	7.761	2233456	REC_END	n/a	n/a	n/a	-999	20	[0, 0, 0]	n/a	FR1	3	R1061T
2068.493	0.001	2241216	COUNTDOWN_START	n/a	n/a	n/a	-999	21	[0, 0, 0]	n/a	FR1	3	R1061T
2068.494	10.427	2241217	TRIAL	n/a	n/a	n/a	-999	21	[0, 0, 0]	n/a	FR1	3	R1061T
2078.921	0.007	2251644	COUNTDOWN_END	n/a	n/a	n/a	-999	21	[0, 0, 0]	n/a	FR1	3	R1061T
2078.928	2.451	2251651	ORIENT	n/a	n/a	n/a	-999	21	[0, 0, 0]	n/a	FR1	3	R1061T
2081.379	2.583	2254102	WORD	n/a	wordpools/wordpool_EN.txt	FORT	1	21	[0, 0, 0]	n/a	FR1	3	R1061T
2083.962	2.585	2256685	WORD	n/a	wordpools/wordpool_EN.txt	STEM	2	21	[0, 0, 0]	n/a	FR1	3	R1061T
2086.547	2.583	2259269	WORD	n/a	wordpools/wordpool_EN.txt	SWORD	3	21	[0, 0, 0]	n/a	FR1	3	R1061T
2089.13	2.55	2261852	WORD	n/a	wordpools/wordpool_EN.txt	HORSE	4	21	[0, 0, 0]	n/a	FR1	3	R1061T
2091.68	2.384	2264402	WORD	n/a	wordpools/wordpool_EN.txt	SAIL	5	21	[0, 0, 0]	n/a	FR1	3	R1061T
2094.064	2.451	2266786	WORD	n/a	wordpools/wordpool_EN.txt	COIN	6	21	[0, 0, 0]	n/a	FR1	3	R1061T
2096.515	2.466	2269237	WORD	n/a	wordpools/wordpool_EN.txt	ROOT	7	21	[0, 0, 0]	n/a	FR1	3	R1061T
2098.981	2.518	2271703	WORD	n/a	wordpools/wordpool_EN.txt	STAR	8	21	[0, 0, 0]	n/a	FR1	3	R1061T
2101.499	2.5	2274221	WORD	n/a	wordpools/wordpool_EN.txt	LEAF	9	21	[0, 0, 0]	n/a	FR1	3	R1061T
2103.999	2.485	2276721	WORD	n/a	wordpools/wordpool_EN.txt	SHIP	10	21	[0, 0, 0]	n/a	FR1	3	R1061T
2106.484	2.466	2279205	WORD	n/a	wordpools/wordpool_EN.txt	SHELL	11	21	[0, 0, 0]	n/a	FR1	3	R1061T
2108.95	1.618	2281671	WORD	n/a	wordpools/wordpool_EN.txt	APE	12	21	[0, 0, 0]	n/a	FR1	3	R1061T
2110.568	0.001	2283289	DISTRACT_START	n/a	n/a	n/a	-999	21	[0, 0, 0]	n/a	FR1	3	R1061T
2110.569	0.015	2283290	START	n/a	n/a	n/a	-999	22	[-999, -999, -999]	n/a	FR1	3	R1061T
2110.584	4.584	2283305	PROB	4.584	n/a	n/a	-999	22	[6, 6, 7]	19	FR1	3	R1061T
2115.168	3.634	2287889	PROB	3.634	n/a	n/a	-999	22	[5, 9, 3]	17	FR1	3	R1061T
2118.802	2.867	2291523	PROB	2.867	n/a	n/a	-999	22	[2, 3, 9]	14	FR1	3	R1061T
2121.669	1.901	2294390	PROB	1.901	n/a	n/a	-999	22	[4, 1, 6]	11	FR1	3	R1061T
2123.57	2.867	2296291	PROB	2.867	n/a	n/a	-999	22	[9, 2, 8]	19	FR1	3	R1061T
2126.437	4.558	2299158	PROB	4.558	n/a	n/a	-999	22	[4, 6, 8]	18	FR1	3	R1061T
2130.995	0.009	2303715	STOP	n/a	n/a	n/a	-999	22	[-999, -999, -999]	n/a	FR1	3	R1061T
2131.004	1.217	2303724	DISTRACT_END	n/a	n/a	n/a	-999	21	[0, 0, 0]	n/a	FR1	3	R1061T
2132.221	1.949	2304941	REC_START	n/a	n/a	n/a	-999	21	[0, 0, 0]	n/a	FR1	3	R1061T
2134.17	1.734	2306890	REC_WORD	1.734	n/a	SHIP	-999	21	[0, 0, 0]	n/a	FR1	3	R1061T
2135.904	4.677	2308624	REC_WORD	4.677	n/a	SAIL	-999	21	[0, 0, 0]	n/a	FR1	3	R1061T
2140.581	5.368	2313301	REC_WORD	5.368	n/a	APE	-999	21	[0, 0, 0]	n/a	FR1	3	R1061T
2145.949	1.465	2318669	REC_WORD	1.465	n/a	STEM	-999	21	[0, 0, 0]	n/a	FR1	3	R1061T
2147.414	1.485	2320133	REC_WORD	1.485	n/a	ROOT	-999	21	[0, 0, 0]	n/a	FR1	3	R1061T
2148.899	7.048	2321618	REC_WORD	7.048	n/a	LEAF	-999	21	[0, 0, 0]	n/a	FR1	3	R1061T
2155.947	6.292	2328666	REC_WORD	6.292	n/a	SWORD	-999	21	[0, 0, 0]	n/a	FR1	3	R1061T
2162.239	2.504	2334958	REC_END	n/a	n/a	n/a	-999	21	[0, 0, 0]	n/a	FR1	3	R1061T
2164.743	0.0	2337462	TRIAL	n/a	n/a	n/a	-999	22	[0, 0, 0]	n/a	FR1	3	R1061T
2164.743	10.428	2337462	COUNTDOWN_START	n/a	n/a	n/a	-999	22	[0, 0, 0]	n/a	FR1	3	R1061T
2175.171	0.008	2347889	COUNTDOWN_END	n/a	n/a	n/a	-999	22	[0, 0, 0]	n/a	FR1	3	R1061T
2175.179	2.433	2347897	ORIENT	n/a	n/a	n/a	-999	22	[0, 0, 0]	n/a	FR1	3	R1061T
2177.612	2.384	2350330	WORD	n/a	wordpools/wordpool_EN.txt	JAR	1	22	[0, 0, 0]	n/a	FR1	3	R1061T
2179.996	2.385	2352714	WORD	n/a	wordpools/wordpool_EN.txt	MILK	2	22	[0, 0, 0]	n/a	FR1	3	R1061T
2182.381	2.483	2355099	WORD	n/a	wordpools/wordpool_EN.txt	STORM	3	22	[0, 0, 0]	n/a	FR1	3	R1061T
2184.864	2.451	2357582	WORD	n/a	wordpools/wordpool_EN.txt	DITCH	4	22	[0, 0, 0]	n/a	FR1	3	R1061T
2187.315	2.466	2360033	WORD	n/a	wordpools/wordpool_EN.txt	FLEA	5	22	[0, 0, 0]	n/a	FR1	3	R1061T
2189.781	2.485	2362498	WORD	n/a	wordpools/wordpool_EN.txt	MOTH	6	22	[0, 0, 0]	n/a	FR1	3	R1061T
2192.266	2.516	2364983	WORD	n/a	wordpools/wordpool_EN.txt	STRAW	7	22	[0, 0, 0]	n/a	FR1	3	R1061T
2194.782	2.618	2367499	WORD	n/a	wordpools/wordpool_EN.txt	SOUP	8	22	[0, 0, 0]	n/a	FR1	3	R1061T
2197.4	2.616	2370117	WORD	n/a	wordpools/wordpool_EN.txt	CHEEK	9	22	[0, 0, 0]	n/a	FR1	3	R1061T
2200.016	2.502	2372733	WORD	n/a	wordpools/wordpool_EN.txt	RAKE	10	22	[0, 0, 0]	n/a	FR1	3	R1061T
2202.518	2.583	2375235	WORD	n/a	wordpools/wordpool_EN.txt	ARK	11	22	[0, 0, 0]	n/a	FR1	3	R1061T
2205.101	1.617	2377818	WORD	n/a	wordpools/wordpool_EN.txt	FRUIT	12	22	[0, 0, 0]	n/a	FR1	3	R1061T
2206.718	0.001	2379435	DISTRACT_START	n/a	n/a	n/a	-999	22	[0, 0, 0]	n/a	FR1	3	R1061T
2206.719	0.015	2379436	START	n/a	n/a	n/a	-999	23	[-999, -999, -999]	n/a	FR1	3	R1061T
2206.734	5.118	2379451	PROB	5.118	n/a	n/a	-999	23	[9, 2, 9]	20	FR1	3	R1061T
2211.852	5.151	2384568	PROB	5.151	n/a	n/a	-999	23	[4, 7, 3]	14	FR1	3	R1061T
2217.003	3.234	2389719	PROB	3.234	n/a	n/a	-999	23	[8, 5, 3]	16	FR1	3	R1061T
2220.237	2.584	2392953	PROB	2.584	n/a	n/a	-999	23	[2, 2, 6]	10	FR1	3	R1061T
2222.821	3.267	2395537	PROB	3.267	n/a	n/a	-999	23	[9, 2, 5]	16	FR1	3	R1061T
2226.088	3.227	2398804	PROB	3.227	n/a	n/a	-999	23	[7, 9, 9]	25	FR1	3	R1061T
2229.315	0.008	2402030	STOP	n/a	n/a	n/a	-999	23	[-999, -999, -999]	n/a	FR1	3	R1061T
2229.323	1.084	2402038	DISTRACT_END	n/a	n/a	n/a	-999	22	[0, 0, 0]	n/a	FR1	3	R1061T
2230.407	4.369	2403122	REC_START	n/a	n/a	n/a	-999	22	[0, 0, 0]	n/a	FR1	3	R1061T
2234.776	3.659	2407491	REC_WORD	3.659	n/a	ARK	-999	22	[0, 0, 0]	n/a	FR1	3	R1061T
2238.435	7.621	2411150	REC_WORD	7.621	n/a	STRAW	-999	22	[0, 0, 0]	n/a	FR1	3	R1061T
2246.056	3.728	2418771	REC_WORD	3.728	n/a	RAKE	-999	22	[0, 0, 0]	n/a	FR1	3	R1061T
2249.784	10.635	2422498	REC_WORD	10.635	n/a	DITCH	-999	22	[0, 0, 0]	n/a	FR1	3	R1061T
2260.419	2.476	2433133	REC_END	n/a	n/a	n/a	-999	22	[0, 0, 0]	n/a	FR1	3	R1061T
2262.895	0.0	2435609	TRIAL	n/a	n/a	n/a	-999	23	[0, 0, 0]	n/a	FR1	3	R1061T
2262.895	10.428	2435609	COUNTDOWN_START	n/a	n/a	n/a	-999	23	[0, 0, 0]	n/a	FR1	3	R1061T
2273.323	0.008	2446036	COUNTDOWN_END	n/a	n/a	n/a	-999	23	[0, 0, 0]	n/a	FR1	3	R1061T
2273.331	2.583	2446044	ORIENT	n/a	n/a	n/a	-999	23	[0, 0, 0]	n/a	FR1	3	R1061T
2275.914	2.434	2448627	WORD	n/a	wordpools/wordpool_EN.txt	LAMP	1	23	[0, 0, 0]	n/a	FR1	3	R1061T
2278.348	2.566	2451061	WORD	n/a	wordpools/wordpool_EN.txt	BRIDGE	2	23	[0, 0, 0]	n/a	FR1	3	R1061T
2280.914	2.419	2453627	WORD	n/a	wordpools/wordpool_EN.txt	MOLE	3	23	[0, 0, 0]	n/a	FR1	3	R1061T
2283.333	2.616	2456046	WORD	n/a	wordpools/wordpool_EN.txt	STAIR	4	23	[0, 0, 0]	n/a	FR1	3	R1061T
2285.949	2.418	2458662	WORD	n/a	wordpools/wordpool_EN.txt	CHIEF	5	23	[0, 0, 0]	n/a	FR1	3	R1061T
2288.367	2.483	2461080	WORD	n/a	wordpools/wordpool_EN.txt	NET	6	23	[0, 0, 0]	n/a	FR1	3	R1061T
2290.85	2.434	2463562	WORD	n/a	wordpools/wordpool_EN.txt	LOCK	7	23	[0, 0, 0]	n/a	FR1	3	R1061T
2293.284	2.4	2465996	WORD	n/a	wordpools/wordpool_EN.txt	CART	8	23	[0, 0, 0]	n/a	FR1	3	R1061T
2295.684	2.434	2468396	WORD	n/a	wordpools/wordpool_EN.txt	PHONE	9	23	[0, 0, 0]	n/a	FR1	3	R1061T
2298.118	2.583	2470830	WORD	n/a	wordpools/wordpool_EN.txt	MAZE	10	23	[0, 0, 0]	n/a	FR1	3	R1061T
2300.701	2.602	2473413	WORD	n/a	wordpools/wordpool_EN.txt	FARM	11	23	[0, 0, 0]	n/a	FR1	3	R1061T
2303.303	1.616	2476015	WORD	n/a	wordpools/wordpool_EN.txt	WAND	12	23	[0, 0, 0]	n/a	FR1	3	R1061T
2304.919	0.001	2477631	DISTRACT_START	n/a	n/a	n/a	-999	23	[0, 0, 0]	n/a	FR1	3	R1061T
2304.92	0.015	2477632	START	n/a	n/a	n/a	-999	24	[-999, -999, -999]	n/a	FR1	3	R1061T
2304.935	5.768	2477647	PROB	5.768	n/a	n/a	-999	24	[8, 3, 2]	13	FR1	3	R1061T
2310.703	2.752	2483414	PROB	2.752	n/a	n/a	-999	24	[9, 5, 2]	16	FR1	3	R1061T
2313.455	2.366	2486166	PROB	2.366	n/a	n/a	-999	24	[4, 6, 3]	13	FR1	3	R1061T
2315.821	2.8	2488532	PROB	2.8	n/a	n/a	-999	24	[6, 7, 3]	16	FR1	3	R1061T
2318.621	2.601	2491332	PROB	2.601	n/a	n/a	-999	24	[1, 8, 3]	12	FR1	3	R1061T
2321.222	3.018	2493933	PROB	3.018	n/a	n/a	-999	24	[1, 6, 9]	16	FR1	3	R1061T
2324.24	3.491	2496951	PROB	3.491	n/a	n/a	-999	24	[4, 8, 8]	20	FR1	3	R1061T
2327.731	0.009	2500442	STOP	n/a	n/a	n/a	-999	24	[-999, -999, -999]	n/a	FR1	3	R1061T
2327.74	1.167	2500451	DISTRACT_END	n/a	n/a	n/a	-999	23	[0, 0, 0]	n/a	FR1	3	R1061T
2328.907	3.115	2501618	REC_START	n/a	n/a	n/a	-999	23	[0, 0, 0]	n/a	FR1	3	R1061T
2332.022	2.201	2504732	REC_WORD	2.201	n/a	WAND	-999	23	[0, 0, 0]	n/a	FR1	3	R1061T
2334.223	8.161	2506933	REC_WORD	8.161	n/a	LAMP	-999	23	[0, 0, 0]	n/a	FR1	3	R1061T
2342.384	16.54	2515094	REC_WORD	16.54	n/a	MOLE	-999	23	[0, 0, 0]	n/a	FR1	3	R1061T
2358.924	1.721	2531633	REC_END	n/a	n/a	n/a	-999	23	[0, 0, 0]	n/a	FR1	3	R1061T
2360.645	0.001	2533354	COUNTDOWN_START	n/a	n/a	n/a	-999	24	[0, 0, 0]	n/a	FR1	3	R1061T
2360.646	10.427	2533355	TRIAL	n/a	n/a	n/a	-999	24	[0, 0, 0]	n/a	FR1	3	R1061T
2371.073	0.008	2543781	COUNTDOWN_END	n/a	n/a	n/a	-999	24	[0, 0, 0]	n/a	FR1	3	R1061T
2371.081	2.518	2543789	ORIENT	n/a	n/a	n/a	-999	24	[0, 0, 0]	n/a	FR1	3	R1061T
2373.599	2.533	2546307	WORD	n/a	wordpools/wordpool_EN.txt	CLOWN	1	24	[0, 0, 0]	n/a	FR1	3	R1061T
2376.132	2.451	2548840	WORD	n/a	wordpools/wordpool_EN.txt	BOOT	2	24	[0, 0, 0]	n/a	FR1	3	R1061T
2378.583	2.616	2551291	WORD	n/a	wordpools/wordpool_EN.txt	WORM	3	24	[0, 0, 0]	n/a	FR1	3	R1061T
2381.199	2.551	2553907	WORD	n/a	wordpools/wordpool_EN.txt	DEER	4	24	[0, 0, 0]	n/a	FR1	3	R1061T
2383.75	2.384	2556458	WORD	n/a	wordpools/wordpool_EN.txt	HAWK	5	24	[0, 0, 0]	n/a	FR1	3	R1061T
2386.134	2.468	2558842	WORD	n/a	wordpools/wordpool_EN.txt	CROWN	6	24	[0, 0, 0]	n/a	FR1	3	R1061T
2388.602	2.416	2561310	WORD	n/a	wordpools/wordpool_EN.txt	PIT	7	24	[0, 0, 0]	n/a	FR1	3	R1061T
2391.018	2.485	2563726	WORD	n/a	wordpools/wordpool_EN.txt	FISH	8	24	[0, 0, 0]	n/a	FR1	3	R1061T
2393.503	2.616	2566210	WORD	n/a	wordpools/wordpool_EN.txt	MOUSE	9	24	[0, 0, 0]	n/a	FR1	3	R1061T
2396.119	2.6	2568826	WORD	n/a	wordpools/wordpool_EN.txt	STEAK	10	24	[0, 0, 0]	n/a	FR1	3	R1061T
2398.719	2.467	2571426	WORD	n/a	wordpools/wordpool_EN.txt	TAIL	11	24	[0, 0, 0]	n/a	FR1	3	R1061T
2401.186	1.617	2573893	WORD	n/a	wordpools/wordpool_EN.txt	WORLD	12	24	[0, 0, 0]	n/a	FR1	3	R1061T
2402.803	0.001	2575510	DISTRACT_START	n/a	n/a	n/a	-999	24	[0, 0, 0]	n/a	FR1	3	R1061T
2402.804	0.016	2575511	START	n/a	n/a	n/a	-999	25	[-999, -999, -999]	n/a	FR1	3	R1061T
2402.82	4.317	2575527	PROB	4.317	n/a	n/a	-999	25	[2, 2, 3]	7	FR1	3	R1061T
2407.137	3.252	2579844	PROB	3.252	n/a	n/a	-999	25	[1, 4, 5]	10	FR1	3	R1061T
2410.389	3.383	2583096	PROB	3.383	n/a	n/a	-999	25	[2, 1, 5]	8	FR1	3	R1061T
2413.772	3.618	2586478	PROB	3.618	n/a	n/a	-999	25	[5, 7, 9]	21	FR1	3	R1061T
2417.39	1.934	2590096	PROB	1.934	n/a	n/a	-999	25	[1, 6, 6]	13	FR1	3	R1061T
2419.324	2.516	2592030	PROB	2.516	n/a	n/a	-999	25	[1, 7, 7]	15	FR1	3	R1061T
2421.84	3.668	2594546	PROB	3.668	n/a	n/a	-999	25	[5, 9, 9]	23	FR1	3	R1061T
2425.508	0.017	2598214	STOP	n/a	n/a	n/a	-999	25	[-999, -999, -999]	n/a	FR1	3	R1061T
2425.525	1.051	2598231	DISTRACT_END	n/a	n/a	n/a	-999	24	[0, 0, 0]	n/a	FR1	3	R1061T
2426.576	2.643	2599282	REC_START	n/a	n/a	n/a	-999	24	[0, 0, 0]	n/a	FR1	3	R1061T
2429.219	2.203	2601925	REC_WORD	2.203	n/a	WORLD	-999	24	[0, 0, 0]	n/a	FR1	3	R1061T
2431.422	2.405	2604128	REC_WORD	2.405	n/a	TAIL	-999	24	[0, 0, 0]	n/a	FR1	3	R1061T
2433.827	2.263	2606532	REC_WORD	2.263	n/a	FISH	-999	24	[0, 0, 0]	n/a	FR1	3	R1061T
2436.09	5.836	2608795	REC_WORD	5.836	n/a	PIT	-999	24	[0, 0, 0]	n/a	FR1	3	R1061T
2441.926	5.292	2614631	REC_WORD	5.292	n/a	DEER	-999	24	[0, 0, 0]	n/a	FR1	3	R1061T
2447.218	5.463	2619923	REC_WORD	5.463	n/a	MOUSE	-999	24	[0, 0, 0]	n/a	FR1	3	R1061T
2452.681	3.907	2625385	REC_WORD	3.907	n/a	CROW	-999	24	[0, 0, 0]	n/a	FR1	3	R1061T
2456.588	2.342	2629292	REC_END	n/a	n/a	n/a	-999	24	[0, 0, 0]	n/a	FR1	3	R1061T
2458.93	0.0	2631634	TRIAL	n/a	n/a	n/a	-999	25	[0, 0, 0]	n/a	FR1	3	R1061T
2458.93	10.428	2631634	COUNTDOWN_START	n/a	n/a	n/a	-999	25	[0, 0, 0]	n/a	FR1	3	R1061T
2469.358	0.008	2642062	COUNTDOWN_END	n/a	n/a	n/a	-999	25	[0, 0, 0]	n/a	FR1	3	R1061T
2469.366	2.6	2642070	ORIENT	n/a	n/a	n/a	-999	25	[0, 0, 0]	n/a	FR1	3	R1061T
2471.966	2.468	2644670	WORD	n/a	wordpools/wordpool_EN.txt	RAT	1	25	[0, 0, 0]	n/a	FR1	3	R1061T
2474.434	2.599	2647137	WORD	n/a	wordpools/wordpool_EN.txt	CAT	2	25	[0, 0, 0]	n/a	FR1	3	R1061T
2477.033	2.469	2649736	WORD	n/a	wordpools/wordpool_EN.txt	ANT	3	25	[0, 0, 0]	n/a	FR1	3	R1061T
2479.502	2.616	2652205	WORD	n/a	wordpools/wordpool_EN.txt	FOOD	4	25	[0, 0, 0]	n/a	FR1	3	R1061T
2482.118	2.517	2654821	WORD	n/a	wordpools/wordpool_EN.txt	STORE	5	25	[0, 0, 0]	n/a	FR1	3	R1061T
2484.635	2.517	2657338	WORD	n/a	wordpools/wordpool_EN.txt	BANK	6	25	[0, 0, 0]	n/a	FR1	3	R1061T
2487.152	2.484	2659855	WORD	n/a	wordpools/wordpool_EN.txt	DUCK	7	25	[0, 0, 0]	n/a	FR1	3	R1061T
2489.636	2.618	2662339	WORD	n/a	wordpools/wordpool_EN.txt	PIG	8	25	[0, 0, 0]	n/a	FR1	3	R1061T
2492.254	2.616	2664957	WORD	n/a	wordpools/wordpool_EN.txt	GEESE	9	25	[0, 0, 0]	n/a	FR1	3	R1061T
2494.87	2.485	2667572	WORD	n/a	wordpools/wordpool_EN.txt	WOLF	10	25	[0, 0, 0]	n/a	FR1	3	R1061T
2497.355	2.533	2670057	WORD	n/a	wordpools/wordpool_EN.txt	FLUTE	11	25	[0, 0, 0]	n/a	FR1	3	R1061T
2499.888	1.618	2672590	WORD	n/a	wordpools/wordpool_EN.txt	LAMB	12	25	[0, 0, 0]	n/a	FR1	3	R1061T
2501.506	0.001	2674208	DISTRACT_START	n/a	n/a	n/a	-999	25	[0, 0, 0]	n/a	FR1	3	R1061T
2501.507	0.015	2674209	START	n/a	n/a	n/a	-999	26	[-999, -999, -999]	n/a	FR1	3	R1061T
2501.522	4.3	2674224	PROB	4.3	n/a	n/a	-999	26	[2, 2, 5]	9	FR1	3	R1061T
2505.822	2.518	2678524	PROB	2.518	n/a	n/a	-999	26	[1, 2, 4]	7	FR1	3	R1061T
2508.34	2.201	2681042	PROB	2.201	n/a	n/a	-999	26	[7, 2, 4]	13	FR1	3	R1061T
2510.541	3.299	2683243	PROB	3.299	n/a	n/a	-999	26	[8, 5, 3]	16	FR1	3	R1061T
2513.84	2.784	2686541	PROB	2.784	n/a	n/a	-999	26	[8, 3, 8]	19	FR1	3	R1061T
2516.624	2.367	2689325	PROB	2.367	n/a	n/a	-999	26	[4, 2, 5]	11	FR1	3	R1061T
2518.991	3.477	2691692	PROB	3.477	n/a	n/a	-999	26	[4, 1, 1]	6	FR1	3	R1061T
2522.468	0.008	2695169	STOP	n/a	n/a	n/a	-999	26	[-999, -999, -999]	n/a	FR1	3	R1061T
2522.476	1.166	2695177	DISTRACT_END	n/a	n/a	n/a	-999	25	[0, 0, 0]	n/a	FR1	3	R1061T
2523.642	2.954	2696343	REC_START	n/a	n/a	n/a	-999	25	[0, 0, 0]	n/a	FR1	3	R1061T
2526.596	2.181	2699297	REC_WORD	2.181	n/a	RAT	-999	25	[0, 0, 0]	n/a	FR1	3	R1061T
2528.777	2.816	2701478	REC_WORD	2.816	n/a	CAT	-999	25	[0, 0, 0]	n/a	FR1	3	R1061T
2531.593	2.65	2704294	REC_WORD	2.65	n/a	GEESE	-999	25	[0, 0, 0]	n/a	FR1	3	R1061T
2534.243	2.695	2706943	REC_WORD	2.695	n/a	DUCK	-999	25	[0, 0, 0]	n/a	FR1	3	R1061T
2536.938	2.433	2709638	REC_WORD	2.433	n/a	WOLF	-999	25	[0, 0, 0]	n/a	FR1	3	R1061T
2539.371	6.489	2712071	REC_WORD	6.489	n/a	FLUTE	-999	25	[0, 0, 0]	n/a	FR1	3	R1061T
2545.86	4.42	2718560	REC_WORD	4.42	n/a	ANT	-999	25	[0, 0, 0]	n/a	FR1	3	R1061T
2550.28	2.668	2722980	REC_WORD	2.668	n/a	STORE	-999	25	[0, 0, 0]	n/a	FR1	3	R1061T
2552.948	0.712	2725648	REC_WORD	0.712	n/a	FOOD	-999	25	[0, 0, 0]	n/a	FR1	3	R1061T
2553.66	5.089	2726360	REC_END	n/a	n/a	n/a	-999	25	[0, 0, 0]	n/a	FR1	3	R1061T
2558.749	0.0	2731448	SESS_END	n/a	n/a	n/a	-999	25	[0, 0, 0]	n/a	FR1	3	R1061T
