onset	duration	sample	trial_type	response_time	stim_file	item_name	serialpos	list	test	answer	experiment	session	subject
0.0	3542.067	-1	INSTRUCT_START	n/a	n/a	n/a	-999	-999	[0, 0, 0]	n/a	FR1	1	R1299T
3542.067	33.167	548	INSTRUCT_START	n/a	n/a	n/a	-999	-999	[0, 0, 0]	n/a	FR1	1	R1299T
3575.234	4.684	33714	INSTRUCT_END	n/a	n/a	n/a	-999	-999	[0, 0, 0]	n/a	FR1	1	R1299T
3579.918	8.306	38397	MIC TEST_START	n/a	n/a	n/a	-999	-999	[0, 0, 0]	n/a	FR1	1	R1299T
3588.224	0.012	46703	MIC TEST_END	n/a	n/a	n/a	-999	-999	[0, 0, 0]	n/a	FR1	1	R1299T
3588.236	0.001	46715	TRIAL_START	n/a	n/a	n/a	-999	-1	[0, 0, 0]	n/a	FR1	1	R1299T
3588.237	0.0	46716	TRIAL	n/a	n/a	n/a	-999	-1	[0, 0, 0]	n/a	FR1	1	R1299T
3588.237	16.669	46716	WAITING_START	n/a	n/a	n/a	-999	-1	[0, 0, 0]	n/a	FR1	1	R1299T
3604.906	0.0	63384	COUNTDOWN_START	n/a	n/a	n/a	-999	-1	[0, 0, 0]	n/a	FR1	1	R1299T
3604.906	10.429	63384	WAITING_END	n/a	n/a	n/a	-999	-1	[0, 0, 0]	n/a	FR1	1	R1299T
3615.335	0.0	73813	COUNTDOWN_END	n/a	n/a	n/a	-999	-1	[0, 0, 0]	n/a	FR1	1	R1299T
3615.335	1.106	73813	ORIENT_START	n/a	n/a	n/a	-999	-1	[0, 0, 0]	n/a	FR1	1	R1299T
3616.441	0.001	74919	ORIENT_END	n/a	n/a	n/a	-999	-1	[0, 0, 0]	n/a	FR1	1	R1299T
3616.442	0.968	74920	ENCODING_START	n/a	n/a	n/a	-999	-1	[0, 0, 0]	n/a	FR1	1	R1299T
3617.41	1.632	75888	WORD	n/a	n/a	ATTIC	1	-1	[0, 0, 0]	n/a	FR1	1	R1299T
3619.042	1.143	77520	WORD_OFF	n/a	n/a	ATTIC	1	-1	[0, 0, 0]	n/a	FR1	1	R1299T
3620.185	1.624	78663	WORD	n/a	n/a	BEAM	2	-1	[0, 0, 0]	n/a	FR1	1	R1299T
3621.809	1.046	80287	WORD_OFF	n/a	n/a	BEAM	2	-1	[0, 0, 0]	n/a	FR1	1	R1299T
3622.855	1.638	81333	WORD	n/a	n/a	CAMEL	3	-1	[0, 0, 0]	n/a	FR1	1	R1299T
3624.493	1.044	82970	WORD_OFF	n/a	n/a	CAMEL	3	-1	[0, 0, 0]	n/a	FR1	1	R1299T
3625.537	1.623	84014	WORD	n/a	n/a	CHEST	4	-1	[0, 0, 0]	n/a	FR1	1	R1299T
3627.16	1.017	85637	WORD_OFF	n/a	n/a	CHEST	4	-1	[0, 0, 0]	n/a	FR1	1	R1299T
3628.177	1.633	86654	WORD	n/a	n/a	COTTON	5	-1	[0, 0, 0]	n/a	FR1	1	R1299T
3629.81	1.044	88287	WORD_OFF	n/a	n/a	COTTON	5	-1	[0, 0, 0]	n/a	FR1	1	R1299T
3630.854	1.623	89331	WORD	n/a	n/a	FLOOD	6	-1	[0, 0, 0]	n/a	FR1	1	R1299T
3632.477	0.874	90954	WORD_OFF	n/a	n/a	FLOOD	6	-1	[0, 0, 0]	n/a	FR1	1	R1299T
3633.351	1.627	91828	WORD	n/a	n/a	IRON	7	-1	[0, 0, 0]	n/a	FR1	1	R1299T
3634.978	0.881	93455	WORD_OFF	n/a	n/a	IRON	7	-1	[0, 0, 0]	n/a	FR1	1	R1299T
3635.859	1.636	94336	WORD	n/a	n/a	RHINO	8	-1	[0, 0, 0]	n/a	FR1	1	R1299T
3637.495	0.756	95972	WORD_OFF	n/a	n/a	RHINO	8	-1	[0, 0, 0]	n/a	FR1	1	R1299T
3638.251	1.628	96728	WORD	n/a	n/a	RING	9	-1	[0, 0, 0]	n/a	FR1	1	R1299T
3639.879	1.068	98356	WORD_OFF	n/a	n/a	RING	9	-1	[0, 0, 0]	n/a	FR1	1	R1299T
3640.947	1.632	99424	WORD	n/a	n/a	TONGUE	10	-1	[0, 0, 0]	n/a	FR1	1	R1299T
3642.579	0.868	101056	WORD_OFF	n/a	n/a	TONGUE	10	-1	[0, 0, 0]	n/a	FR1	1	R1299T
3643.447	1.632	101924	WORD	n/a	n/a	WAGON	11	-1	[0, 0, 0]	n/a	FR1	1	R1299T
3645.079	0.772	103556	WORD_OFF	n/a	n/a	WAGON	11	-1	[0, 0, 0]	n/a	FR1	1	R1299T
3645.851	1.629	104328	WORD	n/a	n/a	WATCH	12	-1	[0, 0, 0]	n/a	FR1	1	R1299T
3647.48	0.0	105956	WORD_OFF	n/a	n/a	WATCH	12	-1	[0, 0, 0]	n/a	FR1	1	R1299T
3647.48	0.001	105956	ENCODING_END	n/a	n/a	n/a	-999	-1	[0, 0, 0]	n/a	FR1	1	R1299T
3647.481	0.0	105957	DISTRACT_START	n/a	n/a	n/a	-999	-1	[0, 0, 0]	n/a	FR1	1	R1299T
3647.481	0.016	105957	START	n/a	n/a	n/a	-999	-1	[-999, -999, -999]	n/a	FR1	1	R1299T
3647.497	6.001	105973	PROB	6.001	n/a	n/a	-999	-1	[2, 8, 1]	11	FR1	1	R1299T
3653.498	7.668	111974	PROB	7.668	n/a	n/a	-999	-1	[1, 5, 7]	13	FR1	1	R1299T
3661.166	7.311	119642	PROB	7.311	n/a	n/a	-999	-1	[3, 6, 5]	14	FR1	1	R1299T
3668.477	0.007	126953	STOP	n/a	n/a	n/a	-999	-1	[-999, -999, -999]	n/a	FR1	1	R1299T
3668.484	0.525	126960	DISTRACT_END	n/a	n/a	n/a	-999	-1	[0, 0, 0]	n/a	FR1	1	R1299T
3669.009	1.592	127485	RETRIEVAL_ORIENT_START	n/a	n/a	n/a	-999	-1	[0, 0, 0]	n/a	FR1	1	R1299T
3670.601	0.0	129076	RETRIEVAL_ORIENT_END	n/a	n/a	n/a	-999	-1	[0, 0, 0]	n/a	FR1	1	R1299T
3670.601	1.694	129076	REC_START	n/a	n/a	n/a	-999	-1	[0, 0, 0]	n/a	FR1	1	R1299T
3672.295	0.789	130770	REC_WORD_VV	0.789	n/a	<>	-999	-1	[0, 0, 0]	n/a	FR1	1	R1299T
3673.084	1.604	131559	REC_WORD	1.604	n/a	ATTIC	-999	-1	[0, 0, 0]	n/a	FR1	1	R1299T
3674.688	25.925	133163	REC_WORD	25.925	n/a	RHINO	-999	-1	[0, 0, 0]	n/a	FR1	1	R1299T
3700.613	0.0	159087	REC_END	n/a	n/a	n/a	-999	-1	[0, 0, 0]	n/a	FR1	1	R1299T
3700.613	11.612	159087	PRACTICE_POST_INSTRUCT_START	n/a	n/a	n/a	-999	-1	[0, 0, 0]	n/a	FR1	1	R1299T
3712.225	0.0	170699	PRACTICE_POST_INSTRUCT_END	n/a	n/a	n/a	-999	-1	[0, 0, 0]	n/a	FR1	1	R1299T
3712.225	0.019	170699	TRIAL_END	n/a	n/a	n/a	-999	-1	[0, 0, 0]	n/a	FR1	1	R1299T
3712.244	0.0	170718	TRIAL_START	n/a	n/a	n/a	-999	1	[0, 0, 0]	n/a	FR1	1	R1299T
3712.244	0.0	170718	TRIAL	n/a	n/a	n/a	-999	1	[0, 0, 0]	n/a	FR1	1	R1299T
3712.244	16.168	170718	WAITING_START	n/a	n/a	n/a	-999	1	[0, 0, 0]	n/a	FR1	1	R1299T
3728.412	0.0	186885	COUNTDOWN_START	n/a	n/a	n/a	-999	1	[0, 0, 0]	n/a	FR1	1	R1299T
3728.412	10.429	186885	WAITING_END	n/a	n/a	n/a	-999	1	[0, 0, 0]	n/a	FR1	1	R1299T
3738.841	0.0	197313	COUNTDOWN_END	n/a	n/a	n/a	-999	1	[0, 0, 0]	n/a	FR1	1	R1299T
3738.841	1.089	197313	ORIENT_START	n/a	n/a	n/a	-999	1	[0, 0, 0]	n/a	FR1	1	R1299T
3739.93	0.001	198402	ORIENT_END	n/a	n/a	n/a	-999	1	[0, 0, 0]	n/a	FR1	1	R1299T
3739.931	0.836	198403	ENCODING_START	n/a	n/a	n/a	-999	1	[0, 0, 0]	n/a	FR1	1	R1299T
3740.767	1.63	199239	WORD	n/a	wordpools/wordpool_EN.txt	EAR	1	1	[0, 0, 0]	n/a	FR1	1	R1299T
3742.397	0.862	200869	WORD_OFF	n/a	n/a	EAR	1	1	[0, 0, 0]	n/a	FR1	1	R1299T
3743.259	1.622	201731	WORD	n/a	wordpools/wordpool_EN.txt	SWORD	2	1	[0, 0, 0]	n/a	FR1	1	R1299T
3744.881	1.084	203353	WORD_OFF	n/a	n/a	SWORD	2	1	[0, 0, 0]	n/a	FR1	1	R1299T
3745.965	1.633	204437	WORD	n/a	wordpools/wordpool_EN.txt	MILK	3	1	[0, 0, 0]	n/a	FR1	1	R1299T
3747.598	1.061	206070	WORD_OFF	n/a	n/a	MILK	3	1	[0, 0, 0]	n/a	FR1	1	R1299T
3748.659	1.623	207131	WORD	n/a	wordpools/wordpool_EN.txt	SPOON	4	1	[0, 0, 0]	n/a	FR1	1	R1299T
3750.282	0.981	208754	WORD_OFF	n/a	n/a	SPOON	4	1	[0, 0, 0]	n/a	FR1	1	R1299T
3751.263	1.636	209735	WORD	n/a	wordpools/wordpool_EN.txt	CART	5	1	[0, 0, 0]	n/a	FR1	1	R1299T
3752.899	1.137	211371	WORD_OFF	n/a	n/a	CART	5	1	[0, 0, 0]	n/a	FR1	1	R1299T
3754.036	1.63	212508	WORD	n/a	wordpools/wordpool_EN.txt	CROWN	6	1	[0, 0, 0]	n/a	FR1	1	R1299T
3755.666	0.977	214138	WORD_OFF	n/a	n/a	CROWN	6	1	[0, 0, 0]	n/a	FR1	1	R1299T
3756.643	1.624	215115	WORD	n/a	wordpools/wordpool_EN.txt	SLUSH	7	1	[0, 0, 0]	n/a	FR1	1	R1299T
3758.267	0.803	216739	WORD_OFF	n/a	n/a	SLUSH	7	1	[0, 0, 0]	n/a	FR1	1	R1299T
3759.07	1.631	217542	WORD	n/a	wordpools/wordpool_EN.txt	SAIL	8	1	[0, 0, 0]	n/a	FR1	1	R1299T
3760.701	1.076	219173	WORD_OFF	n/a	n/a	SAIL	8	1	[0, 0, 0]	n/a	FR1	1	R1299T
3761.777	1.624	220248	WORD	n/a	wordpools/wordpool_EN.txt	WOLF	9	1	[0, 0, 0]	n/a	FR1	1	R1299T
3763.401	0.928	221872	WORD_OFF	n/a	n/a	WOLF	9	1	[0, 0, 0]	n/a	FR1	1	R1299T
3764.329	1.606	222800	WORD	n/a	wordpools/wordpool_EN.txt	HOOK	10	1	[0, 0, 0]	n/a	FR1	1	R1299T
3765.935	1.151	224406	WORD_OFF	n/a	n/a	HOOK	10	1	[0, 0, 0]	n/a	FR1	1	R1299T
3767.086	1.633	225557	WORD	n/a	wordpools/wordpool_EN.txt	LAMB	11	1	[0, 0, 0]	n/a	FR1	1	R1299T
3768.719	1.115	227190	WORD_OFF	n/a	n/a	LAMB	11	1	[0, 0, 0]	n/a	FR1	1	R1299T
3769.834	1.635	228305	WORD	n/a	wordpools/wordpool_EN.txt	LEG	12	1	[0, 0, 0]	n/a	FR1	1	R1299T
3771.469	0.001	229940	WORD_OFF	n/a	n/a	LEG	12	1	[0, 0, 0]	n/a	FR1	1	R1299T
3771.47	0.0	229941	ENCODING_END	n/a	n/a	n/a	-999	1	[0, 0, 0]	n/a	FR1	1	R1299T
3771.47	0.0	229941	DISTRACT_START	n/a	n/a	n/a	-999	1	[0, 0, 0]	n/a	FR1	1	R1299T
3771.47	0.016	229941	START	n/a	n/a	n/a	-999	1	[-999, -999, -999]	n/a	FR1	1	R1299T
3771.486	5.784	229957	PROB	5.784	n/a	n/a	-999	1	[3, 6, 9]	18	FR1	1	R1299T
3777.27	5.284	235741	PROB	5.284	n/a	n/a	-999	1	[6, 7, 3]	16	FR1	1	R1299T
3782.554	5.851	241025	PROB	5.851	n/a	n/a	-999	1	[3, 1, 8]	12	FR1	1	R1299T
3788.405	6.795	246875	PROB	6.795	n/a	n/a	-999	1	[9, 3, 6]	18	FR1	1	R1299T
3795.2	0.006	253670	STOP	n/a	n/a	n/a	-999	1	[-999, -999, -999]	n/a	FR1	1	R1299T
3795.206	0.587	253676	DISTRACT_END	n/a	n/a	n/a	-999	1	[0, 0, 0]	n/a	FR1	1	R1299T
3795.793	1.714	254263	RETRIEVAL_ORIENT_START	n/a	n/a	n/a	-999	1	[0, 0, 0]	n/a	FR1	1	R1299T
3797.507	0.001	255977	RETRIEVAL_ORIENT_END	n/a	n/a	n/a	-999	1	[0, 0, 0]	n/a	FR1	1	R1299T
3797.508	1.563	255978	REC_START	n/a	n/a	n/a	-999	1	[0, 0, 0]	n/a	FR1	1	R1299T
3799.071	2.746	257541	REC_WORD	2.746	n/a	SWORD	2	1	[0, 0, 0]	n/a	FR1	1	R1299T
3801.817	2.551	260287	REC_WORD	2.551	n/a	EAR	1	1	[0, 0, 0]	n/a	FR1	1	R1299T
3804.368	1.0	262838	REC_WORD	1.0	n/a	SLUSH	7	1	[0, 0, 0]	n/a	FR1	1	R1299T
3805.368	22.153	263838	REC_WORD_VV	22.153	n/a	<>	-999	1	[0, 0, 0]	n/a	FR1	1	R1299T
3827.521	0.0	285990	REC_END	n/a	n/a	n/a	-999	1	[0, 0, 0]	n/a	FR1	1	R1299T
3827.521	0.014	285990	TRIAL_END	n/a	n/a	n/a	-999	1	[0, 0, 0]	n/a	FR1	1	R1299T
3827.535	0.0	286004	TRIAL_START	n/a	n/a	n/a	-999	2	[0, 0, 0]	n/a	FR1	1	R1299T
3827.535	0.0	286004	TRIAL	n/a	n/a	n/a	-999	2	[0, 0, 0]	n/a	FR1	1	R1299T
3827.535	5.996	286004	WAITING_START	n/a	n/a	n/a	-999	2	[0, 0, 0]	n/a	FR1	1	R1299T
3833.531	0.0	291999	COUNTDOWN_START	n/a	n/a	n/a	-999	2	[0, 0, 0]	n/a	FR1	1	R1299T
3833.531	10.429	291999	WAITING_END	n/a	n/a	n/a	-999	2	[0, 0, 0]	n/a	FR1	1	R1299T
3843.96	0.0	302428	COUNTDOWN_END	n/a	n/a	n/a	-999	2	[0, 0, 0]	n/a	FR1	1	R1299T
3843.96	1.172	302428	ORIENT_START	n/a	n/a	n/a	-999	2	[0, 0, 0]	n/a	FR1	1	R1299T
3845.132	0.001	303600	ORIENT_END	n/a	n/a	n/a	-999	2	[0, 0, 0]	n/a	FR1	1	R1299T
3845.133	0.882	303601	ENCODING_START	n/a	n/a	n/a	-999	2	[0, 0, 0]	n/a	FR1	1	R1299T
3846.015	1.635	304483	WORD	n/a	wordpools/wordpool_EN.txt	TOOL	1	2	[0, 0, 0]	n/a	FR1	1	R1299T
3847.65	0.781	306118	WORD_OFF	n/a	n/a	TOOL	1	2	[0, 0, 0]	n/a	FR1	1	R1299T
3848.431	1.636	306899	WORD	n/a	wordpools/wordpool_EN.txt	BRICK	2	2	[0, 0, 0]	n/a	FR1	1	R1299T
3850.067	1.079	308535	WORD_OFF	n/a	n/a	BRICK	2	2	[0, 0, 0]	n/a	FR1	1	R1299T
3851.146	1.638	309614	WORD	n/a	wordpools/wordpool_EN.txt	TANK	3	2	[0, 0, 0]	n/a	FR1	1	R1299T
3852.784	1.083	311251	WORD_OFF	n/a	n/a	TANK	3	2	[0, 0, 0]	n/a	FR1	1	R1299T
3853.867	1.634	312334	WORD	n/a	wordpools/wordpool_EN.txt	SQUARE	4	2	[0, 0, 0]	n/a	FR1	1	R1299T
3855.501	0.984	313968	WORD_OFF	n/a	n/a	SQUARE	4	2	[0, 0, 0]	n/a	FR1	1	R1299T
3856.485	1.633	314952	WORD	n/a	wordpools/wordpool_EN.txt	RAIN	5	2	[0, 0, 0]	n/a	FR1	1	R1299T
3858.118	0.935	316585	WORD_OFF	n/a	n/a	RAIN	5	2	[0, 0, 0]	n/a	FR1	1	R1299T
3859.053	1.632	317520	WORD	n/a	wordpools/wordpool_EN.txt	POOL	6	2	[0, 0, 0]	n/a	FR1	1	R1299T
3860.685	0.829	319152	WORD_OFF	n/a	n/a	POOL	6	2	[0, 0, 0]	n/a	FR1	1	R1299T
3861.514	1.639	319981	WORD	n/a	wordpools/wordpool_EN.txt	CLOCK	7	2	[0, 0, 0]	n/a	FR1	1	R1299T
3863.153	1.137	321620	WORD_OFF	n/a	n/a	CLOCK	7	2	[0, 0, 0]	n/a	FR1	1	R1299T
3864.29	1.63	322757	WORD	n/a	wordpools/wordpool_EN.txt	MOOSE	8	2	[0, 0, 0]	n/a	FR1	1	R1299T
3865.92	0.808	324387	WORD_OFF	n/a	n/a	MOOSE	8	2	[0, 0, 0]	n/a	FR1	1	R1299T
3866.728	1.626	325195	WORD	n/a	wordpools/wordpool_EN.txt	POND	9	2	[0, 0, 0]	n/a	FR1	1	R1299T
3868.354	0.779	326821	WORD_OFF	n/a	n/a	POND	9	2	[0, 0, 0]	n/a	FR1	1	R1299T
3869.133	1.638	327600	WORD	n/a	wordpools/wordpool_EN.txt	BENCH	10	2	[0, 0, 0]	n/a	FR1	1	R1299T
3870.771	0.99	329238	WORD_OFF	n/a	n/a	BENCH	10	2	[0, 0, 0]	n/a	FR1	1	R1299T
3871.761	1.627	330228	WORD	n/a	wordpools/wordpool_EN.txt	PURSE	11	2	[0, 0, 0]	n/a	FR1	1	R1299T
3873.388	0.785	331855	WORD_OFF	n/a	n/a	PURSE	11	2	[0, 0, 0]	n/a	FR1	1	R1299T
3874.173	1.632	332640	WORD	n/a	wordpools/wordpool_EN.txt	LEAF	12	2	[0, 0, 0]	n/a	FR1	1	R1299T
3875.805	0.0	334271	DISTRACT_START	n/a	n/a	n/a	-999	2	[0, 0, 0]	n/a	FR1	1	R1299T
3875.805	0.0	334271	ENCODING_END	n/a	n/a	n/a	-999	2	[0, 0, 0]	n/a	FR1	1	R1299T
3875.805	0.001	334271	WORD_OFF	n/a	n/a	LEAF	12	2	[0, 0, 0]	n/a	FR1	1	R1299T
3875.806	0.015	334272	START	n/a	n/a	n/a	-999	2	[-999, -999, -999]	n/a	FR1	1	R1299T
3875.821	8.302	334287	PROB	8.302	n/a	n/a	-999	2	[5, 8, 3]	16	FR1	1	R1299T
3884.123	10.318	342589	PROB	10.318	n/a	n/a	-999	2	[4, 7, 9]	20	FR1	1	R1299T
3894.441	7.863	352907	PROB	7.863	n/a	n/a	-999	2	[9, 8, 3]	20	FR1	1	R1299T
3902.304	0.022	360769	STOP	n/a	n/a	n/a	-999	2	[-999, -999, -999]	n/a	FR1	1	R1299T
3902.326	0.556	360791	DISTRACT_END	n/a	n/a	n/a	-999	2	[0, 0, 0]	n/a	FR1	1	R1299T
3902.882	1.678	361347	RETRIEVAL_ORIENT_START	n/a	n/a	n/a	-999	2	[0, 0, 0]	n/a	FR1	1	R1299T
3904.56	0.001	363025	RETRIEVAL_ORIENT_END	n/a	n/a	n/a	-999	2	[0, 0, 0]	n/a	FR1	1	R1299T
3904.561	4.784	363026	REC_START	n/a	n/a	n/a	-999	2	[0, 0, 0]	n/a	FR1	1	R1299T
3909.345	25.229	367810	REC_WORD_VV	25.229	n/a	<>	-999	2	[0, 0, 0]	n/a	FR1	1	R1299T
3934.574	0.0	393038	REC_END	n/a	n/a	n/a	-999	2	[0, 0, 0]	n/a	FR1	1	R1299T
3934.574	0.015	393038	TRIAL_END	n/a	n/a	n/a	-999	2	[0, 0, 0]	n/a	FR1	1	R1299T
3934.589	0.001	393053	TRIAL_START	n/a	n/a	n/a	-999	3	[0, 0, 0]	n/a	FR1	1	R1299T
3934.59	0.0	393054	TRIAL	n/a	n/a	n/a	-999	3	[0, 0, 0]	n/a	FR1	1	R1299T
3934.59	9.694	393054	WAITING_START	n/a	n/a	n/a	-999	3	[0, 0, 0]	n/a	FR1	1	R1299T
3944.284	0.0	402747	WAITING_END	n/a	n/a	n/a	-999	3	[0, 0, 0]	n/a	FR1	1	R1299T
3944.284	10.429	402747	COUNTDOWN_START	n/a	n/a	n/a	-999	3	[0, 0, 0]	n/a	FR1	1	R1299T
3954.713	0.0	413176	COUNTDOWN_END	n/a	n/a	n/a	-999	3	[0, 0, 0]	n/a	FR1	1	R1299T
3954.713	1.04	413176	ORIENT_START	n/a	n/a	n/a	-999	3	[0, 0, 0]	n/a	FR1	1	R1299T
3955.753	0.0	414216	ORIENT_END	n/a	n/a	n/a	-999	3	[0, 0, 0]	n/a	FR1	1	R1299T
3955.753	0.87	414216	ENCODING_START	n/a	n/a	n/a	-999	3	[0, 0, 0]	n/a	FR1	1	R1299T
3956.623	1.63	415086	WORD	n/a	wordpools/wordpool_EN.txt	EEL	1	3	[0, 0, 0]	n/a	FR1	1	R1299T
3958.253	0.867	416716	WORD_OFF	n/a	n/a	EEL	1	3	[0, 0, 0]	n/a	FR1	1	R1299T
3959.12	1.634	417583	WORD	n/a	wordpools/wordpool_EN.txt	FLOOR	2	3	[0, 0, 0]	n/a	FR1	1	R1299T
3960.754	1.136	419217	WORD_OFF	n/a	n/a	FLOOR	2	3	[0, 0, 0]	n/a	FR1	1	R1299T
3961.89	1.631	420353	WORD	n/a	wordpools/wordpool_EN.txt	BAT	3	3	[0, 0, 0]	n/a	FR1	1	R1299T
3963.521	0.781	421984	WORD_OFF	n/a	n/a	BAT	3	3	[0, 0, 0]	n/a	FR1	1	R1299T
3964.302	1.636	422765	WORD	n/a	wordpools/wordpool_EN.txt	FENCE	4	3	[0, 0, 0]	n/a	FR1	1	R1299T
3965.938	1.061	424401	WORD_OFF	n/a	n/a	FENCE	4	3	[0, 0, 0]	n/a	FR1	1	R1299T
3966.999	1.623	425461	WORD	n/a	wordpools/wordpool_EN.txt	STORM	5	3	[0, 0, 0]	n/a	FR1	1	R1299T
3968.622	0.817	427084	WORD_OFF	n/a	n/a	STORM	5	3	[0, 0, 0]	n/a	FR1	1	R1299T
3969.439	1.633	427901	WORD	n/a	wordpools/wordpool_EN.txt	BIRD	6	3	[0, 0, 0]	n/a	FR1	1	R1299T
3971.072	0.841	429534	WORD_OFF	n/a	n/a	BIRD	6	3	[0, 0, 0]	n/a	FR1	1	R1299T
3971.913	1.626	430375	WORD	n/a	wordpools/wordpool_EN.txt	CORN	7	3	[0, 0, 0]	n/a	FR1	1	R1299T
3973.539	1.072	432001	WORD_OFF	n/a	n/a	CORN	7	3	[0, 0, 0]	n/a	FR1	1	R1299T
3974.611	1.629	433073	WORD	n/a	wordpools/wordpool_EN.txt	FOOT	8	3	[0, 0, 0]	n/a	FR1	1	R1299T
3976.24	1.027	434702	WORD_OFF	n/a	n/a	FOOT	8	3	[0, 0, 0]	n/a	FR1	1	R1299T
3977.267	1.623	435729	WORD	n/a	wordpools/wordpool_EN.txt	TOAD	9	3	[0, 0, 0]	n/a	FR1	1	R1299T
3978.89	1.099	437352	WORD_OFF	n/a	n/a	TOAD	9	3	[0, 0, 0]	n/a	FR1	1	R1299T
3979.989	1.635	438451	WORD	n/a	wordpools/wordpool_EN.txt	OWL	10	3	[0, 0, 0]	n/a	FR1	1	R1299T
3981.624	0.964	440086	WORD_OFF	n/a	n/a	OWL	10	3	[0, 0, 0]	n/a	FR1	1	R1299T
3982.588	1.636	441050	WORD	n/a	wordpools/wordpool_EN.txt	TOAST	11	3	[0, 0, 0]	n/a	FR1	1	R1299T
3984.224	0.784	442686	WORD_OFF	n/a	n/a	TOAST	11	3	[0, 0, 0]	n/a	FR1	1	R1299T
3985.008	1.634	443470	WORD	n/a	wordpools/wordpool_EN.txt	BOOT	12	3	[0, 0, 0]	n/a	FR1	1	R1299T
3986.642	0.0	445104	WORD_OFF	n/a	n/a	BOOT	12	3	[0, 0, 0]	n/a	FR1	1	R1299T
3986.642	0.001	445104	ENCODING_END	n/a	n/a	n/a	-999	3	[0, 0, 0]	n/a	FR1	1	R1299T
3986.643	0.0	445105	DISTRACT_START	n/a	n/a	n/a	-999	3	[0, 0, 0]	n/a	FR1	1	R1299T
3986.643	0.015	445105	START	n/a	n/a	n/a	-999	3	[-999, -999, -999]	n/a	FR1	1	R1299T
3986.658	8.567	445120	PROB	8.567	n/a	n/a	-999	3	[8, 4, 1]	13	FR1	1	R1299T
3995.225	5.369	453686	PROB	5.369	n/a	n/a	-999	3	[2, 6, 1]	9	FR1	1	R1299T
4000.594	5.634	459055	PROB	5.634	n/a	n/a	-999	3	[8, 1, 5]	14	FR1	1	R1299T
4006.228	7.291	464689	PROB	7.291	n/a	n/a	-999	3	[1, 1, 2]	4	FR1	1	R1299T
4013.519	0.011	471979	STOP	n/a	n/a	n/a	-999	3	[-999, -999, -999]	n/a	FR1	1	R1299T
4013.53	0.521	471990	DISTRACT_END	n/a	n/a	n/a	-999	3	[0, 0, 0]	n/a	FR1	1	R1299T
4014.051	1.696	472511	RETRIEVAL_ORIENT_START	n/a	n/a	n/a	-999	3	[0, 0, 0]	n/a	FR1	1	R1299T
4015.747	0.0	474207	REC_START	n/a	n/a	n/a	-999	3	[0, 0, 0]	n/a	FR1	1	R1299T
4015.747	0.518	474207	RETRIEVAL_ORIENT_END	n/a	n/a	n/a	-999	3	[0, 0, 0]	n/a	FR1	1	R1299T
4016.265	0.99	474725	REC_WORD_VV	0.99	n/a	<>	-999	3	[0, 0, 0]	n/a	FR1	1	R1299T
4017.255	2.042	475715	REC_WORD	2.042	n/a	OWL	10	3	[0, 0, 0]	n/a	FR1	1	R1299T
4019.297	3.221	477757	REC_WORD	3.221	n/a	FOOT	8	3	[0, 0, 0]	n/a	FR1	1	R1299T
4022.518	23.243	480978	REC_WORD	23.243	n/a	BOOT	12	3	[0, 0, 0]	n/a	FR1	1	R1299T
4045.761	0.0	504220	REC_END	n/a	n/a	n/a	-999	3	[0, 0, 0]	n/a	FR1	1	R1299T
4045.761	0.014	504220	TRIAL_END	n/a	n/a	n/a	-999	3	[0, 0, 0]	n/a	FR1	1	R1299T
4045.775	0.0	504234	TRIAL	n/a	n/a	n/a	-999	4	[0, 0, 0]	n/a	FR1	1	R1299T
4045.775	0.0	504234	WAITING_START	n/a	n/a	n/a	-999	4	[0, 0, 0]	n/a	FR1	1	R1299T
4045.775	16.764	504234	TRIAL_START	n/a	n/a	n/a	-999	4	[0, 0, 0]	n/a	FR1	1	R1299T
4062.539	0.0	520997	WAITING_END	n/a	n/a	n/a	-999	4	[0, 0, 0]	n/a	FR1	1	R1299T
4062.539	10.429	520997	COUNTDOWN_START	n/a	n/a	n/a	-999	4	[0, 0, 0]	n/a	FR1	1	R1299T
4072.968	0.001	531426	COUNTDOWN_END	n/a	n/a	n/a	-999	4	[0, 0, 0]	n/a	FR1	1	R1299T
4072.969	1.105	531427	ORIENT_START	n/a	n/a	n/a	-999	4	[0, 0, 0]	n/a	FR1	1	R1299T
4074.074	0.001	532532	ORIENT_END	n/a	n/a	n/a	-999	4	[0, 0, 0]	n/a	FR1	1	R1299T
4074.075	0.749	532533	ENCODING_START	n/a	n/a	n/a	-999	4	[0, 0, 0]	n/a	FR1	1	R1299T
4074.824	1.634	533282	WORD	n/a	wordpools/wordpool_EN.txt	FARM	1	4	[0, 0, 0]	n/a	FR1	1	R1299T
4076.458	1.141	534916	WORD_OFF	n/a	n/a	FARM	1	4	[0, 0, 0]	n/a	FR1	1	R1299T
4077.599	1.625	536057	WORD	n/a	wordpools/wordpool_EN.txt	SOUP	2	4	[0, 0, 0]	n/a	FR1	1	R1299T
4079.224	1.023	537682	WORD_OFF	n/a	n/a	SOUP	2	4	[0, 0, 0]	n/a	FR1	1	R1299T
4080.247	1.629	538705	WORD	n/a	wordpools/wordpool_EN.txt	TOE	3	4	[0, 0, 0]	n/a	FR1	1	R1299T
4081.876	0.971	540333	WORD_OFF	n/a	n/a	TOE	3	4	[0, 0, 0]	n/a	FR1	1	R1299T
4082.847	1.629	541304	WORD	n/a	wordpools/wordpool_EN.txt	TREE	4	4	[0, 0, 0]	n/a	FR1	1	R1299T
4084.476	0.766	542933	WORD_OFF	n/a	n/a	TREE	4	4	[0, 0, 0]	n/a	FR1	1	R1299T
4085.242	1.635	543699	WORD	n/a	wordpools/wordpool_EN.txt	STEAM	5	4	[0, 0, 0]	n/a	FR1	1	R1299T
4086.877	0.983	545334	WORD_OFF	n/a	n/a	STEAM	5	4	[0, 0, 0]	n/a	FR1	1	R1299T
4087.86	1.617	546317	WORD	n/a	wordpools/wordpool_EN.txt	JUICE	6	4	[0, 0, 0]	n/a	FR1	1	R1299T
4089.477	0.818	547934	WORD_OFF	n/a	n/a	JUICE	6	4	[0, 0, 0]	n/a	FR1	1	R1299T
4090.295	1.632	548752	WORD	n/a	wordpools/wordpool_EN.txt	STREET	7	4	[0, 0, 0]	n/a	FR1	1	R1299T
4091.927	1.043	550384	WORD_OFF	n/a	n/a	STREET	7	4	[0, 0, 0]	n/a	FR1	1	R1299T
4092.97	1.625	551427	WORD	n/a	wordpools/wordpool_EN.txt	ARM	8	4	[0, 0, 0]	n/a	FR1	1	R1299T
4094.595	0.89	553052	WORD_OFF	n/a	n/a	ARM	8	4	[0, 0, 0]	n/a	FR1	1	R1299T
4095.485	1.627	553942	WORD	n/a	wordpools/wordpool_EN.txt	HEART	9	4	[0, 0, 0]	n/a	FR1	1	R1299T
4097.112	1.114	555569	WORD_OFF	n/a	n/a	HEART	9	4	[0, 0, 0]	n/a	FR1	1	R1299T
4098.226	1.636	556683	WORD	n/a	wordpools/wordpool_EN.txt	FOX	10	4	[0, 0, 0]	n/a	FR1	1	R1299T
4099.862	1.021	558319	WORD_OFF	n/a	n/a	FOX	10	4	[0, 0, 0]	n/a	FR1	1	R1299T
4100.883	1.63	559340	WORD	n/a	wordpools/wordpool_EN.txt	MUG	11	4	[0, 0, 0]	n/a	FR1	1	R1299T
4102.513	0.912	560970	WORD_OFF	n/a	n/a	MUG	11	4	[0, 0, 0]	n/a	FR1	1	R1299T
4103.425	1.622	561882	WORD	n/a	wordpools/wordpool_EN.txt	MOUSE	12	4	[0, 0, 0]	n/a	FR1	1	R1299T
4105.047	0.0	563503	WORD_OFF	n/a	n/a	MOUSE	12	4	[0, 0, 0]	n/a	FR1	1	R1299T
4105.047	0.0	563503	ENCODING_END	n/a	n/a	n/a	-999	4	[0, 0, 0]	n/a	FR1	1	R1299T
4105.047	0.001	563503	DISTRACT_START	n/a	n/a	n/a	-999	4	[0, 0, 0]	n/a	FR1	1	R1299T
4105.048	0.015	563504	START	n/a	n/a	n/a	-999	4	[-999, -999, -999]	n/a	FR1	1	R1299T
4105.063	8.018	563519	PROB	8.018	n/a	n/a	-999	4	[5, 4, 2]	11	FR1	1	R1299T
4113.081	8.435	571537	PROB	8.435	n/a	n/a	-999	4	[8, 1, 9]	18	FR1	1	R1299T
4121.516	9.249	579972	PROB	9.249	n/a	n/a	-999	4	[2, 9, 7]	18	FR1	1	R1299T
4130.765	0.019	589220	STOP	n/a	n/a	n/a	-999	4	[-999, -999, -999]	n/a	FR1	1	R1299T
4130.784	0.511	589239	DISTRACT_END	n/a	n/a	n/a	-999	4	[0, 0, 0]	n/a	FR1	1	R1299T
4131.295	1.64	589750	RETRIEVAL_ORIENT_START	n/a	n/a	n/a	-999	4	[0, 0, 0]	n/a	FR1	1	R1299T
4132.935	0.0	591390	RETRIEVAL_ORIENT_END	n/a	n/a	n/a	-999	4	[0, 0, 0]	n/a	FR1	1	R1299T
4132.935	1.362	591390	REC_START	n/a	n/a	n/a	-999	4	[0, 0, 0]	n/a	FR1	1	R1299T
4134.297	0.406	592752	REC_WORD_VV	0.406	n/a	<>	-999	4	[0, 0, 0]	n/a	FR1	1	R1299T
4134.703	3.062	593158	REC_WORD	3.062	n/a	STREET	7	4	[0, 0, 0]	n/a	FR1	1	R1299T
4137.765	2.373	596220	REC_WORD	2.373	n/a	ARM	8	4	[0, 0, 0]	n/a	FR1	1	R1299T
4140.138	2.572	598593	REC_WORD	2.572	n/a	HUG	-999	4	[0, 0, 0]	n/a	FR1	1	R1299T
4142.71	20.237	601165	REC_WORD	20.237	n/a	MOUSE	12	4	[0, 0, 0]	n/a	FR1	1	R1299T
4162.947	0.001	621401	REC_END	n/a	n/a	n/a	-999	4	[0, 0, 0]	n/a	FR1	1	R1299T
4162.948	0.015	621402	TRIAL_END	n/a	n/a	n/a	-999	4	[0, 0, 0]	n/a	FR1	1	R1299T
4162.963	0.0	621417	TRIAL	n/a	n/a	n/a	-999	5	[0, 0, 0]	n/a	FR1	1	R1299T
4162.963	0.0	621417	WAITING_START	n/a	n/a	n/a	-999	5	[0, 0, 0]	n/a	FR1	1	R1299T
4162.963	4.595	621417	TRIAL_START	n/a	n/a	n/a	-999	5	[0, 0, 0]	n/a	FR1	1	R1299T
4167.558	0.0	626012	WAITING_END	n/a	n/a	n/a	-999	5	[0, 0, 0]	n/a	FR1	1	R1299T
4167.558	10.43	626012	COUNTDOWN_START	n/a	n/a	n/a	-999	5	[0, 0, 0]	n/a	FR1	1	R1299T
4177.988	0.0	636441	COUNTDOWN_END	n/a	n/a	n/a	-999	5	[0, 0, 0]	n/a	FR1	1	R1299T
4177.988	1.221	636441	ORIENT_START	n/a	n/a	n/a	-999	5	[0, 0, 0]	n/a	FR1	1	R1299T
4179.209	0.0	637662	ORIENT_END	n/a	n/a	n/a	-999	5	[0, 0, 0]	n/a	FR1	1	R1299T
4179.209	0.852	637662	ENCODING_START	n/a	n/a	n/a	-999	5	[0, 0, 0]	n/a	FR1	1	R1299T
4180.061	1.633	638514	WORD	n/a	wordpools/wordpool_EN.txt	DOCK	1	5	[0, 0, 0]	n/a	FR1	1	R1299T
4181.694	0.84	640147	WORD_OFF	n/a	n/a	DOCK	1	5	[0, 0, 0]	n/a	FR1	1	R1299T
4182.534	1.627	640987	WORD	n/a	wordpools/wordpool_EN.txt	CLOWN	2	5	[0, 0, 0]	n/a	FR1	1	R1299T
4184.161	0.941	642614	WORD_OFF	n/a	n/a	CLOWN	2	5	[0, 0, 0]	n/a	FR1	1	R1299T
4185.102	1.626	643555	WORD	n/a	wordpools/wordpool_EN.txt	PEAR	3	5	[0, 0, 0]	n/a	FR1	1	R1299T
4186.728	0.869	645181	WORD_OFF	n/a	n/a	PEAR	3	5	[0, 0, 0]	n/a	FR1	1	R1299T
4187.597	1.631	646050	WORD	n/a	wordpools/wordpool_EN.txt	TRAY	4	5	[0, 0, 0]	n/a	FR1	1	R1299T
4189.228	0.801	647681	WORD_OFF	n/a	n/a	TRAY	4	5	[0, 0, 0]	n/a	FR1	1	R1299T
4190.029	1.633	648482	WORD	n/a	wordpools/wordpool_EN.txt	HORSE	5	5	[0, 0, 0]	n/a	FR1	1	R1299T
4191.662	0.88	650115	WORD_OFF	n/a	n/a	HORSE	5	5	[0, 0, 0]	n/a	FR1	1	R1299T
4192.542	1.637	650995	WORD	n/a	wordpools/wordpool_EN.txt	THUMB	6	5	[0, 0, 0]	n/a	FR1	1	R1299T
4194.179	0.77	652632	WORD_OFF	n/a	n/a	THUMB	6	5	[0, 0, 0]	n/a	FR1	1	R1299T
4194.949	1.631	653402	WORD	n/a	wordpools/wordpool_EN.txt	BEAR	7	5	[0, 0, 0]	n/a	FR1	1	R1299T
4196.58	0.802	655032	WORD_OFF	n/a	n/a	BEAR	7	5	[0, 0, 0]	n/a	FR1	1	R1299T
4197.382	1.632	655834	WORD	n/a	wordpools/wordpool_EN.txt	TEETH	8	5	[0, 0, 0]	n/a	FR1	1	R1299T
4199.014	1.025	657466	WORD_OFF	n/a	n/a	TEETH	8	5	[0, 0, 0]	n/a	FR1	1	R1299T
4200.039	1.625	658491	WORD	n/a	wordpools/wordpool_EN.txt	DEER	9	5	[0, 0, 0]	n/a	FR1	1	R1299T
4201.664	1.099	660116	WORD_OFF	n/a	n/a	DEER	9	5	[0, 0, 0]	n/a	FR1	1	R1299T
4202.763	1.635	661215	WORD	n/a	wordpools/wordpool_EN.txt	BEE	10	5	[0, 0, 0]	n/a	FR1	1	R1299T
4204.398	1.041	662850	WORD_OFF	n/a	n/a	BEE	10	5	[0, 0, 0]	n/a	FR1	1	R1299T
4205.439	1.626	663891	WORD	n/a	wordpools/wordpool_EN.txt	DOG	11	5	[0, 0, 0]	n/a	FR1	1	R1299T
4207.065	0.973	665517	WORD_OFF	n/a	n/a	DOG	11	5	[0, 0, 0]	n/a	FR1	1	R1299T
4208.038	1.627	666490	WORD	n/a	wordpools/wordpool_EN.txt	BLUSH	12	5	[0, 0, 0]	n/a	FR1	1	R1299T
4209.665	0.001	668117	WORD_OFF	n/a	n/a	BLUSH	12	5	[0, 0, 0]	n/a	FR1	1	R1299T
4209.666	0.0	668118	ENCODING_END	n/a	n/a	n/a	-999	5	[0, 0, 0]	n/a	FR1	1	R1299T
4209.666	0.0	668118	DISTRACT_START	n/a	n/a	n/a	-999	5	[0, 0, 0]	n/a	FR1	1	R1299T
4209.666	0.016	668118	START	n/a	n/a	n/a	-999	5	[-999, -999, -999]	n/a	FR1	1	R1299T
4209.682	7.168	668134	PROB	7.168	n/a	n/a	-999	5	[5, 8, 3]	16	FR1	1	R1299T
4216.85	5.251	675302	PROB	5.251	n/a	n/a	-999	5	[1, 6, 6]	13	FR1	1	R1299T
4222.101	7.318	680552	PROB	7.318	n/a	n/a	-999	5	[2, 3, 6]	11	FR1	1	R1299T
4229.419	6.946	687870	PROB	6.946	n/a	n/a	-999	5	[2, 6, 1]	9	FR1	1	R1299T
4236.365	0.022	694816	STOP	n/a	n/a	n/a	-999	5	[-999, -999, -999]	n/a	FR1	1	R1299T
4236.387	0.619	694838	DISTRACT_END	n/a	n/a	n/a	-999	5	[0, 0, 0]	n/a	FR1	1	R1299T
4237.006	1.532	695457	RETRIEVAL_ORIENT_START	n/a	n/a	n/a	-999	5	[0, 0, 0]	n/a	FR1	1	R1299T
4238.538	0.0	696989	RETRIEVAL_ORIENT_END	n/a	n/a	n/a	-999	5	[0, 0, 0]	n/a	FR1	1	R1299T
4238.538	0.787	696989	REC_START	n/a	n/a	n/a	-999	5	[0, 0, 0]	n/a	FR1	1	R1299T
4239.325	1.005	697776	REC_WORD_VV	1.005	n/a	<>	-999	5	[0, 0, 0]	n/a	FR1	1	R1299T
4240.33	3.251	698781	REC_WORD	3.251	n/a	DOCK	1	5	[0, 0, 0]	n/a	FR1	1	R1299T
4243.581	3.374	702031	REC_WORD	3.374	n/a	BEE	10	5	[0, 0, 0]	n/a	FR1	1	R1299T
4246.955	3.379	705405	REC_WORD	3.379	n/a	TEETH	8	5	[0, 0, 0]	n/a	FR1	1	R1299T
4250.334	0.711	708784	REC_WORD_VV	0.711	n/a	<>	-999	5	[0, 0, 0]	n/a	FR1	1	R1299T
4251.045	3.363	709495	REC_WORD	3.363	n/a	DEER	9	5	[0, 0, 0]	n/a	FR1	1	R1299T
4254.408	6.067	712858	REC_WORD_VV	6.067	n/a	<>	-999	5	[0, 0, 0]	n/a	FR1	1	R1299T
4260.475	8.075	718925	REC_WORD	8.075	n/a	DOG	11	5	[0, 0, 0]	n/a	FR1	1	R1299T
4268.55	0.0	726999	REC_END	n/a	n/a	n/a	-999	5	[0, 0, 0]	n/a	FR1	1	R1299T
4268.55	0.014	726999	TRIAL_END	n/a	n/a	n/a	-999	5	[0, 0, 0]	n/a	FR1	1	R1299T
4268.564	0.0	727013	WAITING_START	n/a	n/a	n/a	-999	6	[0, 0, 0]	n/a	FR1	1	R1299T
4268.564	0.0	727013	TRIAL_START	n/a	n/a	n/a	-999	6	[0, 0, 0]	n/a	FR1	1	R1299T
4268.564	5.662	727013	TRIAL	n/a	n/a	n/a	-999	6	[0, 0, 0]	n/a	FR1	1	R1299T
4274.226	0.001	732675	WAITING_END	n/a	n/a	n/a	-999	6	[0, 0, 0]	n/a	FR1	1	R1299T
4274.227	10.429	732676	COUNTDOWN_START	n/a	n/a	n/a	-999	6	[0, 0, 0]	n/a	FR1	1	R1299T
4284.656	0.0	743105	COUNTDOWN_END	n/a	n/a	n/a	-999	6	[0, 0, 0]	n/a	FR1	1	R1299T
4284.656	1.023	743105	ORIENT_START	n/a	n/a	n/a	-999	6	[0, 0, 0]	n/a	FR1	1	R1299T
4285.679	0.001	744128	ORIENT_END	n/a	n/a	n/a	-999	6	[0, 0, 0]	n/a	FR1	1	R1299T
4285.68	1.053	744129	ENCODING_START	n/a	n/a	n/a	-999	6	[0, 0, 0]	n/a	FR1	1	R1299T
4286.733	1.63	745181	WORD	n/a	wordpools/wordpool_EN.txt	HOOF	1	6	[0, 0, 0]	n/a	FR1	1	R1299T
4288.363	0.906	746811	WORD_OFF	n/a	n/a	HOOF	1	6	[0, 0, 0]	n/a	FR1	1	R1299T
4289.269	1.628	747717	WORD	n/a	wordpools/wordpool_EN.txt	PANTS	2	6	[0, 0, 0]	n/a	FR1	1	R1299T
4290.897	1.15	749345	WORD_OFF	n/a	n/a	PANTS	2	6	[0, 0, 0]	n/a	FR1	1	R1299T
4292.047	1.634	750495	WORD	n/a	wordpools/wordpool_EN.txt	STRAW	3	6	[0, 0, 0]	n/a	FR1	1	R1299T
4293.681	0.856	752129	WORD_OFF	n/a	n/a	STRAW	3	6	[0, 0, 0]	n/a	FR1	1	R1299T
4294.537	1.611	752985	WORD	n/a	wordpools/wordpool_EN.txt	CAVE	4	6	[0, 0, 0]	n/a	FR1	1	R1299T
4296.148	0.813	754596	WORD_OFF	n/a	n/a	CAVE	4	6	[0, 0, 0]	n/a	FR1	1	R1299T
4296.961	1.637	755409	WORD	n/a	wordpools/wordpool_EN.txt	TOY	5	6	[0, 0, 0]	n/a	FR1	1	R1299T
4298.598	1.114	757046	WORD_OFF	n/a	n/a	TOY	5	6	[0, 0, 0]	n/a	FR1	1	R1299T
4299.712	1.637	758160	WORD	n/a	wordpools/wordpool_EN.txt	PRINCE	6	6	[0, 0, 0]	n/a	FR1	1	R1299T
4301.349	0.797	759797	WORD_OFF	n/a	n/a	PRINCE	6	6	[0, 0, 0]	n/a	FR1	1	R1299T
4302.146	1.637	760594	WORD	n/a	wordpools/wordpool_EN.txt	STOVE	7	6	[0, 0, 0]	n/a	FR1	1	R1299T
4303.783	0.769	762231	WORD_OFF	n/a	n/a	STOVE	7	6	[0, 0, 0]	n/a	FR1	1	R1299T
4304.552	1.631	763000	WORD	n/a	wordpools/wordpool_EN.txt	LAMP	8	6	[0, 0, 0]	n/a	FR1	1	R1299T
4306.183	1.061	764631	WORD_OFF	n/a	n/a	LAMP	8	6	[0, 0, 0]	n/a	FR1	1	R1299T
4307.244	1.623	765692	WORD	n/a	wordpools/wordpool_EN.txt	SHELL	9	6	[0, 0, 0]	n/a	FR1	1	R1299T
4308.867	1.023	767315	WORD_OFF	n/a	n/a	SHELL	9	6	[0, 0, 0]	n/a	FR1	1	R1299T
4309.89	1.627	768337	WORD	n/a	wordpools/wordpool_EN.txt	CLAY	10	6	[0, 0, 0]	n/a	FR1	1	R1299T
4311.517	1.068	769964	WORD_OFF	n/a	n/a	CLAY	10	6	[0, 0, 0]	n/a	FR1	1	R1299T
4312.585	1.632	771032	WORD	n/a	wordpools/wordpool_EN.txt	PARK	11	6	[0, 0, 0]	n/a	FR1	1	R1299T
4314.217	0.939	772664	WORD_OFF	n/a	n/a	PARK	11	6	[0, 0, 0]	n/a	FR1	1	R1299T
4315.156	1.629	773603	WORD	n/a	wordpools/wordpool_EN.txt	BRANCH	12	6	[0, 0, 0]	n/a	FR1	1	R1299T
4316.785	0.0	775232	WORD_OFF	n/a	n/a	BRANCH	12	6	[0, 0, 0]	n/a	FR1	1	R1299T
4316.785	0.001	775232	ENCODING_END	n/a	n/a	n/a	-999	6	[0, 0, 0]	n/a	FR1	1	R1299T
4316.786	0.0	775233	DISTRACT_START	n/a	n/a	n/a	-999	6	[0, 0, 0]	n/a	FR1	1	R1299T
4316.786	0.016	775233	START	n/a	n/a	n/a	-999	6	[-999, -999, -999]	n/a	FR1	1	R1299T
4316.802	6.584	775249	PROB	6.584	n/a	n/a	-999	6	[5, 1, 4]	10	FR1	1	R1299T
4323.386	8.018	781833	PROB	8.018	n/a	n/a	-999	6	[8, 6, 7]	21	FR1	1	R1299T
4331.404	7.581	789851	PROB	7.581	n/a	n/a	-999	6	[5, 3, 3]	11	FR1	1	R1299T
4338.985	0.021	797431	STOP	n/a	n/a	n/a	-999	6	[-999, -999, -999]	n/a	FR1	1	R1299T
4339.006	0.518	797452	DISTRACT_END	n/a	n/a	n/a	-999	6	[0, 0, 0]	n/a	FR1	1	R1299T
4339.524	1.698	797970	RETRIEVAL_ORIENT_START	n/a	n/a	n/a	-999	6	[0, 0, 0]	n/a	FR1	1	R1299T
4341.222	0.0	799668	REC_START	n/a	n/a	n/a	-999	6	[0, 0, 0]	n/a	FR1	1	R1299T
4341.222	2.683	799668	RETRIEVAL_ORIENT_END	n/a	n/a	n/a	-999	6	[0, 0, 0]	n/a	FR1	1	R1299T
4343.905	8.736	802351	REC_WORD	8.736	n/a	PRINCE	6	6	[0, 0, 0]	n/a	FR1	1	R1299T
4352.641	18.594	811087	REC_WORD	18.594	n/a	STRAW	3	6	[0, 0, 0]	n/a	FR1	1	R1299T
4371.235	0.0	829680	REC_END	n/a	n/a	n/a	-999	6	[0, 0, 0]	n/a	FR1	1	R1299T
4371.235	0.015	829680	TRIAL_END	n/a	n/a	n/a	-999	6	[0, 0, 0]	n/a	FR1	1	R1299T
4371.25	0.0	829695	TRIAL_START	n/a	n/a	n/a	-999	7	[0, 0, 0]	n/a	FR1	1	R1299T
4371.25	0.0	829695	TRIAL	n/a	n/a	n/a	-999	7	[0, 0, 0]	n/a	FR1	1	R1299T
4371.25	6.58	829695	WAITING_START	n/a	n/a	n/a	-999	7	[0, 0, 0]	n/a	FR1	1	R1299T
4377.83	0.0	836275	WAITING_END	n/a	n/a	n/a	-999	7	[0, 0, 0]	n/a	FR1	1	R1299T
4377.83	10.429	836275	COUNTDOWN_START	n/a	n/a	n/a	-999	7	[0, 0, 0]	n/a	FR1	1	R1299T
4388.259	0.0	846703	COUNTDOWN_END	n/a	n/a	n/a	-999	7	[0, 0, 0]	n/a	FR1	1	R1299T
4388.259	1.172	846703	ORIENT_START	n/a	n/a	n/a	-999	7	[0, 0, 0]	n/a	FR1	1	R1299T
4389.431	0.001	847875	ORIENT_END	n/a	n/a	n/a	-999	7	[0, 0, 0]	n/a	FR1	1	R1299T
4389.432	1.095	847876	ENCODING_START	n/a	n/a	n/a	-999	7	[0, 0, 0]	n/a	FR1	1	R1299T
4390.527	1.622	848971	WORD	n/a	wordpools/wordpool_EN.txt	STAR	1	7	[0, 0, 0]	n/a	FR1	1	R1299T
4392.149	1.029	850593	WORD_OFF	n/a	n/a	STAR	1	7	[0, 0, 0]	n/a	FR1	1	R1299T
4393.178	1.638	851622	WORD	n/a	wordpools/wordpool_EN.txt	FACE	2	7	[0, 0, 0]	n/a	FR1	1	R1299T
4394.816	0.914	853260	WORD_OFF	n/a	n/a	FACE	2	7	[0, 0, 0]	n/a	FR1	1	R1299T
4395.73	1.636	854174	WORD	n/a	wordpools/wordpool_EN.txt	VEST	3	7	[0, 0, 0]	n/a	FR1	1	R1299T
4397.366	1.136	855810	WORD_OFF	n/a	n/a	VEST	3	7	[0, 0, 0]	n/a	FR1	1	R1299T
4398.502	1.631	856946	WORD	n/a	wordpools/wordpool_EN.txt	PHONE	4	7	[0, 0, 0]	n/a	FR1	1	R1299T
4400.133	1.083	858577	WORD_OFF	n/a	n/a	PHONE	4	7	[0, 0, 0]	n/a	FR1	1	R1299T
4401.216	1.635	859659	WORD	n/a	wordpools/wordpool_EN.txt	STAIR	5	7	[0, 0, 0]	n/a	FR1	1	R1299T
4402.851	0.815	861294	WORD_OFF	n/a	n/a	STAIR	5	7	[0, 0, 0]	n/a	FR1	1	R1299T
4403.666	1.635	862109	WORD	n/a	wordpools/wordpool_EN.txt	JEEP	6	7	[0, 0, 0]	n/a	FR1	1	R1299T
4405.301	1.091	863744	WORD_OFF	n/a	n/a	JEEP	6	7	[0, 0, 0]	n/a	FR1	1	R1299T
4406.392	1.626	864835	WORD	n/a	wordpools/wordpool_EN.txt	BUSH	7	7	[0, 0, 0]	n/a	FR1	1	R1299T
4408.018	0.869	866461	WORD_OFF	n/a	n/a	BUSH	7	7	[0, 0, 0]	n/a	FR1	1	R1299T
4408.887	1.632	867330	WORD	n/a	wordpools/wordpool_EN.txt	SPONGE	8	7	[0, 0, 0]	n/a	FR1	1	R1299T
4410.519	0.799	868962	WORD_OFF	n/a	n/a	SPONGE	8	7	[0, 0, 0]	n/a	FR1	1	R1299T
4411.318	1.634	869761	WORD	n/a	wordpools/wordpool_EN.txt	HOSE	9	7	[0, 0, 0]	n/a	FR1	1	R1299T
4412.952	0.977	871395	WORD_OFF	n/a	n/a	HOSE	9	7	[0, 0, 0]	n/a	FR1	1	R1299T
4413.929	1.624	872372	WORD	n/a	wordpools/wordpool_EN.txt	CLIFF	10	7	[0, 0, 0]	n/a	FR1	1	R1299T
4415.553	1.073	873996	WORD_OFF	n/a	n/a	CLIFF	10	7	[0, 0, 0]	n/a	FR1	1	R1299T
4416.626	1.627	875069	WORD	n/a	wordpools/wordpool_EN.txt	SOCK	11	7	[0, 0, 0]	n/a	FR1	1	R1299T
4418.253	0.816	876696	WORD_OFF	n/a	n/a	SOCK	11	7	[0, 0, 0]	n/a	FR1	1	R1299T
4419.069	1.635	877512	WORD	n/a	wordpools/wordpool_EN.txt	COIN	12	7	[0, 0, 0]	n/a	FR1	1	R1299T
4420.704	0.0	879147	WORD_OFF	n/a	n/a	COIN	12	7	[0, 0, 0]	n/a	FR1	1	R1299T
4420.704	0.001	879147	ENCODING_END	n/a	n/a	n/a	-999	7	[0, 0, 0]	n/a	FR1	1	R1299T
4420.705	0.0	879148	DISTRACT_START	n/a	n/a	n/a	-999	7	[0, 0, 0]	n/a	FR1	1	R1299T
4420.705	0.015	879148	START	n/a	n/a	n/a	-999	7	[-999, -999, -999]	n/a	FR1	1	R1299T
4420.72	6.301	879163	PROB	6.301	n/a	n/a	-999	7	[9, 3, 5]	17	FR1	1	R1299T
4427.021	9.452	885463	PROB	9.452	n/a	n/a	-999	7	[4, 2, 9]	15	FR1	1	R1299T
4436.473	7.806	894915	PROB	7.806	n/a	n/a	-999	7	[4, 7, 5]	16	FR1	1	R1299T
4444.279	0.013	902721	STOP	n/a	n/a	n/a	-999	7	[-999, -999, -999]	n/a	FR1	1	R1299T
4444.292	0.623	902734	DISTRACT_END	n/a	n/a	n/a	-999	7	[0, 0, 0]	n/a	FR1	1	R1299T
4444.915	1.527	903357	RETRIEVAL_ORIENT_START	n/a	n/a	n/a	-999	7	[0, 0, 0]	n/a	FR1	1	R1299T
4446.442	0.0	904884	RETRIEVAL_ORIENT_END	n/a	n/a	n/a	-999	7	[0, 0, 0]	n/a	FR1	1	R1299T
4446.442	1.409	904884	REC_START	n/a	n/a	n/a	-999	7	[0, 0, 0]	n/a	FR1	1	R1299T
4447.851	0.455	906292	REC_WORD_VV	0.455	n/a	<>	-999	7	[0, 0, 0]	n/a	FR1	1	R1299T
4448.306	4.484	906747	REC_WORD	4.484	n/a	JEEP	6	7	[0, 0, 0]	n/a	FR1	1	R1299T
4452.79	23.665	911231	REC_WORD	23.665	n/a	HOSE	9	7	[0, 0, 0]	n/a	FR1	1	R1299T
4476.455	0.001	934895	REC_END	n/a	n/a	n/a	-999	7	[0, 0, 0]	n/a	FR1	1	R1299T
4476.456	0.013	934896	TRIAL_END	n/a	n/a	n/a	-999	7	[0, 0, 0]	n/a	FR1	1	R1299T
4476.469	0.001	934909	TRIAL_START	n/a	n/a	n/a	-999	8	[0, 0, 0]	n/a	FR1	1	R1299T
4476.47	0.0	934910	TRIAL	n/a	n/a	n/a	-999	8	[0, 0, 0]	n/a	FR1	1	R1299T
4476.47	3.178	934910	WAITING_START	n/a	n/a	n/a	-999	8	[0, 0, 0]	n/a	FR1	1	R1299T
4479.648	0.0	938088	WAITING_END	n/a	n/a	n/a	-999	8	[0, 0, 0]	n/a	FR1	1	R1299T
4479.648	10.429	938088	COUNTDOWN_START	n/a	n/a	n/a	-999	8	[0, 0, 0]	n/a	FR1	1	R1299T
4490.077	0.0	948517	ORIENT_START	n/a	n/a	n/a	-999	8	[0, 0, 0]	n/a	FR1	1	R1299T
4490.077	1.023	948517	COUNTDOWN_END	n/a	n/a	n/a	-999	8	[0, 0, 0]	n/a	FR1	1	R1299T
4491.1	0.001	949540	ORIENT_END	n/a	n/a	n/a	-999	8	[0, 0, 0]	n/a	FR1	1	R1299T
4491.101	0.855	949541	ENCODING_START	n/a	n/a	n/a	-999	8	[0, 0, 0]	n/a	FR1	1	R1299T
4491.956	1.628	950396	WORD	n/a	wordpools/wordpool_EN.txt	APE	1	8	[0, 0, 0]	n/a	FR1	1	R1299T
4493.584	0.829	952023	WORD_OFF	n/a	n/a	APE	1	8	[0, 0, 0]	n/a	FR1	1	R1299T
4494.413	1.621	952852	WORD	n/a	wordpools/wordpool_EN.txt	ANT	2	8	[0, 0, 0]	n/a	FR1	1	R1299T
4496.034	0.906	954473	WORD_OFF	n/a	n/a	ANT	2	8	[0, 0, 0]	n/a	FR1	1	R1299T
4496.94	1.628	955379	WORD	n/a	wordpools/wordpool_EN.txt	FOAM	3	8	[0, 0, 0]	n/a	FR1	1	R1299T
4498.568	1.069	957007	WORD_OFF	n/a	n/a	FOAM	3	8	[0, 0, 0]	n/a	FR1	1	R1299T
4499.637	1.632	958076	WORD	n/a	wordpools/wordpool_EN.txt	BOX	4	8	[0, 0, 0]	n/a	FR1	1	R1299T
4501.269	0.87	959708	WORD_OFF	n/a	n/a	BOX	4	8	[0, 0, 0]	n/a	FR1	1	R1299T
4502.139	1.63	960578	WORD	n/a	wordpools/wordpool_EN.txt	BEAN	5	8	[0, 0, 0]	n/a	FR1	1	R1299T
4503.769	0.924	962208	WORD_OFF	n/a	n/a	BEAN	5	8	[0, 0, 0]	n/a	FR1	1	R1299T
4504.693	1.627	963132	WORD	n/a	wordpools/wordpool_EN.txt	FRUIT	6	8	[0, 0, 0]	n/a	FR1	1	R1299T
4506.32	0.991	964759	WORD_OFF	n/a	n/a	FRUIT	6	8	[0, 0, 0]	n/a	FR1	1	R1299T
4507.311	1.626	965750	WORD	n/a	wordpools/wordpool_EN.txt	SINK	7	8	[0, 0, 0]	n/a	FR1	1	R1299T
4508.937	1.073	967376	WORD_OFF	n/a	n/a	SINK	7	8	[0, 0, 0]	n/a	FR1	1	R1299T
4510.01	1.627	968449	WORD	n/a	wordpools/wordpool_EN.txt	CAKE	8	8	[0, 0, 0]	n/a	FR1	1	R1299T
4511.637	1.134	970076	WORD_OFF	n/a	n/a	CAKE	8	8	[0, 0, 0]	n/a	FR1	1	R1299T
4512.771	1.633	971210	WORD	n/a	wordpools/wordpool_EN.txt	SEAL	9	8	[0, 0, 0]	n/a	FR1	1	R1299T
4514.404	0.993	972843	WORD_OFF	n/a	n/a	SEAL	9	8	[0, 0, 0]	n/a	FR1	1	R1299T
4515.397	1.624	973835	WORD	n/a	wordpools/wordpool_EN.txt	PEN	10	8	[0, 0, 0]	n/a	FR1	1	R1299T
4517.021	0.991	975459	WORD_OFF	n/a	n/a	PEN	10	8	[0, 0, 0]	n/a	FR1	1	R1299T
4518.012	1.627	976450	WORD	n/a	wordpools/wordpool_EN.txt	DOLL	11	8	[0, 0, 0]	n/a	FR1	1	R1299T
4519.639	1.004	978077	WORD_OFF	n/a	n/a	DOLL	11	8	[0, 0, 0]	n/a	FR1	1	R1299T
4520.643	1.629	979081	WORD	n/a	wordpools/wordpool_EN.txt	BOARD	12	8	[0, 0, 0]	n/a	FR1	1	R1299T
4522.272	0.001	980710	WORD_OFF	n/a	n/a	BOARD	12	8	[0, 0, 0]	n/a	FR1	1	R1299T
4522.273	0.0	980711	DISTRACT_START	n/a	n/a	n/a	-999	8	[0, 0, 0]	n/a	FR1	1	R1299T
4522.273	0.0	980711	ENCODING_END	n/a	n/a	n/a	-999	8	[0, 0, 0]	n/a	FR1	1	R1299T
4522.273	0.016	980711	START	n/a	n/a	n/a	-999	8	[-999, -999, -999]	n/a	FR1	1	R1299T
4522.289	7.568	980727	PROB	7.568	n/a	n/a	-999	8	[1, 9, 3]	13	FR1	1	R1299T
4529.857	8.118	988295	PROB	8.118	n/a	n/a	-999	8	[6, 8, 5]	19	FR1	1	R1299T
4537.975	4.512	996413	PROB	4.512	n/a	n/a	-999	8	[4, 5, 3]	12	FR1	1	R1299T
4542.487	0.022	1000924	STOP	n/a	n/a	n/a	-999	8	[-999, -999, -999]	n/a	FR1	1	R1299T
4542.509	0.587	1000946	DISTRACT_END	n/a	n/a	n/a	-999	8	[0, 0, 0]	n/a	FR1	1	R1299T
4543.096	1.697	1001533	RETRIEVAL_ORIENT_START	n/a	n/a	n/a	-999	8	[0, 0, 0]	n/a	FR1	1	R1299T
4544.793	0.001	1003230	RETRIEVAL_ORIENT_END	n/a	n/a	n/a	-999	8	[0, 0, 0]	n/a	FR1	1	R1299T
4544.794	3.809	1003231	REC_START	n/a	n/a	n/a	-999	8	[0, 0, 0]	n/a	FR1	1	R1299T
4548.603	4.202	1007040	REC_WORD	4.202	n/a	DOLL	11	8	[0, 0, 0]	n/a	FR1	1	R1299T
4552.805	22.001	1011242	REC_WORD	22.001	n/a	HOSE	-999	8	[0, 0, 0]	n/a	FR1	1	R1299T
4574.806	0.0	1033242	REC_END	n/a	n/a	n/a	-999	8	[0, 0, 0]	n/a	FR1	1	R1299T
4574.806	0.014	1033242	TRIAL_END	n/a	n/a	n/a	-999	8	[0, 0, 0]	n/a	FR1	1	R1299T
4574.82	0.0	1033256	TRIAL	n/a	n/a	n/a	-999	9	[0, 0, 0]	n/a	FR1	1	R1299T
4574.82	0.001	1033256	TRIAL_START	n/a	n/a	n/a	-999	9	[0, 0, 0]	n/a	FR1	1	R1299T
4574.821	3.712	1033257	WAITING_START	n/a	n/a	n/a	-999	9	[0, 0, 0]	n/a	FR1	1	R1299T
4578.533	0.0	1036969	WAITING_END	n/a	n/a	n/a	-999	9	[0, 0, 0]	n/a	FR1	1	R1299T
4578.533	10.429	1036969	COUNTDOWN_START	n/a	n/a	n/a	-999	9	[0, 0, 0]	n/a	FR1	1	R1299T
4588.962	0.001	1047397	COUNTDOWN_END	n/a	n/a	n/a	-999	9	[0, 0, 0]	n/a	FR1	1	R1299T
4588.963	1.072	1047398	ORIENT_START	n/a	n/a	n/a	-999	9	[0, 0, 0]	n/a	FR1	1	R1299T
4590.035	0.0	1048470	ORIENT_END	n/a	n/a	n/a	-999	9	[0, 0, 0]	n/a	FR1	1	R1299T
4590.035	0.783	1048470	ENCODING_START	n/a	n/a	n/a	-999	9	[0, 0, 0]	n/a	FR1	1	R1299T
4590.818	1.634	1049253	WORD	n/a	wordpools/wordpool_EN.txt	BEAK	1	9	[0, 0, 0]	n/a	FR1	1	R1299T
4592.452	1.052	1050887	WORD_OFF	n/a	n/a	BEAK	1	9	[0, 0, 0]	n/a	FR1	1	R1299T
4593.504	1.632	1051939	WORD	n/a	wordpools/wordpool_EN.txt	FLAG	2	9	[0, 0, 0]	n/a	FR1	1	R1299T
4595.136	0.985	1053571	WORD_OFF	n/a	n/a	FLAG	2	9	[0, 0, 0]	n/a	FR1	1	R1299T
4596.121	1.632	1054556	WORD	n/a	wordpools/wordpool_EN.txt	PLANE	3	9	[0, 0, 0]	n/a	FR1	1	R1299T
4597.753	0.881	1056188	WORD_OFF	n/a	n/a	PLANE	3	9	[0, 0, 0]	n/a	FR1	1	R1299T
4598.634	1.636	1057069	WORD	n/a	wordpools/wordpool_EN.txt	SUN	4	9	[0, 0, 0]	n/a	FR1	1	R1299T
4600.27	0.989	1058705	WORD_OFF	n/a	n/a	SUN	4	9	[0, 0, 0]	n/a	FR1	1	R1299T
4601.259	1.628	1059694	WORD	n/a	wordpools/wordpool_EN.txt	GLASS	5	9	[0, 0, 0]	n/a	FR1	1	R1299T
4602.887	1.12	1061322	WORD_OFF	n/a	n/a	GLASS	5	9	[0, 0, 0]	n/a	FR1	1	R1299T
4604.007	1.63	1062442	WORD	n/a	wordpools/wordpool_EN.txt	SPRING	6	9	[0, 0, 0]	n/a	FR1	1	R1299T
4605.637	0.801	1064072	WORD_OFF	n/a	n/a	SPRING	6	9	[0, 0, 0]	n/a	FR1	1	R1299T
4606.438	1.633	1064873	WORD	n/a	wordpools/wordpool_EN.txt	SLIME	7	9	[0, 0, 0]	n/a	FR1	1	R1299T
4608.071	0.86	1066505	WORD_OFF	n/a	n/a	SLIME	7	9	[0, 0, 0]	n/a	FR1	1	R1299T
4608.931	1.624	1067365	WORD	n/a	wordpools/wordpool_EN.txt	WEED	8	9	[0, 0, 0]	n/a	FR1	1	R1299T
4610.555	0.938	1068989	WORD_OFF	n/a	n/a	WEED	8	9	[0, 0, 0]	n/a	FR1	1	R1299T
4611.493	1.629	1069927	WORD	n/a	wordpools/wordpool_EN.txt	DOOR	9	9	[0, 0, 0]	n/a	FR1	1	R1299T
4613.122	0.999	1071556	WORD_OFF	n/a	n/a	DOOR	9	9	[0, 0, 0]	n/a	FR1	1	R1299T
4614.121	1.635	1072555	WORD	n/a	wordpools/wordpool_EN.txt	CLOUD	10	9	[0, 0, 0]	n/a	FR1	1	R1299T
4615.756	1.145	1074190	WORD_OFF	n/a	n/a	CLOUD	10	9	[0, 0, 0]	n/a	FR1	1	R1299T
4616.901	1.622	1075335	WORD	n/a	wordpools/wordpool_EN.txt	MOTH	11	9	[0, 0, 0]	n/a	FR1	1	R1299T
4618.523	0.904	1076957	WORD_OFF	n/a	n/a	MOTH	11	9	[0, 0, 0]	n/a	FR1	1	R1299T
4619.427	1.63	1077861	WORD	n/a	wordpools/wordpool_EN.txt	BOAT	12	9	[0, 0, 0]	n/a	FR1	1	R1299T
4621.057	0.001	1079491	WORD_OFF	n/a	n/a	BOAT	12	9	[0, 0, 0]	n/a	FR1	1	R1299T
4621.058	0.0	1079492	ENCODING_END	n/a	n/a	n/a	-999	9	[0, 0, 0]	n/a	FR1	1	R1299T
4621.058	0.0	1079492	DISTRACT_START	n/a	n/a	n/a	-999	9	[0, 0, 0]	n/a	FR1	1	R1299T
4621.058	0.015	1079492	START	n/a	n/a	n/a	-999	9	[-999, -999, -999]	n/a	FR1	1	R1299T
4621.073	7.002	1079507	PROB	7.002	n/a	n/a	-999	9	[3, 8, 8]	19	FR1	1	R1299T
4628.075	5.867	1086509	PROB	5.867	n/a	n/a	-999	9	[4, 3, 6]	13	FR1	1	R1299T
4633.942	6.868	1092375	PROB	6.868	n/a	n/a	-999	9	[3, 6, 9]	18	FR1	1	R1299T
4640.81	9.316	1099243	PROB	9.316	n/a	n/a	-999	9	[6, 8, 8]	22	FR1	1	R1299T
4650.126	0.02	1108559	STOP	n/a	n/a	n/a	-999	9	[-999, -999, -999]	n/a	FR1	1	R1299T
4650.146	0.559	1108579	DISTRACT_END	n/a	n/a	n/a	-999	9	[0, 0, 0]	n/a	FR1	1	R1299T
4650.705	1.674	1109138	RETRIEVAL_ORIENT_START	n/a	n/a	n/a	-999	9	[0, 0, 0]	n/a	FR1	1	R1299T
4652.379	0.001	1110811	RETRIEVAL_ORIENT_END	n/a	n/a	n/a	-999	9	[0, 0, 0]	n/a	FR1	1	R1299T
4652.38	17.371	1110812	REC_START	n/a	n/a	n/a	-999	9	[0, 0, 0]	n/a	FR1	1	R1299T
4669.751	2.037	1128183	REC_WORD	2.037	n/a	DOOR	9	9	[0, 0, 0]	n/a	FR1	1	R1299T
4671.788	0.256	1130220	REC_WORD_VV	0.256	n/a	<>	-999	9	[0, 0, 0]	n/a	FR1	1	R1299T
4672.044	10.349	1130476	REC_WORD	10.349	n/a	SINK	-999	9	[0, 0, 0]	n/a	FR1	1	R1299T
4682.393	0.001	1140824	REC_END	n/a	n/a	n/a	-999	9	[0, 0, 0]	n/a	FR1	1	R1299T
4682.394	0.014	1140825	TRIAL_END	n/a	n/a	n/a	-999	9	[0, 0, 0]	n/a	FR1	1	R1299T
4682.408	0.0	1140839	TRIAL_START	n/a	n/a	n/a	-999	10	[0, 0, 0]	n/a	FR1	1	R1299T
4682.408	0.0	1140839	TRIAL	n/a	n/a	n/a	-999	10	[0, 0, 0]	n/a	FR1	1	R1299T
4682.408	3.644	1140839	WAITING_START	n/a	n/a	n/a	-999	10	[0, 0, 0]	n/a	FR1	1	R1299T
4686.052	0.0	1144483	COUNTDOWN_START	n/a	n/a	n/a	-999	10	[0, 0, 0]	n/a	FR1	1	R1299T
4686.052	10.43	1144483	WAITING_END	n/a	n/a	n/a	-999	10	[0, 0, 0]	n/a	FR1	1	R1299T
4696.482	0.0	1154913	COUNTDOWN_END	n/a	n/a	n/a	-999	10	[0, 0, 0]	n/a	FR1	1	R1299T
4696.482	1.256	1154913	ORIENT_START	n/a	n/a	n/a	-999	10	[0, 0, 0]	n/a	FR1	1	R1299T
4697.738	0.0	1156169	ORIENT_END	n/a	n/a	n/a	-999	10	[0, 0, 0]	n/a	FR1	1	R1299T
4697.738	1.013	1156169	ENCODING_START	n/a	n/a	n/a	-999	10	[0, 0, 0]	n/a	FR1	1	R1299T
4698.751	1.637	1157181	WORD	n/a	wordpools/wordpool_EN.txt	COUCH	1	10	[0, 0, 0]	n/a	FR1	1	R1299T
4700.388	0.997	1158818	WORD_OFF	n/a	n/a	COUCH	1	10	[0, 0, 0]	n/a	FR1	1	R1299T
4701.385	1.637	1159815	WORD	n/a	wordpools/wordpool_EN.txt	TRUCK	2	10	[0, 0, 0]	n/a	FR1	1	R1299T
4703.022	0.896	1161452	WORD_OFF	n/a	n/a	TRUCK	2	10	[0, 0, 0]	n/a	FR1	1	R1299T
4703.918	1.638	1162348	WORD	n/a	wordpools/wordpool_EN.txt	TRASH	3	10	[0, 0, 0]	n/a	FR1	1	R1299T
4705.556	1.028	1163986	WORD_OFF	n/a	n/a	TRASH	3	10	[0, 0, 0]	n/a	FR1	1	R1299T
4706.584	1.621	1165014	WORD	n/a	wordpools/wordpool_EN.txt	WHEEL	4	10	[0, 0, 0]	n/a	FR1	1	R1299T
4708.205	0.992	1166635	WORD_OFF	n/a	n/a	WHEEL	4	10	[0, 0, 0]	n/a	FR1	1	R1299T
4709.197	1.626	1167627	WORD	n/a	wordpools/wordpool_EN.txt	MAZE	5	10	[0, 0, 0]	n/a	FR1	1	R1299T
4710.823	0.885	1169253	WORD_OFF	n/a	n/a	MAZE	5	10	[0, 0, 0]	n/a	FR1	1	R1299T
4711.708	1.633	1170138	WORD	n/a	wordpools/wordpool_EN.txt	PIT	6	10	[0, 0, 0]	n/a	FR1	1	R1299T
4713.341	0.775	1171771	WORD_OFF	n/a	n/a	PIT	6	10	[0, 0, 0]	n/a	FR1	1	R1299T
4714.116	1.625	1172546	WORD	n/a	wordpools/wordpool_EN.txt	SPEAR	7	10	[0, 0, 0]	n/a	FR1	1	R1299T
4715.741	1.039	1174171	WORD_OFF	n/a	n/a	SPEAR	7	10	[0, 0, 0]	n/a	FR1	1	R1299T
4716.78	1.628	1175210	WORD	n/a	wordpools/wordpool_EN.txt	PIN	8	10	[0, 0, 0]	n/a	FR1	1	R1299T
4718.408	0.898	1176838	WORD_OFF	n/a	n/a	PIN	8	10	[0, 0, 0]	n/a	FR1	1	R1299T
4719.306	1.636	1177736	WORD	n/a	wordpools/wordpool_EN.txt	CHALK	9	10	[0, 0, 0]	n/a	FR1	1	R1299T
4720.942	1.093	1179371	WORD_OFF	n/a	n/a	CHALK	9	10	[0, 0, 0]	n/a	FR1	1	R1299T
4722.035	1.624	1180464	WORD	n/a	wordpools/wordpool_EN.txt	ROOF	10	10	[0, 0, 0]	n/a	FR1	1	R1299T
4723.659	0.856	1182088	WORD_OFF	n/a	n/a	ROOF	10	10	[0, 0, 0]	n/a	FR1	1	R1299T
4724.515	1.628	1182944	WORD	n/a	wordpools/wordpool_EN.txt	PEARL	11	10	[0, 0, 0]	n/a	FR1	1	R1299T
4726.143	1.104	1184572	WORD_OFF	n/a	n/a	PEARL	11	10	[0, 0, 0]	n/a	FR1	1	R1299T
4727.247	1.63	1185676	WORD	n/a	wordpools/wordpool_EN.txt	GRASS	12	10	[0, 0, 0]	n/a	FR1	1	R1299T
4728.877	0.0	1187306	WORD_OFF	n/a	n/a	GRASS	12	10	[0, 0, 0]	n/a	FR1	1	R1299T
4728.877	0.0	1187306	ENCODING_END	n/a	n/a	n/a	-999	10	[0, 0, 0]	n/a	FR1	1	R1299T
4728.877	0.0	1187306	DISTRACT_START	n/a	n/a	n/a	-999	10	[0, 0, 0]	n/a	FR1	1	R1299T
4728.877	0.016	1187306	START	n/a	n/a	n/a	-999	10	[-999, -999, -999]	n/a	FR1	1	R1299T
4728.893	7.285	1187322	PROB	7.285	n/a	n/a	-999	10	[8, 2, 6]	16	FR1	1	R1299T
4736.178	6.067	1194607	PROB	6.067	n/a	n/a	-999	10	[6, 5, 8]	19	FR1	1	R1299T
4742.245	5.701	1200674	PROB	5.701	n/a	n/a	-999	10	[1, 3, 3]	7	FR1	1	R1299T
4747.946	7.149	1206374	PROB	7.149	n/a	n/a	-999	10	[8, 6, 8]	22	FR1	1	R1299T
4755.095	0.02	1213523	STOP	n/a	n/a	n/a	-999	10	[-999, -999, -999]	n/a	FR1	1	R1299T
4755.115	0.684	1213543	DISTRACT_END	n/a	n/a	n/a	-999	10	[0, 0, 0]	n/a	FR1	1	R1299T
4755.799	1.549	1214227	RETRIEVAL_ORIENT_START	n/a	n/a	n/a	-999	10	[0, 0, 0]	n/a	FR1	1	R1299T
4757.348	0.001	1215776	RETRIEVAL_ORIENT_END	n/a	n/a	n/a	-999	10	[0, 0, 0]	n/a	FR1	1	R1299T
4757.349	0.329	1215777	REC_START	n/a	n/a	n/a	-999	10	[0, 0, 0]	n/a	FR1	1	R1299T
4757.678	0.803	1216106	REC_WORD_VV	0.803	n/a	<>	-999	10	[0, 0, 0]	n/a	FR1	1	R1299T
4758.481	2.606	1216909	REC_WORD_VV	2.606	n/a	<>	-999	10	[0, 0, 0]	n/a	FR1	1	R1299T
4761.087	2.546	1219515	REC_WORD	2.546	n/a	PEARL	11	10	[0, 0, 0]	n/a	FR1	1	R1299T
4763.633	2.948	1222061	REC_WORD	2.948	n/a	ROOF	10	10	[0, 0, 0]	n/a	FR1	1	R1299T
4766.581	3.133	1225009	REC_WORD	3.133	n/a	CHALK	9	10	[0, 0, 0]	n/a	FR1	1	R1299T
4769.714	3.955	1228141	REC_WORD	3.955	n/a	GLASS	-999	10	[0, 0, 0]	n/a	FR1	1	R1299T
4773.669	1.488	1232096	REC_WORD_VV	1.488	n/a	<>	-999	10	[0, 0, 0]	n/a	FR1	1	R1299T
4775.157	12.204	1233584	REC_WORD	12.204	n/a	SPEAR	7	10	[0, 0, 0]	n/a	FR1	1	R1299T
4787.361	0.0	1245788	REC_END	n/a	n/a	n/a	-999	10	[0, 0, 0]	n/a	FR1	1	R1299T
4787.361	0.014	1245788	TRIAL_END	n/a	n/a	n/a	-999	10	[0, 0, 0]	n/a	FR1	1	R1299T
4787.375	0.0	1245802	TRIAL	n/a	n/a	n/a	-999	11	[0, 0, 0]	n/a	FR1	1	R1299T
4787.375	0.001	1245802	TRIAL_START	n/a	n/a	n/a	-999	11	[0, 0, 0]	n/a	FR1	1	R1299T
4787.376	3.329	1245803	WAITING_START	n/a	n/a	n/a	-999	11	[0, 0, 0]	n/a	FR1	1	R1299T
4790.705	0.0	1249131	WAITING_END	n/a	n/a	n/a	-999	11	[0, 0, 0]	n/a	FR1	1	R1299T
4790.705	10.428	1249131	COUNTDOWN_START	n/a	n/a	n/a	-999	11	[0, 0, 0]	n/a	FR1	1	R1299T
4801.133	0.001	1259559	COUNTDOWN_END	n/a	n/a	n/a	-999	11	[0, 0, 0]	n/a	FR1	1	R1299T
4801.134	1.189	1259560	ORIENT_START	n/a	n/a	n/a	-999	11	[0, 0, 0]	n/a	FR1	1	R1299T
4802.323	0.001	1260749	ORIENT_END	n/a	n/a	n/a	-999	11	[0, 0, 0]	n/a	FR1	1	R1299T
4802.324	1.021	1260750	ENCODING_START	n/a	n/a	n/a	-999	11	[0, 0, 0]	n/a	FR1	1	R1299T
4803.345	1.629	1261771	WORD	n/a	wordpools/wordpool_EN.txt	CHIN	1	11	[0, 0, 0]	n/a	FR1	1	R1299T
4804.974	0.898	1263400	WORD_OFF	n/a	n/a	CHIN	1	11	[0, 0, 0]	n/a	FR1	1	R1299T
4805.872	1.636	1264298	WORD	n/a	wordpools/wordpool_EN.txt	SNOW	2	11	[0, 0, 0]	n/a	FR1	1	R1299T
4807.508	0.972	1265934	WORD_OFF	n/a	n/a	SNOW	2	11	[0, 0, 0]	n/a	FR1	1	R1299T
4808.48	1.628	1266906	WORD	n/a	wordpools/wordpool_EN.txt	NET	3	11	[0, 0, 0]	n/a	FR1	1	R1299T
4810.108	1.04	1268534	WORD_OFF	n/a	n/a	NET	3	11	[0, 0, 0]	n/a	FR1	1	R1299T
4811.148	1.627	1269574	WORD	n/a	wordpools/wordpool_EN.txt	CHAIR	4	11	[0, 0, 0]	n/a	FR1	1	R1299T
4812.775	1.072	1271200	WORD_OFF	n/a	n/a	CHAIR	4	11	[0, 0, 0]	n/a	FR1	1	R1299T
4813.847	1.629	1272272	WORD	n/a	wordpools/wordpool_EN.txt	FORK	5	11	[0, 0, 0]	n/a	FR1	1	R1299T
4815.476	1.064	1273901	WORD_OFF	n/a	n/a	FORK	5	11	[0, 0, 0]	n/a	FR1	1	R1299T
4816.54	1.636	1274965	WORD	n/a	wordpools/wordpool_EN.txt	ZOO	6	11	[0, 0, 0]	n/a	FR1	1	R1299T
4818.176	0.921	1276601	WORD_OFF	n/a	n/a	ZOO	6	11	[0, 0, 0]	n/a	FR1	1	R1299T
4819.097	1.63	1277522	WORD	n/a	wordpools/wordpool_EN.txt	SHEET	7	11	[0, 0, 0]	n/a	FR1	1	R1299T
4820.727	0.973	1279152	WORD_OFF	n/a	n/a	SHEET	7	11	[0, 0, 0]	n/a	FR1	1	R1299T
4821.7	1.627	1280125	WORD	n/a	wordpools/wordpool_EN.txt	GOAT	8	11	[0, 0, 0]	n/a	FR1	1	R1299T
4823.327	0.812	1281752	WORD_OFF	n/a	n/a	GOAT	8	11	[0, 0, 0]	n/a	FR1	1	R1299T
4824.139	1.639	1282564	WORD	n/a	wordpools/wordpool_EN.txt	DUCK	9	11	[0, 0, 0]	n/a	FR1	1	R1299T
4825.778	0.885	1284203	WORD_OFF	n/a	n/a	DUCK	9	11	[0, 0, 0]	n/a	FR1	1	R1299T
4826.663	1.632	1285088	WORD	n/a	wordpools/wordpool_EN.txt	PIPE	10	11	[0, 0, 0]	n/a	FR1	1	R1299T
4828.295	0.908	1286720	WORD_OFF	n/a	n/a	PIPE	10	11	[0, 0, 0]	n/a	FR1	1	R1299T
4829.203	1.625	1287628	WORD	n/a	wordpools/wordpool_EN.txt	FOG	11	11	[0, 0, 0]	n/a	FR1	1	R1299T
4830.828	1.101	1289253	WORD_OFF	n/a	n/a	FOG	11	11	[0, 0, 0]	n/a	FR1	1	R1299T
4831.929	1.633	1290354	WORD	n/a	wordpools/wordpool_EN.txt	DIME	12	11	[0, 0, 0]	n/a	FR1	1	R1299T
4833.562	0.001	1291987	WORD_OFF	n/a	n/a	DIME	12	11	[0, 0, 0]	n/a	FR1	1	R1299T
4833.563	0.0	1291988	ENCODING_END	n/a	n/a	n/a	-999	11	[0, 0, 0]	n/a	FR1	1	R1299T
4833.563	0.0	1291988	DISTRACT_START	n/a	n/a	n/a	-999	11	[0, 0, 0]	n/a	FR1	1	R1299T
4833.563	0.016	1291988	START	n/a	n/a	n/a	-999	11	[-999, -999, -999]	n/a	FR1	1	R1299T
4833.579	4.817	1292004	PROB	4.817	n/a	n/a	-999	11	[1, 2, 4]	7	FR1	1	R1299T
4838.396	5.101	1296820	PROB	5.101	n/a	n/a	-999	11	[9, 7, 3]	19	FR1	1	R1299T
4843.497	8.452	1301921	PROB	8.452	n/a	n/a	-999	11	[2, 7, 9]	18	FR1	1	R1299T
4851.949	6.01	1310373	PROB	6.01	n/a	n/a	-999	11	[5, 2, 5]	12	FR1	1	R1299T
4857.959	0.008	1316383	STOP	n/a	n/a	n/a	-999	11	[-999, -999, -999]	n/a	FR1	1	R1299T
4857.967	0.619	1316391	DISTRACT_END	n/a	n/a	n/a	-999	11	[0, 0, 0]	n/a	FR1	1	R1299T
4858.586	1.698	1317009	RETRIEVAL_ORIENT_START	n/a	n/a	n/a	-999	11	[0, 0, 0]	n/a	FR1	1	R1299T
4860.284	0.0	1318707	REC_START	n/a	n/a	n/a	-999	11	[0, 0, 0]	n/a	FR1	1	R1299T
4860.284	0.812	1318707	RETRIEVAL_ORIENT_END	n/a	n/a	n/a	-999	11	[0, 0, 0]	n/a	FR1	1	R1299T
4861.096	0.679	1319519	REC_WORD_VV	0.679	n/a	<>	-999	11	[0, 0, 0]	n/a	FR1	1	R1299T
4861.775	1.929	1320198	REC_WORD	1.929	n/a	CHIN	1	11	[0, 0, 0]	n/a	FR1	1	R1299T
4863.704	3.277	1322127	REC_WORD	3.277	n/a	NET	3	11	[0, 0, 0]	n/a	FR1	1	R1299T
4866.981	3.758	1325404	REC_WORD_VV	3.758	n/a	<>	-999	11	[0, 0, 0]	n/a	FR1	1	R1299T
4870.739	5.535	1329162	REC_WORD	5.535	n/a	CHAIR	4	11	[0, 0, 0]	n/a	FR1	1	R1299T
4876.274	0.265	1334697	REC_WORD_VV	0.265	n/a	<>	-999	11	[0, 0, 0]	n/a	FR1	1	R1299T
4876.539	6.559	1334962	REC_WORD	6.559	n/a	DIME	12	11	[0, 0, 0]	n/a	FR1	1	R1299T
4883.098	7.198	1341520	REC_WORD	7.198	n/a	DESK	-999	11	[0, 0, 0]	n/a	FR1	1	R1299T
4890.296	0.0	1348718	REC_END	n/a	n/a	n/a	-999	11	[0, 0, 0]	n/a	FR1	1	R1299T
4890.296	0.014	1348718	TRIAL_END	n/a	n/a	n/a	-999	11	[0, 0, 0]	n/a	FR1	1	R1299T
4890.31	0.0	1348732	TRIAL_START	n/a	n/a	n/a	-999	12	[0, 0, 0]	n/a	FR1	1	R1299T
4890.31	0.0	1348732	TRIAL	n/a	n/a	n/a	-999	12	[0, 0, 0]	n/a	FR1	1	R1299T
4890.31	3.38	1348732	WAITING_START	n/a	n/a	n/a	-999	12	[0, 0, 0]	n/a	FR1	1	R1299T
4893.69	0.0	1352112	WAITING_END	n/a	n/a	n/a	-999	12	[0, 0, 0]	n/a	FR1	1	R1299T
4893.69	10.429	1352112	COUNTDOWN_START	n/a	n/a	n/a	-999	12	[0, 0, 0]	n/a	FR1	1	R1299T
4904.119	0.0	1362540	ORIENT_START	n/a	n/a	n/a	-999	12	[0, 0, 0]	n/a	FR1	1	R1299T
4904.119	1.19	1362540	COUNTDOWN_END	n/a	n/a	n/a	-999	12	[0, 0, 0]	n/a	FR1	1	R1299T
4905.309	0.0	1363730	ENCODING_START	n/a	n/a	n/a	-999	12	[0, 0, 0]	n/a	FR1	1	R1299T
4905.309	0.884	1363730	ORIENT_END	n/a	n/a	n/a	-999	12	[0, 0, 0]	n/a	FR1	1	R1299T
4906.193	1.633	1364614	WORD	n/a	wordpools/wordpool_EN.txt	CASH	1	12	[0, 0, 0]	n/a	FR1	1	R1299T
4907.826	1.124	1366247	WORD_OFF	n/a	n/a	CASH	1	12	[0, 0, 0]	n/a	FR1	1	R1299T
4908.95	1.626	1367371	WORD	n/a	wordpools/wordpool_EN.txt	FOOD	2	12	[0, 0, 0]	n/a	FR1	1	R1299T
4910.576	0.836	1368997	WORD_OFF	n/a	n/a	FOOD	2	12	[0, 0, 0]	n/a	FR1	1	R1299T
4911.412	1.631	1369833	WORD	n/a	wordpools/wordpool_EN.txt	JAIL	3	12	[0, 0, 0]	n/a	FR1	1	R1299T
4913.043	1.108	1371464	WORD_OFF	n/a	n/a	JAIL	3	12	[0, 0, 0]	n/a	FR1	1	R1299T
4914.151	1.626	1372572	WORD	n/a	wordpools/wordpool_EN.txt	MAIL	4	12	[0, 0, 0]	n/a	FR1	1	R1299T
4915.777	0.961	1374198	WORD_OFF	n/a	n/a	MAIL	4	12	[0, 0, 0]	n/a	FR1	1	R1299T
4916.738	1.623	1375159	WORD	n/a	wordpools/wordpool_EN.txt	PIG	5	12	[0, 0, 0]	n/a	FR1	1	R1299T
4918.361	0.986	1376782	WORD_OFF	n/a	n/a	PIG	5	12	[0, 0, 0]	n/a	FR1	1	R1299T
4919.347	1.631	1377768	WORD	n/a	wordpools/wordpool_EN.txt	THREAD	6	12	[0, 0, 0]	n/a	FR1	1	R1299T
4920.978	0.948	1379399	WORD_OFF	n/a	n/a	THREAD	6	12	[0, 0, 0]	n/a	FR1	1	R1299T
4921.926	1.636	1380347	WORD	n/a	wordpools/wordpool_EN.txt	SIGN	7	12	[0, 0, 0]	n/a	FR1	1	R1299T
4923.562	0.843	1381983	WORD_OFF	n/a	n/a	SIGN	7	12	[0, 0, 0]	n/a	FR1	1	R1299T
4924.405	1.624	1382826	WORD	n/a	wordpools/wordpool_EN.txt	KITE	8	12	[0, 0, 0]	n/a	FR1	1	R1299T
4926.029	0.774	1384450	WORD_OFF	n/a	n/a	KITE	8	12	[0, 0, 0]	n/a	FR1	1	R1299T
4926.803	1.627	1385223	WORD	n/a	wordpools/wordpool_EN.txt	BOOK	9	12	[0, 0, 0]	n/a	FR1	1	R1299T
4928.43	0.88	1386850	WORD_OFF	n/a	n/a	BOOK	9	12	[0, 0, 0]	n/a	FR1	1	R1299T
4929.31	1.637	1387730	WORD	n/a	wordpools/wordpool_EN.txt	RUG	10	12	[0, 0, 0]	n/a	FR1	1	R1299T
4930.947	1.013	1389367	WORD_OFF	n/a	n/a	RUG	10	12	[0, 0, 0]	n/a	FR1	1	R1299T
4931.96	1.637	1390380	WORD	n/a	wordpools/wordpool_EN.txt	MOUTH	11	12	[0, 0, 0]	n/a	FR1	1	R1299T
4933.597	1.114	1392017	WORD_OFF	n/a	n/a	MOUTH	11	12	[0, 0, 0]	n/a	FR1	1	R1299T
4934.711	1.637	1393131	WORD	n/a	wordpools/wordpool_EN.txt	SHARK	12	12	[0, 0, 0]	n/a	FR1	1	R1299T
4936.348	0.0	1394768	WORD_OFF	n/a	n/a	SHARK	12	12	[0, 0, 0]	n/a	FR1	1	R1299T
4936.348	0.0	1394768	ENCODING_END	n/a	n/a	n/a	-999	12	[0, 0, 0]	n/a	FR1	1	R1299T
4936.348	0.001	1394768	DISTRACT_START	n/a	n/a	n/a	-999	12	[0, 0, 0]	n/a	FR1	1	R1299T
4936.349	0.015	1394769	START	n/a	n/a	n/a	-999	12	[-999, -999, -999]	n/a	FR1	1	R1299T
4936.364	5.151	1394784	PROB	5.151	n/a	n/a	-999	12	[1, 9, 4]	14	FR1	1	R1299T
4941.515	9.368	1399935	PROB	9.368	n/a	n/a	-999	12	[5, 6, 7]	18	FR1	1	R1299T
4950.883	5.831	1409302	PROB	5.831	n/a	n/a	-999	12	[7, 8, 2]	17	FR1	1	R1299T
4956.714	0.021	1415133	STOP	n/a	n/a	n/a	-999	12	[-999, -999, -999]	n/a	FR1	1	R1299T
4956.735	0.534	1415154	DISTRACT_END	n/a	n/a	n/a	-999	12	[0, 0, 0]	n/a	FR1	1	R1299T
4957.269	1.633	1415688	RETRIEVAL_ORIENT_START	n/a	n/a	n/a	-999	12	[0, 0, 0]	n/a	FR1	1	R1299T
4958.902	0.0	1417321	RETRIEVAL_ORIENT_END	n/a	n/a	n/a	-999	12	[0, 0, 0]	n/a	FR1	1	R1299T
4958.902	4.761	1417321	REC_START	n/a	n/a	n/a	-999	12	[0, 0, 0]	n/a	FR1	1	R1299T
4963.663	2.605	1422082	REC_WORD	2.605	n/a	SHARK	12	12	[0, 0, 0]	n/a	FR1	1	R1299T
4966.268	0.3	1424687	REC_WORD_VV	0.3	n/a	<>	-999	12	[0, 0, 0]	n/a	FR1	1	R1299T
4966.568	6.443	1424987	REC_WORD	6.443	n/a	MOUTH	11	12	[0, 0, 0]	n/a	FR1	1	R1299T
4973.011	1.476	1431429	REC_WORD_VV	1.476	n/a	<>	-999	12	[0, 0, 0]	n/a	FR1	1	R1299T
4974.487	11.786	1432905	REC_WORD	11.786	n/a	STAIR	-999	12	[0, 0, 0]	n/a	FR1	1	R1299T
4986.273	2.642	1444691	REC_WORD	2.642	n/a	CHAIR	-999	12	[0, 0, 0]	n/a	FR1	1	R1299T
4988.915	0.0	1447333	TRIAL_END	n/a	n/a	n/a	-999	12	[0, 0, 0]	n/a	FR1	1	R1299T
4988.915	0.015	1447333	REC_END	n/a	n/a	n/a	-999	12	[0, 0, 0]	n/a	FR1	1	R1299T
4988.93	0.0	1447348	TRIAL_START	n/a	n/a	n/a	-999	13	[0, 0, 0]	n/a	FR1	1	R1299T
4988.93	0.001	1447348	TRIAL	n/a	n/a	n/a	-999	13	[0, 0, 0]	n/a	FR1	1	R1299T
4988.931	2.393	1447349	WAITING_START	n/a	n/a	n/a	-999	13	[0, 0, 0]	n/a	FR1	1	R1299T
4991.324	0.001	1449742	WAITING_END	n/a	n/a	n/a	-999	13	[0, 0, 0]	n/a	FR1	1	R1299T
4991.325	10.428	1449743	COUNTDOWN_START	n/a	n/a	n/a	-999	13	[0, 0, 0]	n/a	FR1	1	R1299T
5001.753	0.0	1460170	COUNTDOWN_END	n/a	n/a	n/a	-999	13	[0, 0, 0]	n/a	FR1	1	R1299T
5001.753	1.024	1460170	ORIENT_START	n/a	n/a	n/a	-999	13	[0, 0, 0]	n/a	FR1	1	R1299T
5002.777	0.0	1461194	ENCODING_START	n/a	n/a	n/a	-999	13	[0, 0, 0]	n/a	FR1	1	R1299T
5002.777	0.821	1461194	ORIENT_END	n/a	n/a	n/a	-999	13	[0, 0, 0]	n/a	FR1	1	R1299T
5003.598	1.628	1462015	WORD	n/a	wordpools/wordpool_EN.txt	BOMB	1	13	[0, 0, 0]	n/a	FR1	1	R1299T
5005.226	1.003	1463643	WORD_OFF	n/a	n/a	BOMB	1	13	[0, 0, 0]	n/a	FR1	1	R1299T
5006.229	1.632	1464646	WORD	n/a	wordpools/wordpool_EN.txt	ROPE	2	13	[0, 0, 0]	n/a	FR1	1	R1299T
5007.861	0.755	1466278	WORD_OFF	n/a	n/a	ROPE	2	13	[0, 0, 0]	n/a	FR1	1	R1299T
5008.616	1.628	1467033	WORD	n/a	wordpools/wordpool_EN.txt	PET	3	13	[0, 0, 0]	n/a	FR1	1	R1299T
5010.244	0.964	1468661	WORD_OFF	n/a	n/a	PET	3	13	[0, 0, 0]	n/a	FR1	1	R1299T
5011.208	1.637	1469625	WORD	n/a	wordpools/wordpool_EN.txt	STONE	4	13	[0, 0, 0]	n/a	FR1	1	R1299T
5012.845	0.751	1471262	WORD_OFF	n/a	n/a	STONE	4	13	[0, 0, 0]	n/a	FR1	1	R1299T
5013.596	1.633	1472013	WORD	n/a	wordpools/wordpool_EN.txt	CALF	5	13	[0, 0, 0]	n/a	FR1	1	R1299T
5015.229	0.921	1473646	WORD_OFF	n/a	n/a	CALF	5	13	[0, 0, 0]	n/a	FR1	1	R1299T
5016.15	1.629	1474567	WORD	n/a	wordpools/wordpool_EN.txt	SKUNK	6	13	[0, 0, 0]	n/a	FR1	1	R1299T
5017.779	0.916	1476196	WORD_OFF	n/a	n/a	SKUNK	6	13	[0, 0, 0]	n/a	FR1	1	R1299T
5018.695	1.635	1477111	WORD	n/a	wordpools/wordpool_EN.txt	SNAKE	7	13	[0, 0, 0]	n/a	FR1	1	R1299T
5020.33	0.898	1478746	WORD_OFF	n/a	n/a	SNAKE	7	13	[0, 0, 0]	n/a	FR1	1	R1299T
5021.228	1.635	1479644	WORD	n/a	wordpools/wordpool_EN.txt	FROG	8	13	[0, 0, 0]	n/a	FR1	1	R1299T
5022.863	0.816	1481279	WORD_OFF	n/a	n/a	FROG	8	13	[0, 0, 0]	n/a	FR1	1	R1299T
5023.679	1.635	1482095	WORD	n/a	wordpools/wordpool_EN.txt	GUARD	9	13	[0, 0, 0]	n/a	FR1	1	R1299T
5025.314	0.852	1483730	WORD_OFF	n/a	n/a	GUARD	9	13	[0, 0, 0]	n/a	FR1	1	R1299T
5026.166	1.632	1484582	WORD	n/a	wordpools/wordpool_EN.txt	ARK	10	13	[0, 0, 0]	n/a	FR1	1	R1299T
5027.798	1.136	1486214	WORD_OFF	n/a	n/a	ARK	10	13	[0, 0, 0]	n/a	FR1	1	R1299T
5028.934	1.631	1487350	WORD	n/a	wordpools/wordpool_EN.txt	KEY	11	13	[0, 0, 0]	n/a	FR1	1	R1299T
5030.565	1.005	1488981	WORD_OFF	n/a	n/a	KEY	11	13	[0, 0, 0]	n/a	FR1	1	R1299T
5031.57	1.629	1489986	WORD	n/a	wordpools/wordpool_EN.txt	WORLD	12	13	[0, 0, 0]	n/a	FR1	1	R1299T
5033.199	0.0	1491615	WORD_OFF	n/a	n/a	WORLD	12	13	[0, 0, 0]	n/a	FR1	1	R1299T
5033.199	0.0	1491615	ENCODING_END	n/a	n/a	n/a	-999	13	[0, 0, 0]	n/a	FR1	1	R1299T
5033.199	0.001	1491615	DISTRACT_START	n/a	n/a	n/a	-999	13	[0, 0, 0]	n/a	FR1	1	R1299T
5033.2	0.014	1491616	START	n/a	n/a	n/a	-999	13	[-999, -999, -999]	n/a	FR1	1	R1299T
5033.214	5.719	1491630	PROB	5.719	n/a	n/a	-999	13	[3, 4, 2]	9	FR1	1	R1299T
5038.933	9.418	1497349	PROB	9.418	n/a	n/a	-999	13	[5, 9, 7]	21	FR1	1	R1299T
5048.351	6.622	1506766	PROB	6.622	n/a	n/a	-999	13	[5, 6, 4]	15	FR1	1	R1299T
5054.973	0.013	1513388	STOP	n/a	n/a	n/a	-999	13	[-999, -999, -999]	n/a	FR1	1	R1299T
5054.986	0.531	1513401	DISTRACT_END	n/a	n/a	n/a	-999	13	[0, 0, 0]	n/a	FR1	1	R1299T
5055.517	1.702	1513932	RETRIEVAL_ORIENT_START	n/a	n/a	n/a	-999	13	[0, 0, 0]	n/a	FR1	1	R1299T
5057.219	0.0	1515634	RETRIEVAL_ORIENT_END	n/a	n/a	n/a	-999	13	[0, 0, 0]	n/a	FR1	1	R1299T
5057.219	1.283	1515634	REC_START	n/a	n/a	n/a	-999	13	[0, 0, 0]	n/a	FR1	1	R1299T
5058.502	0.779	1516917	REC_WORD_VV	0.779	n/a	<>	-999	13	[0, 0, 0]	n/a	FR1	1	R1299T
5059.281	2.928	1517696	REC_WORD	2.928	n/a	PET	3	13	[0, 0, 0]	n/a	FR1	1	R1299T
5062.209	14.75	1520624	REC_WORD	14.75	n/a	FROG	8	13	[0, 0, 0]	n/a	FR1	1	R1299T
5076.959	10.274	1535373	REC_WORD	10.274	n/a	ARK	10	13	[0, 0, 0]	n/a	FR1	1	R1299T
5087.233	0.0	1545646	REC_END	n/a	n/a	n/a	-999	13	[0, 0, 0]	n/a	FR1	1	R1299T
5087.233	0.014	1545646	TRIAL_END	n/a	n/a	n/a	-999	13	[0, 0, 0]	n/a	FR1	1	R1299T
5087.247	0.001	1545660	TRIAL_START	n/a	n/a	n/a	-999	14	[0, 0, 0]	n/a	FR1	1	R1299T
5087.248	0.0	1545661	TRIAL	n/a	n/a	n/a	-999	14	[0, 0, 0]	n/a	FR1	1	R1299T
5087.248	4.977	1545661	WAITING_START	n/a	n/a	n/a	-999	14	[0, 0, 0]	n/a	FR1	1	R1299T
5092.225	0.0	1550638	WAITING_END	n/a	n/a	n/a	-999	14	[0, 0, 0]	n/a	FR1	1	R1299T
5092.225	10.43	1550638	COUNTDOWN_START	n/a	n/a	n/a	-999	14	[0, 0, 0]	n/a	FR1	1	R1299T
5102.655	0.0	1561068	COUNTDOWN_END	n/a	n/a	n/a	-999	14	[0, 0, 0]	n/a	FR1	1	R1299T
5102.655	1.04	1561068	ORIENT_START	n/a	n/a	n/a	-999	14	[0, 0, 0]	n/a	FR1	1	R1299T
5103.695	0.0	1562108	ENCODING_START	n/a	n/a	n/a	-999	14	[0, 0, 0]	n/a	FR1	1	R1299T
5103.695	0.93	1562108	ORIENT_END	n/a	n/a	n/a	-999	14	[0, 0, 0]	n/a	FR1	1	R1299T
5104.625	1.637	1563038	WORD	n/a	wordpools/wordpool_EN.txt	BROOM	1	14	[0, 0, 0]	n/a	FR1	1	R1299T
5106.262	1.135	1564675	WORD_OFF	n/a	n/a	BROOM	1	14	[0, 0, 0]	n/a	FR1	1	R1299T
5107.397	1.632	1565810	WORD	n/a	wordpools/wordpool_EN.txt	SMOKE	2	14	[0, 0, 0]	n/a	FR1	1	R1299T
5109.029	1.126	1567442	WORD_OFF	n/a	n/a	SMOKE	2	14	[0, 0, 0]	n/a	FR1	1	R1299T
5110.155	1.625	1568567	WORD	n/a	wordpools/wordpool_EN.txt	STEAK	3	14	[0, 0, 0]	n/a	FR1	1	R1299T
5111.78	1.129	1570192	WORD_OFF	n/a	n/a	STEAK	3	14	[0, 0, 0]	n/a	FR1	1	R1299T
5112.909	1.621	1571321	WORD	n/a	wordpools/wordpool_EN.txt	BAG	4	14	[0, 0, 0]	n/a	FR1	1	R1299T
5114.53	0.982	1572942	WORD_OFF	n/a	n/a	BAG	4	14	[0, 0, 0]	n/a	FR1	1	R1299T
5115.512	1.635	1573924	WORD	n/a	wordpools/wordpool_EN.txt	STICK	5	14	[0, 0, 0]	n/a	FR1	1	R1299T
5117.147	1.019	1575559	WORD_OFF	n/a	n/a	STICK	5	14	[0, 0, 0]	n/a	FR1	1	R1299T
5118.166	1.632	1576578	WORD	n/a	wordpools/wordpool_EN.txt	PALM	6	14	[0, 0, 0]	n/a	FR1	1	R1299T
5119.798	0.874	1578210	WORD_OFF	n/a	n/a	PALM	6	14	[0, 0, 0]	n/a	FR1	1	R1299T
5120.672	1.626	1579084	WORD	n/a	wordpools/wordpool_EN.txt	SHIP	7	14	[0, 0, 0]	n/a	FR1	1	R1299T
5122.298	1.132	1580710	WORD_OFF	n/a	n/a	SHIP	7	14	[0, 0, 0]	n/a	FR1	1	R1299T
5123.43	1.635	1581842	WORD	n/a	wordpools/wordpool_EN.txt	SMILE	8	14	[0, 0, 0]	n/a	FR1	1	R1299T
5125.065	1.074	1583477	WORD_OFF	n/a	n/a	SMILE	8	14	[0, 0, 0]	n/a	FR1	1	R1299T
5126.139	1.627	1584551	WORD	n/a	wordpools/wordpool_EN.txt	WAND	9	14	[0, 0, 0]	n/a	FR1	1	R1299T
5127.766	1.135	1586178	WORD_OFF	n/a	n/a	WAND	9	14	[0, 0, 0]	n/a	FR1	1	R1299T
5128.901	1.632	1587313	WORD	n/a	wordpools/wordpool_EN.txt	POLE	10	14	[0, 0, 0]	n/a	FR1	1	R1299T
5130.533	0.823	1588945	WORD_OFF	n/a	n/a	POLE	10	14	[0, 0, 0]	n/a	FR1	1	R1299T
5131.356	1.628	1589768	WORD	n/a	wordpools/wordpool_EN.txt	FUDGE	11	14	[0, 0, 0]	n/a	FR1	1	R1299T
5132.984	0.817	1591395	WORD_OFF	n/a	n/a	FUDGE	11	14	[0, 0, 0]	n/a	FR1	1	R1299T
5133.801	1.633	1592212	WORD	n/a	wordpools/wordpool_EN.txt	WAVE	12	14	[0, 0, 0]	n/a	FR1	1	R1299T
5135.434	0.0	1593845	WORD_OFF	n/a	n/a	WAVE	12	14	[0, 0, 0]	n/a	FR1	1	R1299T
5135.434	0.001	1593845	ENCODING_END	n/a	n/a	n/a	-999	14	[0, 0, 0]	n/a	FR1	1	R1299T
5135.435	0.0	1593846	DISTRACT_START	n/a	n/a	n/a	-999	14	[0, 0, 0]	n/a	FR1	1	R1299T
5135.435	0.015	1593846	START	n/a	n/a	n/a	-999	14	[-999, -999, -999]	n/a	FR1	1	R1299T
5135.45	5.935	1593861	PROB	5.935	n/a	n/a	-999	14	[7, 4, 8]	19	FR1	1	R1299T
5141.385	7.151	1599796	PROB	7.151	n/a	n/a	-999	14	[1, 5, 8]	14	FR1	1	R1299T
5148.536	9.866	1606947	PROB	9.866	n/a	n/a	-999	14	[8, 7, 8]	23	FR1	1	R1299T
5158.402	0.019	1616812	STOP	n/a	n/a	n/a	-999	14	[-999, -999, -999]	n/a	FR1	1	R1299T
5158.421	0.617	1616831	DISTRACT_END	n/a	n/a	n/a	-999	14	[0, 0, 0]	n/a	FR1	1	R1299T
5159.038	1.634	1617448	RETRIEVAL_ORIENT_START	n/a	n/a	n/a	-999	14	[0, 0, 0]	n/a	FR1	1	R1299T
5160.672	0.0	1619082	RETRIEVAL_ORIENT_END	n/a	n/a	n/a	-999	14	[0, 0, 0]	n/a	FR1	1	R1299T
5160.672	1.192	1619082	REC_START	n/a	n/a	n/a	-999	14	[0, 0, 0]	n/a	FR1	1	R1299T
5161.864	2.554	1620274	REC_WORD_VV	2.554	n/a	<>	-999	14	[0, 0, 0]	n/a	FR1	1	R1299T
5164.418	1.0	1622828	REC_WORD	1.0	n/a	STEAK	3	14	[0, 0, 0]	n/a	FR1	1	R1299T
5165.418	2.744	1623828	REC_WORD_VV	2.744	n/a	<>	-999	14	[0, 0, 0]	n/a	FR1	1	R1299T
5168.162	2.255	1626572	REC_WORD	2.255	n/a	STICK	5	14	[0, 0, 0]	n/a	FR1	1	R1299T
5170.417	4.36	1628827	REC_WORD	4.36	n/a	WAND	9	14	[0, 0, 0]	n/a	FR1	1	R1299T
5174.777	9.072	1633187	REC_WORD_VV	9.072	n/a	<>	-999	14	[0, 0, 0]	n/a	FR1	1	R1299T
5183.849	1.13	1642258	REC_WORD	1.13	n/a	SMOKE	2	14	[0, 0, 0]	n/a	FR1	1	R1299T
5184.979	5.705	1643388	REC_WORD_VV	5.705	n/a	<>	-999	14	[0, 0, 0]	n/a	FR1	1	R1299T
5190.684	0.0	1649093	REC_END	n/a	n/a	n/a	-999	14	[0, 0, 0]	n/a	FR1	1	R1299T
5190.684	0.014	1649093	TRIAL_END	n/a	n/a	n/a	-999	14	[0, 0, 0]	n/a	FR1	1	R1299T
5190.698	0.0	1649107	TRIAL_START	n/a	n/a	n/a	-999	15	[0, 0, 0]	n/a	FR1	1	R1299T
5190.698	0.0	1649107	TRIAL	n/a	n/a	n/a	-999	15	[0, 0, 0]	n/a	FR1	1	R1299T
5190.698	3.313	1649107	WAITING_START	n/a	n/a	n/a	-999	15	[0, 0, 0]	n/a	FR1	1	R1299T
5194.011	0.001	1652420	WAITING_END	n/a	n/a	n/a	-999	15	[0, 0, 0]	n/a	FR1	1	R1299T
5194.012	10.428	1652421	COUNTDOWN_START	n/a	n/a	n/a	-999	15	[0, 0, 0]	n/a	FR1	1	R1299T
5204.44	0.0	1662848	ORIENT_START	n/a	n/a	n/a	-999	15	[0, 0, 0]	n/a	FR1	1	R1299T
5204.44	1.123	1662848	COUNTDOWN_END	n/a	n/a	n/a	-999	15	[0, 0, 0]	n/a	FR1	1	R1299T
5205.563	0.001	1663971	ORIENT_END	n/a	n/a	n/a	-999	15	[0, 0, 0]	n/a	FR1	1	R1299T
5205.564	0.956	1663972	ENCODING_START	n/a	n/a	n/a	-999	15	[0, 0, 0]	n/a	FR1	1	R1299T
5206.52	1.627	1664928	WORD	n/a	wordpools/wordpool_EN.txt	JAR	1	15	[0, 0, 0]	n/a	FR1	1	R1299T
5208.147	1.064	1666555	WORD_OFF	n/a	n/a	JAR	1	15	[0, 0, 0]	n/a	FR1	1	R1299T
5209.211	1.62	1667619	WORD	n/a	wordpools/wordpool_EN.txt	FAN	2	15	[0, 0, 0]	n/a	FR1	1	R1299T
5210.831	0.902	1669239	WORD_OFF	n/a	n/a	FAN	2	15	[0, 0, 0]	n/a	FR1	1	R1299T
5211.733	1.632	1670141	WORD	n/a	wordpools/wordpool_EN.txt	HORN	3	15	[0, 0, 0]	n/a	FR1	1	R1299T
5213.365	0.783	1671773	WORD_OFF	n/a	n/a	HORN	3	15	[0, 0, 0]	n/a	FR1	1	R1299T
5214.148	1.634	1672556	WORD	n/a	wordpools/wordpool_EN.txt	GRAPE	4	15	[0, 0, 0]	n/a	FR1	1	R1299T
5215.782	1.116	1674190	WORD_OFF	n/a	n/a	GRAPE	4	15	[0, 0, 0]	n/a	FR1	1	R1299T
5216.898	1.634	1675306	WORD	n/a	wordpools/wordpool_EN.txt	MOON	5	15	[0, 0, 0]	n/a	FR1	1	R1299T
5218.532	1.124	1676940	WORD_OFF	n/a	n/a	MOON	5	15	[0, 0, 0]	n/a	FR1	1	R1299T
5219.656	1.627	1678064	WORD	n/a	wordpools/wordpool_EN.txt	CROW	6	15	[0, 0, 0]	n/a	FR1	1	R1299T
5221.283	0.835	1679691	WORD_OFF	n/a	n/a	CROW	6	15	[0, 0, 0]	n/a	FR1	1	R1299T
5222.118	1.632	1680526	WORD	n/a	wordpools/wordpool_EN.txt	GATE	7	15	[0, 0, 0]	n/a	FR1	1	R1299T
5223.75	0.958	1682158	WORD_OFF	n/a	n/a	GATE	7	15	[0, 0, 0]	n/a	FR1	1	R1299T
5224.708	1.626	1683115	WORD	n/a	wordpools/wordpool_EN.txt	BLOOM	8	15	[0, 0, 0]	n/a	FR1	1	R1299T
5226.334	1.15	1684741	WORD_OFF	n/a	n/a	BLOOM	8	15	[0, 0, 0]	n/a	FR1	1	R1299T
5227.484	1.634	1685891	WORD	n/a	wordpools/wordpool_EN.txt	CRANE	9	15	[0, 0, 0]	n/a	FR1	1	R1299T
5229.118	0.886	1687525	WORD_OFF	n/a	n/a	CRANE	9	15	[0, 0, 0]	n/a	FR1	1	R1299T
5230.004	1.631	1688411	WORD	n/a	wordpools/wordpool_EN.txt	HAND	10	15	[0, 0, 0]	n/a	FR1	1	R1299T
5231.635	1.079	1690042	WORD_OFF	n/a	n/a	HAND	10	15	[0, 0, 0]	n/a	FR1	1	R1299T
5232.714	1.621	1691121	WORD	n/a	wordpools/wordpool_EN.txt	VINE	11	15	[0, 0, 0]	n/a	FR1	1	R1299T
5234.335	0.836	1692742	WORD_OFF	n/a	n/a	VINE	11	15	[0, 0, 0]	n/a	FR1	1	R1299T
5235.171	1.631	1693578	WORD	n/a	wordpools/wordpool_EN.txt	CONE	12	15	[0, 0, 0]	n/a	FR1	1	R1299T
5236.802	0.001	1695209	WORD_OFF	n/a	n/a	CONE	12	15	[0, 0, 0]	n/a	FR1	1	R1299T
5236.803	0.0	1695210	DISTRACT_START	n/a	n/a	n/a	-999	15	[0, 0, 0]	n/a	FR1	1	R1299T
5236.803	0.0	1695210	ENCODING_END	n/a	n/a	n/a	-999	15	[0, 0, 0]	n/a	FR1	1	R1299T
5236.803	0.016	1695210	START	n/a	n/a	n/a	-999	15	[-999, -999, -999]	n/a	FR1	1	R1299T
5236.819	5.884	1695226	PROB	5.884	n/a	n/a	-999	15	[3, 7, 6]	16	FR1	1	R1299T
5242.703	4.801	1701110	PROB	4.801	n/a	n/a	-999	15	[1, 9, 5]	15	FR1	1	R1299T
5247.504	6.235	1705910	PROB	6.235	n/a	n/a	-999	15	[1, 6, 1]	8	FR1	1	R1299T
5253.739	6.662	1712145	PROB	6.662	n/a	n/a	-999	15	[8, 4, 1]	13	FR1	1	R1299T
5260.401	0.022	1718807	STOP	n/a	n/a	n/a	-999	15	[-999, -999, -999]	n/a	FR1	1	R1299T
5260.423	0.529	1718829	DISTRACT_END	n/a	n/a	n/a	-999	15	[0, 0, 0]	n/a	FR1	1	R1299T
5260.952	1.722	1719358	RETRIEVAL_ORIENT_START	n/a	n/a	n/a	-999	15	[0, 0, 0]	n/a	FR1	1	R1299T
5262.674	0.0	1721080	RETRIEVAL_ORIENT_END	n/a	n/a	n/a	-999	15	[0, 0, 0]	n/a	FR1	1	R1299T
5262.674	1.033	1721080	REC_START	n/a	n/a	n/a	-999	15	[0, 0, 0]	n/a	FR1	1	R1299T
5263.707	0.728	1722113	REC_WORD_VV	0.728	n/a	<>	-999	15	[0, 0, 0]	n/a	FR1	1	R1299T
5264.435	3.753	1722841	REC_WORD	3.753	n/a	CROW	6	15	[0, 0, 0]	n/a	FR1	1	R1299T
5268.188	24.499	1726594	REC_WORD	24.499	n/a	HAND	10	15	[0, 0, 0]	n/a	FR1	1	R1299T
5292.687	0.001	1751091	REC_END	n/a	n/a	n/a	-999	15	[0, 0, 0]	n/a	FR1	1	R1299T
5292.688	0.014	1751092	TRIAL_END	n/a	n/a	n/a	-999	15	[0, 0, 0]	n/a	FR1	1	R1299T
5292.702	0.0	1751106	TRIAL_START	n/a	n/a	n/a	-999	16	[0, 0, 0]	n/a	FR1	1	R1299T
5292.702	0.0	1751106	TRIAL	n/a	n/a	n/a	-999	16	[0, 0, 0]	n/a	FR1	1	R1299T
5292.702	4.178	1751106	WAITING_START	n/a	n/a	n/a	-999	16	[0, 0, 0]	n/a	FR1	1	R1299T
5296.88	0.001	1755284	WAITING_END	n/a	n/a	n/a	-999	16	[0, 0, 0]	n/a	FR1	1	R1299T
5296.881	10.429	1755285	COUNTDOWN_START	n/a	n/a	n/a	-999	16	[0, 0, 0]	n/a	FR1	1	R1299T
5307.31	0.0	1765714	COUNTDOWN_END	n/a	n/a	n/a	-999	16	[0, 0, 0]	n/a	FR1	1	R1299T
5307.31	1.122	1765714	ORIENT_START	n/a	n/a	n/a	-999	16	[0, 0, 0]	n/a	FR1	1	R1299T
5308.432	0.0	1766836	ORIENT_END	n/a	n/a	n/a	-999	16	[0, 0, 0]	n/a	FR1	1	R1299T
5308.432	0.813	1766836	ENCODING_START	n/a	n/a	n/a	-999	16	[0, 0, 0]	n/a	FR1	1	R1299T
5309.245	1.637	1767649	WORD	n/a	wordpools/wordpool_EN.txt	FLAME	1	16	[0, 0, 0]	n/a	FR1	1	R1299T
5310.882	0.763	1769286	WORD_OFF	n/a	n/a	FLAME	1	16	[0, 0, 0]	n/a	FR1	1	R1299T
5311.645	1.638	1770049	WORD	n/a	wordpools/wordpool_EN.txt	TOOTH	2	16	[0, 0, 0]	n/a	FR1	1	R1299T
5313.283	0.86	1771687	WORD_OFF	n/a	n/a	TOOTH	2	16	[0, 0, 0]	n/a	FR1	1	R1299T
5314.143	1.624	1772547	WORD	n/a	wordpools/wordpool_EN.txt	ELF	3	16	[0, 0, 0]	n/a	FR1	1	R1299T
5315.767	0.869	1774170	WORD_OFF	n/a	n/a	ELF	3	16	[0, 0, 0]	n/a	FR1	1	R1299T
5316.636	1.631	1775039	WORD	n/a	wordpools/wordpool_EN.txt	TEA	4	16	[0, 0, 0]	n/a	FR1	1	R1299T
5318.267	0.918	1776670	WORD_OFF	n/a	n/a	TEA	4	16	[0, 0, 0]	n/a	FR1	1	R1299T
5319.185	1.633	1777588	WORD	n/a	wordpools/wordpool_EN.txt	NOSE	5	16	[0, 0, 0]	n/a	FR1	1	R1299T
5320.818	1.108	1779221	WORD_OFF	n/a	n/a	NOSE	5	16	[0, 0, 0]	n/a	FR1	1	R1299T
5321.926	1.625	1780329	WORD	n/a	wordpools/wordpool_EN.txt	TENT	6	16	[0, 0, 0]	n/a	FR1	1	R1299T
5323.551	0.963	1781954	WORD_OFF	n/a	n/a	TENT	6	16	[0, 0, 0]	n/a	FR1	1	R1299T
5324.514	1.621	1782917	WORD	n/a	wordpools/wordpool_EN.txt	RAT	7	16	[0, 0, 0]	n/a	FR1	1	R1299T
5326.135	0.892	1784538	WORD_OFF	n/a	n/a	RAT	7	16	[0, 0, 0]	n/a	FR1	1	R1299T
5327.027	1.625	1785430	WORD	n/a	wordpools/wordpool_EN.txt	FLUTE	8	16	[0, 0, 0]	n/a	FR1	1	R1299T
5328.652	0.954	1787055	WORD_OFF	n/a	n/a	FLUTE	8	16	[0, 0, 0]	n/a	FR1	1	R1299T
5329.606	1.63	1788009	WORD	n/a	wordpools/wordpool_EN.txt	FLEA	9	16	[0, 0, 0]	n/a	FR1	1	R1299T
5331.236	0.992	1789639	WORD_OFF	n/a	n/a	FLEA	9	16	[0, 0, 0]	n/a	FR1	1	R1299T
5332.228	1.625	1790631	WORD	n/a	wordpools/wordpool_EN.txt	FILM	10	16	[0, 0, 0]	n/a	FR1	1	R1299T
5333.853	0.761	1792256	WORD_OFF	n/a	n/a	FILM	10	16	[0, 0, 0]	n/a	FR1	1	R1299T
5334.614	1.623	1793017	WORD	n/a	wordpools/wordpool_EN.txt	PEACH	11	16	[0, 0, 0]	n/a	FR1	1	R1299T
5336.237	0.932	1794640	WORD_OFF	n/a	n/a	PEACH	11	16	[0, 0, 0]	n/a	FR1	1	R1299T
5337.169	1.635	1795572	WORD	n/a	wordpools/wordpool_EN.txt	BADGE	12	16	[0, 0, 0]	n/a	FR1	1	R1299T
5338.804	0.001	1797206	WORD_OFF	n/a	n/a	BADGE	12	16	[0, 0, 0]	n/a	FR1	1	R1299T
5338.805	0.0	1797207	ENCODING_END	n/a	n/a	n/a	-999	16	[0, 0, 0]	n/a	FR1	1	R1299T
5338.805	0.0	1797207	DISTRACT_START	n/a	n/a	n/a	-999	16	[0, 0, 0]	n/a	FR1	1	R1299T
5338.805	0.016	1797207	START	n/a	n/a	n/a	-999	16	[-999, -999, -999]	n/a	FR1	1	R1299T
5338.821	6.201	1797223	PROB	6.201	n/a	n/a	-999	16	[2, 8, 7]	17	FR1	1	R1299T
5345.022	7.134	1803424	PROB	7.134	n/a	n/a	-999	16	[3, 8, 5]	16	FR1	1	R1299T
5352.156	4.151	1810558	PROB	4.151	n/a	n/a	-999	16	[3, 2, 7]	12	FR1	1	R1299T
5356.307	4.896	1814709	PROB	4.896	n/a	n/a	-999	16	[4, 1, 4]	9	FR1	1	R1299T
5361.203	0.021	1819604	STOP	n/a	n/a	n/a	-999	16	[-999, -999, -999]	n/a	FR1	1	R1299T
5361.224	0.631	1819625	DISTRACT_END	n/a	n/a	n/a	-999	16	[0, 0, 0]	n/a	FR1	1	R1299T
5361.855	1.687	1820256	RETRIEVAL_ORIENT_START	n/a	n/a	n/a	-999	16	[0, 0, 0]	n/a	FR1	1	R1299T
5363.542	0.0	1821943	RETRIEVAL_ORIENT_END	n/a	n/a	n/a	-999	16	[0, 0, 0]	n/a	FR1	1	R1299T
5363.542	1.025	1821943	REC_START	n/a	n/a	n/a	-999	16	[0, 0, 0]	n/a	FR1	1	R1299T
5364.567	0.649	1822968	REC_WORD_VV	0.649	n/a	<>	-999	16	[0, 0, 0]	n/a	FR1	1	R1299T
5365.216	2.454	1823617	REC_WORD	2.454	n/a	FILM	10	16	[0, 0, 0]	n/a	FR1	1	R1299T
5367.67	3.283	1826071	REC_WORD	3.283	n/a	FLUTE	8	16	[0, 0, 0]	n/a	FR1	1	R1299T
5370.953	2.486	1829354	REC_WORD	2.486	n/a	BADGE	12	16	[0, 0, 0]	n/a	FR1	1	R1299T
5373.439	3.131	1831840	REC_WORD_VV	3.131	n/a	<>	-999	16	[0, 0, 0]	n/a	FR1	1	R1299T
5376.57	3.833	1834971	REC_WORD	3.833	n/a	PEACH	11	16	[0, 0, 0]	n/a	FR1	1	R1299T
5380.403	13.151	1838804	REC_WORD_VV	13.151	n/a	<>	-999	16	[0, 0, 0]	n/a	FR1	1	R1299T
5393.554	0.001	1851954	REC_END	n/a	n/a	n/a	-999	16	[0, 0, 0]	n/a	FR1	1	R1299T
5393.555	0.014	1851955	TRIAL_END	n/a	n/a	n/a	-999	16	[0, 0, 0]	n/a	FR1	1	R1299T
5393.569	0.0	1851969	TRIAL_START	n/a	n/a	n/a	-999	17	[0, 0, 0]	n/a	FR1	1	R1299T
5393.569	0.0	1851969	TRIAL	n/a	n/a	n/a	-999	17	[0, 0, 0]	n/a	FR1	1	R1299T
5393.569	4.645	1851969	WAITING_START	n/a	n/a	n/a	-999	17	[0, 0, 0]	n/a	FR1	1	R1299T
5398.214	0.001	1856614	WAITING_END	n/a	n/a	n/a	-999	17	[0, 0, 0]	n/a	FR1	1	R1299T
5398.215	10.429	1856615	COUNTDOWN_START	n/a	n/a	n/a	-999	17	[0, 0, 0]	n/a	FR1	1	R1299T
5408.644	0.001	1867043	COUNTDOWN_END	n/a	n/a	n/a	-999	17	[0, 0, 0]	n/a	FR1	1	R1299T
5408.645	1.172	1867044	ORIENT_START	n/a	n/a	n/a	-999	17	[0, 0, 0]	n/a	FR1	1	R1299T
5409.817	0.001	1868216	ORIENT_END	n/a	n/a	n/a	-999	17	[0, 0, 0]	n/a	FR1	1	R1299T
5409.818	1.002	1868217	ENCODING_START	n/a	n/a	n/a	-999	17	[0, 0, 0]	n/a	FR1	1	R1299T
5410.82	1.631	1869219	WORD	n/a	wordpools/wordpool_EN.txt	SHIELD	1	17	[0, 0, 0]	n/a	FR1	1	R1299T
5412.451	0.888	1870850	WORD_OFF	n/a	n/a	SHIELD	1	17	[0, 0, 0]	n/a	FR1	1	R1299T
5413.339	1.629	1871738	WORD	n/a	wordpools/wordpool_EN.txt	HAT	2	17	[0, 0, 0]	n/a	FR1	1	R1299T
5414.968	0.914	1873367	WORD_OFF	n/a	n/a	HAT	2	17	[0, 0, 0]	n/a	FR1	1	R1299T
5415.882	1.637	1874281	WORD	n/a	wordpools/wordpool_EN.txt	BEACH	3	17	[0, 0, 0]	n/a	FR1	1	R1299T
5417.519	1.108	1875918	WORD_OFF	n/a	n/a	BEACH	3	17	[0, 0, 0]	n/a	FR1	1	R1299T
5418.627	1.625	1877026	WORD	n/a	wordpools/wordpool_EN.txt	SEED	4	17	[0, 0, 0]	n/a	FR1	1	R1299T
5420.252	1.138	1878651	WORD_OFF	n/a	n/a	SEED	4	17	[0, 0, 0]	n/a	FR1	1	R1299T
5421.39	1.63	1879789	WORD	n/a	wordpools/wordpool_EN.txt	BRIDGE	5	17	[0, 0, 0]	n/a	FR1	1	R1299T
5423.02	0.85	1881419	WORD_OFF	n/a	n/a	BRIDGE	5	17	[0, 0, 0]	n/a	FR1	1	R1299T
5423.87	1.633	1882269	WORD	n/a	wordpools/wordpool_EN.txt	FUR	6	17	[0, 0, 0]	n/a	FR1	1	R1299T
5425.503	0.835	1883902	WORD_OFF	n/a	n/a	FUR	6	17	[0, 0, 0]	n/a	FR1	1	R1299T
5426.338	1.632	1884737	WORD	n/a	wordpools/wordpool_EN.txt	ROOT	7	17	[0, 0, 0]	n/a	FR1	1	R1299T
5427.97	1.135	1886369	WORD_OFF	n/a	n/a	ROOT	7	17	[0, 0, 0]	n/a	FR1	1	R1299T
5429.105	1.633	1887504	WORD	n/a	wordpools/wordpool_EN.txt	GOLD	8	17	[0, 0, 0]	n/a	FR1	1	R1299T
5430.738	1.137	1889136	WORD_OFF	n/a	n/a	GOLD	8	17	[0, 0, 0]	n/a	FR1	1	R1299T
5431.875	1.63	1890273	WORD	n/a	wordpools/wordpool_EN.txt	LAND	9	17	[0, 0, 0]	n/a	FR1	1	R1299T
5433.505	0.882	1891903	WORD_OFF	n/a	n/a	LAND	9	17	[0, 0, 0]	n/a	FR1	1	R1299T
5434.387	1.635	1892785	WORD	n/a	wordpools/wordpool_EN.txt	SPARK	10	17	[0, 0, 0]	n/a	FR1	1	R1299T
5436.022	1.004	1894420	WORD_OFF	n/a	n/a	SPARK	10	17	[0, 0, 0]	n/a	FR1	1	R1299T
5437.026	1.63	1895424	WORD	n/a	wordpools/wordpool_EN.txt	CLOTH	11	17	[0, 0, 0]	n/a	FR1	1	R1299T
5438.656	0.957	1897054	WORD_OFF	n/a	n/a	CLOTH	11	17	[0, 0, 0]	n/a	FR1	1	R1299T
5439.613	1.627	1898011	WORD	n/a	wordpools/wordpool_EN.txt	HAWK	12	17	[0, 0, 0]	n/a	FR1	1	R1299T
5441.24	0.0	1899638	WORD_OFF	n/a	n/a	HAWK	12	17	[0, 0, 0]	n/a	FR1	1	R1299T
5441.24	0.0	1899638	ENCODING_END	n/a	n/a	n/a	-999	17	[0, 0, 0]	n/a	FR1	1	R1299T
5441.24	0.001	1899638	DISTRACT_START	n/a	n/a	n/a	-999	17	[0, 0, 0]	n/a	FR1	1	R1299T
5441.241	0.015	1899639	START	n/a	n/a	n/a	-999	17	[-999, -999, -999]	n/a	FR1	1	R1299T
5441.256	6.368	1899654	PROB	6.368	n/a	n/a	-999	17	[8, 7, 3]	18	FR1	1	R1299T
5447.624	3.501	1906022	PROB	3.501	n/a	n/a	-999	17	[4, 3, 2]	9	FR1	1	R1299T
5451.125	4.75	1909523	PROB	4.75	n/a	n/a	-999	17	[2, 8, 8]	18	FR1	1	R1299T
5455.875	6.741	1914272	PROB	6.741	n/a	n/a	-999	17	[5, 4, 7]	16	FR1	1	R1299T
5462.616	0.011	1921013	STOP	n/a	n/a	n/a	-999	17	[-999, -999, -999]	n/a	FR1	1	R1299T
5462.627	0.591	1921024	DISTRACT_END	n/a	n/a	n/a	-999	17	[0, 0, 0]	n/a	FR1	1	R1299T
5463.218	1.643	1921615	RETRIEVAL_ORIENT_START	n/a	n/a	n/a	-999	17	[0, 0, 0]	n/a	FR1	1	R1299T
5464.861	0.0	1923258	RETRIEVAL_ORIENT_END	n/a	n/a	n/a	-999	17	[0, 0, 0]	n/a	FR1	1	R1299T
5464.861	1.526	1923258	REC_START	n/a	n/a	n/a	-999	17	[0, 0, 0]	n/a	FR1	1	R1299T
5466.387	0.499	1924784	REC_WORD_VV	0.499	n/a	<>	-999	17	[0, 0, 0]	n/a	FR1	1	R1299T
5466.886	2.38	1925283	REC_WORD	2.38	n/a	HAWK	12	17	[0, 0, 0]	n/a	FR1	1	R1299T
5469.266	3.877	1927663	REC_WORD	3.877	n/a	BRIDGE	5	17	[0, 0, 0]	n/a	FR1	1	R1299T
5473.143	8.569	1931540	REC_WORD	8.569	n/a	LAND	9	17	[0, 0, 0]	n/a	FR1	1	R1299T
5481.712	5.152	1940108	REC_WORD	5.152	n/a	ARK	-999	17	[0, 0, 0]	n/a	FR1	1	R1299T
5486.864	8.009	1945260	REC_WORD	8.009	n/a	BEACH	3	17	[0, 0, 0]	n/a	FR1	1	R1299T
5494.873	0.0	1953269	TRIAL_END	n/a	n/a	n/a	-999	17	[0, 0, 0]	n/a	FR1	1	R1299T
5494.873	0.014	1953269	REC_END	n/a	n/a	n/a	-999	17	[0, 0, 0]	n/a	FR1	1	R1299T
5494.887	0.0	1953283	TRIAL_START	n/a	n/a	n/a	-999	18	[0, 0, 0]	n/a	FR1	1	R1299T
5494.887	0.001	1953283	TRIAL	n/a	n/a	n/a	-999	18	[0, 0, 0]	n/a	FR1	1	R1299T
5494.888	4.746	1953284	WAITING_START	n/a	n/a	n/a	-999	18	[0, 0, 0]	n/a	FR1	1	R1299T
5499.634	0.0	1958029	WAITING_END	n/a	n/a	n/a	-999	18	[0, 0, 0]	n/a	FR1	1	R1299T
5499.634	10.429	1958029	COUNTDOWN_START	n/a	n/a	n/a	-999	18	[0, 0, 0]	n/a	FR1	1	R1299T
5510.063	0.0	1968458	COUNTDOWN_END	n/a	n/a	n/a	-999	18	[0, 0, 0]	n/a	FR1	1	R1299T
5510.063	1.073	1968458	ORIENT_START	n/a	n/a	n/a	-999	18	[0, 0, 0]	n/a	FR1	1	R1299T
5511.136	0.0	1969531	ENCODING_START	n/a	n/a	n/a	-999	18	[0, 0, 0]	n/a	FR1	1	R1299T
5511.136	0.998	1969531	ORIENT_END	n/a	n/a	n/a	-999	18	[0, 0, 0]	n/a	FR1	1	R1299T
5512.134	1.635	1970529	WORD	n/a	wordpools/wordpool_EN.txt	DRUM	1	18	[0, 0, 0]	n/a	FR1	1	R1299T
5513.769	0.995	1972164	WORD_OFF	n/a	n/a	DRUM	1	18	[0, 0, 0]	n/a	FR1	1	R1299T
5514.764	1.622	1973159	WORD	n/a	wordpools/wordpool_EN.txt	LOCK	2	18	[0, 0, 0]	n/a	FR1	1	R1299T
5516.386	1.101	1974781	WORD_OFF	n/a	n/a	LOCK	2	18	[0, 0, 0]	n/a	FR1	1	R1299T
5517.487	1.633	1975882	WORD	n/a	wordpools/wordpool_EN.txt	DRESS	3	18	[0, 0, 0]	n/a	FR1	1	R1299T
5519.12	0.819	1977515	WORD_OFF	n/a	n/a	DRESS	3	18	[0, 0, 0]	n/a	FR1	1	R1299T
5519.939	1.632	1978334	WORD	n/a	wordpools/wordpool_EN.txt	WALL	4	18	[0, 0, 0]	n/a	FR1	1	R1299T
5521.571	1.079	1979965	WORD_OFF	n/a	n/a	WALL	4	18	[0, 0, 0]	n/a	FR1	1	R1299T
5522.65	1.621	1981044	WORD	n/a	wordpools/wordpool_EN.txt	CANE	5	18	[0, 0, 0]	n/a	FR1	1	R1299T
5524.271	0.851	1982665	WORD_OFF	n/a	n/a	CANE	5	18	[0, 0, 0]	n/a	FR1	1	R1299T
5525.122	1.633	1983516	WORD	n/a	wordpools/wordpool_EN.txt	BALL	6	18	[0, 0, 0]	n/a	FR1	1	R1299T
5526.755	0.767	1985149	WORD_OFF	n/a	n/a	BALL	6	18	[0, 0, 0]	n/a	FR1	1	R1299T
5527.522	1.634	1985916	WORD	n/a	wordpools/wordpool_EN.txt	INK	7	18	[0, 0, 0]	n/a	FR1	1	R1299T
5529.156	0.977	1987550	WORD_OFF	n/a	n/a	INK	7	18	[0, 0, 0]	n/a	FR1	1	R1299T
5530.133	1.623	1988527	WORD	n/a	wordpools/wordpool_EN.txt	SCHOOL	8	18	[0, 0, 0]	n/a	FR1	1	R1299T
5531.756	0.858	1990150	WORD_OFF	n/a	n/a	SCHOOL	8	18	[0, 0, 0]	n/a	FR1	1	R1299T
5532.614	1.626	1991008	WORD	n/a	wordpools/wordpool_EN.txt	HEN	9	18	[0, 0, 0]	n/a	FR1	1	R1299T
5534.24	0.981	1992634	WORD_OFF	n/a	n/a	HEN	9	18	[0, 0, 0]	n/a	FR1	1	R1299T
5535.221	1.636	1993615	WORD	n/a	wordpools/wordpool_EN.txt	RICE	10	18	[0, 0, 0]	n/a	FR1	1	R1299T
5536.857	1.135	1995251	WORD_OFF	n/a	n/a	RICE	10	18	[0, 0, 0]	n/a	FR1	1	R1299T
5537.992	1.632	1996386	WORD	n/a	wordpools/wordpool_EN.txt	STEM	11	18	[0, 0, 0]	n/a	FR1	1	R1299T
5539.624	0.784	1998018	WORD_OFF	n/a	n/a	STEM	11	18	[0, 0, 0]	n/a	FR1	1	R1299T
5540.408	1.633	1998802	WORD	n/a	wordpools/wordpool_EN.txt	SEA	12	18	[0, 0, 0]	n/a	FR1	1	R1299T
5542.041	0.001	2000435	WORD_OFF	n/a	n/a	SEA	12	18	[0, 0, 0]	n/a	FR1	1	R1299T
5542.042	0.0	2000436	ENCODING_END	n/a	n/a	n/a	-999	18	[0, 0, 0]	n/a	FR1	1	R1299T
5542.042	0.0	2000436	DISTRACT_START	n/a	n/a	n/a	-999	18	[0, 0, 0]	n/a	FR1	1	R1299T
5542.042	0.016	2000436	START	n/a	n/a	n/a	-999	18	[-999, -999, -999]	n/a	FR1	1	R1299T
5542.058	10.118	2000452	PROB	10.118	n/a	n/a	-999	18	[8, 6, 6]	20	FR1	1	R1299T
5552.176	6.951	2010569	PROB	6.951	n/a	n/a	-999	18	[4, 3, 8]	15	FR1	1	R1299T
5559.127	5.076	2017520	PROB	5.076	n/a	n/a	-999	18	[1, 1, 5]	7	FR1	1	R1299T
5564.203	0.008	2022596	STOP	n/a	n/a	n/a	-999	18	[-999, -999, -999]	n/a	FR1	1	R1299T
5564.211	0.568	2022604	DISTRACT_END	n/a	n/a	n/a	-999	18	[0, 0, 0]	n/a	FR1	1	R1299T
5564.779	1.617	2023172	RETRIEVAL_ORIENT_START	n/a	n/a	n/a	-999	18	[0, 0, 0]	n/a	FR1	1	R1299T
5566.396	0.0	2024789	RETRIEVAL_ORIENT_END	n/a	n/a	n/a	-999	18	[0, 0, 0]	n/a	FR1	1	R1299T
5566.396	0.922	2024789	REC_START	n/a	n/a	n/a	-999	18	[0, 0, 0]	n/a	FR1	1	R1299T
5567.318	0.345	2025710	REC_WORD_VV	0.345	n/a	<>	-999	18	[0, 0, 0]	n/a	FR1	1	R1299T
5567.663	5.49	2026055	REC_WORD	5.49	n/a	DRUM	1	18	[0, 0, 0]	n/a	FR1	1	R1299T
5573.153	23.254	2031545	REC_WORD	23.254	n/a	WALL	4	18	[0, 0, 0]	n/a	FR1	1	R1299T
5596.407	0.001	2054798	REC_END	n/a	n/a	n/a	-999	18	[0, 0, 0]	n/a	FR1	1	R1299T
5596.408	0.016	2054799	TRIAL_END	n/a	n/a	n/a	-999	18	[0, 0, 0]	n/a	FR1	1	R1299T
5596.424	0.0	2054815	WAITING_START	n/a	n/a	n/a	-999	19	[0, 0, 0]	n/a	FR1	1	R1299T
5596.424	0.0	2054815	TRIAL	n/a	n/a	n/a	-999	19	[0, 0, 0]	n/a	FR1	1	R1299T
5596.424	4.895	2054815	TRIAL_START	n/a	n/a	n/a	-999	19	[0, 0, 0]	n/a	FR1	1	R1299T
5601.319	0.0	2059710	WAITING_END	n/a	n/a	n/a	-999	19	[0, 0, 0]	n/a	FR1	1	R1299T
5601.319	10.429	2059710	COUNTDOWN_START	n/a	n/a	n/a	-999	19	[0, 0, 0]	n/a	FR1	1	R1299T
5611.748	0.001	2070139	COUNTDOWN_END	n/a	n/a	n/a	-999	19	[0, 0, 0]	n/a	FR1	1	R1299T
5611.749	1.022	2070140	ORIENT_START	n/a	n/a	n/a	-999	19	[0, 0, 0]	n/a	FR1	1	R1299T
5612.771	0.0	2071161	ORIENT_END	n/a	n/a	n/a	-999	19	[0, 0, 0]	n/a	FR1	1	R1299T
5612.771	0.962	2071161	ENCODING_START	n/a	n/a	n/a	-999	19	[0, 0, 0]	n/a	FR1	1	R1299T
5613.733	1.622	2072123	WORD	n/a	wordpools/wordpool_EN.txt	FORT	1	19	[0, 0, 0]	n/a	FR1	1	R1299T
5615.355	0.809	2073745	WORD_OFF	n/a	n/a	FORT	1	19	[0, 0, 0]	n/a	FR1	1	R1299T
5616.164	1.624	2074554	WORD	n/a	wordpools/wordpool_EN.txt	ROOM	2	19	[0, 0, 0]	n/a	FR1	1	R1299T
5617.788	1.136	2076178	WORD_OFF	n/a	n/a	ROOM	2	19	[0, 0, 0]	n/a	FR1	1	R1299T
5618.924	1.632	2077314	WORD	n/a	wordpools/wordpool_EN.txt	SHOE	3	19	[0, 0, 0]	n/a	FR1	1	R1299T
5620.556	1.097	2078946	WORD_OFF	n/a	n/a	SHOE	3	19	[0, 0, 0]	n/a	FR1	1	R1299T
5621.653	1.636	2080043	WORD	n/a	wordpools/wordpool_EN.txt	CAT	4	19	[0, 0, 0]	n/a	FR1	1	R1299T
5623.289	0.941	2081679	WORD_OFF	n/a	n/a	CAT	4	19	[0, 0, 0]	n/a	FR1	1	R1299T
5624.23	1.626	2082620	WORD	n/a	wordpools/wordpool_EN.txt	LAKE	5	19	[0, 0, 0]	n/a	FR1	1	R1299T
5625.856	0.911	2084246	WORD_OFF	n/a	n/a	LAKE	5	19	[0, 0, 0]	n/a	FR1	1	R1299T
5626.767	1.623	2085157	WORD	n/a	wordpools/wordpool_EN.txt	MUD	6	19	[0, 0, 0]	n/a	FR1	1	R1299T
5628.39	0.878	2086780	WORD_OFF	n/a	n/a	MUD	6	19	[0, 0, 0]	n/a	FR1	1	R1299T
5629.268	1.623	2087658	WORD	n/a	wordpools/wordpool_EN.txt	WORM	7	19	[0, 0, 0]	n/a	FR1	1	R1299T
5630.891	0.778	2089281	WORD_OFF	n/a	n/a	WORM	7	19	[0, 0, 0]	n/a	FR1	1	R1299T
5631.669	1.622	2090059	WORD	n/a	wordpools/wordpool_EN.txt	ROCK	8	19	[0, 0, 0]	n/a	FR1	1	R1299T
5633.291	1.006	2091681	WORD_OFF	n/a	n/a	ROCK	8	19	[0, 0, 0]	n/a	FR1	1	R1299T
5634.297	1.628	2092687	WORD	n/a	wordpools/wordpool_EN.txt	DESK	9	19	[0, 0, 0]	n/a	FR1	1	R1299T
5635.925	0.966	2094314	WORD_OFF	n/a	n/a	DESK	9	19	[0, 0, 0]	n/a	FR1	1	R1299T
5636.891	1.635	2095280	WORD	n/a	wordpools/wordpool_EN.txt	RIB	10	19	[0, 0, 0]	n/a	FR1	1	R1299T
5638.526	1.086	2096915	WORD_OFF	n/a	n/a	RIB	10	19	[0, 0, 0]	n/a	FR1	1	R1299T
5639.612	1.631	2098001	WORD	n/a	wordpools/wordpool_EN.txt	TRAIN	11	19	[0, 0, 0]	n/a	FR1	1	R1299T
5641.243	0.853	2099632	WORD_OFF	n/a	n/a	TRAIN	11	19	[0, 0, 0]	n/a	FR1	1	R1299T
5642.096	1.63	2100485	WORD	n/a	wordpools/wordpool_EN.txt	BED	12	19	[0, 0, 0]	n/a	FR1	1	R1299T
5643.726	0.001	2102115	WORD_OFF	n/a	n/a	BED	12	19	[0, 0, 0]	n/a	FR1	1	R1299T
5643.727	0.0	2102116	ENCODING_END	n/a	n/a	n/a	-999	19	[0, 0, 0]	n/a	FR1	1	R1299T
5643.727	0.0	2102116	DISTRACT_START	n/a	n/a	n/a	-999	19	[0, 0, 0]	n/a	FR1	1	R1299T
5643.727	0.016	2102116	START	n/a	n/a	n/a	-999	19	[-999, -999, -999]	n/a	FR1	1	R1299T
5643.743	4.917	2102132	PROB	4.917	n/a	n/a	-999	19	[6, 9, 1]	16	FR1	1	R1299T
5648.66	4.951	2107049	PROB	4.951	n/a	n/a	-999	19	[8, 4, 8]	20	FR1	1	R1299T
5653.611	3.734	2112000	PROB	3.734	n/a	n/a	-999	19	[8, 1, 2]	11	FR1	1	R1299T
5657.345	8.198	2115734	PROB	8.198	n/a	n/a	-999	19	[9, 7, 8]	24	FR1	1	R1299T
5665.543	0.021	2123931	STOP	n/a	n/a	n/a	-999	19	[-999, -999, -999]	n/a	FR1	1	R1299T
5665.564	0.666	2123952	DISTRACT_END	n/a	n/a	n/a	-999	19	[0, 0, 0]	n/a	FR1	1	R1299T
5666.23	1.617	2124618	RETRIEVAL_ORIENT_START	n/a	n/a	n/a	-999	19	[0, 0, 0]	n/a	FR1	1	R1299T
5667.847	0.001	2126235	RETRIEVAL_ORIENT_END	n/a	n/a	n/a	-999	19	[0, 0, 0]	n/a	FR1	1	R1299T
5667.848	1.619	2126236	REC_START	n/a	n/a	n/a	-999	19	[0, 0, 0]	n/a	FR1	1	R1299T
5669.467	0.54	2127855	REC_WORD_VV	0.54	n/a	<>	-999	19	[0, 0, 0]	n/a	FR1	1	R1299T
5670.007	3.405	2128395	REC_WORD	3.405	n/a	TRAIN	11	19	[0, 0, 0]	n/a	FR1	1	R1299T
5673.412	5.576	2131800	REC_WORD	5.576	n/a	MUD	6	19	[0, 0, 0]	n/a	FR1	1	R1299T
5678.988	8.106	2137376	REC_WORD	8.106	n/a	WORM	7	19	[0, 0, 0]	n/a	FR1	1	R1299T
5687.094	10.766	2145481	REC_WORD	10.766	n/a	ROCK	8	19	[0, 0, 0]	n/a	FR1	1	R1299T
5697.86	0.0	2156247	REC_END	n/a	n/a	n/a	-999	19	[0, 0, 0]	n/a	FR1	1	R1299T
5697.86	0.016	2156247	TRIAL_END	n/a	n/a	n/a	-999	19	[0, 0, 0]	n/a	FR1	1	R1299T
5697.876	0.0	2156263	WAITING_START	n/a	n/a	n/a	-999	20	[0, 0, 0]	n/a	FR1	1	R1299T
5697.876	0.0	2156263	TRIAL	n/a	n/a	n/a	-999	20	[0, 0, 0]	n/a	FR1	1	R1299T
5697.876	3.128	2156263	TRIAL_START	n/a	n/a	n/a	-999	20	[0, 0, 0]	n/a	FR1	1	R1299T
5701.004	0.0	2159391	WAITING_END	n/a	n/a	n/a	-999	20	[0, 0, 0]	n/a	FR1	1	R1299T
5701.004	10.428	2159391	COUNTDOWN_START	n/a	n/a	n/a	-999	20	[0, 0, 0]	n/a	FR1	1	R1299T
5711.432	0.0	2169818	COUNTDOWN_END	n/a	n/a	n/a	-999	20	[0, 0, 0]	n/a	FR1	1	R1299T
5711.432	1.207	2169818	ORIENT_START	n/a	n/a	n/a	-999	20	[0, 0, 0]	n/a	FR1	1	R1299T
5712.639	0.001	2171025	ORIENT_END	n/a	n/a	n/a	-999	20	[0, 0, 0]	n/a	FR1	1	R1299T
5712.64	0.85	2171026	ENCODING_START	n/a	n/a	n/a	-999	20	[0, 0, 0]	n/a	FR1	1	R1299T
5713.49	1.633	2171876	WORD	n/a	wordpools/wordpool_EN.txt	SLEEVE	1	20	[0, 0, 0]	n/a	FR1	1	R1299T
5715.123	1.122	2173509	WORD_OFF	n/a	n/a	SLEEVE	1	20	[0, 0, 0]	n/a	FR1	1	R1299T
5716.245	1.628	2174631	WORD	n/a	wordpools/wordpool_EN.txt	MULE	2	20	[0, 0, 0]	n/a	FR1	1	R1299T
5717.873	0.986	2176259	WORD_OFF	n/a	n/a	MULE	2	20	[0, 0, 0]	n/a	FR1	1	R1299T
5718.859	1.631	2177245	WORD	n/a	wordpools/wordpool_EN.txt	BARN	3	20	[0, 0, 0]	n/a	FR1	1	R1299T
5720.49	0.97	2178876	WORD_OFF	n/a	n/a	BARN	3	20	[0, 0, 0]	n/a	FR1	1	R1299T
5721.46	1.631	2179846	WORD	n/a	wordpools/wordpool_EN.txt	BREAD	4	20	[0, 0, 0]	n/a	FR1	1	R1299T
5723.091	1.085	2181477	WORD_OFF	n/a	n/a	BREAD	4	20	[0, 0, 0]	n/a	FR1	1	R1299T
5724.176	1.632	2182562	WORD	n/a	wordpools/wordpool_EN.txt	WHALE	5	20	[0, 0, 0]	n/a	FR1	1	R1299T
5725.808	0.924	2184194	WORD_OFF	n/a	n/a	WHALE	5	20	[0, 0, 0]	n/a	FR1	1	R1299T
5726.732	1.626	2185118	WORD	n/a	wordpools/wordpool_EN.txt	CAPE	6	20	[0, 0, 0]	n/a	FR1	1	R1299T
5728.358	0.776	2186743	WORD_OFF	n/a	n/a	CAPE	6	20	[0, 0, 0]	n/a	FR1	1	R1299T
5729.134	1.625	2187519	WORD	n/a	wordpools/wordpool_EN.txt	JUDGE	7	20	[0, 0, 0]	n/a	FR1	1	R1299T
5730.759	0.935	2189144	WORD_OFF	n/a	n/a	JUDGE	7	20	[0, 0, 0]	n/a	FR1	1	R1299T
5731.694	1.632	2190079	WORD	n/a	wordpools/wordpool_EN.txt	FISH	8	20	[0, 0, 0]	n/a	FR1	1	R1299T
5733.326	0.904	2191711	WORD_OFF	n/a	n/a	FISH	8	20	[0, 0, 0]	n/a	FR1	1	R1299T
5734.23	1.63	2192615	WORD	n/a	wordpools/wordpool_EN.txt	MAT	9	20	[0, 0, 0]	n/a	FR1	1	R1299T
5735.86	1.099	2194245	WORD_OFF	n/a	n/a	MAT	9	20	[0, 0, 0]	n/a	FR1	1	R1299T
5736.959	1.635	2195344	WORD	n/a	wordpools/wordpool_EN.txt	STORE	10	20	[0, 0, 0]	n/a	FR1	1	R1299T
5738.594	1.145	2196979	WORD_OFF	n/a	n/a	STORE	10	20	[0, 0, 0]	n/a	FR1	1	R1299T
5739.739	1.622	2198124	WORD	n/a	wordpools/wordpool_EN.txt	WEB	11	20	[0, 0, 0]	n/a	FR1	1	R1299T
5741.361	0.949	2199746	WORD_OFF	n/a	n/a	WEB	11	20	[0, 0, 0]	n/a	FR1	1	R1299T
5742.31	1.635	2200695	WORD	n/a	wordpools/wordpool_EN.txt	AXE	12	20	[0, 0, 0]	n/a	FR1	1	R1299T
5743.945	0.0	2202330	WORD_OFF	n/a	n/a	AXE	12	20	[0, 0, 0]	n/a	FR1	1	R1299T
5743.945	0.0	2202330	ENCODING_END	n/a	n/a	n/a	-999	20	[0, 0, 0]	n/a	FR1	1	R1299T
5743.945	0.001	2202330	DISTRACT_START	n/a	n/a	n/a	-999	20	[0, 0, 0]	n/a	FR1	1	R1299T
5743.946	0.015	2202331	START	n/a	n/a	n/a	-999	20	[-999, -999, -999]	n/a	FR1	1	R1299T
5743.961	4.118	2202346	PROB	4.118	n/a	n/a	-999	20	[2, 3, 6]	11	FR1	1	R1299T
5748.079	6.567	2206464	PROB	6.567	n/a	n/a	-999	20	[8, 3, 6]	17	FR1	1	R1299T
5754.646	5.935	2213030	PROB	5.935	n/a	n/a	-999	20	[1, 7, 5]	13	FR1	1	R1299T
5760.581	4.487	2218965	PROB	4.487	n/a	n/a	-999	20	[4, 4, 3]	11	FR1	1	R1299T
5765.068	0.014	2223452	STOP	n/a	n/a	n/a	-999	20	[-999, -999, -999]	n/a	FR1	1	R1299T
5765.082	0.602	2223466	DISTRACT_END	n/a	n/a	n/a	-999	20	[0, 0, 0]	n/a	FR1	1	R1299T
5765.684	1.682	2224068	RETRIEVAL_ORIENT_START	n/a	n/a	n/a	-999	20	[0, 0, 0]	n/a	FR1	1	R1299T
5767.366	0.0	2225750	REC_START	n/a	n/a	n/a	-999	20	[0, 0, 0]	n/a	FR1	1	R1299T
5767.366	2.236	2225750	RETRIEVAL_ORIENT_END	n/a	n/a	n/a	-999	20	[0, 0, 0]	n/a	FR1	1	R1299T
5769.602	2.132	2227986	REC_WORD	2.132	n/a	SLEEVE	1	20	[0, 0, 0]	n/a	FR1	1	R1299T
5771.734	21.982	2230118	REC_WORD	21.982	n/a	JUDGE	7	20	[0, 0, 0]	n/a	FR1	1	R1299T
5793.716	3.661	2252099	REC_WORD_VV	3.661	n/a	<>	-999	20	[0, 0, 0]	n/a	FR1	1	R1299T
5797.377	0.0	2255759	REC_END	n/a	n/a	n/a	-999	20	[0, 0, 0]	n/a	FR1	1	R1299T
5797.377	0.014	2255759	TRIAL_END	n/a	n/a	n/a	-999	20	[0, 0, 0]	n/a	FR1	1	R1299T
5797.391	0.0	2255773	TRIAL_START	n/a	n/a	n/a	-999	21	[0, 0, 0]	n/a	FR1	1	R1299T
5797.391	0.0	2255773	TRIAL	n/a	n/a	n/a	-999	21	[0, 0, 0]	n/a	FR1	1	R1299T
5797.391	4.331	2255773	WAITING_START	n/a	n/a	n/a	-999	21	[0, 0, 0]	n/a	FR1	1	R1299T
5801.722	0.0	2260104	COUNTDOWN_START	n/a	n/a	n/a	-999	21	[0, 0, 0]	n/a	FR1	1	R1299T
5801.722	10.429	2260104	WAITING_END	n/a	n/a	n/a	-999	21	[0, 0, 0]	n/a	FR1	1	R1299T
5812.151	0.0	2270533	COUNTDOWN_END	n/a	n/a	n/a	-999	21	[0, 0, 0]	n/a	FR1	1	R1299T
5812.151	1.072	2270533	ORIENT_START	n/a	n/a	n/a	-999	21	[0, 0, 0]	n/a	FR1	1	R1299T
5813.223	0.0	2271605	ORIENT_END	n/a	n/a	n/a	-999	21	[0, 0, 0]	n/a	FR1	1	R1299T
5813.223	0.92	2271605	ENCODING_START	n/a	n/a	n/a	-999	21	[0, 0, 0]	n/a	FR1	1	R1299T
5814.143	1.631	2272525	WORD	n/a	wordpools/wordpool_EN.txt	BAND	1	21	[0, 0, 0]	n/a	FR1	1	R1299T
5815.774	1.1	2274156	WORD_OFF	n/a	n/a	BAND	1	21	[0, 0, 0]	n/a	FR1	1	R1299T
5816.874	1.634	2275256	WORD	n/a	wordpools/wordpool_EN.txt	CAR	2	21	[0, 0, 0]	n/a	FR1	1	R1299T
5818.508	0.922	2276889	WORD_OFF	n/a	n/a	CAR	2	21	[0, 0, 0]	n/a	FR1	1	R1299T
5819.43	1.629	2277811	WORD	n/a	wordpools/wordpool_EN.txt	WOOD	3	21	[0, 0, 0]	n/a	FR1	1	R1299T
5821.059	0.812	2279440	WORD_OFF	n/a	n/a	WOOD	3	21	[0, 0, 0]	n/a	FR1	1	R1299T
5821.871	1.622	2280252	WORD	n/a	wordpools/wordpool_EN.txt	LIP	4	21	[0, 0, 0]	n/a	FR1	1	R1299T
5823.493	0.953	2281874	WORD_OFF	n/a	n/a	LIP	4	21	[0, 0, 0]	n/a	FR1	1	R1299T
5824.446	1.631	2282827	WORD	n/a	wordpools/wordpool_EN.txt	HOUSE	5	21	[0, 0, 0]	n/a	FR1	1	R1299T
5826.077	0.753	2284458	WORD_OFF	n/a	n/a	HOUSE	5	21	[0, 0, 0]	n/a	FR1	1	R1299T
5826.83	1.63	2285211	WORD	n/a	wordpools/wordpool_EN.txt	ICE	6	21	[0, 0, 0]	n/a	FR1	1	R1299T
5828.46	1.074	2286841	WORD_OFF	n/a	n/a	ICE	6	21	[0, 0, 0]	n/a	FR1	1	R1299T
5829.534	1.627	2287915	WORD	n/a	wordpools/wordpool_EN.txt	BRUSH	7	21	[0, 0, 0]	n/a	FR1	1	R1299T
5831.161	1.038	2289542	WORD_OFF	n/a	n/a	BRUSH	7	21	[0, 0, 0]	n/a	FR1	1	R1299T
5832.199	1.629	2290580	WORD	n/a	wordpools/wordpool_EN.txt	EGG	8	21	[0, 0, 0]	n/a	FR1	1	R1299T
5833.828	0.76	2292209	WORD_OFF	n/a	n/a	EGG	8	21	[0, 0, 0]	n/a	FR1	1	R1299T
5834.588	1.623	2292969	WORD	n/a	wordpools/wordpool_EN.txt	SKI	9	21	[0, 0, 0]	n/a	FR1	1	R1299T
5836.211	0.938	2294592	WORD_OFF	n/a	n/a	SKI	9	21	[0, 0, 0]	n/a	FR1	1	R1299T
5837.149	1.63	2295530	WORD	n/a	wordpools/wordpool_EN.txt	SKY	10	21	[0, 0, 0]	n/a	FR1	1	R1299T
5838.779	1.049	2297160	WORD_OFF	n/a	n/a	SKY	10	21	[0, 0, 0]	n/a	FR1	1	R1299T
5839.828	1.634	2298209	WORD	n/a	wordpools/wordpool_EN.txt	COW	11	21	[0, 0, 0]	n/a	FR1	1	R1299T
5841.462	0.767	2299842	WORD_OFF	n/a	n/a	COW	11	21	[0, 0, 0]	n/a	FR1	1	R1299T
5842.229	1.634	2300609	WORD	n/a	wordpools/wordpool_EN.txt	GLOVE	12	21	[0, 0, 0]	n/a	FR1	1	R1299T
5843.863	0.0	2302243	WORD_OFF	n/a	n/a	GLOVE	12	21	[0, 0, 0]	n/a	FR1	1	R1299T
5843.863	0.001	2302243	ENCODING_END	n/a	n/a	n/a	-999	21	[0, 0, 0]	n/a	FR1	1	R1299T
5843.864	0.0	2302244	DISTRACT_START	n/a	n/a	n/a	-999	21	[0, 0, 0]	n/a	FR1	1	R1299T
5843.864	0.015	2302244	START	n/a	n/a	n/a	-999	21	[-999, -999, -999]	n/a	FR1	1	R1299T
5843.879	6.702	2302259	PROB	6.702	n/a	n/a	-999	21	[3, 9, 9]	21	FR1	1	R1299T
5850.581	6.284	2308961	PROB	6.284	n/a	n/a	-999	21	[1, 6, 2]	9	FR1	1	R1299T
5856.865	6.999	2315245	PROB	6.999	n/a	n/a	-999	21	[5, 7, 3]	15	FR1	1	R1299T
5863.864	0.019	2322244	STOP	n/a	n/a	n/a	-999	21	[-999, -999, -999]	n/a	FR1	1	R1299T
5863.883	0.532	2322263	DISTRACT_END	n/a	n/a	n/a	-999	21	[0, 0, 0]	n/a	FR1	1	R1299T
5864.415	1.602	2322794	RETRIEVAL_ORIENT_START	n/a	n/a	n/a	-999	21	[0, 0, 0]	n/a	FR1	1	R1299T
5866.017	0.0	2324396	RETRIEVAL_ORIENT_END	n/a	n/a	n/a	-999	21	[0, 0, 0]	n/a	FR1	1	R1299T
5866.017	0.835	2324396	REC_START	n/a	n/a	n/a	-999	21	[0, 0, 0]	n/a	FR1	1	R1299T
5866.852	0.435	2325231	REC_WORD_VV	0.435	n/a	<>	-999	21	[0, 0, 0]	n/a	FR1	1	R1299T
5867.287	2.106	2325666	REC_WORD	2.106	n/a	BAND	1	21	[0, 0, 0]	n/a	FR1	1	R1299T
5869.393	2.625	2327772	REC_WORD	2.625	n/a	SKI	9	21	[0, 0, 0]	n/a	FR1	1	R1299T
5872.018	2.408	2330397	REC_WORD_VV	2.408	n/a	<>	-999	21	[0, 0, 0]	n/a	FR1	1	R1299T
5874.426	3.693	2332805	REC_WORD	3.693	n/a	SKY	10	21	[0, 0, 0]	n/a	FR1	1	R1299T
5878.119	17.911	2336498	REC_WORD_VV	17.911	n/a	<>	-999	21	[0, 0, 0]	n/a	FR1	1	R1299T
5896.03	0.0	2354408	REC_END	n/a	n/a	n/a	-999	21	[0, 0, 0]	n/a	FR1	1	R1299T
5896.03	0.015	2354408	TRIAL_END	n/a	n/a	n/a	-999	21	[0, 0, 0]	n/a	FR1	1	R1299T
5896.045	0.0	2354423	TRIAL	n/a	n/a	n/a	-999	22	[0, 0, 0]	n/a	FR1	1	R1299T
5896.045	0.0	2354423	WAITING_START	n/a	n/a	n/a	-999	22	[0, 0, 0]	n/a	FR1	1	R1299T
5896.045	2.561	2354423	TRIAL_START	n/a	n/a	n/a	-999	22	[0, 0, 0]	n/a	FR1	1	R1299T
5898.606	0.001	2356984	WAITING_END	n/a	n/a	n/a	-999	22	[0, 0, 0]	n/a	FR1	1	R1299T
5898.607	10.428	2356985	COUNTDOWN_START	n/a	n/a	n/a	-999	22	[0, 0, 0]	n/a	FR1	1	R1299T
5909.035	0.001	2367413	COUNTDOWN_END	n/a	n/a	n/a	-999	22	[0, 0, 0]	n/a	FR1	1	R1299T
5909.036	1.188	2367414	ORIENT_START	n/a	n/a	n/a	-999	22	[0, 0, 0]	n/a	FR1	1	R1299T
5910.224	0.001	2368601	ORIENT_END	n/a	n/a	n/a	-999	22	[0, 0, 0]	n/a	FR1	1	R1299T
5910.225	0.796	2368602	ENCODING_START	n/a	n/a	n/a	-999	22	[0, 0, 0]	n/a	FR1	1	R1299T
5911.021	1.638	2369398	WORD	n/a	wordpools/wordpool_EN.txt	CUP	1	22	[0, 0, 0]	n/a	FR1	1	R1299T
5912.659	0.983	2371036	WORD_OFF	n/a	n/a	CUP	1	22	[0, 0, 0]	n/a	FR1	1	R1299T
5913.642	1.634	2372019	WORD	n/a	wordpools/wordpool_EN.txt	SOAP	2	22	[0, 0, 0]	n/a	FR1	1	R1299T
5915.276	0.897	2373653	WORD_OFF	n/a	n/a	SOAP	2	22	[0, 0, 0]	n/a	FR1	1	R1299T
5916.173	1.62	2374550	WORD	n/a	wordpools/wordpool_EN.txt	CUBE	3	22	[0, 0, 0]	n/a	FR1	1	R1299T
5917.793	0.819	2376170	WORD_OFF	n/a	n/a	CUBE	3	22	[0, 0, 0]	n/a	FR1	1	R1299T
5918.612	1.631	2376989	WORD	n/a	wordpools/wordpool_EN.txt	SHEEP	4	22	[0, 0, 0]	n/a	FR1	1	R1299T
5920.243	0.973	2378620	WORD_OFF	n/a	n/a	SHEEP	4	22	[0, 0, 0]	n/a	FR1	1	R1299T
5921.216	1.628	2379593	WORD	n/a	wordpools/wordpool_EN.txt	PLATE	5	22	[0, 0, 0]	n/a	FR1	1	R1299T
5922.844	1.106	2381221	WORD_OFF	n/a	n/a	PLATE	5	22	[0, 0, 0]	n/a	FR1	1	R1299T
5923.95	1.628	2382327	WORD	n/a	wordpools/wordpool_EN.txt	PEA	6	22	[0, 0, 0]	n/a	FR1	1	R1299T
5925.578	1.15	2383955	WORD_OFF	n/a	n/a	PEA	6	22	[0, 0, 0]	n/a	FR1	1	R1299T
5926.728	1.634	2385105	WORD	n/a	wordpools/wordpool_EN.txt	ROAD	7	22	[0, 0, 0]	n/a	FR1	1	R1299T
5928.362	1.091	2386739	WORD_OFF	n/a	n/a	ROAD	7	22	[0, 0, 0]	n/a	FR1	1	R1299T
5929.453	1.626	2387830	WORD	n/a	wordpools/wordpool_EN.txt	NEST	8	22	[0, 0, 0]	n/a	FR1	1	R1299T
5931.079	0.882	2389456	WORD_OFF	n/a	n/a	NEST	8	22	[0, 0, 0]	n/a	FR1	1	R1299T
5931.961	1.635	2390338	WORD	n/a	wordpools/wordpool_EN.txt	VASE	9	22	[0, 0, 0]	n/a	FR1	1	R1299T
5933.596	1.113	2391972	WORD_OFF	n/a	n/a	VASE	9	22	[0, 0, 0]	n/a	FR1	1	R1299T
5934.709	1.637	2393085	WORD	n/a	wordpools/wordpool_EN.txt	BOY	10	22	[0, 0, 0]	n/a	FR1	1	R1299T
5936.346	0.954	2394722	WORD_OFF	n/a	n/a	BOY	10	22	[0, 0, 0]	n/a	FR1	1	R1299T
5937.3	1.63	2395676	WORD	n/a	wordpools/wordpool_EN.txt	DITCH	11	22	[0, 0, 0]	n/a	FR1	1	R1299T
5938.93	0.831	2397306	WORD_OFF	n/a	n/a	DITCH	11	22	[0, 0, 0]	n/a	FR1	1	R1299T
5939.761	1.636	2398137	WORD	n/a	wordpools/wordpool_EN.txt	OAR	12	22	[0, 0, 0]	n/a	FR1	1	R1299T
5941.397	0.001	2399773	WORD_OFF	n/a	n/a	OAR	12	22	[0, 0, 0]	n/a	FR1	1	R1299T
5941.398	0.0	2399774	ENCODING_END	n/a	n/a	n/a	-999	22	[0, 0, 0]	n/a	FR1	1	R1299T
5941.398	0.0	2399774	DISTRACT_START	n/a	n/a	n/a	-999	22	[0, 0, 0]	n/a	FR1	1	R1299T
5941.398	0.016	2399774	START	n/a	n/a	n/a	-999	22	[-999, -999, -999]	n/a	FR1	1	R1299T
5941.414	5.651	2399790	PROB	5.651	n/a	n/a	-999	22	[9, 2, 6]	17	FR1	1	R1299T
5947.065	5.818	2405441	PROB	5.818	n/a	n/a	-999	22	[8, 2, 6]	16	FR1	1	R1299T
5952.883	5.851	2411259	PROB	5.851	n/a	n/a	-999	22	[1, 6, 6]	13	FR1	1	R1299T
5958.734	4.928	2417109	PROB	4.928	n/a	n/a	-999	22	[3, 4, 7]	14	FR1	1	R1299T
5963.662	0.023	2422037	STOP	n/a	n/a	n/a	-999	22	[-999, -999, -999]	n/a	FR1	1	R1299T
5963.685	0.562	2422060	DISTRACT_END	n/a	n/a	n/a	-999	22	[0, 0, 0]	n/a	FR1	1	R1299T
5964.247	1.655	2422622	RETRIEVAL_ORIENT_START	n/a	n/a	n/a	-999	22	[0, 0, 0]	n/a	FR1	1	R1299T
5965.902	0.0	2424277	RETRIEVAL_ORIENT_END	n/a	n/a	n/a	-999	22	[0, 0, 0]	n/a	FR1	1	R1299T
5965.902	1.879	2424277	REC_START	n/a	n/a	n/a	-999	22	[0, 0, 0]	n/a	FR1	1	R1299T
5967.781	3.147	2426156	REC_WORD	3.147	n/a	CUP	1	22	[0, 0, 0]	n/a	FR1	1	R1299T
5970.928	1.0	2429303	REC_WORD	1.0	n/a	SOAP	2	22	[0, 0, 0]	n/a	FR1	1	R1299T
5971.928	3.723	2430303	REC_WORD_VV	3.723	n/a	<>	-999	22	[0, 0, 0]	n/a	FR1	1	R1299T
5975.651	20.265	2434026	REC_WORD	20.265	n/a	ROAD	7	22	[0, 0, 0]	n/a	FR1	1	R1299T
5995.916	0.0	2454290	REC_END	n/a	n/a	n/a	-999	22	[0, 0, 0]	n/a	FR1	1	R1299T
5995.916	0.014	2454290	TRIAL_END	n/a	n/a	n/a	-999	22	[0, 0, 0]	n/a	FR1	1	R1299T
5995.93	0.0	2454304	TRIAL_START	n/a	n/a	n/a	-999	23	[0, 0, 0]	n/a	FR1	1	R1299T
5995.93	0.0	2454304	TRIAL	n/a	n/a	n/a	-999	23	[0, 0, 0]	n/a	FR1	1	R1299T
5995.93	3.945	2454304	WAITING_START	n/a	n/a	n/a	-999	23	[0, 0, 0]	n/a	FR1	1	R1299T
5999.875	0.0	2458249	COUNTDOWN_START	n/a	n/a	n/a	-999	23	[0, 0, 0]	n/a	FR1	1	R1299T
5999.875	10.428	2458249	WAITING_END	n/a	n/a	n/a	-999	23	[0, 0, 0]	n/a	FR1	1	R1299T
6010.303	0.0	2468676	COUNTDOWN_END	n/a	n/a	n/a	-999	23	[0, 0, 0]	n/a	FR1	1	R1299T
6010.303	1.257	2468676	ORIENT_START	n/a	n/a	n/a	-999	23	[0, 0, 0]	n/a	FR1	1	R1299T
6011.56	0.0	2469933	ORIENT_END	n/a	n/a	n/a	-999	23	[0, 0, 0]	n/a	FR1	1	R1299T
6011.56	1.044	2469933	ENCODING_START	n/a	n/a	n/a	-999	23	[0, 0, 0]	n/a	FR1	1	R1299T
6012.604	1.622	2470977	WORD	n/a	wordpools/wordpool_EN.txt	WING	1	23	[0, 0, 0]	n/a	FR1	1	R1299T
6014.226	0.976	2472599	WORD_OFF	n/a	n/a	WING	1	23	[0, 0, 0]	n/a	FR1	1	R1299T
6015.202	1.609	2473575	WORD	n/a	wordpools/wordpool_EN.txt	CHIEF	2	23	[0, 0, 0]	n/a	FR1	1	R1299T
6016.811	0.942	2475184	WORD_OFF	n/a	n/a	CHIEF	2	23	[0, 0, 0]	n/a	FR1	1	R1299T
6017.753	1.625	2476126	WORD	n/a	wordpools/wordpool_EN.txt	GEESE	3	23	[0, 0, 0]	n/a	FR1	1	R1299T
6019.378	1.043	2477751	WORD_OFF	n/a	n/a	GEESE	3	23	[0, 0, 0]	n/a	FR1	1	R1299T
6020.421	1.624	2478794	WORD	n/a	wordpools/wordpool_EN.txt	STRING	4	23	[0, 0, 0]	n/a	FR1	1	R1299T
6022.045	1.151	2480418	WORD_OFF	n/a	n/a	STRING	4	23	[0, 0, 0]	n/a	FR1	1	R1299T
6023.196	1.616	2481569	WORD	n/a	wordpools/wordpool_EN.txt	PASTE	5	23	[0, 0, 0]	n/a	FR1	1	R1299T
6024.812	1.139	2483184	WORD_OFF	n/a	n/a	PASTE	5	23	[0, 0, 0]	n/a	FR1	1	R1299T
6025.951	1.629	2484323	WORD	n/a	wordpools/wordpool_EN.txt	RAKE	6	23	[0, 0, 0]	n/a	FR1	1	R1299T
6027.58	0.999	2485952	WORD_OFF	n/a	n/a	RAKE	6	23	[0, 0, 0]	n/a	FR1	1	R1299T
6028.579	1.634	2486951	WORD	n/a	wordpools/wordpool_EN.txt	JET	7	23	[0, 0, 0]	n/a	FR1	1	R1299T
6030.213	1.072	2488585	WORD_OFF	n/a	n/a	JET	7	23	[0, 0, 0]	n/a	FR1	1	R1299T
