onset	duration	sample	trial_type	response_time	stim_file	item_name	serialpos	list	test	answer	experiment	session	subject
0.0	0.0	812953	INSTRUCT_VIDEO	n/a	n/a	n/a	-999	-999	[0, 0, 0]	n/a	FR1	5	R1230J
0.0	10.905	812953	INSTRUCT_VIDEO	n/a	n/a	n/a	-999	-999	[0, 0, 0]	n/a	FR1	5	R1230J
10.905	0.0	823858	SESS_START	n/a	n/a	n/a	-999	-999	[0, 0, 0]	n/a	FR1	5	R1230J
10.905	50.0	823858	MIC_TEST	n/a	n/a	n/a	-999	-999	[0, 0, 0]	n/a	FR1	5	R1230J
60.905	4.087	873858	PRACTICE_TRIAL	n/a	n/a	n/a	-999	-1	[0, 0, 0]	n/a	FR1	5	R1230J
64.992	10.428	877945	COUNTDOWN_START	n/a	n/a	n/a	-999	-999	[0, 0, 0]	n/a	FR1	5	R1230J
75.42	0.007	888373	COUNTDOWN_END	n/a	n/a	n/a	-999	-999	[0, 0, 0]	n/a	FR1	5	R1230J
75.427	1.617	888380	PRACTICE_ORIENT	n/a	n/a	n/a	-999	-1	[0, 0, 0]	n/a	FR1	5	R1230J
77.044	2.384	889997	PRACTICE_ORIENT_OFF	n/a	n/a	n/a	-999	-1	[0, 0, 0]	n/a	FR1	5	R1230J
79.428	1.617	892381	PRACTICE_WORD	n/a	n/a	CHEST	1	-1	[0, 0, 0]	n/a	FR1	5	R1230J
81.045	0.849	893998	PRACTICE_WORD_OFF	n/a	n/a	CHEST	-999	-1	[0, 0, 0]	n/a	FR1	5	R1230J
81.894	1.617	894847	PRACTICE_WORD	n/a	n/a	ATTIC	2	-1	[0, 0, 0]	n/a	FR1	5	R1230J
83.511	0.967	896464	PRACTICE_WORD_OFF	n/a	n/a	ATTIC	-999	-1	[0, 0, 0]	n/a	FR1	5	R1230J
84.478	1.617	897431	PRACTICE_WORD	n/a	n/a	WATCH	3	-1	[0, 0, 0]	n/a	FR1	5	R1230J
86.095	0.916	899048	PRACTICE_WORD_OFF	n/a	n/a	WATCH	-999	-1	[0, 0, 0]	n/a	FR1	5	R1230J
87.011	1.617	899964	PRACTICE_WORD	n/a	n/a	BEAM	4	-1	[0, 0, 0]	n/a	FR1	5	R1230J
88.628	0.834	901581	PRACTICE_WORD_OFF	n/a	n/a	BEAM	-999	-1	[0, 0, 0]	n/a	FR1	5	R1230J
89.462	1.617	902415	PRACTICE_WORD	n/a	n/a	CAMEL	5	-1	[0, 0, 0]	n/a	FR1	5	R1230J
91.079	0.799	904032	PRACTICE_WORD_OFF	n/a	n/a	CAMEL	-999	-1	[0, 0, 0]	n/a	FR1	5	R1230J
91.878	1.618	904831	PRACTICE_WORD	n/a	n/a	WAGON	6	-1	[0, 0, 0]	n/a	FR1	5	R1230J
93.496	1.0	906449	PRACTICE_WORD_OFF	n/a	n/a	WAGON	-999	-1	[0, 0, 0]	n/a	FR1	5	R1230J
94.496	1.617	907449	PRACTICE_WORD	n/a	n/a	RHINO	7	-1	[0, 0, 0]	n/a	FR1	5	R1230J
96.113	0.899	909066	PRACTICE_WORD_OFF	n/a	n/a	RHINO	-999	-1	[0, 0, 0]	n/a	FR1	5	R1230J
97.012	1.617	909965	PRACTICE_WORD	n/a	n/a	IRON	8	-1	[0, 0, 0]	n/a	FR1	5	R1230J
98.629	0.834	911582	PRACTICE_WORD_OFF	n/a	n/a	IRON	-999	-1	[0, 0, 0]	n/a	FR1	5	R1230J
99.463	1.617	912416	PRACTICE_WORD	n/a	n/a	TONGUE	9	-1	[0, 0, 0]	n/a	FR1	5	R1230J
101.08	0.883	914033	PRACTICE_WORD_OFF	n/a	n/a	TONGUE	-999	-1	[0, 0, 0]	n/a	FR1	5	R1230J
101.963	1.617	914916	PRACTICE_WORD	n/a	n/a	FLOOD	10	-1	[0, 0, 0]	n/a	FR1	5	R1230J
103.58	0.984	916533	PRACTICE_WORD_OFF	n/a	n/a	FLOOD	-999	-1	[0, 0, 0]	n/a	FR1	5	R1230J
104.564	1.617	917517	PRACTICE_WORD	n/a	n/a	RING	11	-1	[0, 0, 0]	n/a	FR1	5	R1230J
106.181	0.816	919134	PRACTICE_WORD_OFF	n/a	n/a	RING	-999	-1	[0, 0, 0]	n/a	FR1	5	R1230J
106.997	1.617	919950	PRACTICE_WORD	n/a	n/a	COTTON	12	-1	[0, 0, 0]	n/a	FR1	5	R1230J
108.614	0.0	921567	PRACTICE_WORD_OFF	n/a	n/a	COTTON	-999	-1	[0, 0, 0]	n/a	FR1	5	R1230J
108.614	0.001	921567	DISTRACT_START	n/a	n/a	n/a	-999	-999	[0, 0, 0]	n/a	FR1	5	R1230J
108.615	0.015	921568	START	n/a	n/a	n/a	-999	1	[-999, -999, -999]	n/a	FR1	5	R1230J
108.63	5.117	921583	PROB	5.117	n/a	n/a	-999	1	[4, 7, 5]	16	FR1	5	R1230J
113.747	1.967	926700	PROB	1.967	n/a	n/a	-999	1	[4, 4, 4]	16	FR1	5	R1230J
115.714	2.652	928667	PROB	2.652	n/a	n/a	-999	1	[2, 8, 8]	18	FR1	5	R1230J
118.366	2.217	931319	PROB	2.217	n/a	n/a	-999	1	[4, 3, 1]	8	FR1	5	R1230J
120.583	2.817	933536	PROB	2.817	n/a	n/a	-999	1	[9, 2, 8]	19	FR1	5	R1230J
123.4	3.15	936353	PROB	3.15	n/a	n/a	-999	1	[1, 8, 9]	18	FR1	5	R1230J
126.55	7.351	939503	PROB	7.351	n/a	n/a	-999	1	[4, 9, 6]	19	FR1	5	R1230J
133.901	0.016	946854	STOP	n/a	n/a	n/a	-999	1	[-999, -999, -999]	n/a	FR1	5	R1230J
133.917	0.517	946870	DISTRACT_END	n/a	n/a	n/a	-999	-999	[0, 0, 0]	n/a	FR1	5	R1230J
134.434	37.706	947387	RETRIEVAL_ORIENT	n/a	n/a	n/a	-999	-999	[0, 0, 0]	n/a	FR1	5	R1230J
172.14	0.5	985093	TRIAL	n/a	n/a	n/a	-999	1	[0, 0, 0]	n/a	FR1	5	R1230J
172.64	10.428	985593	COUNTDOWN_START	n/a	n/a	n/a	-999	1	[0, 0, 0]	n/a	FR1	5	R1230J
183.068	0.006	996021	COUNTDOWN_END	n/a	n/a	n/a	-999	1	[0, 0, 0]	n/a	FR1	5	R1230J
183.074	1.616	996027	ORIENT	n/a	n/a	n/a	-999	1	[0, 0, 0]	n/a	FR1	5	R1230J
184.69	2.317	997643	ORIENT_OFF	n/a	n/a	n/a	-999	1	[0, 0, 0]	n/a	FR1	5	R1230J
187.007	1.618	999960	WORD	n/a	wordpools/wordpool_EN.txt	SPEAR	1	1	[0, 0, 0]	n/a	FR1	5	R1230J
188.625	1.0	1001578	WORD_OFF	n/a	n/a	SPEAR	1	1	[0, 0, 0]	n/a	FR1	5	R1230J
189.625	1.617	1002578	WORD	n/a	wordpools/wordpool_EN.txt	DEER	2	1	[0, 0, 0]	n/a	FR1	5	R1230J
191.242	0.85	1004195	WORD_OFF	n/a	n/a	DEER	2	1	[0, 0, 0]	n/a	FR1	5	R1230J
192.092	1.616	1005045	WORD	n/a	wordpools/wordpool_EN.txt	HILL	3	1	[0, 0, 0]	n/a	FR1	5	R1230J
193.708	0.801	1006661	WORD_OFF	n/a	n/a	HILL	3	1	[0, 0, 0]	n/a	FR1	5	R1230J
194.509	1.617	1007462	WORD	n/a	wordpools/wordpool_EN.txt	POND	4	1	[0, 0, 0]	n/a	FR1	5	R1230J
196.126	0.766	1009079	WORD_OFF	n/a	n/a	POND	4	1	[0, 0, 0]	n/a	FR1	5	R1230J
196.892	1.617	1009845	WORD	n/a	wordpools/wordpool_EN.txt	FOOT	5	1	[0, 0, 0]	n/a	FR1	5	R1230J
198.509	0.984	1011462	WORD_OFF	n/a	n/a	FOOT	5	1	[0, 0, 0]	n/a	FR1	5	R1230J
199.493	1.617	1012446	WORD	n/a	wordpools/wordpool_EN.txt	GRASS	6	1	[0, 0, 0]	n/a	FR1	5	R1230J
201.11	1.0	1014063	WORD_OFF	n/a	n/a	GRASS	6	1	[0, 0, 0]	n/a	FR1	5	R1230J
202.11	1.616	1015063	WORD	n/a	wordpools/wordpool_EN.txt	DUCK	7	1	[0, 0, 0]	n/a	FR1	5	R1230J
203.726	0.817	1016679	WORD_OFF	n/a	n/a	DUCK	7	1	[0, 0, 0]	n/a	FR1	5	R1230J
204.543	1.617	1017496	WORD	n/a	wordpools/wordpool_EN.txt	KITE	8	1	[0, 0, 0]	n/a	FR1	5	R1230J
206.16	0.849	1019113	WORD_OFF	n/a	n/a	KITE	8	1	[0, 0, 0]	n/a	FR1	5	R1230J
207.009	1.602	1019962	WORD	n/a	wordpools/wordpool_EN.txt	TAIL	9	1	[0, 0, 0]	n/a	FR1	5	R1230J
208.611	1.0	1021564	WORD_OFF	n/a	n/a	TAIL	9	1	[0, 0, 0]	n/a	FR1	5	R1230J
209.611	1.617	1022564	WORD	n/a	wordpools/wordpool_EN.txt	SWAMP	10	1	[0, 0, 0]	n/a	FR1	5	R1230J
211.228	0.867	1024181	WORD_OFF	n/a	n/a	SWAMP	10	1	[0, 0, 0]	n/a	FR1	5	R1230J
212.095	1.615	1025048	WORD	n/a	wordpools/wordpool_EN.txt	SPRING	11	1	[0, 0, 0]	n/a	FR1	5	R1230J
213.71	0.885	1026663	WORD_OFF	n/a	n/a	SPRING	11	1	[0, 0, 0]	n/a	FR1	5	R1230J
214.595	1.617	1027548	WORD	n/a	wordpools/wordpool_EN.txt	VINE	12	1	[0, 0, 0]	n/a	FR1	5	R1230J
216.212	0.0	1029165	WORD_OFF	n/a	n/a	VINE	12	1	[0, 0, 0]	n/a	FR1	5	R1230J
216.212	0.0	1029165	DISTRACT_START	n/a	n/a	n/a	-999	1	[0, 0, 0]	n/a	FR1	5	R1230J
216.212	0.016	1029165	START	n/a	n/a	n/a	-999	2	[-999, -999, -999]	n/a	FR1	5	R1230J
216.228	3.667	1029181	PROB	3.667	n/a	n/a	-999	2	[8, 6, 3]	17	FR1	5	R1230J
219.895	3.8	1032848	PROB	3.8	n/a	n/a	-999	2	[3, 9, 8]	20	FR1	5	R1230J
223.695	2.768	1036648	PROB	2.768	n/a	n/a	-999	2	[2, 8, 6]	16	FR1	5	R1230J
226.463	4.134	1039416	PROB	4.134	n/a	n/a	-999	2	[7, 1, 4]	12	FR1	5	R1230J
230.597	2.833	1043550	PROB	2.833	n/a	n/a	-999	2	[2, 6, 4]	12	FR1	5	R1230J
233.43	2.051	1046383	PROB	2.051	n/a	n/a	-999	2	[3, 2, 7]	12	FR1	5	R1230J
235.481	3.327	1048434	PROB	3.327	n/a	n/a	-999	2	[7, 5, 8]	20	FR1	5	R1230J
238.808	0.022	1051761	STOP	n/a	n/a	n/a	-999	2	[-999, -999, -999]	n/a	FR1	5	R1230J
238.83	0.568	1051783	DISTRACT_END	n/a	n/a	n/a	-999	1	[0, 0, 0]	n/a	FR1	5	R1230J
239.398	0.516	1052351	RETRIEVAL_ORIENT	n/a	n/a	n/a	-999	1	[0, 0, 0]	n/a	FR1	5	R1230J
239.914	1.231	1052867	REC_START	n/a	n/a	n/a	-999	1	[0, 0, 0]	n/a	FR1	5	R1230J
241.145	0.059	1054098	REC_WORD_VV	0.059	n/a	<>	-999	1	[0, 0, 0]	n/a	FR1	5	R1230J
241.204	2.644	1054157	REC_WORD	2.644	n/a	SPEAR	-999	1	[0, 0, 0]	n/a	FR1	5	R1230J
243.848	0.419	1056801	REC_WORD_VV	0.419	n/a	<>	-999	1	[0, 0, 0]	n/a	FR1	5	R1230J
244.267	4.246	1057220	REC_WORD	4.246	n/a	DEER	-999	1	[0, 0, 0]	n/a	FR1	5	R1230J
248.513	0.146	1061466	REC_WORD_VV	0.146	n/a	<>	-999	1	[0, 0, 0]	n/a	FR1	5	R1230J
248.659	1.444	1061612	REC_WORD	1.444	n/a	CHALK	-999	1	[0, 0, 0]	n/a	FR1	5	R1230J
250.103	7.896	1063056	REC_WORD_VV	7.896	n/a	<>	-999	1	[0, 0, 0]	n/a	FR1	5	R1230J
257.999	11.927	1070952	REC_WORD	11.927	n/a	POND	-999	1	[0, 0, 0]	n/a	FR1	5	R1230J
269.926	5.025	1082879	REC_END	n/a	n/a	n/a	-999	1	[0, 0, 0]	n/a	FR1	5	R1230J
274.951	0.5	1087904	TRIAL	n/a	n/a	n/a	-999	2	[0, 0, 0]	n/a	FR1	5	R1230J
275.451	10.428	1088404	COUNTDOWN_START	n/a	n/a	n/a	-999	2	[0, 0, 0]	n/a	FR1	5	R1230J
285.879	0.007	1098832	COUNTDOWN_END	n/a	n/a	n/a	-999	2	[0, 0, 0]	n/a	FR1	5	R1230J
285.886	1.618	1098839	ORIENT	n/a	n/a	n/a	-999	2	[0, 0, 0]	n/a	FR1	5	R1230J
287.504	2.117	1100457	ORIENT_OFF	n/a	n/a	n/a	-999	2	[0, 0, 0]	n/a	FR1	5	R1230J
289.621	1.617	1102574	WORD	n/a	wordpools/wordpool_EN.txt	DESK	1	2	[0, 0, 0]	n/a	FR1	5	R1230J
291.238	0.766	1104191	WORD_OFF	n/a	n/a	DESK	1	2	[0, 0, 0]	n/a	FR1	5	R1230J
292.004	1.617	1104957	WORD	n/a	wordpools/wordpool_EN.txt	GUARD	2	2	[0, 0, 0]	n/a	FR1	5	R1230J
293.621	0.834	1106574	WORD_OFF	n/a	n/a	GUARD	2	2	[0, 0, 0]	n/a	FR1	5	R1230J
294.455	1.617	1107408	WORD	n/a	wordpools/wordpool_EN.txt	MULE	3	2	[0, 0, 0]	n/a	FR1	5	R1230J
296.072	0.766	1109025	WORD_OFF	n/a	n/a	MULE	3	2	[0, 0, 0]	n/a	FR1	5	R1230J
296.838	1.618	1109791	WORD	n/a	wordpools/wordpool_EN.txt	PEN	4	2	[0, 0, 0]	n/a	FR1	5	R1230J
298.456	0.833	1111409	WORD_OFF	n/a	n/a	PEN	4	2	[0, 0, 0]	n/a	FR1	5	R1230J
299.289	1.616	1112242	WORD	n/a	wordpools/wordpool_EN.txt	TRAIN	5	2	[0, 0, 0]	n/a	FR1	5	R1230J
300.905	0.833	1113858	WORD_OFF	n/a	n/a	TRAIN	5	2	[0, 0, 0]	n/a	FR1	5	R1230J
301.738	1.618	1114691	WORD	n/a	wordpools/wordpool_EN.txt	SCHOOL	6	2	[0, 0, 0]	n/a	FR1	5	R1230J
303.356	0.883	1116309	WORD_OFF	n/a	n/a	SCHOOL	6	2	[0, 0, 0]	n/a	FR1	5	R1230J
304.239	1.616	1117192	WORD	n/a	wordpools/wordpool_EN.txt	SEAT	7	2	[0, 0, 0]	n/a	FR1	5	R1230J
305.855	0.901	1118808	WORD_OFF	n/a	n/a	SEAT	7	2	[0, 0, 0]	n/a	FR1	5	R1230J
306.756	1.618	1119709	WORD	n/a	wordpools/wordpool_EN.txt	PEA	8	2	[0, 0, 0]	n/a	FR1	5	R1230J
308.374	1.0	1121327	WORD_OFF	n/a	n/a	PEA	8	2	[0, 0, 0]	n/a	FR1	5	R1230J
309.374	1.616	1122327	WORD	n/a	wordpools/wordpool_EN.txt	WALL	9	2	[0, 0, 0]	n/a	FR1	5	R1230J
310.99	0.95	1123943	WORD_OFF	n/a	n/a	WALL	9	2	[0, 0, 0]	n/a	FR1	5	R1230J
311.94	1.617	1124893	WORD	n/a	wordpools/wordpool_EN.txt	BOY	10	2	[0, 0, 0]	n/a	FR1	5	R1230J
313.557	1.017	1126510	WORD_OFF	n/a	n/a	BOY	10	2	[0, 0, 0]	n/a	FR1	5	R1230J
314.574	1.617	1127527	WORD	n/a	wordpools/wordpool_EN.txt	WING	11	2	[0, 0, 0]	n/a	FR1	5	R1230J
316.191	0.917	1129144	WORD_OFF	n/a	n/a	WING	11	2	[0, 0, 0]	n/a	FR1	5	R1230J
317.108	1.616	1130061	WORD	n/a	wordpools/wordpool_EN.txt	CHAIR	12	2	[0, 0, 0]	n/a	FR1	5	R1230J
318.724	0.0	1131677	WORD_OFF	n/a	n/a	CHAIR	12	2	[0, 0, 0]	n/a	FR1	5	R1230J
318.724	0.001	1131677	DISTRACT_START	n/a	n/a	n/a	-999	2	[0, 0, 0]	n/a	FR1	5	R1230J
318.725	0.016	1131678	START	n/a	n/a	n/a	-999	3	[-999, -999, -999]	n/a	FR1	5	R1230J
318.741	4.284	1131694	PROB	4.284	n/a	n/a	-999	3	[7, 8, 7]	23	FR1	5	R1230J
323.025	4.217	1135978	PROB	4.217	n/a	n/a	-999	3	[7, 9, 7]	23	FR1	5	R1230J
327.242	2.4	1140195	PROB	2.4	n/a	n/a	-999	3	[2, 4, 5]	11	FR1	5	R1230J
329.642	3.3	1142595	PROB	3.3	n/a	n/a	-999	3	[2, 7, 8]	17	FR1	5	R1230J
332.942	2.934	1145895	PROB	2.934	n/a	n/a	-999	3	[9, 9, 3]	21	FR1	5	R1230J
335.876	2.201	1148829	PROB	2.201	n/a	n/a	-999	3	[1, 4, 1]	6	FR1	5	R1230J
338.077	4.296	1151030	PROB	4.296	n/a	n/a	-999	3	[6, 9, 8]	23	FR1	5	R1230J
342.373	0.022	1155326	STOP	n/a	n/a	n/a	-999	3	[-999, -999, -999]	n/a	FR1	5	R1230J
342.395	0.532	1155348	DISTRACT_END	n/a	n/a	n/a	-999	2	[0, 0, 0]	n/a	FR1	5	R1230J
342.927	0.519	1155880	RETRIEVAL_ORIENT	n/a	n/a	n/a	-999	2	[0, 0, 0]	n/a	FR1	5	R1230J
343.446	0.755	1156399	REC_START	n/a	n/a	n/a	-999	2	[0, 0, 0]	n/a	FR1	5	R1230J
344.201	0.186	1157154	REC_WORD_VV	0.186	n/a	<>	-999	2	[0, 0, 0]	n/a	FR1	5	R1230J
344.387	2.292	1157340	REC_WORD	2.292	n/a	DESK	-999	2	[0, 0, 0]	n/a	FR1	5	R1230J
346.679	0.151	1159632	REC_WORD_VV	0.151	n/a	<>	-999	2	[0, 0, 0]	n/a	FR1	5	R1230J
346.83	1.404	1159783	REC_WORD	1.404	n/a	PARK	-999	2	[0, 0, 0]	n/a	FR1	5	R1230J
348.234	0.2	1161187	REC_WORD_VV	0.2	n/a	<>	-999	2	[0, 0, 0]	n/a	FR1	5	R1230J
348.434	2.232	1161387	REC_WORD	2.232	n/a	MULE	-999	2	[0, 0, 0]	n/a	FR1	5	R1230J
350.666	0.271	1163619	REC_WORD_VV	0.271	n/a	<>	-999	2	[0, 0, 0]	n/a	FR1	5	R1230J
350.937	22.516	1163890	REC_WORD	22.516	n/a	PEA	-999	2	[0, 0, 0]	n/a	FR1	5	R1230J
373.453	5.113	1186406	REC_END	n/a	n/a	n/a	-999	2	[0, 0, 0]	n/a	FR1	5	R1230J
378.566	0.5	1191519	TRIAL	n/a	n/a	n/a	-999	3	[0, 0, 0]	n/a	FR1	5	R1230J
379.066	10.428	1192019	COUNTDOWN_START	n/a	n/a	n/a	-999	3	[0, 0, 0]	n/a	FR1	5	R1230J
389.494	0.007	1202447	COUNTDOWN_END	n/a	n/a	n/a	-999	3	[0, 0, 0]	n/a	FR1	5	R1230J
389.501	1.617	1202454	ORIENT	n/a	n/a	n/a	-999	3	[0, 0, 0]	n/a	FR1	5	R1230J
391.118	2.266	1204071	ORIENT_OFF	n/a	n/a	n/a	-999	3	[0, 0, 0]	n/a	FR1	5	R1230J
393.384	1.616	1206337	WORD	n/a	wordpools/wordpool_EN.txt	HORN	1	3	[0, 0, 0]	n/a	FR1	5	R1230J
395.0	0.934	1207953	WORD_OFF	n/a	n/a	HORN	1	3	[0, 0, 0]	n/a	FR1	5	R1230J
395.934	1.618	1208887	WORD	n/a	wordpools/wordpool_EN.txt	SEAL	2	3	[0, 0, 0]	n/a	FR1	5	R1230J
397.552	0.783	1210506	WORD_OFF	n/a	n/a	SEAL	2	3	[0, 0, 0]	n/a	FR1	5	R1230J
398.335	1.616	1211289	WORD	n/a	wordpools/wordpool_EN.txt	OWL	3	3	[0, 0, 0]	n/a	FR1	5	R1230J
399.951	0.85	1212905	WORD_OFF	n/a	n/a	OWL	3	3	[0, 0, 0]	n/a	FR1	5	R1230J
400.801	1.618	1213755	WORD	n/a	wordpools/wordpool_EN.txt	MOUTH	4	3	[0, 0, 0]	n/a	FR1	5	R1230J
402.419	0.983	1215373	WORD_OFF	n/a	n/a	MOUTH	4	3	[0, 0, 0]	n/a	FR1	5	R1230J
403.402	1.616	1216356	WORD	n/a	wordpools/wordpool_EN.txt	STEAK	5	3	[0, 0, 0]	n/a	FR1	5	R1230J
405.018	0.884	1217972	WORD_OFF	n/a	n/a	STEAK	5	3	[0, 0, 0]	n/a	FR1	5	R1230J
405.902	1.617	1218856	WORD	n/a	wordpools/wordpool_EN.txt	SNAKE	6	3	[0, 0, 0]	n/a	FR1	5	R1230J
407.519	0.884	1220473	WORD_OFF	n/a	n/a	SNAKE	6	3	[0, 0, 0]	n/a	FR1	5	R1230J
408.403	1.616	1221357	WORD	n/a	wordpools/wordpool_EN.txt	SNAIL	7	3	[0, 0, 0]	n/a	FR1	5	R1230J
410.019	0.783	1222973	WORD_OFF	n/a	n/a	SNAIL	7	3	[0, 0, 0]	n/a	FR1	5	R1230J
410.802	1.601	1223756	WORD	n/a	wordpools/wordpool_EN.txt	SOUP	8	3	[0, 0, 0]	n/a	FR1	5	R1230J
412.403	0.784	1225357	WORD_OFF	n/a	n/a	SOUP	8	3	[0, 0, 0]	n/a	FR1	5	R1230J
413.187	1.616	1226141	WORD	n/a	wordpools/wordpool_EN.txt	BEAK	9	3	[0, 0, 0]	n/a	FR1	5	R1230J
414.803	0.966	1227757	WORD_OFF	n/a	n/a	BEAK	9	3	[0, 0, 0]	n/a	FR1	5	R1230J
415.769	1.602	1228723	WORD	n/a	wordpools/wordpool_EN.txt	SMILE	10	3	[0, 0, 0]	n/a	FR1	5	R1230J
417.371	0.783	1230325	WORD_OFF	n/a	n/a	SMILE	10	3	[0, 0, 0]	n/a	FR1	5	R1230J
418.154	1.616	1231108	WORD	n/a	wordpools/wordpool_EN.txt	COW	11	3	[0, 0, 0]	n/a	FR1	5	R1230J
419.77	0.984	1232724	WORD_OFF	n/a	n/a	COW	11	3	[0, 0, 0]	n/a	FR1	5	R1230J
420.754	1.601	1233708	WORD	n/a	wordpools/wordpool_EN.txt	LAWN	12	3	[0, 0, 0]	n/a	FR1	5	R1230J
422.355	0.0	1235309	WORD_OFF	n/a	n/a	LAWN	12	3	[0, 0, 0]	n/a	FR1	5	R1230J
422.355	0.0	1235309	DISTRACT_START	n/a	n/a	n/a	-999	3	[0, 0, 0]	n/a	FR1	5	R1230J
422.355	0.017	1235309	START	n/a	n/a	n/a	-999	4	[-999, -999, -999]	n/a	FR1	5	R1230J
422.372	4.299	1235326	PROB	4.299	n/a	n/a	-999	4	[4, 9, 6]	19	FR1	5	R1230J
426.671	2.535	1239625	PROB	2.535	n/a	n/a	-999	4	[8, 8, 1]	17	FR1	5	R1230J
429.206	3.466	1242160	PROB	3.466	n/a	n/a	-999	4	[2, 5, 8]	15	FR1	5	R1230J
432.672	2.568	1245626	PROB	2.568	n/a	n/a	-999	4	[5, 4, 9]	18	FR1	5	R1230J
435.24	2.967	1248194	PROB	2.967	n/a	n/a	-999	4	[8, 3, 5]	16	FR1	5	R1230J
438.207	2.616	1251161	PROB	2.616	n/a	n/a	-999	4	[1, 3, 2]	6	FR1	5	R1230J
440.823	4.793	1253777	PROB	4.793	n/a	n/a	-999	4	[8, 3, 6]	17	FR1	5	R1230J
445.616	0.008	1258570	STOP	n/a	n/a	n/a	-999	4	[-999, -999, -999]	n/a	FR1	5	R1230J
445.624	0.533	1258578	DISTRACT_END	n/a	n/a	n/a	-999	3	[0, 0, 0]	n/a	FR1	5	R1230J
446.157	0.517	1259111	RETRIEVAL_ORIENT	n/a	n/a	n/a	-999	3	[0, 0, 0]	n/a	FR1	5	R1230J
446.674	2.588	1259628	REC_START	n/a	n/a	n/a	-999	3	[0, 0, 0]	n/a	FR1	5	R1230J
449.262	1.013	1262216	REC_WORD_VV	1.013	n/a	<>	-999	3	[0, 0, 0]	n/a	FR1	5	R1230J
450.275	0.905	1263229	REC_WORD_VV	0.905	n/a	<>	-999	3	[0, 0, 0]	n/a	FR1	5	R1230J
451.18	2.651	1264134	REC_WORD_VV	2.651	n/a	<>	-999	3	[0, 0, 0]	n/a	FR1	5	R1230J
453.831	2.206	1266785	REC_WORD_VV	2.206	n/a	<>	-999	3	[0, 0, 0]	n/a	FR1	5	R1230J
456.037	3.681	1268991	REC_WORD_VV	3.681	n/a	<>	-999	3	[0, 0, 0]	n/a	FR1	5	R1230J
459.718	16.966	1272672	REC_WORD_VV	16.966	n/a	<>	-999	3	[0, 0, 0]	n/a	FR1	5	R1230J
476.684	754.14	1289638	REC_END	n/a	n/a	n/a	-999	3	[0, 0, 0]	n/a	FR1	5	R1230J
1230.824	0.5	2043779	TRIAL	n/a	n/a	n/a	-999	4	[0, 0, 0]	n/a	FR1	5	R1230J
1231.324	10.428	2044279	COUNTDOWN_START	n/a	n/a	n/a	-999	4	[0, 0, 0]	n/a	FR1	5	R1230J
1241.752	0.006	2054707	COUNTDOWN_END	n/a	n/a	n/a	-999	4	[0, 0, 0]	n/a	FR1	5	R1230J
1241.758	1.618	2054713	ORIENT	n/a	n/a	n/a	-999	4	[0, 0, 0]	n/a	FR1	5	R1230J
1243.376	2.333	2056331	ORIENT_OFF	n/a	n/a	n/a	-999	4	[0, 0, 0]	n/a	FR1	5	R1230J
1245.709	1.618	2058664	WORD	n/a	wordpools/wordpool_EN.txt	BENCH	1	4	[0, 0, 0]	n/a	FR1	5	R1230J
1247.327	0.9	2060282	WORD_OFF	n/a	n/a	BENCH	1	4	[0, 0, 0]	n/a	FR1	5	R1230J
1248.227	1.616	2061182	WORD	n/a	wordpools/wordpool_EN.txt	FLUTE	2	4	[0, 0, 0]	n/a	FR1	5	R1230J
1249.843	0.883	2062798	WORD_OFF	n/a	n/a	FLUTE	2	4	[0, 0, 0]	n/a	FR1	5	R1230J
1250.726	1.618	2063681	WORD	n/a	wordpools/wordpool_EN.txt	CHIN	3	4	[0, 0, 0]	n/a	FR1	5	R1230J
1252.344	0.833	2065299	WORD_OFF	n/a	n/a	CHIN	3	4	[0, 0, 0]	n/a	FR1	5	R1230J
1253.177	1.616	2066132	WORD	n/a	wordpools/wordpool_EN.txt	SLEEVE	4	4	[0, 0, 0]	n/a	FR1	5	R1230J
1254.793	0.967	2067748	WORD_OFF	n/a	n/a	SLEEVE	4	4	[0, 0, 0]	n/a	FR1	5	R1230J
1255.76	1.618	2068715	WORD	n/a	wordpools/wordpool_EN.txt	ROSE	5	4	[0, 0, 0]	n/a	FR1	5	R1230J
1257.378	0.767	2070333	WORD_OFF	n/a	n/a	ROSE	5	4	[0, 0, 0]	n/a	FR1	5	R1230J
1258.145	1.616	2071100	WORD	n/a	wordpools/wordpool_EN.txt	CANE	6	4	[0, 0, 0]	n/a	FR1	5	R1230J
1259.761	0.851	2072716	WORD_OFF	n/a	n/a	CANE	6	4	[0, 0, 0]	n/a	FR1	5	R1230J
1260.612	1.617	2073567	WORD	n/a	wordpools/wordpool_EN.txt	LEG	7	4	[0, 0, 0]	n/a	FR1	5	R1230J
1262.229	0.916	2075184	WORD_OFF	n/a	n/a	LEG	7	4	[0, 0, 0]	n/a	FR1	5	R1230J
1263.145	1.616	2076100	WORD	n/a	wordpools/wordpool_EN.txt	STICK	8	4	[0, 0, 0]	n/a	FR1	5	R1230J
1264.761	0.818	2077716	WORD_OFF	n/a	n/a	STICK	8	4	[0, 0, 0]	n/a	FR1	5	R1230J
1265.579	1.617	2078534	WORD	n/a	wordpools/wordpool_EN.txt	THUMB	9	4	[0, 0, 0]	n/a	FR1	5	R1230J
1267.196	0.816	2080151	WORD_OFF	n/a	n/a	THUMB	9	4	[0, 0, 0]	n/a	FR1	5	R1230J
1268.012	1.617	2080967	WORD	n/a	wordpools/wordpool_EN.txt	SHIRT	10	4	[0, 0, 0]	n/a	FR1	5	R1230J
1269.629	0.867	2082584	WORD_OFF	n/a	n/a	SHIRT	10	4	[0, 0, 0]	n/a	FR1	5	R1230J
1270.496	1.617	2083451	WORD	n/a	wordpools/wordpool_EN.txt	VEST	11	4	[0, 0, 0]	n/a	FR1	5	R1230J
1272.113	0.782	2085068	WORD_OFF	n/a	n/a	VEST	11	4	[0, 0, 0]	n/a	FR1	5	R1230J
1272.895	1.618	2085850	WORD	n/a	wordpools/wordpool_EN.txt	BED	12	4	[0, 0, 0]	n/a	FR1	5	R1230J
1274.513	0.0	2087468	WORD_OFF	n/a	n/a	BED	12	4	[0, 0, 0]	n/a	FR1	5	R1230J
1274.513	0.001	2087468	DISTRACT_START	n/a	n/a	n/a	-999	4	[0, 0, 0]	n/a	FR1	5	R1230J
1274.514	0.016	2087469	START	n/a	n/a	n/a	-999	5	[-999, -999, -999]	n/a	FR1	5	R1230J
1274.53	3.817	2087485	PROB	3.817	n/a	n/a	-999	5	[5, 6, 7]	18	FR1	5	R1230J
1278.347	2.366	2091302	PROB	2.366	n/a	n/a	-999	5	[4, 6, 3]	13	FR1	5	R1230J
1280.713	2.618	2093668	PROB	2.618	n/a	n/a	-999	5	[6, 1, 4]	11	FR1	5	R1230J
1283.331	2.683	2096286	PROB	2.683	n/a	n/a	-999	5	[5, 3, 7]	15	FR1	5	R1230J
1286.014	2.535	2098969	PROB	2.535	n/a	n/a	-999	5	[9, 5, 3]	17	FR1	5	R1230J
1288.549	2.149	2101504	PROB	2.149	n/a	n/a	-999	5	[1, 2, 8]	11	FR1	5	R1230J
1290.698	2.851	2103653	PROB	2.851	n/a	n/a	-999	5	[8, 3, 4]	15	FR1	5	R1230J
1293.549	2.482	2106504	PROB	2.482	n/a	n/a	-999	5	[5, 7, 5]	17	FR1	5	R1230J
1296.031	0.018	2108986	STOP	n/a	n/a	n/a	-999	5	[-999, -999, -999]	n/a	FR1	5	R1230J
1296.049	0.666	2109004	DISTRACT_END	n/a	n/a	n/a	-999	4	[0, 0, 0]	n/a	FR1	5	R1230J
1296.715	0.519	2109670	RETRIEVAL_ORIENT	n/a	n/a	n/a	-999	4	[0, 0, 0]	n/a	FR1	5	R1230J
1297.234	0.438	2110189	REC_START	n/a	n/a	n/a	-999	4	[0, 0, 0]	n/a	FR1	5	R1230J
1297.672	1.161	2110627	REC_WORD	1.161	n/a	FLUTE	-999	4	[0, 0, 0]	n/a	FR1	5	R1230J
1298.833	1.084	2111788	REC_WORD	1.084	n/a	CHIN	-999	4	[0, 0, 0]	n/a	FR1	5	R1230J
1299.917	5.289	2112872	REC_WORD	5.289	n/a	LEG	-999	4	[0, 0, 0]	n/a	FR1	5	R1230J
1305.206	2.321	2118161	REC_WORD_VV	2.321	n/a	<>	-999	4	[0, 0, 0]	n/a	FR1	5	R1230J
1307.527	2.77	2120482	REC_WORD_VV	2.77	n/a	<>	-999	4	[0, 0, 0]	n/a	FR1	5	R1230J
1310.297	3.906	2123252	REC_WORD_VV	3.906	n/a	<>	-999	4	[0, 0, 0]	n/a	FR1	5	R1230J
1314.203	13.041	2127158	REC_WORD_VV	13.041	n/a	<>	-999	4	[0, 0, 0]	n/a	FR1	5	R1230J
1327.244	4.91	2140199	REC_END	n/a	n/a	n/a	-999	4	[0, 0, 0]	n/a	FR1	5	R1230J
1332.154	0.5	2145109	TRIAL	n/a	n/a	n/a	-999	5	[0, 0, 0]	n/a	FR1	5	R1230J
1332.654	10.428	2145609	COUNTDOWN_START	n/a	n/a	n/a	-999	5	[0, 0, 0]	n/a	FR1	5	R1230J
1343.082	0.007	2156037	COUNTDOWN_END	n/a	n/a	n/a	-999	5	[0, 0, 0]	n/a	FR1	5	R1230J
1343.089	1.616	2156044	ORIENT	n/a	n/a	n/a	-999	5	[0, 0, 0]	n/a	FR1	5	R1230J
1344.705	2.133	2157660	ORIENT_OFF	n/a	n/a	n/a	-999	5	[0, 0, 0]	n/a	FR1	5	R1230J
1346.838	1.618	2159793	WORD	n/a	wordpools/wordpool_EN.txt	FOOD	1	5	[0, 0, 0]	n/a	FR1	5	R1230J
1348.456	0.95	2161411	WORD_OFF	n/a	n/a	FOOD	1	5	[0, 0, 0]	n/a	FR1	5	R1230J
1349.406	1.617	2162361	WORD	n/a	wordpools/wordpool_EN.txt	CAKE	2	5	[0, 0, 0]	n/a	FR1	5	R1230J
1351.023	0.95	2163978	WORD_OFF	n/a	n/a	CAKE	2	5	[0, 0, 0]	n/a	FR1	5	R1230J
1351.973	1.617	2164928	WORD	n/a	wordpools/wordpool_EN.txt	BOX	3	5	[0, 0, 0]	n/a	FR1	5	R1230J
1353.59	0.817	2166545	WORD_OFF	n/a	n/a	BOX	3	5	[0, 0, 0]	n/a	FR1	5	R1230J
1354.407	1.617	2167362	WORD	n/a	wordpools/wordpool_EN.txt	YARD	4	5	[0, 0, 0]	n/a	FR1	5	R1230J
1356.024	0.949	2168979	WORD_OFF	n/a	n/a	YARD	4	5	[0, 0, 0]	n/a	FR1	5	R1230J
1356.973	1.618	2169928	WORD	n/a	wordpools/wordpool_EN.txt	GLASS	5	5	[0, 0, 0]	n/a	FR1	5	R1230J
1358.591	0.767	2171546	WORD_OFF	n/a	n/a	GLASS	5	5	[0, 0, 0]	n/a	FR1	5	R1230J
1359.358	1.616	2172313	WORD	n/a	wordpools/wordpool_EN.txt	SINK	6	5	[0, 0, 0]	n/a	FR1	5	R1230J
1360.974	0.833	2173929	WORD_OFF	n/a	n/a	SINK	6	5	[0, 0, 0]	n/a	FR1	5	R1230J
1361.807	1.618	2174762	WORD	n/a	wordpools/wordpool_EN.txt	LAMP	7	5	[0, 0, 0]	n/a	FR1	5	R1230J
1363.425	0.816	2176380	WORD_OFF	n/a	n/a	LAMP	7	5	[0, 0, 0]	n/a	FR1	5	R1230J
1364.241	1.616	2177196	WORD	n/a	wordpools/wordpool_EN.txt	JUICE	8	5	[0, 0, 0]	n/a	FR1	5	R1230J
1365.857	0.85	2178812	WORD_OFF	n/a	n/a	JUICE	8	5	[0, 0, 0]	n/a	FR1	5	R1230J
1366.707	1.618	2179662	WORD	n/a	wordpools/wordpool_EN.txt	BREAD	9	5	[0, 0, 0]	n/a	FR1	5	R1230J
1368.325	0.917	2181280	WORD_OFF	n/a	n/a	BREAD	9	5	[0, 0, 0]	n/a	FR1	5	R1230J
1369.242	1.616	2182197	WORD	n/a	wordpools/wordpool_EN.txt	SLUSH	10	5	[0, 0, 0]	n/a	FR1	5	R1230J
1370.858	0.768	2183813	WORD_OFF	n/a	n/a	SLUSH	10	5	[0, 0, 0]	n/a	FR1	5	R1230J
1371.626	1.617	2184581	WORD	n/a	wordpools/wordpool_EN.txt	STRAW	11	5	[0, 0, 0]	n/a	FR1	5	R1230J
1373.243	0.783	2186198	WORD_OFF	n/a	n/a	STRAW	11	5	[0, 0, 0]	n/a	FR1	5	R1230J
1374.026	1.616	2186981	WORD	n/a	wordpools/wordpool_EN.txt	BAG	12	5	[0, 0, 0]	n/a	FR1	5	R1230J
1375.642	0.0	2188597	WORD_OFF	n/a	n/a	BAG	12	5	[0, 0, 0]	n/a	FR1	5	R1230J
1375.642	0.001	2188597	DISTRACT_START	n/a	n/a	n/a	-999	5	[0, 0, 0]	n/a	FR1	5	R1230J
1375.643	0.016	2188598	START	n/a	n/a	n/a	-999	6	[-999, -999, -999]	n/a	FR1	5	R1230J
1375.659	5.017	2188614	PROB	5.017	n/a	n/a	-999	6	[1, 4, 5]	10	FR1	5	R1230J
1380.676	2.1	2193631	PROB	2.1	n/a	n/a	-999	6	[2, 3, 7]	12	FR1	5	R1230J
1382.776	2.535	2195731	PROB	2.535	n/a	n/a	-999	6	[2, 6, 2]	10	FR1	5	R1230J
1385.311	2.2	2198266	PROB	2.2	n/a	n/a	-999	6	[8, 4, 5]	17	FR1	5	R1230J
1387.511	2.717	2200466	PROB	2.717	n/a	n/a	-999	6	[7, 3, 4]	14	FR1	5	R1230J
1390.228	4.301	2203183	PROB	4.301	n/a	n/a	-999	6	[5, 2, 4]	11	FR1	5	R1230J
1394.529	3.865	2207484	PROB	3.865	n/a	n/a	-999	6	[7, 9, 6]	21	FR1	5	R1230J
1398.394	0.019	2211349	STOP	n/a	n/a	n/a	-999	6	[-999, -999, -999]	n/a	FR1	5	R1230J
1398.413	0.515	2211368	DISTRACT_END	n/a	n/a	n/a	-999	5	[0, 0, 0]	n/a	FR1	5	R1230J
1398.928	0.519	2211883	RETRIEVAL_ORIENT	n/a	n/a	n/a	-999	5	[0, 0, 0]	n/a	FR1	5	R1230J
1399.447	1.517	2212402	REC_START	n/a	n/a	n/a	-999	5	[0, 0, 0]	n/a	FR1	5	R1230J
1400.964	1.019	2213919	REC_WORD	1.019	n/a	STRAW	-999	5	[0, 0, 0]	n/a	FR1	5	R1230J
1401.983	5.367	2214938	REC_WORD	5.367	n/a	FLUTE	-999	5	[0, 0, 0]	n/a	FR1	5	R1230J
1407.35	22.106	2220305	REC_WORD	22.106	n/a	CHAIR	-999	5	[0, 0, 0]	n/a	FR1	5	R1230J
1429.456	5.31	2242411	REC_END	n/a	n/a	n/a	-999	5	[0, 0, 0]	n/a	FR1	5	R1230J
1434.766	0.5	2247721	TRIAL	n/a	n/a	n/a	-999	6	[0, 0, 0]	n/a	FR1	5	R1230J
1435.266	10.428	2248221	COUNTDOWN_START	n/a	n/a	n/a	-999	6	[0, 0, 0]	n/a	FR1	5	R1230J
1445.694	0.007	2258649	COUNTDOWN_END	n/a	n/a	n/a	-999	6	[0, 0, 0]	n/a	FR1	5	R1230J
1445.701	1.601	2258656	ORIENT	n/a	n/a	n/a	-999	6	[0, 0, 0]	n/a	FR1	5	R1230J
1447.302	2.301	2260257	ORIENT_OFF	n/a	n/a	n/a	-999	6	[0, 0, 0]	n/a	FR1	5	R1230J
1449.603	1.617	2262558	WORD	n/a	wordpools/wordpool_EN.txt	CORN	1	6	[0, 0, 0]	n/a	FR1	5	R1230J
1451.22	0.933	2264175	WORD_OFF	n/a	n/a	CORN	1	6	[0, 0, 0]	n/a	FR1	5	R1230J
1452.153	1.616	2265108	WORD	n/a	wordpools/wordpool_EN.txt	CROW	2	6	[0, 0, 0]	n/a	FR1	5	R1230J
1453.769	0.767	2266724	WORD_OFF	n/a	n/a	CROW	2	6	[0, 0, 0]	n/a	FR1	5	R1230J
1454.536	1.617	2267491	WORD	n/a	wordpools/wordpool_EN.txt	ROPE	3	6	[0, 0, 0]	n/a	FR1	5	R1230J
1456.153	0.866	2269108	WORD_OFF	n/a	n/a	ROPE	3	6	[0, 0, 0]	n/a	FR1	5	R1230J
1457.019	1.617	2269974	WORD	n/a	wordpools/wordpool_EN.txt	PIE	4	6	[0, 0, 0]	n/a	FR1	5	R1230J
1458.636	0.768	2271591	WORD_OFF	n/a	n/a	PIE	4	6	[0, 0, 0]	n/a	FR1	5	R1230J
1459.404	1.616	2272359	WORD	n/a	wordpools/wordpool_EN.txt	FOX	5	6	[0, 0, 0]	n/a	FR1	5	R1230J
1461.02	0.966	2273975	WORD_OFF	n/a	n/a	FOX	5	6	[0, 0, 0]	n/a	FR1	5	R1230J
1461.986	1.618	2274941	WORD	n/a	wordpools/wordpool_EN.txt	HAWK	6	6	[0, 0, 0]	n/a	FR1	5	R1230J
1463.604	0.767	2276559	WORD_OFF	n/a	n/a	HAWK	6	6	[0, 0, 0]	n/a	FR1	5	R1230J
1464.371	1.616	2277326	WORD	n/a	wordpools/wordpool_EN.txt	FARM	7	6	[0, 0, 0]	n/a	FR1	5	R1230J
1465.987	0.85	2278942	WORD_OFF	n/a	n/a	FARM	7	6	[0, 0, 0]	n/a	FR1	5	R1230J
1466.837	1.618	2279792	WORD	n/a	wordpools/wordpool_EN.txt	CALF	8	6	[0, 0, 0]	n/a	FR1	5	R1230J
1468.455	0.884	2281410	WORD_OFF	n/a	n/a	CALF	8	6	[0, 0, 0]	n/a	FR1	5	R1230J
1469.339	1.615	2282294	WORD	n/a	wordpools/wordpool_EN.txt	SKUNK	9	6	[0, 0, 0]	n/a	FR1	5	R1230J
1470.954	1.001	2283909	WORD_OFF	n/a	n/a	SKUNK	9	6	[0, 0, 0]	n/a	FR1	5	R1230J
1471.955	1.617	2284910	WORD	n/a	wordpools/wordpool_EN.txt	TOY	10	6	[0, 0, 0]	n/a	FR1	5	R1230J
1473.572	0.85	2286527	WORD_OFF	n/a	n/a	TOY	10	6	[0, 0, 0]	n/a	FR1	5	R1230J
1474.422	1.617	2287377	WORD	n/a	wordpools/wordpool_EN.txt	RICE	11	6	[0, 0, 0]	n/a	FR1	5	R1230J
1476.039	0.916	2288994	WORD_OFF	n/a	n/a	RICE	11	6	[0, 0, 0]	n/a	FR1	5	R1230J
1476.955	1.601	2289910	WORD	n/a	wordpools/wordpool_EN.txt	BRUSH	12	6	[0, 0, 0]	n/a	FR1	5	R1230J
1478.556	0.0	2291511	WORD_OFF	n/a	n/a	BRUSH	12	6	[0, 0, 0]	n/a	FR1	5	R1230J
1478.556	0.001	2291511	DISTRACT_START	n/a	n/a	n/a	-999	6	[0, 0, 0]	n/a	FR1	5	R1230J
1478.557	0.016	2291512	START	n/a	n/a	n/a	-999	7	[-999, -999, -999]	n/a	FR1	5	R1230J
1478.573	2.85	2291528	PROB	2.85	n/a	n/a	-999	7	[4, 1, 6]	11	FR1	5	R1230J
1481.423	3.201	2294378	PROB	3.201	n/a	n/a	-999	7	[4, 1, 5]	10	FR1	5	R1230J
1484.624	4.066	2297579	PROB	4.066	n/a	n/a	-999	7	[3, 2, 3]	7	FR1	5	R1230J
1488.69	2.418	2301645	PROB	2.418	n/a	n/a	-999	7	[7, 2, 1]	10	FR1	5	R1230J
1491.108	2.716	2304063	PROB	2.716	n/a	n/a	-999	7	[6, 7, 4]	17	FR1	5	R1230J
1493.824	2.668	2306779	PROB	2.668	n/a	n/a	-999	7	[1, 9, 8]	18	FR1	5	R1230J
1496.492	4.035	2309447	PROB	4.035	n/a	n/a	-999	7	[6, 8, 3]	17	FR1	5	R1230J
1500.527	0.015	2313482	STOP	n/a	n/a	n/a	-999	7	[-999, -999, -999]	n/a	FR1	5	R1230J
1500.542	0.567	2313497	DISTRACT_END	n/a	n/a	n/a	-999	6	[0, 0, 0]	n/a	FR1	5	R1230J
1501.109	0.518	2314064	RETRIEVAL_ORIENT	n/a	n/a	n/a	-999	6	[0, 0, 0]	n/a	FR1	5	R1230J
1501.627	4.751	2314582	REC_START	n/a	n/a	n/a	-999	6	[0, 0, 0]	n/a	FR1	5	R1230J
1506.378	2.019	2319333	REC_WORD	2.019	n/a	CROW	-999	6	[0, 0, 0]	n/a	FR1	5	R1230J
1508.397	23.239	2321352	REC_WORD	23.239	n/a	HAWK	-999	6	[0, 0, 0]	n/a	FR1	5	R1230J
1531.636	4.394	2344591	REC_END	n/a	n/a	n/a	-999	6	[0, 0, 0]	n/a	FR1	5	R1230J
1536.03	0.5	2348985	TRIAL	n/a	n/a	n/a	-999	7	[0, 0, 0]	n/a	FR1	5	R1230J
1536.53	10.428	2349485	COUNTDOWN_START	n/a	n/a	n/a	-999	7	[0, 0, 0]	n/a	FR1	5	R1230J
1546.958	0.006	2359913	COUNTDOWN_END	n/a	n/a	n/a	-999	7	[0, 0, 0]	n/a	FR1	5	R1230J
1546.964	1.618	2359919	ORIENT	n/a	n/a	n/a	-999	7	[0, 0, 0]	n/a	FR1	5	R1230J
1548.582	2.166	2361537	ORIENT_OFF	n/a	n/a	n/a	-999	7	[0, 0, 0]	n/a	FR1	5	R1230J
1550.748	1.618	2363703	WORD	n/a	wordpools/wordpool_EN.txt	CHIEF	1	7	[0, 0, 0]	n/a	FR1	5	R1230J
1552.366	0.85	2365321	WORD_OFF	n/a	n/a	CHIEF	1	7	[0, 0, 0]	n/a	FR1	5	R1230J
1553.216	1.615	2366171	WORD	n/a	wordpools/wordpool_EN.txt	EAR	2	7	[0, 0, 0]	n/a	FR1	5	R1230J
1554.831	0.834	2367786	WORD_OFF	n/a	n/a	EAR	2	7	[0, 0, 0]	n/a	FR1	5	R1230J
1555.665	1.618	2368620	WORD	n/a	wordpools/wordpool_EN.txt	BOOK	3	7	[0, 0, 0]	n/a	FR1	5	R1230J
1557.283	0.8	2370238	WORD_OFF	n/a	n/a	BOOK	3	7	[0, 0, 0]	n/a	FR1	5	R1230J
1558.083	1.616	2371038	WORD	n/a	wordpools/wordpool_EN.txt	WEED	4	7	[0, 0, 0]	n/a	FR1	5	R1230J
1559.699	0.768	2372654	WORD_OFF	n/a	n/a	WEED	4	7	[0, 0, 0]	n/a	FR1	5	R1230J
1560.467	1.617	2373422	WORD	n/a	wordpools/wordpool_EN.txt	CLOWN	5	7	[0, 0, 0]	n/a	FR1	5	R1230J
1562.084	0.832	2375039	WORD_OFF	n/a	n/a	CLOWN	5	7	[0, 0, 0]	n/a	FR1	5	R1230J
1562.916	1.618	2375871	WORD	n/a	wordpools/wordpool_EN.txt	PIG	6	7	[0, 0, 0]	n/a	FR1	5	R1230J
1564.534	1.0	2377489	WORD_OFF	n/a	n/a	PIG	6	7	[0, 0, 0]	n/a	FR1	5	R1230J
1565.534	1.617	2378489	WORD	n/a	wordpools/wordpool_EN.txt	BADGE	7	7	[0, 0, 0]	n/a	FR1	5	R1230J
1567.151	0.766	2380106	WORD_OFF	n/a	n/a	BADGE	7	7	[0, 0, 0]	n/a	FR1	5	R1230J
1567.917	1.617	2380872	WORD	n/a	wordpools/wordpool_EN.txt	MUG	8	7	[0, 0, 0]	n/a	FR1	5	R1230J
1569.534	0.817	2382489	WORD_OFF	n/a	n/a	MUG	8	7	[0, 0, 0]	n/a	FR1	5	R1230J
1570.351	1.616	2383306	WORD	n/a	wordpools/wordpool_EN.txt	HORSE	9	7	[0, 0, 0]	n/a	FR1	5	R1230J
1571.967	0.783	2384922	WORD_OFF	n/a	n/a	HORSE	9	7	[0, 0, 0]	n/a	FR1	5	R1230J
1572.75	1.618	2385705	WORD	n/a	wordpools/wordpool_EN.txt	JUDGE	10	7	[0, 0, 0]	n/a	FR1	5	R1230J
1574.368	0.85	2387323	WORD_OFF	n/a	n/a	JUDGE	10	7	[0, 0, 0]	n/a	FR1	5	R1230J
1575.218	1.616	2388173	WORD	n/a	wordpools/wordpool_EN.txt	JAIL	11	7	[0, 0, 0]	n/a	FR1	5	R1230J
1576.834	0.951	2389789	WORD_OFF	n/a	n/a	JAIL	11	7	[0, 0, 0]	n/a	FR1	5	R1230J
1577.785	1.617	2390740	WORD	n/a	wordpools/wordpool_EN.txt	PURSE	12	7	[0, 0, 0]	n/a	FR1	5	R1230J
1579.402	0.0	2392357	WORD_OFF	n/a	n/a	PURSE	12	7	[0, 0, 0]	n/a	FR1	5	R1230J
1579.402	0.001	2392357	DISTRACT_START	n/a	n/a	n/a	-999	7	[0, 0, 0]	n/a	FR1	5	R1230J
1579.403	0.016	2392358	START	n/a	n/a	n/a	-999	8	[-999, -999, -999]	n/a	FR1	5	R1230J
1579.419	4.067	2392374	PROB	4.067	n/a	n/a	-999	8	[6, 7, 9]	23	FR1	5	R1230J
1583.486	3.433	2396441	PROB	3.433	n/a	n/a	-999	8	[9, 8, 7]	24	FR1	5	R1230J
1586.919	2.817	2399874	PROB	2.817	n/a	n/a	-999	8	[3, 1, 2]	6	FR1	5	R1230J
1589.736	2.851	2402691	PROB	2.851	n/a	n/a	-999	8	[2, 5, 7]	14	FR1	5	R1230J
1592.587	2.066	2405542	PROB	2.066	n/a	n/a	-999	8	[6, 4, 5]	15	FR1	5	R1230J
1594.653	2.351	2407608	PROB	2.351	n/a	n/a	-999	8	[4, 1, 8]	13	FR1	5	R1230J
1597.004	2.318	2409959	PROB	2.318	n/a	n/a	-999	8	[9, 1, 6]	16	FR1	5	R1230J
1599.322	2.864	2412277	PROB	2.864	n/a	n/a	-999	8	[4, 8, 5]	17	FR1	5	R1230J
1602.186	0.02	2415141	STOP	n/a	n/a	n/a	-999	8	[-999, -999, -999]	n/a	FR1	5	R1230J
1602.206	0.565	2415161	DISTRACT_END	n/a	n/a	n/a	-999	7	[0, 0, 0]	n/a	FR1	5	R1230J
1602.771	0.519	2415726	RETRIEVAL_ORIENT	n/a	n/a	n/a	-999	7	[0, 0, 0]	n/a	FR1	5	R1230J
1603.29	0.782	2416245	REC_START	n/a	n/a	n/a	-999	7	[0, 0, 0]	n/a	FR1	5	R1230J
1604.072	2.547	2417027	REC_WORD	2.547	n/a	CHIEF	-999	7	[0, 0, 0]	n/a	FR1	5	R1230J
1606.619	2.717	2419574	REC_WORD	2.717	n/a	EAR	-999	7	[0, 0, 0]	n/a	FR1	5	R1230J
1609.336	1.25	2422291	REC_WORD	1.25	n/a	BEAR	-999	7	[0, 0, 0]	n/a	FR1	5	R1230J
1610.586	4.923	2423541	REC_WORD	4.923	n/a	CLAW	-999	7	[0, 0, 0]	n/a	FR1	5	R1230J
1615.509	7.11	2428465	REC_WORD	7.11	n/a	BADGE	-999	7	[0, 0, 0]	n/a	FR1	5	R1230J
1622.619	0.859	2435575	REC_WORD_VV	0.859	n/a	<>	-999	7	[0, 0, 0]	n/a	FR1	5	R1230J
1623.478	9.822	2436434	REC_WORD_VV	9.822	n/a	<>	-999	7	[0, 0, 0]	n/a	FR1	5	R1230J
1633.3	5.043	2446256	REC_END	n/a	n/a	n/a	-999	7	[0, 0, 0]	n/a	FR1	5	R1230J
1638.343	0.5	2451299	TRIAL	n/a	n/a	n/a	-999	8	[0, 0, 0]	n/a	FR1	5	R1230J
1638.843	10.428	2451799	COUNTDOWN_START	n/a	n/a	n/a	-999	8	[0, 0, 0]	n/a	FR1	5	R1230J
1649.271	0.007	2462227	COUNTDOWN_END	n/a	n/a	n/a	-999	8	[0, 0, 0]	n/a	FR1	5	R1230J
1649.278	1.616	2462234	ORIENT	n/a	n/a	n/a	-999	8	[0, 0, 0]	n/a	FR1	5	R1230J
1650.894	2.0	2463850	ORIENT_OFF	n/a	n/a	n/a	-999	8	[0, 0, 0]	n/a	FR1	5	R1230J
1652.894	1.618	2465850	WORD	n/a	wordpools/wordpool_EN.txt	SHIELD	1	8	[0, 0, 0]	n/a	FR1	5	R1230J
1654.512	1.0	2467468	WORD_OFF	n/a	n/a	SHIELD	1	8	[0, 0, 0]	n/a	FR1	5	R1230J
1655.512	1.617	2468468	WORD	n/a	wordpools/wordpool_EN.txt	BLOOM	2	8	[0, 0, 0]	n/a	FR1	5	R1230J
1657.129	0.815	2470085	WORD_OFF	n/a	n/a	BLOOM	2	8	[0, 0, 0]	n/a	FR1	5	R1230J
1657.944	1.602	2470900	WORD	n/a	wordpools/wordpool_EN.txt	MAP	3	8	[0, 0, 0]	n/a	FR1	5	R1230J
1659.546	1.0	2472502	WORD_OFF	n/a	n/a	MAP	3	8	[0, 0, 0]	n/a	FR1	5	R1230J
1660.546	1.617	2473502	WORD	n/a	wordpools/wordpool_EN.txt	STORM	4	8	[0, 0, 0]	n/a	FR1	5	R1230J
1662.163	0.849	2475119	WORD_OFF	n/a	n/a	STORM	4	8	[0, 0, 0]	n/a	FR1	5	R1230J
1663.012	1.617	2475968	WORD	n/a	wordpools/wordpool_EN.txt	BEACH	5	8	[0, 0, 0]	n/a	FR1	5	R1230J
1664.629	0.968	2477585	WORD_OFF	n/a	n/a	BEACH	5	8	[0, 0, 0]	n/a	FR1	5	R1230J
1665.597	1.617	2478553	WORD	n/a	wordpools/wordpool_EN.txt	SEA	6	8	[0, 0, 0]	n/a	FR1	5	R1230J
1667.214	0.9	2480170	WORD_OFF	n/a	n/a	SEA	6	8	[0, 0, 0]	n/a	FR1	5	R1230J
1668.114	1.616	2481070	WORD	n/a	wordpools/wordpool_EN.txt	FUDGE	7	8	[0, 0, 0]	n/a	FR1	5	R1230J
1669.73	0.818	2482686	WORD_OFF	n/a	n/a	FUDGE	7	8	[0, 0, 0]	n/a	FR1	5	R1230J
1670.548	1.617	2483504	WORD	n/a	wordpools/wordpool_EN.txt	SHEEP	8	8	[0, 0, 0]	n/a	FR1	5	R1230J
1672.165	0.966	2485121	WORD_OFF	n/a	n/a	SHEEP	8	8	[0, 0, 0]	n/a	FR1	5	R1230J
1673.131	1.616	2486087	WORD	n/a	wordpools/wordpool_EN.txt	KEY	9	8	[0, 0, 0]	n/a	FR1	5	R1230J
1674.747	0.917	2487703	WORD_OFF	n/a	n/a	KEY	9	8	[0, 0, 0]	n/a	FR1	5	R1230J
1675.664	1.617	2488620	WORD	n/a	wordpools/wordpool_EN.txt	LAND	10	8	[0, 0, 0]	n/a	FR1	5	R1230J
1677.281	0.917	2490237	WORD_OFF	n/a	n/a	LAND	10	8	[0, 0, 0]	n/a	FR1	5	R1230J
1678.198	1.616	2491154	WORD	n/a	wordpools/wordpool_EN.txt	FLAG	11	8	[0, 0, 0]	n/a	FR1	5	R1230J
1679.814	0.834	2492770	WORD_OFF	n/a	n/a	FLAG	11	8	[0, 0, 0]	n/a	FR1	5	R1230J
1680.648	1.618	2493604	WORD	n/a	wordpools/wordpool_EN.txt	RAIN	12	8	[0, 0, 0]	n/a	FR1	5	R1230J
1682.266	0.0	2495222	WORD_OFF	n/a	n/a	RAIN	12	8	[0, 0, 0]	n/a	FR1	5	R1230J
1682.266	0.0	2495222	DISTRACT_START	n/a	n/a	n/a	-999	8	[0, 0, 0]	n/a	FR1	5	R1230J
1682.266	0.016	2495222	START	n/a	n/a	n/a	-999	9	[-999, -999, -999]	n/a	FR1	5	R1230J
1682.282	2.8	2495238	PROB	2.8	n/a	n/a	-999	9	[1, 7, 3]	11	FR1	5	R1230J
1685.082	2.484	2498038	PROB	2.484	n/a	n/a	-999	9	[1, 3, 8]	12	FR1	5	R1230J
1687.566	2.567	2500522	PROB	2.567	n/a	n/a	-999	9	[9, 4, 3]	16	FR1	5	R1230J
1690.133	2.484	2503089	PROB	2.484	n/a	n/a	-999	9	[3, 7, 6]	16	FR1	5	R1230J
1692.617	2.399	2505573	PROB	2.399	n/a	n/a	-999	9	[5, 5, 7]	17	FR1	5	R1230J
1695.016	2.984	2507972	PROB	2.984	n/a	n/a	-999	9	[3, 6, 9]	18	FR1	5	R1230J
1698.0	2.684	2510956	PROB	2.684	n/a	n/a	-999	9	[6, 5, 2]	13	FR1	5	R1230J
1700.684	2.336	2513640	PROB	2.336	n/a	n/a	-999	9	[9, 1, 6]	16	FR1	5	R1230J
1703.02	0.015	2515976	STOP	n/a	n/a	n/a	-999	9	[-999, -999, -999]	n/a	FR1	5	R1230J
1703.035	0.583	2515991	DISTRACT_END	n/a	n/a	n/a	-999	8	[0, 0, 0]	n/a	FR1	5	R1230J
1703.618	0.517	2516574	RETRIEVAL_ORIENT	n/a	n/a	n/a	-999	8	[0, 0, 0]	n/a	FR1	5	R1230J
1704.135	4.058	2517091	REC_START	n/a	n/a	n/a	-999	8	[0, 0, 0]	n/a	FR1	5	R1230J
1708.193	25.954	2521149	REC_WORD_VV	25.954	n/a	<>	-999	8	[0, 0, 0]	n/a	FR1	5	R1230J
1734.147	4.392	2547103	REC_END	n/a	n/a	n/a	-999	8	[0, 0, 0]	n/a	FR1	5	R1230J
1738.539	0.5	2551495	TRIAL	n/a	n/a	n/a	-999	9	[0, 0, 0]	n/a	FR1	5	R1230J
1739.039	10.428	2551995	COUNTDOWN_START	n/a	n/a	n/a	-999	9	[0, 0, 0]	n/a	FR1	5	R1230J
1749.467	0.007	2562423	COUNTDOWN_END	n/a	n/a	n/a	-999	9	[0, 0, 0]	n/a	FR1	5	R1230J
1749.474	1.617	2562430	ORIENT	n/a	n/a	n/a	-999	9	[0, 0, 0]	n/a	FR1	5	R1230J
1751.091	2.067	2564047	ORIENT_OFF	n/a	n/a	n/a	-999	9	[0, 0, 0]	n/a	FR1	5	R1230J
1753.158	1.616	2566114	WORD	n/a	wordpools/wordpool_EN.txt	TRUCK	1	9	[0, 0, 0]	n/a	FR1	5	R1230J
1754.774	0.784	2567730	WORD_OFF	n/a	n/a	TRUCK	1	9	[0, 0, 0]	n/a	FR1	5	R1230J
1755.558	1.617	2568514	WORD	n/a	wordpools/wordpool_EN.txt	HOUSE	2	9	[0, 0, 0]	n/a	FR1	5	R1230J
1757.175	0.884	2570131	WORD_OFF	n/a	n/a	HOUSE	2	9	[0, 0, 0]	n/a	FR1	5	R1230J
1758.059	1.615	2571015	WORD	n/a	wordpools/wordpool_EN.txt	WOOD	3	9	[0, 0, 0]	n/a	FR1	5	R1230J
1759.674	0.835	2572630	WORD_OFF	n/a	n/a	WOOD	3	9	[0, 0, 0]	n/a	FR1	5	R1230J
1760.509	1.617	2573465	WORD	n/a	wordpools/wordpool_EN.txt	CHALK	4	9	[0, 0, 0]	n/a	FR1	5	R1230J
1762.126	0.933	2575082	WORD_OFF	n/a	n/a	CHALK	4	9	[0, 0, 0]	n/a	FR1	5	R1230J
1763.059	1.616	2576015	WORD	n/a	wordpools/wordpool_EN.txt	TREE	5	9	[0, 0, 0]	n/a	FR1	5	R1230J
1764.675	0.768	2577631	WORD_OFF	n/a	n/a	TREE	5	9	[0, 0, 0]	n/a	FR1	5	R1230J
1765.443	1.617	2578399	WORD	n/a	wordpools/wordpool_EN.txt	TRASH	6	9	[0, 0, 0]	n/a	FR1	5	R1230J
1767.06	0.815	2580016	WORD_OFF	n/a	n/a	TRASH	6	9	[0, 0, 0]	n/a	FR1	5	R1230J
1767.875	1.601	2580831	WORD	n/a	wordpools/wordpool_EN.txt	ANT	7	9	[0, 0, 0]	n/a	FR1	5	R1230J
1769.476	0.917	2582432	WORD_OFF	n/a	n/a	ANT	7	9	[0, 0, 0]	n/a	FR1	5	R1230J
1770.393	1.616	2583349	WORD	n/a	wordpools/wordpool_EN.txt	MOOSE	8	9	[0, 0, 0]	n/a	FR1	5	R1230J
1772.009	0.917	2584965	WORD_OFF	n/a	n/a	MOOSE	8	9	[0, 0, 0]	n/a	FR1	5	R1230J
1772.926	1.618	2585882	WORD	n/a	wordpools/wordpool_EN.txt	LAKE	9	9	[0, 0, 0]	n/a	FR1	5	R1230J
1774.544	0.85	2587500	WORD_OFF	n/a	n/a	LAKE	9	9	[0, 0, 0]	n/a	FR1	5	R1230J
1775.394	1.616	2588350	WORD	n/a	wordpools/wordpool_EN.txt	WEB	10	9	[0, 0, 0]	n/a	FR1	5	R1230J
1777.01	0.883	2589966	WORD_OFF	n/a	n/a	WEB	10	9	[0, 0, 0]	n/a	FR1	5	R1230J
1777.893	1.618	2590849	WORD	n/a	wordpools/wordpool_EN.txt	NEST	11	9	[0, 0, 0]	n/a	FR1	5	R1230J
1779.511	0.9	2592467	WORD_OFF	n/a	n/a	NEST	11	9	[0, 0, 0]	n/a	FR1	5	R1230J
1780.411	1.617	2593367	WORD	n/a	wordpools/wordpool_EN.txt	BRANCH	12	9	[0, 0, 0]	n/a	FR1	5	R1230J
1782.028	0.0	2594984	WORD_OFF	n/a	n/a	BRANCH	12	9	[0, 0, 0]	n/a	FR1	5	R1230J
1782.028	0.001	2594984	DISTRACT_START	n/a	n/a	n/a	-999	9	[0, 0, 0]	n/a	FR1	5	R1230J
1782.029	0.016	2594985	START	n/a	n/a	n/a	-999	10	[-999, -999, -999]	n/a	FR1	5	R1230J
1782.045	4.25	2595001	PROB	4.25	n/a	n/a	-999	10	[9, 2, 9]	20	FR1	5	R1230J
1786.295	3.45	2599251	PROB	3.45	n/a	n/a	-999	10	[5, 4, 4]	13	FR1	5	R1230J
1789.745	3.133	2602701	PROB	3.133	n/a	n/a	-999	10	[8, 6, 7]	21	FR1	5	R1230J
1792.878	2.502	2605834	PROB	2.502	n/a	n/a	-999	10	[4, 5, 9]	18	FR1	5	R1230J
1795.38	4.5	2608336	PROB	4.5	n/a	n/a	-999	10	[2, 7, 6]	15	FR1	5	R1230J
1799.88	2.752	2612836	PROB	2.752	n/a	n/a	-999	10	[7, 4, 4]	15	FR1	5	R1230J
1802.632	0.014	2615588	STOP	n/a	n/a	n/a	-999	10	[-999, -999, -999]	n/a	FR1	5	R1230J
1802.646	0.585	2615602	DISTRACT_END	n/a	n/a	n/a	-999	9	[0, 0, 0]	n/a	FR1	5	R1230J
1803.231	0.516	2616187	RETRIEVAL_ORIENT	n/a	n/a	n/a	-999	9	[0, 0, 0]	n/a	FR1	5	R1230J
1803.747	0.901	2616703	REC_START	n/a	n/a	n/a	-999	9	[0, 0, 0]	n/a	FR1	5	R1230J
1804.648	0.818	2617604	REC_WORD	0.818	n/a	TRUCK	-999	9	[0, 0, 0]	n/a	FR1	5	R1230J
1805.466	1.876	2618422	REC_WORD	1.876	n/a	HOUSE	-999	9	[0, 0, 0]	n/a	FR1	5	R1230J
1807.342	1.356	2620298	REC_WORD	1.356	n/a	CHALK	-999	9	[0, 0, 0]	n/a	FR1	5	R1230J
1808.698	25.061	2621654	REC_WORD	25.061	n/a	WOOD	-999	9	[0, 0, 0]	n/a	FR1	5	R1230J
1833.759	4.476	2646715	REC_END	n/a	n/a	n/a	-999	9	[0, 0, 0]	n/a	FR1	5	R1230J
1838.235	0.5	2651191	TRIAL	n/a	n/a	n/a	-999	10	[0, 0, 0]	n/a	FR1	5	R1230J
1838.735	10.428	2651691	COUNTDOWN_START	n/a	n/a	n/a	-999	10	[0, 0, 0]	n/a	FR1	5	R1230J
1849.163	0.007	2662119	COUNTDOWN_END	n/a	n/a	n/a	-999	10	[0, 0, 0]	n/a	FR1	5	R1230J
1849.17	1.616	2662126	ORIENT	n/a	n/a	n/a	-999	10	[0, 0, 0]	n/a	FR1	5	R1230J
1850.786	2.217	2663742	ORIENT_OFF	n/a	n/a	n/a	-999	10	[0, 0, 0]	n/a	FR1	5	R1230J
1853.003	1.618	2665959	WORD	n/a	wordpools/wordpool_EN.txt	LIP	1	10	[0, 0, 0]	n/a	FR1	5	R1230J
1854.621	0.983	2667577	WORD_OFF	n/a	n/a	LIP	1	10	[0, 0, 0]	n/a	FR1	5	R1230J
1855.604	1.617	2668560	WORD	n/a	wordpools/wordpool_EN.txt	BOOT	2	10	[0, 0, 0]	n/a	FR1	5	R1230J
1857.221	0.867	2670177	WORD_OFF	n/a	n/a	BOOT	2	10	[0, 0, 0]	n/a	FR1	5	R1230J
1858.088	1.616	2671044	WORD	n/a	wordpools/wordpool_EN.txt	PIN	3	10	[0, 0, 0]	n/a	FR1	5	R1230J
1859.704	0.983	2672660	WORD_OFF	n/a	n/a	PIN	3	10	[0, 0, 0]	n/a	FR1	5	R1230J
1860.687	1.618	2673643	WORD	n/a	wordpools/wordpool_EN.txt	PASTE	4	10	[0, 0, 0]	n/a	FR1	5	R1230J
1862.305	0.9	2675261	WORD_OFF	n/a	n/a	PASTE	4	10	[0, 0, 0]	n/a	FR1	5	R1230J
1863.205	1.616	2676161	WORD	n/a	wordpools/wordpool_EN.txt	PLATE	5	10	[0, 0, 0]	n/a	FR1	5	R1230J
1864.821	0.983	2677777	WORD_OFF	n/a	n/a	PLATE	5	10	[0, 0, 0]	n/a	FR1	5	R1230J
1865.804	1.602	2678760	WORD	n/a	wordpools/wordpool_EN.txt	NAIL	6	10	[0, 0, 0]	n/a	FR1	5	R1230J
1867.406	0.95	2680362	WORD_OFF	n/a	n/a	NAIL	6	10	[0, 0, 0]	n/a	FR1	5	R1230J
1868.356	1.616	2681312	WORD	n/a	wordpools/wordpool_EN.txt	EEL	7	10	[0, 0, 0]	n/a	FR1	5	R1230J
1869.972	0.817	2682928	WORD_OFF	n/a	n/a	EEL	7	10	[0, 0, 0]	n/a	FR1	5	R1230J
1870.789	1.617	2683745	WORD	n/a	wordpools/wordpool_EN.txt	SPONGE	8	10	[0, 0, 0]	n/a	FR1	5	R1230J
1872.406	0.967	2685362	WORD_OFF	n/a	n/a	SPONGE	8	10	[0, 0, 0]	n/a	FR1	5	R1230J
1873.373	1.616	2686329	WORD	n/a	wordpools/wordpool_EN.txt	TOE	9	10	[0, 0, 0]	n/a	FR1	5	R1230J
1874.989	0.817	2687945	WORD_OFF	n/a	n/a	TOE	9	10	[0, 0, 0]	n/a	FR1	5	R1230J
1875.806	1.618	2688762	WORD	n/a	wordpools/wordpool_EN.txt	ROOT	10	10	[0, 0, 0]	n/a	FR1	5	R1230J
1877.424	0.833	2690380	WORD_OFF	n/a	n/a	ROOT	10	10	[0, 0, 0]	n/a	FR1	5	R1230J
1878.257	1.616	2691213	WORD	n/a	wordpools/wordpool_EN.txt	HOSE	11	10	[0, 0, 0]	n/a	FR1	5	R1230J
1879.873	0.834	2692829	WORD_OFF	n/a	n/a	HOSE	11	10	[0, 0, 0]	n/a	FR1	5	R1230J
1880.707	1.618	2693663	WORD	n/a	wordpools/wordpool_EN.txt	ARM	12	10	[0, 0, 0]	n/a	FR1	5	R1230J
1882.325	0.0	2695281	WORD_OFF	n/a	n/a	ARM	12	10	[0, 0, 0]	n/a	FR1	5	R1230J
1882.325	0.0	2695281	DISTRACT_START	n/a	n/a	n/a	-999	10	[0, 0, 0]	n/a	FR1	5	R1230J
1882.325	0.016	2695281	START	n/a	n/a	n/a	-999	11	[-999, -999, -999]	n/a	FR1	5	R1230J
1882.341	5.151	2695297	PROB	5.151	n/a	n/a	-999	11	[1, 8, 7]	16	FR1	5	R1230J
1887.492	2.482	2700448	PROB	2.482	n/a	n/a	-999	11	[1, 3, 6]	10	FR1	5	R1230J
1889.974	3.185	2702930	PROB	3.185	n/a	n/a	-999	11	[6, 1, 2]	9	FR1	5	R1230J
1893.159	3.084	2706115	PROB	3.084	n/a	n/a	-999	11	[8, 7, 6]	21	FR1	5	R1230J
1896.243	2.549	2709199	PROB	2.549	n/a	n/a	-999	11	[8, 2, 5]	15	FR1	5	R1230J
1898.792	3.201	2711748	PROB	3.201	n/a	n/a	-999	11	[2, 9, 9]	20	FR1	5	R1230J
1901.993	2.756	2714949	PROB	2.756	n/a	n/a	-999	11	[6, 3, 5]	14	FR1	5	R1230J
1904.749	0.01	2717705	STOP	n/a	n/a	n/a	-999	11	[-999, -999, -999]	n/a	FR1	5	R1230J
1904.759	0.552	2717715	DISTRACT_END	n/a	n/a	n/a	-999	10	[0, 0, 0]	n/a	FR1	5	R1230J
1905.311	0.516	2718267	RETRIEVAL_ORIENT	n/a	n/a	n/a	-999	10	[0, 0, 0]	n/a	FR1	5	R1230J
1905.827	0.926	2718783	REC_START	n/a	n/a	n/a	-999	10	[0, 0, 0]	n/a	FR1	5	R1230J
1906.753	0.829	2719709	REC_WORD	0.829	n/a	EEL	-999	10	[0, 0, 0]	n/a	FR1	5	R1230J
1907.582	1.434	2720538	REC_WORD	1.434	n/a	LIP	-999	10	[0, 0, 0]	n/a	FR1	5	R1230J
1909.016	2.066	2721972	REC_WORD	2.066	n/a	BANK	-999	10	[0, 0, 0]	n/a	FR1	5	R1230J
1911.082	24.753	2724038	REC_WORD	24.753	n/a	TOWEL	-999	10	[0, 0, 0]	n/a	FR1	5	R1230J
1935.835	4.48	2748791	REC_END	n/a	n/a	n/a	-999	10	[0, 0, 0]	n/a	FR1	5	R1230J
1940.315	0.5	2753271	TRIAL	n/a	n/a	n/a	-999	11	[0, 0, 0]	n/a	FR1	5	R1230J
1940.815	10.428	2753771	COUNTDOWN_START	n/a	n/a	n/a	-999	11	[0, 0, 0]	n/a	FR1	5	R1230J
1951.243	0.007	2764199	COUNTDOWN_END	n/a	n/a	n/a	-999	11	[0, 0, 0]	n/a	FR1	5	R1230J
1951.25	1.616	2764206	ORIENT	n/a	n/a	n/a	-999	11	[0, 0, 0]	n/a	FR1	5	R1230J
1952.866	2.0	2765822	ORIENT_OFF	n/a	n/a	n/a	-999	11	[0, 0, 0]	n/a	FR1	5	R1230J
1954.866	1.601	2767822	WORD	n/a	wordpools/wordpool_EN.txt	CART	1	11	[0, 0, 0]	n/a	FR1	5	R1230J
1956.467	0.867	2769423	WORD_OFF	n/a	n/a	CART	1	11	[0, 0, 0]	n/a	FR1	5	R1230J
1957.334	1.616	2770290	WORD	n/a	wordpools/wordpool_EN.txt	MOUSE	2	11	[0, 0, 0]	n/a	FR1	5	R1230J
1958.95	0.933	2771906	WORD_OFF	n/a	n/a	MOUSE	2	11	[0, 0, 0]	n/a	FR1	5	R1230J
1959.883	1.618	2772839	WORD	n/a	wordpools/wordpool_EN.txt	BRICK	3	11	[0, 0, 0]	n/a	FR1	5	R1230J
1961.501	0.884	2774457	WORD_OFF	n/a	n/a	BRICK	3	11	[0, 0, 0]	n/a	FR1	5	R1230J
1962.385	1.615	2775341	WORD	n/a	wordpools/wordpool_EN.txt	CAVE	4	11	[0, 0, 0]	n/a	FR1	5	R1230J
1964.0	0.934	2776956	WORD_OFF	n/a	n/a	CAVE	4	11	[0, 0, 0]	n/a	FR1	5	R1230J
1964.934	1.618	2777890	WORD	n/a	wordpools/wordpool_EN.txt	SKI	5	11	[0, 0, 0]	n/a	FR1	5	R1230J
1966.552	0.766	2779508	WORD_OFF	n/a	n/a	SKI	5	11	[0, 0, 0]	n/a	FR1	5	R1230J
1967.318	1.616	2780274	WORD	n/a	wordpools/wordpool_EN.txt	BARN	6	11	[0, 0, 0]	n/a	FR1	5	R1230J
1968.934	0.851	2781890	WORD_OFF	n/a	n/a	BARN	6	11	[0, 0, 0]	n/a	FR1	5	R1230J
1969.785	1.618	2782741	WORD	n/a	wordpools/wordpool_EN.txt	DOCK	7	11	[0, 0, 0]	n/a	FR1	5	R1230J
1971.403	0.783	2784359	WORD_OFF	n/a	n/a	DOCK	7	11	[0, 0, 0]	n/a	FR1	5	R1230J
1972.186	1.616	2785142	WORD	n/a	wordpools/wordpool_EN.txt	TIE	8	11	[0, 0, 0]	n/a	FR1	5	R1230J
1973.802	0.833	2786758	WORD_OFF	n/a	n/a	TIE	8	11	[0, 0, 0]	n/a	FR1	5	R1230J
1974.635	1.601	2787591	WORD	n/a	wordpools/wordpool_EN.txt	SLIME	9	11	[0, 0, 0]	n/a	FR1	5	R1230J
1976.236	0.967	2789192	WORD_OFF	n/a	n/a	SLIME	9	11	[0, 0, 0]	n/a	FR1	5	R1230J
1977.203	1.616	2790159	WORD	n/a	wordpools/wordpool_EN.txt	CRANE	10	11	[0, 0, 0]	n/a	FR1	5	R1230J
1978.819	0.983	2791775	WORD_OFF	n/a	n/a	CRANE	10	11	[0, 0, 0]	n/a	FR1	5	R1230J
1979.802	1.602	2792758	WORD	n/a	wordpools/wordpool_EN.txt	TOAD	11	11	[0, 0, 0]	n/a	FR1	5	R1230J
1981.404	0.8	2794360	WORD_OFF	n/a	n/a	TOAD	11	11	[0, 0, 0]	n/a	FR1	5	R1230J
1982.204	1.615	2795160	WORD	n/a	wordpools/wordpool_EN.txt	ROOF	12	11	[0, 0, 0]	n/a	FR1	5	R1230J
1983.819	0.0	2796775	WORD_OFF	n/a	n/a	ROOF	12	11	[0, 0, 0]	n/a	FR1	5	R1230J
1983.819	0.001	2796775	DISTRACT_START	n/a	n/a	n/a	-999	11	[0, 0, 0]	n/a	FR1	5	R1230J
1983.82	0.016	2796776	START	n/a	n/a	n/a	-999	12	[-999, -999, -999]	n/a	FR1	5	R1230J
1983.836	2.951	2796792	PROB	2.951	n/a	n/a	-999	12	[8, 6, 4]	18	FR1	5	R1230J
1986.787	3.518	2799743	PROB	3.518	n/a	n/a	-999	12	[1, 8, 6]	15	FR1	5	R1230J
1990.305	2.8	2803261	PROB	2.8	n/a	n/a	-999	12	[6, 5, 2]	13	FR1	5	R1230J
1993.105	4.134	2806061	PROB	4.134	n/a	n/a	-999	12	[8, 7, 5]	21	FR1	5	R1230J
1997.239	5.034	2810195	PROB	5.034	n/a	n/a	-999	12	[8, 5, 6]	19	FR1	5	R1230J
2002.273	5.727	2815229	PROB	5.727	n/a	n/a	-999	12	[4, 5, 4]	13	FR1	5	R1230J
2008.0	0.006	2820956	STOP	n/a	n/a	n/a	-999	12	[-999, -999, -999]	n/a	FR1	5	R1230J
2008.006	0.618	2820962	DISTRACT_END	n/a	n/a	n/a	-999	11	[0, 0, 0]	n/a	FR1	5	R1230J
2008.624	0.517	2821580	RETRIEVAL_ORIENT	n/a	n/a	n/a	-999	11	[0, 0, 0]	n/a	FR1	5	R1230J
2009.141	3.785	2822097	REC_START	n/a	n/a	n/a	-999	11	[0, 0, 0]	n/a	FR1	5	R1230J
2012.926	4.871	2825882	REC_WORD_VV	4.871	n/a	<>	-999	11	[0, 0, 0]	n/a	FR1	5	R1230J
2017.797	4.31	2830753	REC_WORD	4.31	n/a	CART	-999	11	[0, 0, 0]	n/a	FR1	5	R1230J
2022.107	3.227	2835063	REC_WORD	3.227	n/a	TOWEL	-999	11	[0, 0, 0]	n/a	FR1	5	R1230J
2025.334	13.817	2838290	REC_WORD	13.817	n/a	BRICK	-999	11	[0, 0, 0]	n/a	FR1	5	R1230J
2039.151	5.144	2852107	REC_END	n/a	n/a	n/a	-999	11	[0, 0, 0]	n/a	FR1	5	R1230J
2044.295	0.5	2857251	TRIAL	n/a	n/a	n/a	-999	12	[0, 0, 0]	n/a	FR1	5	R1230J
2044.795	10.428	2857751	COUNTDOWN_START	n/a	n/a	n/a	-999	12	[0, 0, 0]	n/a	FR1	5	R1230J
2055.223	0.007	2868179	COUNTDOWN_END	n/a	n/a	n/a	-999	12	[0, 0, 0]	n/a	FR1	5	R1230J
2055.23	1.616	2868186	ORIENT	n/a	n/a	n/a	-999	12	[0, 0, 0]	n/a	FR1	5	R1230J
2056.846	1.867	2869802	ORIENT_OFF	n/a	n/a	n/a	-999	12	[0, 0, 0]	n/a	FR1	5	R1230J
2058.713	1.618	2871669	WORD	n/a	wordpools/wordpool_EN.txt	SEED	1	12	[0, 0, 0]	n/a	FR1	5	R1230J
2060.331	0.783	2873287	WORD_OFF	n/a	n/a	SEED	1	12	[0, 0, 0]	n/a	FR1	5	R1230J
2061.114	1.615	2874070	WORD	n/a	wordpools/wordpool_EN.txt	SHARK	2	12	[0, 0, 0]	n/a	FR1	5	R1230J
2062.729	1.001	2875685	WORD_OFF	n/a	n/a	SHARK	2	12	[0, 0, 0]	n/a	FR1	5	R1230J
2063.73	1.618	2876686	WORD	n/a	wordpools/wordpool_EN.txt	HOOK	3	12	[0, 0, 0]	n/a	FR1	5	R1230J
2065.348	0.95	2878304	WORD_OFF	n/a	n/a	HOOK	3	12	[0, 0, 0]	n/a	FR1	5	R1230J
2066.298	1.616	2879254	WORD	n/a	wordpools/wordpool_EN.txt	TRAY	4	12	[0, 0, 0]	n/a	FR1	5	R1230J
2067.914	0.866	2880870	WORD_OFF	n/a	n/a	TRAY	4	12	[0, 0, 0]	n/a	FR1	5	R1230J
2068.78	1.619	2881736	WORD	n/a	wordpools/wordpool_EN.txt	SHELL	5	12	[0, 0, 0]	n/a	FR1	5	R1230J
2070.399	0.766	2883355	WORD_OFF	n/a	n/a	SHELL	5	12	[0, 0, 0]	n/a	FR1	5	R1230J
2071.165	1.616	2884121	WORD	n/a	wordpools/wordpool_EN.txt	JAR	6	12	[0, 0, 0]	n/a	FR1	5	R1230J
2072.781	0.983	2885737	WORD_OFF	n/a	n/a	JAR	6	12	[0, 0, 0]	n/a	FR1	5	R1230J
2073.764	1.601	2886720	WORD	n/a	wordpools/wordpool_EN.txt	TEA	7	12	[0, 0, 0]	n/a	FR1	5	R1230J
2075.365	0.917	2888321	WORD_OFF	n/a	n/a	TEA	7	12	[0, 0, 0]	n/a	FR1	5	R1230J
2076.282	1.616	2889238	WORD	n/a	wordpools/wordpool_EN.txt	BEE	8	12	[0, 0, 0]	n/a	FR1	5	R1230J
2077.898	1.0	2890854	WORD_OFF	n/a	n/a	BEE	8	12	[0, 0, 0]	n/a	FR1	5	R1230J
2078.898	1.602	2891854	WORD	n/a	wordpools/wordpool_EN.txt	FRUIT	9	12	[0, 0, 0]	n/a	FR1	5	R1230J
2080.5	0.8	2893456	WORD_OFF	n/a	n/a	FRUIT	9	12	[0, 0, 0]	n/a	FR1	5	R1230J
2081.3	1.615	2894256	WORD	n/a	wordpools/wordpool_EN.txt	MUD	10	12	[0, 0, 0]	n/a	FR1	5	R1230J
2082.915	0.901	2895871	WORD_OFF	n/a	n/a	MUD	10	12	[0, 0, 0]	n/a	FR1	5	R1230J
2083.816	1.617	2896772	WORD	n/a	wordpools/wordpool_EN.txt	SHRIMP	11	12	[0, 0, 0]	n/a	FR1	5	R1230J
2085.433	0.884	2898389	WORD_OFF	n/a	n/a	SHRIMP	11	12	[0, 0, 0]	n/a	FR1	5	R1230J
2086.317	1.616	2899273	WORD	n/a	wordpools/wordpool_EN.txt	GRAPE	12	12	[0, 0, 0]	n/a	FR1	5	R1230J
2087.933	0.0	2900889	WORD_OFF	n/a	n/a	GRAPE	12	12	[0, 0, 0]	n/a	FR1	5	R1230J
2087.933	0.001	2900889	DISTRACT_START	n/a	n/a	n/a	-999	12	[0, 0, 0]	n/a	FR1	5	R1230J
2087.934	0.016	2900890	START	n/a	n/a	n/a	-999	13	[-999, -999, -999]	n/a	FR1	5	R1230J
2087.95	3.318	2900906	PROB	3.318	n/a	n/a	-999	13	[1, 1, 8]	10	FR1	5	R1230J
2091.268	3.083	2904224	PROB	3.083	n/a	n/a	-999	13	[2, 8, 1]	11	FR1	5	R1230J
2094.351	3.167	2907307	PROB	3.167	n/a	n/a	-999	13	[3, 4, 3]	10	FR1	5	R1230J
2097.518	2.768	2910474	PROB	2.768	n/a	n/a	-999	13	[2, 4, 5]	11	FR1	5	R1230J
2100.286	3.616	2913242	PROB	3.616	n/a	n/a	-999	13	[6, 8, 9]	17	FR1	5	R1230J
2103.902	5.91	2916858	PROB	5.91	n/a	n/a	-999	13	[5, 8, 8]	21	FR1	5	R1230J
2109.812	0.007	2922768	STOP	n/a	n/a	n/a	-999	13	[-999, -999, -999]	n/a	FR1	5	R1230J
2109.819	0.668	2922775	DISTRACT_END	n/a	n/a	n/a	-999	12	[0, 0, 0]	n/a	FR1	5	R1230J
2110.487	0.516	2923443	RETRIEVAL_ORIENT	n/a	n/a	n/a	-999	12	[0, 0, 0]	n/a	FR1	5	R1230J
2111.003	13.237	2923959	REC_START	n/a	n/a	n/a	-999	12	[0, 0, 0]	n/a	FR1	5	R1230J
2124.24	16.774	2937196	REC_WORD_VV	16.774	n/a	<>	-999	12	[0, 0, 0]	n/a	FR1	5	R1230J
2141.014	4.726	2953970	REC_END	n/a	n/a	n/a	-999	12	[0, 0, 0]	n/a	FR1	5	R1230J
2145.74	0.5	2958696	TRIAL	n/a	n/a	n/a	-999	13	[0, 0, 0]	n/a	FR1	5	R1230J
2146.24	10.428	2959196	COUNTDOWN_START	n/a	n/a	n/a	-999	13	[0, 0, 0]	n/a	FR1	5	R1230J
2156.668	0.007	2969624	COUNTDOWN_END	n/a	n/a	n/a	-999	13	[0, 0, 0]	n/a	FR1	5	R1230J
2156.675	1.618	2969631	ORIENT	n/a	n/a	n/a	-999	13	[0, 0, 0]	n/a	FR1	5	R1230J
2158.293	1.984	2971249	ORIENT_OFF	n/a	n/a	n/a	-999	13	[0, 0, 0]	n/a	FR1	5	R1230J
2160.277	1.615	2973233	WORD	n/a	wordpools/wordpool_EN.txt	STREET	1	13	[0, 0, 0]	n/a	FR1	5	R1230J
2161.892	1.0	2974848	WORD_OFF	n/a	n/a	STREET	1	13	[0, 0, 0]	n/a	FR1	5	R1230J
2162.892	1.601	2975848	WORD	n/a	wordpools/wordpool_EN.txt	DITCH	2	13	[0, 0, 0]	n/a	FR1	5	R1230J
2164.493	0.817	2977449	WORD_OFF	n/a	n/a	DITCH	2	13	[0, 0, 0]	n/a	FR1	5	R1230J
2165.31	1.616	2978266	WORD	n/a	wordpools/wordpool_EN.txt	PANTS	3	13	[0, 0, 0]	n/a	FR1	5	R1230J
2166.926	0.884	2979882	WORD_OFF	n/a	n/a	PANTS	3	13	[0, 0, 0]	n/a	FR1	5	R1230J
2167.81	1.601	2980766	WORD	n/a	wordpools/wordpool_EN.txt	VAN	4	13	[0, 0, 0]	n/a	FR1	5	R1230J
2169.411	1.0	2982367	WORD_OFF	n/a	n/a	VAN	4	13	[0, 0, 0]	n/a	FR1	5	R1230J
2170.411	1.617	2983367	WORD	n/a	wordpools/wordpool_EN.txt	MAT	5	13	[0, 0, 0]	n/a	FR1	5	R1230J
2172.028	0.882	2984984	WORD_OFF	n/a	n/a	MAT	5	13	[0, 0, 0]	n/a	FR1	5	R1230J
2172.91	1.601	2985866	WORD	n/a	wordpools/wordpool_EN.txt	CAR	6	13	[0, 0, 0]	n/a	FR1	5	R1230J
2174.511	0.901	2987467	WORD_OFF	n/a	n/a	CAR	6	13	[0, 0, 0]	n/a	FR1	5	R1230J
2175.412	1.617	2988368	WORD	n/a	wordpools/wordpool_EN.txt	DRESS	7	13	[0, 0, 0]	n/a	FR1	5	R1230J
2177.029	0.815	2989985	WORD_OFF	n/a	n/a	DRESS	7	13	[0, 0, 0]	n/a	FR1	5	R1230J
2177.844	1.618	2990800	WORD	n/a	wordpools/wordpool_EN.txt	SUIT	8	13	[0, 0, 0]	n/a	FR1	5	R1230J
2179.462	0.867	2992418	WORD_OFF	n/a	n/a	SUIT	8	13	[0, 0, 0]	n/a	FR1	5	R1230J
2180.329	1.616	2993285	WORD	n/a	wordpools/wordpool_EN.txt	GOAT	9	13	[0, 0, 0]	n/a	FR1	5	R1230J
2181.945	0.933	2994901	WORD_OFF	n/a	n/a	GOAT	9	13	[0, 0, 0]	n/a	FR1	5	R1230J
2182.878	1.618	2995834	WORD	n/a	wordpools/wordpool_EN.txt	SOCK	10	13	[0, 0, 0]	n/a	FR1	5	R1230J
2184.496	0.884	2997452	WORD_OFF	n/a	n/a	SOCK	10	13	[0, 0, 0]	n/a	FR1	5	R1230J
2185.38	1.616	2998336	WORD	n/a	wordpools/wordpool_EN.txt	DIME	11	13	[0, 0, 0]	n/a	FR1	5	R1230J
2186.996	0.9	2999952	WORD_OFF	n/a	n/a	DIME	11	13	[0, 0, 0]	n/a	FR1	5	R1230J
2187.896	1.618	3000852	WORD	n/a	wordpools/wordpool_EN.txt	WORLD	12	13	[0, 0, 0]	n/a	FR1	5	R1230J
2189.514	0.0	3002470	WORD_OFF	n/a	n/a	WORLD	12	13	[0, 0, 0]	n/a	FR1	5	R1230J
2189.514	0.0	3002470	DISTRACT_START	n/a	n/a	n/a	-999	13	[0, 0, 0]	n/a	FR1	5	R1230J
2189.514	0.016	3002470	START	n/a	n/a	n/a	-999	14	[-999, -999, -999]	n/a	FR1	5	R1230J
2189.53	3.751	3002486	PROB	3.751	n/a	n/a	-999	14	[9, 6, 3]	18	FR1	5	R1230J
2193.281	2.432	3006237	PROB	2.432	n/a	n/a	-999	14	[6, 1, 1]	8	FR1	5	R1230J
2195.713	3.435	3008669	PROB	3.435	n/a	n/a	-999	14	[2, 7, 9]	18	FR1	5	R1230J
2199.148	3.849	3012104	PROB	3.849	n/a	n/a	-999	14	[3, 3, 4]	7	FR1	5	R1230J
2202.997	4.319	3015953	PROB	4.319	n/a	n/a	-999	14	[8, 9, 8]	25	FR1	5	R1230J
2207.316	3.548	3020272	PROB	3.548	n/a	n/a	-999	14	[7, 9, 6]	23	FR1	5	R1230J
2210.864	0.018	3023820	STOP	n/a	n/a	n/a	-999	14	[-999, -999, -999]	n/a	FR1	5	R1230J
2210.882	0.668	3023838	DISTRACT_END	n/a	n/a	n/a	-999	13	[0, 0, 0]	n/a	FR1	5	R1230J
2211.55	0.518	3024506	RETRIEVAL_ORIENT	n/a	n/a	n/a	-999	13	[0, 0, 0]	n/a	FR1	5	R1230J
2212.068	0.741	3025024	REC_START	n/a	n/a	n/a	-999	13	[0, 0, 0]	n/a	FR1	5	R1230J
2212.809	1.481	3025765	REC_WORD	1.481	n/a	STREET	-999	13	[0, 0, 0]	n/a	FR1	5	R1230J
2214.29	1.548	3027246	REC_WORD	1.548	n/a	DIME	-999	13	[0, 0, 0]	n/a	FR1	5	R1230J
2215.838	2.717	3028794	REC_WORD	2.717	n/a	CALL	-999	13	[0, 0, 0]	n/a	FR1	5	R1230J
2218.555	23.523	3031511	REC_WORD	23.523	n/a	SOCK	-999	13	[0, 0, 0]	n/a	FR1	5	R1230J
2242.078	5.126	3055035	REC_END	n/a	n/a	n/a	-999	13	[0, 0, 0]	n/a	FR1	5	R1230J
2247.204	0.5	3060161	TRIAL	n/a	n/a	n/a	-999	14	[0, 0, 0]	n/a	FR1	5	R1230J
2247.704	10.428	3060661	COUNTDOWN_START	n/a	n/a	n/a	-999	14	[0, 0, 0]	n/a	FR1	5	R1230J
2258.132	0.007	3071089	COUNTDOWN_END	n/a	n/a	n/a	-999	14	[0, 0, 0]	n/a	FR1	5	R1230J
2258.139	1.616	3071096	ORIENT	n/a	n/a	n/a	-999	14	[0, 0, 0]	n/a	FR1	5	R1230J
2259.755	1.917	3072712	ORIENT_OFF	n/a	n/a	n/a	-999	14	[0, 0, 0]	n/a	FR1	5	R1230J
2261.672	1.617	3074629	WORD	n/a	wordpools/wordpool_EN.txt	COUCH	1	14	[0, 0, 0]	n/a	FR1	5	R1230J
2263.289	0.851	3076246	WORD_OFF	n/a	n/a	COUCH	1	14	[0, 0, 0]	n/a	FR1	5	R1230J
2264.14	1.615	3077097	WORD	n/a	wordpools/wordpool_EN.txt	CAGE	2	14	[0, 0, 0]	n/a	FR1	5	R1230J
2265.755	0.884	3078712	WORD_OFF	n/a	n/a	CAGE	2	14	[0, 0, 0]	n/a	FR1	5	R1230J
2266.639	1.618	3079596	WORD	n/a	wordpools/wordpool_EN.txt	STOVE	3	14	[0, 0, 0]	n/a	FR1	5	R1230J
2268.257	0.766	3081214	WORD_OFF	n/a	n/a	STOVE	3	14	[0, 0, 0]	n/a	FR1	5	R1230J
2269.023	1.617	3081980	WORD	n/a	wordpools/wordpool_EN.txt	ELF	4	14	[0, 0, 0]	n/a	FR1	5	R1230J
2270.64	1.0	3083597	WORD_OFF	n/a	n/a	ELF	4	14	[0, 0, 0]	n/a	FR1	5	R1230J
2271.64	1.617	3084597	WORD	n/a	wordpools/wordpool_EN.txt	SPARK	5	14	[0, 0, 0]	n/a	FR1	5	R1230J
2273.257	0.951	3086214	WORD_OFF	n/a	n/a	SPARK	5	14	[0, 0, 0]	n/a	FR1	5	R1230J
2274.208	1.615	3087165	WORD	n/a	wordpools/wordpool_EN.txt	VASE	6	14	[0, 0, 0]	n/a	FR1	5	R1230J
2275.823	0.884	3088780	WORD_OFF	n/a	n/a	VASE	6	14	[0, 0, 0]	n/a	FR1	5	R1230J
2276.707	1.601	3089664	WORD	n/a	wordpools/wordpool_EN.txt	TOAST	7	14	[0, 0, 0]	n/a	FR1	5	R1230J
2278.308	0.85	3091265	WORD_OFF	n/a	n/a	TOAST	7	14	[0, 0, 0]	n/a	FR1	5	R1230J
2279.158	1.616	3092115	WORD	n/a	wordpools/wordpool_EN.txt	CLOCK	8	14	[0, 0, 0]	n/a	FR1	5	R1230J
2280.774	0.818	3093731	WORD_OFF	n/a	n/a	CLOCK	8	14	[0, 0, 0]	n/a	FR1	5	R1230J
2281.592	1.617	3094549	WORD	n/a	wordpools/wordpool_EN.txt	ROOM	9	14	[0, 0, 0]	n/a	FR1	5	R1230J
2283.209	0.933	3096166	WORD_OFF	n/a	n/a	ROOM	9	14	[0, 0, 0]	n/a	FR1	5	R1230J
2284.142	1.616	3097099	WORD	n/a	wordpools/wordpool_EN.txt	BATH	10	14	[0, 0, 0]	n/a	FR1	5	R1230J
2285.758	0.801	3098715	WORD_OFF	n/a	n/a	BATH	10	14	[0, 0, 0]	n/a	FR1	5	R1230J
2286.559	1.617	3099516	WORD	n/a	wordpools/wordpool_EN.txt	PARK	11	14	[0, 0, 0]	n/a	FR1	5	R1230J
2288.176	0.85	3101133	WORD_OFF	n/a	n/a	PARK	11	14	[0, 0, 0]	n/a	FR1	5	R1230J
2289.026	1.616	3101983	WORD	n/a	wordpools/wordpool_EN.txt	FAN	12	14	[0, 0, 0]	n/a	FR1	5	R1230J
2290.642	0.0	3103599	WORD_OFF	n/a	n/a	FAN	12	14	[0, 0, 0]	n/a	FR1	5	R1230J
2290.642	0.001	3103599	DISTRACT_START	n/a	n/a	n/a	-999	14	[0, 0, 0]	n/a	FR1	5	R1230J
2290.643	0.016	3103600	START	n/a	n/a	n/a	-999	15	[-999, -999, -999]	n/a	FR1	5	R1230J
2290.659	3.668	3103616	PROB	3.668	n/a	n/a	-999	15	[8, 7, 4]	19	FR1	5	R1230J
2294.327	2.784	3107284	PROB	2.784	n/a	n/a	-999	15	[6, 4, 5]	15	FR1	5	R1230J
2297.111	3.033	3110068	PROB	3.033	n/a	n/a	-999	15	[4, 4, 1]	9	FR1	5	R1230J
2300.144	2.35	3113101	PROB	2.35	n/a	n/a	-999	15	[6, 4, 4]	14	FR1	5	R1230J
2302.494	2.516	3115451	PROB	2.516	n/a	n/a	-999	15	[2, 2, 1]	5	FR1	5	R1230J
2305.01	3.651	3117967	PROB	3.651	n/a	n/a	-999	15	[1, 6, 8]	15	FR1	5	R1230J
2308.661	4.663	3121618	PROB	4.663	n/a	n/a	-999	15	[8, 5, 7]	23	FR1	5	R1230J
2313.324	0.022	3126281	STOP	n/a	n/a	n/a	-999	15	[-999, -999, -999]	n/a	FR1	5	R1230J
2313.346	0.582	3126303	DISTRACT_END	n/a	n/a	n/a	-999	14	[0, 0, 0]	n/a	FR1	5	R1230J
2313.928	0.519	3126885	RETRIEVAL_ORIENT	n/a	n/a	n/a	-999	14	[0, 0, 0]	n/a	FR1	5	R1230J
2314.447	4.577	3127404	REC_START	n/a	n/a	n/a	-999	14	[0, 0, 0]	n/a	FR1	5	R1230J
2319.024	0.161	3131981	REC_WORD_VV	0.161	n/a	<>	-999	14	[0, 0, 0]	n/a	FR1	5	R1230J
2319.185	3.835	3132142	REC_WORD	3.835	n/a	CLOCK	-999	14	[0, 0, 0]	n/a	FR1	5	R1230J
2323.02	0.113	3135977	REC_WORD_VV	0.113	n/a	<>	-999	14	[0, 0, 0]	n/a	FR1	5	R1230J
2323.133	3.559	3136090	REC_WORD	3.559	n/a	SOCK	-999	14	[0, 0, 0]	n/a	FR1	5	R1230J
2326.692	3.192	3139649	REC_WORD	3.192	n/a	STEEL	-999	14	[0, 0, 0]	n/a	FR1	5	R1230J
2329.884	14.573	3142841	REC_WORD	14.573	n/a	COUCH	-999	14	[0, 0, 0]	n/a	FR1	5	R1230J
2344.457	5.027	3157414	REC_END	n/a	n/a	n/a	-999	14	[0, 0, 0]	n/a	FR1	5	R1230J
2349.484	0.5	3162441	TRIAL	n/a	n/a	n/a	-999	15	[0, 0, 0]	n/a	FR1	5	R1230J
2349.984	10.428	3162941	COUNTDOWN_START	n/a	n/a	n/a	-999	15	[0, 0, 0]	n/a	FR1	5	R1230J
2360.412	0.007	3173369	COUNTDOWN_END	n/a	n/a	n/a	-999	15	[0, 0, 0]	n/a	FR1	5	R1230J
2360.419	1.617	3173376	ORIENT	n/a	n/a	n/a	-999	15	[0, 0, 0]	n/a	FR1	5	R1230J
2362.036	2.0	3174993	ORIENT_OFF	n/a	n/a	n/a	-999	15	[0, 0, 0]	n/a	FR1	5	R1230J
2364.036	1.616	3176993	WORD	n/a	wordpools/wordpool_EN.txt	RIB	1	15	[0, 0, 0]	n/a	FR1	5	R1230J
2365.652	0.767	3178609	WORD_OFF	n/a	n/a	RIB	1	15	[0, 0, 0]	n/a	FR1	5	R1230J
2366.419	1.617	3179376	WORD	n/a	wordpools/wordpool_EN.txt	CAT	2	15	[0, 0, 0]	n/a	FR1	5	R1230J
2368.036	0.766	3180993	WORD_OFF	n/a	n/a	CAT	2	15	[0, 0, 0]	n/a	FR1	5	R1230J
2368.802	1.618	3181759	WORD	n/a	wordpools/wordpool_EN.txt	HEART	3	15	[0, 0, 0]	n/a	FR1	5	R1230J
2370.42	0.867	3183377	WORD_OFF	n/a	n/a	HEART	3	15	[0, 0, 0]	n/a	FR1	5	R1230J
2371.287	1.615	3184244	WORD	n/a	wordpools/wordpool_EN.txt	BAT	4	15	[0, 0, 0]	n/a	FR1	5	R1230J
2372.902	0.917	3185859	WORD_OFF	n/a	n/a	BAT	4	15	[0, 0, 0]	n/a	FR1	5	R1230J
2373.819	1.618	3186776	WORD	n/a	wordpools/wordpool_EN.txt	MAZE	5	15	[0, 0, 0]	n/a	FR1	5	R1230J
2375.437	0.867	3188394	WORD_OFF	n/a	n/a	MAZE	5	15	[0, 0, 0]	n/a	FR1	5	R1230J
2376.304	1.616	3189261	WORD	n/a	wordpools/wordpool_EN.txt	THREAD	6	15	[0, 0, 0]	n/a	FR1	5	R1230J
2377.92	0.783	3190877	WORD_OFF	n/a	n/a	THREAD	6	15	[0, 0, 0]	n/a	FR1	5	R1230J
2378.703	1.618	3191660	WORD	n/a	wordpools/wordpool_EN.txt	NOSE	7	15	[0, 0, 0]	n/a	FR1	5	R1230J
2380.321	0.967	3193278	WORD_OFF	n/a	n/a	NOSE	7	15	[0, 0, 0]	n/a	FR1	5	R1230J
2381.288	1.616	3194245	WORD	n/a	wordpools/wordpool_EN.txt	SMOKE	8	15	[0, 0, 0]	n/a	FR1	5	R1230J
2382.904	0.783	3195861	WORD_OFF	n/a	n/a	SMOKE	8	15	[0, 0, 0]	n/a	FR1	5	R1230J
2383.687	1.618	3196644	WORD	n/a	wordpools/wordpool_EN.txt	FOG	9	15	[0, 0, 0]	n/a	FR1	5	R1230J
2385.305	0.867	3198262	WORD_OFF	n/a	n/a	FOG	9	15	[0, 0, 0]	n/a	FR1	5	R1230J
2386.172	1.616	3199129	WORD	n/a	wordpools/wordpool_EN.txt	PEAR	10	15	[0, 0, 0]	n/a	FR1	5	R1230J
2387.788	0.983	3200745	WORD_OFF	n/a	n/a	PEAR	10	15	[0, 0, 0]	n/a	FR1	5	R1230J
2388.771	1.602	3201728	WORD	n/a	wordpools/wordpool_EN.txt	LEAF	11	15	[0, 0, 0]	n/a	FR1	5	R1230J
2390.373	0.916	3203330	WORD_OFF	n/a	n/a	LEAF	11	15	[0, 0, 0]	n/a	FR1	5	R1230J
2391.289	1.616	3204246	WORD	n/a	wordpools/wordpool_EN.txt	JET	12	15	[0, 0, 0]	n/a	FR1	5	R1230J
2392.905	0.0	3205862	WORD_OFF	n/a	n/a	JET	12	15	[0, 0, 0]	n/a	FR1	5	R1230J
2392.905	0.001	3205862	DISTRACT_START	n/a	n/a	n/a	-999	15	[0, 0, 0]	n/a	FR1	5	R1230J
2392.906	0.016	3205863	START	n/a	n/a	n/a	-999	16	[-999, -999, -999]	n/a	FR1	5	R1230J
2392.922	3.95	3205879	PROB	3.95	n/a	n/a	-999	16	[3, 5, 7]	15	FR1	5	R1230J
2396.872	2.202	3209829	PROB	2.202	n/a	n/a	-999	16	[3, 7, 3]	13	FR1	5	R1230J
2399.074	4.383	3212031	PROB	4.383	n/a	n/a	-999	16	[3, 5, 6]	14	FR1	5	R1230J
2403.457	2.516	3216414	PROB	2.516	n/a	n/a	-999	16	[7, 8, 2]	17	FR1	5	R1230J
2405.973	5.169	3218930	PROB	5.169	n/a	n/a	-999	16	[7, 8, 8]	25	FR1	5	R1230J
2411.142	4.664	3224099	PROB	4.664	n/a	n/a	-999	16	[9, 3, 9]	21	FR1	5	R1230J
2415.806	0.019	3228763	STOP	n/a	n/a	n/a	-999	16	[-999, -999, -999]	n/a	FR1	5	R1230J
2415.825	0.618	3228782	DISTRACT_END	n/a	n/a	n/a	-999	15	[0, 0, 0]	n/a	FR1	5	R1230J
2416.443	0.516	3229400	RETRIEVAL_ORIENT	n/a	n/a	n/a	-999	15	[0, 0, 0]	n/a	FR1	5	R1230J
2416.959	0.343	3229916	REC_START	n/a	n/a	n/a	-999	15	[0, 0, 0]	n/a	FR1	5	R1230J
2417.302	0.141	3230259	REC_WORD_VV	0.141	n/a	<>	-999	15	[0, 0, 0]	n/a	FR1	5	R1230J
2417.443	0.477	3230400	REC_WORD	0.477	n/a	RIB	-999	15	[0, 0, 0]	n/a	FR1	5	R1230J
2417.92	0.209	3230877	REC_WORD_VV	0.209	n/a	<>	-999	15	[0, 0, 0]	n/a	FR1	5	R1230J
2418.129	0.572	3231086	REC_WORD	0.572	n/a	CAT	-999	15	[0, 0, 0]	n/a	FR1	5	R1230J
2418.701	0.217	3231658	REC_WORD_VV	0.217	n/a	<>	-999	15	[0, 0, 0]	n/a	FR1	5	R1230J
2418.918	20.118	3231875	REC_WORD	20.118	n/a	EYE	-999	15	[0, 0, 0]	n/a	FR1	5	R1230J
2439.036	0.141	3251993	REC_WORD_VV	0.141	n/a	<>	-999	15	[0, 0, 0]	n/a	FR1	5	R1230J
2439.177	4.966	3252134	REC_WORD	4.966	n/a	OWL	-999	15	[0, 0, 0]	n/a	FR1	5	R1230J
2444.143	2.826	3257100	REC_WORD	2.826	n/a	EEL	-999	15	[0, 0, 0]	n/a	FR1	5	R1230J
2446.969	5.245	3259926	REC_END	n/a	n/a	n/a	-999	15	[0, 0, 0]	n/a	FR1	5	R1230J
2452.214	0.5	3265171	TRIAL	n/a	n/a	n/a	-999	16	[0, 0, 0]	n/a	FR1	5	R1230J
2452.714	10.428	3265671	COUNTDOWN_START	n/a	n/a	n/a	-999	16	[0, 0, 0]	n/a	FR1	5	R1230J
2463.142	0.006	3276099	COUNTDOWN_END	n/a	n/a	n/a	-999	16	[0, 0, 0]	n/a	FR1	5	R1230J
2463.148	1.616	3276105	ORIENT	n/a	n/a	n/a	-999	16	[0, 0, 0]	n/a	FR1	5	R1230J
2464.764	1.917	3277721	ORIENT_OFF	n/a	n/a	n/a	-999	16	[0, 0, 0]	n/a	FR1	5	R1230J
2466.681	1.601	3279638	WORD	n/a	wordpools/wordpool_EN.txt	BUSH	1	16	[0, 0, 0]	n/a	FR1	5	R1230J
2468.282	0.984	3281239	WORD_OFF	n/a	n/a	BUSH	1	16	[0, 0, 0]	n/a	FR1	5	R1230J
2469.266	1.616	3282223	WORD	n/a	wordpools/wordpool_EN.txt	WOLF	2	16	[0, 0, 0]	n/a	FR1	5	R1230J
2470.882	0.817	3283839	WORD_OFF	n/a	n/a	WOLF	2	16	[0, 0, 0]	n/a	FR1	5	R1230J
2471.699	1.617	3284656	WORD	n/a	wordpools/wordpool_EN.txt	FUR	3	16	[0, 0, 0]	n/a	FR1	5	R1230J
2473.316	0.984	3286273	WORD_OFF	n/a	n/a	FUR	3	16	[0, 0, 0]	n/a	FR1	5	R1230J
2474.3	1.616	3287257	WORD	n/a	wordpools/wordpool_EN.txt	PET	4	16	[0, 0, 0]	n/a	FR1	5	R1230J
2475.916	0.816	3288873	WORD_OFF	n/a	n/a	PET	4	16	[0, 0, 0]	n/a	FR1	5	R1230J
2476.732	1.602	3289689	WORD	n/a	wordpools/wordpool_EN.txt	PIT	5	16	[0, 0, 0]	n/a	FR1	5	R1230J
2478.334	0.967	3291291	WORD_OFF	n/a	n/a	PIT	5	16	[0, 0, 0]	n/a	FR1	5	R1230J
2479.301	1.615	3292258	WORD	n/a	wordpools/wordpool_EN.txt	HOOF	6	16	[0, 0, 0]	n/a	FR1	5	R1230J
2480.916	0.934	3293873	WORD_OFF	n/a	n/a	HOOF	6	16	[0, 0, 0]	n/a	FR1	5	R1230J
2481.85	1.618	3294807	WORD	n/a	wordpools/wordpool_EN.txt	BROOM	7	16	[0, 0, 0]	n/a	FR1	5	R1230J
2483.468	0.866	3296425	WORD_OFF	n/a	n/a	BROOM	7	16	[0, 0, 0]	n/a	FR1	5	R1230J
2484.334	1.616	3297291	WORD	n/a	wordpools/wordpool_EN.txt	FLEA	8	16	[0, 0, 0]	n/a	FR1	5	R1230J
2485.95	0.884	3298907	WORD_OFF	n/a	n/a	FLEA	8	16	[0, 0, 0]	n/a	FR1	5	R1230J
2486.834	1.618	3299791	WORD	n/a	wordpools/wordpool_EN.txt	DOG	9	16	[0, 0, 0]	n/a	FR1	5	R1230J
2488.452	0.95	3301409	WORD_OFF	n/a	n/a	DOG	9	16	[0, 0, 0]	n/a	FR1	5	R1230J
2489.402	1.616	3302359	WORD	n/a	wordpools/wordpool_EN.txt	BOWL	10	16	[0, 0, 0]	n/a	FR1	5	R1230J
2491.018	0.967	3303975	WORD_OFF	n/a	n/a	BOWL	10	16	[0, 0, 0]	n/a	FR1	5	R1230J
2491.985	1.617	3304942	WORD	n/a	wordpools/wordpool_EN.txt	FACE	11	16	[0, 0, 0]	n/a	FR1	5	R1230J
2493.602	1.0	3306559	WORD_OFF	n/a	n/a	FACE	11	16	[0, 0, 0]	n/a	FR1	5	R1230J
2494.602	1.617	3307559	WORD	n/a	wordpools/wordpool_EN.txt	RAT	12	16	[0, 0, 0]	n/a	FR1	5	R1230J
2496.219	0.0	3309176	WORD_OFF	n/a	n/a	RAT	12	16	[0, 0, 0]	n/a	FR1	5	R1230J
2496.219	0.001	3309176	DISTRACT_START	n/a	n/a	n/a	-999	16	[0, 0, 0]	n/a	FR1	5	R1230J
2496.22	0.016	3309177	START	n/a	n/a	n/a	-999	17	[-999, -999, -999]	n/a	FR1	5	R1230J
2496.236	5.317	3309193	PROB	5.317	n/a	n/a	-999	17	[6, 7, 2]	14	FR1	5	R1230J
2501.553	5.317	3314510	PROB	5.317	n/a	n/a	-999	17	[8, 4, 7]	19	FR1	5	R1230J
2506.87	4.518	3319827	PROB	4.518	n/a	n/a	-999	17	[9, 2, 3]	14	FR1	5	R1230J
2511.388	4.1	3324345	PROB	4.1	n/a	n/a	-999	17	[6, 2, 7]	15	FR1	5	R1230J
2515.488	3.789	3328445	PROB	3.789	n/a	n/a	-999	17	[9, 2, 2]	13	FR1	5	R1230J
2519.277	0.012	3332234	STOP	n/a	n/a	n/a	-999	17	[-999, -999, -999]	n/a	FR1	5	R1230J
2519.289	0.532	3332246	DISTRACT_END	n/a	n/a	n/a	-999	16	[0, 0, 0]	n/a	FR1	5	R1230J
2519.821	0.519	3332778	RETRIEVAL_ORIENT	n/a	n/a	n/a	-999	16	[0, 0, 0]	n/a	FR1	5	R1230J
2520.34	28.191	3333297	REC_START	n/a	n/a	n/a	-999	16	[0, 0, 0]	n/a	FR1	5	R1230J
2548.531	1.818	3361488	REC_WORD_VV	1.818	n/a	<>	-999	16	[0, 0, 0]	n/a	FR1	5	R1230J
2550.349	5.577	3363306	REC_END	n/a	n/a	n/a	-999	16	[0, 0, 0]	n/a	FR1	5	R1230J
2555.926	0.5	3368883	TRIAL	n/a	n/a	n/a	-999	17	[0, 0, 0]	n/a	FR1	5	R1230J
2556.426	10.428	3369383	COUNTDOWN_START	n/a	n/a	n/a	-999	17	[0, 0, 0]	n/a	FR1	5	R1230J
2566.854	0.007	3379811	COUNTDOWN_END	n/a	n/a	n/a	-999	17	[0, 0, 0]	n/a	FR1	5	R1230J
2566.861	1.618	3379818	ORIENT	n/a	n/a	n/a	-999	17	[0, 0, 0]	n/a	FR1	5	R1230J
2568.479	2.149	3381436	ORIENT_OFF	n/a	n/a	n/a	-999	17	[0, 0, 0]	n/a	FR1	5	R1230J
2570.628	1.618	3383585	WORD	n/a	wordpools/wordpool_EN.txt	BEAN	1	17	[0, 0, 0]	n/a	FR1	5	R1230J
2572.246	0.883	3385203	WORD_OFF	n/a	n/a	BEAN	1	17	[0, 0, 0]	n/a	FR1	5	R1230J
2573.129	1.616	3386086	WORD	n/a	wordpools/wordpool_EN.txt	WAND	2	17	[0, 0, 0]	n/a	FR1	5	R1230J
2574.745	0.967	3387702	WORD_OFF	n/a	n/a	WAND	2	17	[0, 0, 0]	n/a	FR1	5	R1230J
2575.712	1.618	3388669	WORD	n/a	wordpools/wordpool_EN.txt	PIPE	3	17	[0, 0, 0]	n/a	FR1	5	R1230J
2577.33	0.866	3390287	WORD_OFF	n/a	n/a	PIPE	3	17	[0, 0, 0]	n/a	FR1	5	R1230J
2578.196	1.616	3391153	WORD	n/a	wordpools/wordpool_EN.txt	CROWN	4	17	[0, 0, 0]	n/a	FR1	5	R1230J
2579.812	1.001	3392769	WORD_OFF	n/a	n/a	CROWN	4	17	[0, 0, 0]	n/a	FR1	5	R1230J
2580.813	1.617	3393770	WORD	n/a	wordpools/wordpool_EN.txt	PRINCE	5	17	[0, 0, 0]	n/a	FR1	5	R1230J
2582.43	0.95	3395387	WORD_OFF	n/a	n/a	PRINCE	5	17	[0, 0, 0]	n/a	FR1	5	R1230J
2583.38	1.616	3396337	WORD	n/a	wordpools/wordpool_EN.txt	STONE	6	17	[0, 0, 0]	n/a	FR1	5	R1230J
2584.996	0.85	3397953	WORD_OFF	n/a	n/a	STONE	6	17	[0, 0, 0]	n/a	FR1	5	R1230J
2585.846	1.618	3398803	WORD	n/a	wordpools/wordpool_EN.txt	STAIR	7	17	[0, 0, 0]	n/a	FR1	5	R1230J
2587.464	0.767	3400421	WORD_OFF	n/a	n/a	STAIR	7	17	[0, 0, 0]	n/a	FR1	5	R1230J
2588.231	1.616	3401188	WORD	n/a	wordpools/wordpool_EN.txt	DOOR	8	17	[0, 0, 0]	n/a	FR1	5	R1230J
2589.847	0.917	3402804	WORD_OFF	n/a	n/a	DOOR	8	17	[0, 0, 0]	n/a	FR1	5	R1230J
2590.764	1.618	3403721	WORD	n/a	wordpools/wordpool_EN.txt	GOLD	9	17	[0, 0, 0]	n/a	FR1	5	R1230J
2592.382	1.0	3405339	WORD_OFF	n/a	n/a	GOLD	9	17	[0, 0, 0]	n/a	FR1	5	R1230J
2593.382	1.616	3406339	WORD	n/a	wordpools/wordpool_EN.txt	SWORD	10	17	[0, 0, 0]	n/a	FR1	5	R1230J
2594.998	0.883	3407955	WORD_OFF	n/a	n/a	SWORD	10	17	[0, 0, 0]	n/a	FR1	5	R1230J
2595.881	1.618	3408838	WORD	n/a	wordpools/wordpool_EN.txt	PEARL	11	17	[0, 0, 0]	n/a	FR1	5	R1230J
2597.499	0.8	3410456	WORD_OFF	n/a	n/a	PEARL	11	17	[0, 0, 0]	n/a	FR1	5	R1230J
2598.299	1.616	3411256	WORD	n/a	wordpools/wordpool_EN.txt	TOOL	12	17	[0, 0, 0]	n/a	FR1	5	R1230J
2599.915	0.0	3412872	WORD_OFF	n/a	n/a	TOOL	12	17	[0, 0, 0]	n/a	FR1	5	R1230J
2599.915	0.001	3412872	DISTRACT_START	n/a	n/a	n/a	-999	17	[0, 0, 0]	n/a	FR1	5	R1230J
2599.916	0.016	3412873	START	n/a	n/a	n/a	-999	18	[-999, -999, -999]	n/a	FR1	5	R1230J
2599.932	5.134	3412889	PROB	5.134	n/a	n/a	-999	18	[3, 2, 5]	10	FR1	5	R1230J
2605.066	3.8	3418023	PROB	3.8	n/a	n/a	-999	18	[8, 5, 9]	22	FR1	5	R1230J
2608.866	4.05	3421823	PROB	4.05	n/a	n/a	-999	18	[8, 7, 5]	20	FR1	5	R1230J
2612.916	8.251	3425873	PROB	8.251	n/a	n/a	-999	18	[7, 5, 8]	29	FR1	5	R1230J
2621.167	0.019	3434124	STOP	n/a	n/a	n/a	-999	18	[-999, -999, -999]	n/a	FR1	5	R1230J
2621.186	0.549	3434143	DISTRACT_END	n/a	n/a	n/a	-999	17	[0, 0, 0]	n/a	FR1	5	R1230J
2621.735	0.518	3434692	RETRIEVAL_ORIENT	n/a	n/a	n/a	-999	17	[0, 0, 0]	n/a	FR1	5	R1230J
2622.253	1.513	3435210	REC_START	n/a	n/a	n/a	-999	17	[0, 0, 0]	n/a	FR1	5	R1230J
2623.766	0.656	3436723	REC_WORD	0.656	n/a	BEAN	-999	17	[0, 0, 0]	n/a	FR1	5	R1230J
2624.422	3.866	3437379	REC_WORD	3.866	n/a	WAND	-999	17	[0, 0, 0]	n/a	FR1	5	R1230J
2628.288	3.826	3441245	REC_WORD_VV	3.826	n/a	<>	-999	17	[0, 0, 0]	n/a	FR1	5	R1230J
2632.114	1.254	3445071	REC_WORD	1.254	n/a	GOLD	-999	17	[0, 0, 0]	n/a	FR1	5	R1230J
2633.368	18.895	3446325	REC_WORD	18.895	n/a	SHIELD	-999	17	[0, 0, 0]	n/a	FR1	5	R1230J
2652.263	4.409	3465220	REC_END	n/a	n/a	n/a	-999	17	[0, 0, 0]	n/a	FR1	5	R1230J
2656.672	0.5	3469629	TRIAL	n/a	n/a	n/a	-999	18	[0, 0, 0]	n/a	FR1	5	R1230J
2657.172	10.428	3470129	COUNTDOWN_START	n/a	n/a	n/a	-999	18	[0, 0, 0]	n/a	FR1	5	R1230J
2667.6	0.008	3480557	COUNTDOWN_END	n/a	n/a	n/a	-999	18	[0, 0, 0]	n/a	FR1	5	R1230J
2667.608	1.617	3480565	ORIENT	n/a	n/a	n/a	-999	18	[0, 0, 0]	n/a	FR1	5	R1230J
2669.225	1.967	3482182	ORIENT_OFF	n/a	n/a	n/a	-999	18	[0, 0, 0]	n/a	FR1	5	R1230J
2671.192	1.615	3484149	WORD	n/a	wordpools/wordpool_EN.txt	SKY	1	18	[0, 0, 0]	n/a	FR1	5	R1230J
2672.807	0.785	3485764	WORD_OFF	n/a	n/a	SKY	1	18	[0, 0, 0]	n/a	FR1	5	R1230J
2673.592	1.617	3486549	WORD	n/a	wordpools/wordpool_EN.txt	APE	2	18	[0, 0, 0]	n/a	FR1	5	R1230J
2675.209	1.0	3488166	WORD_OFF	n/a	n/a	APE	2	18	[0, 0, 0]	n/a	FR1	5	R1230J
2676.209	1.616	3489166	WORD	n/a	wordpools/wordpool_EN.txt	MOON	3	18	[0, 0, 0]	n/a	FR1	5	R1230J
2677.825	0.85	3490782	WORD_OFF	n/a	n/a	MOON	3	18	[0, 0, 0]	n/a	FR1	5	R1230J
2678.675	1.601	3491632	WORD	n/a	wordpools/wordpool_EN.txt	TENT	4	18	[0, 0, 0]	n/a	FR1	5	R1230J
2680.276	0.884	3493233	WORD_OFF	n/a	n/a	TENT	4	18	[0, 0, 0]	n/a	FR1	5	R1230J
2681.16	1.615	3494117	WORD	n/a	wordpools/wordpool_EN.txt	CLOUD	5	18	[0, 0, 0]	n/a	FR1	5	R1230J
2682.775	1.001	3495732	WORD_OFF	n/a	n/a	CLOUD	5	18	[0, 0, 0]	n/a	FR1	5	R1230J
2683.776	1.617	3496733	WORD	n/a	wordpools/wordpool_EN.txt	ROAD	6	18	[0, 0, 0]	n/a	FR1	5	R1230J
2685.393	0.934	3498350	WORD_OFF	n/a	n/a	ROAD	6	18	[0, 0, 0]	n/a	FR1	5	R1230J
2686.327	1.616	3499284	WORD	n/a	wordpools/wordpool_EN.txt	CLIFF	7	18	[0, 0, 0]	n/a	FR1	5	R1230J
2687.943	0.967	3500900	WORD_OFF	n/a	n/a	CLIFF	7	18	[0, 0, 0]	n/a	FR1	5	R1230J
2688.91	1.618	3501867	WORD	n/a	wordpools/wordpool_EN.txt	SNOW	8	18	[0, 0, 0]	n/a	FR1	5	R1230J
2690.528	0.816	3503485	WORD_OFF	n/a	n/a	SNOW	8	18	[0, 0, 0]	n/a	FR1	5	R1230J
2691.344	1.616	3504301	WORD	n/a	wordpools/wordpool_EN.txt	CHEEK	9	18	[0, 0, 0]	n/a	FR1	5	R1230J
2692.96	0.967	3505917	WORD_OFF	n/a	n/a	CHEEK	9	18	[0, 0, 0]	n/a	FR1	5	R1230J
2693.927	1.618	3506884	WORD	n/a	wordpools/wordpool_EN.txt	ROCK	10	18	[0, 0, 0]	n/a	FR1	5	R1230J
2695.545	0.866	3508502	WORD_OFF	n/a	n/a	ROCK	10	18	[0, 0, 0]	n/a	FR1	5	R1230J
2696.411	1.617	3509368	WORD	n/a	wordpools/wordpool_EN.txt	SIGN	11	18	[0, 0, 0]	n/a	FR1	5	R1230J
2698.028	0.866	3510985	WORD_OFF	n/a	n/a	SIGN	11	18	[0, 0, 0]	n/a	FR1	5	R1230J
2698.894	1.601	3511851	WORD	n/a	wordpools/wordpool_EN.txt	JEEP	12	18	[0, 0, 0]	n/a	FR1	5	R1230J
2700.495	0.0	3513452	WORD_OFF	n/a	n/a	JEEP	12	18	[0, 0, 0]	n/a	FR1	5	R1230J
2700.495	0.001	3513452	DISTRACT_START	n/a	n/a	n/a	-999	18	[0, 0, 0]	n/a	FR1	5	R1230J
2700.496	0.016	3513453	START	n/a	n/a	n/a	-999	19	[-999, -999, -999]	n/a	FR1	5	R1230J
2700.512	3.701	3513469	PROB	3.701	n/a	n/a	-999	19	[1, 2, 2]	5	FR1	5	R1230J
2704.213	4.549	3517170	PROB	4.549	n/a	n/a	-999	19	[7, 5, 8]	20	FR1	5	R1230J
2708.762	2.585	3521719	PROB	2.585	n/a	n/a	-999	19	[9, 2, 6]	17	FR1	5	R1230J
2711.347	4.75	3524304	PROB	4.75	n/a	n/a	-999	19	[9, 3, 2]	14	FR1	5	R1230J
2716.097	4.634	3529054	PROB	4.634	n/a	n/a	-999	19	[8, 4, 9]	21	FR1	5	R1230J
2720.731	0.016	3533688	STOP	n/a	n/a	n/a	-999	19	[-999, -999, -999]	n/a	FR1	5	R1230J
2720.747	0.535	3533704	DISTRACT_END	n/a	n/a	n/a	-999	18	[0, 0, 0]	n/a	FR1	5	R1230J
2721.282	0.516	3534239	RETRIEVAL_ORIENT	n/a	n/a	n/a	-999	18	[0, 0, 0]	n/a	FR1	5	R1230J
2721.798	30.0	3534755	REC_START	n/a	n/a	n/a	-999	18	[0, 0, 0]	n/a	FR1	5	R1230J
2751.798	0.007	3564755	REC_WORD_VV	0.007	n/a	<>	-999	18	[0, 0, 0]	n/a	FR1	5	R1230J
2751.805	4.431	3564762	REC_END	n/a	n/a	n/a	-999	18	[0, 0, 0]	n/a	FR1	5	R1230J
2756.236	0.5	3569193	TRIAL	n/a	n/a	n/a	-999	19	[0, 0, 0]	n/a	FR1	5	R1230J
2756.736	10.428	3569693	COUNTDOWN_START	n/a	n/a	n/a	-999	19	[0, 0, 0]	n/a	FR1	5	R1230J
2767.164	0.007	3580121	COUNTDOWN_END	n/a	n/a	n/a	-999	19	[0, 0, 0]	n/a	FR1	5	R1230J
2767.171	1.616	3580128	ORIENT	n/a	n/a	n/a	-999	19	[0, 0, 0]	n/a	FR1	5	R1230J
2768.787	2.117	3581744	ORIENT_OFF	n/a	n/a	n/a	-999	19	[0, 0, 0]	n/a	FR1	5	R1230J
2770.904	1.617	3583861	WORD	n/a	wordpools/wordpool_EN.txt	PLANT	1	19	[0, 0, 0]	n/a	FR1	5	R1230J
2772.521	0.817	3585478	WORD_OFF	n/a	n/a	PLANT	1	19	[0, 0, 0]	n/a	FR1	5	R1230J
2773.338	1.616	3586295	WORD	n/a	wordpools/wordpool_EN.txt	RAKE	2	19	[0, 0, 0]	n/a	FR1	5	R1230J
2774.954	1.0	3587911	WORD_OFF	n/a	n/a	RAKE	2	19	[0, 0, 0]	n/a	FR1	5	R1230J
2775.954	1.618	3588911	WORD	n/a	wordpools/wordpool_EN.txt	BIRD	3	19	[0, 0, 0]	n/a	FR1	5	R1230J
2777.572	0.8	3590529	WORD_OFF	n/a	n/a	BIRD	3	19	[0, 0, 0]	n/a	FR1	5	R1230J
2778.372	1.616	3591329	WORD	n/a	wordpools/wordpool_EN.txt	MOTH	4	19	[0, 0, 0]	n/a	FR1	5	R1230J
2779.988	0.85	3592945	WORD_OFF	n/a	n/a	MOTH	4	19	[0, 0, 0]	n/a	FR1	5	R1230J
2780.838	1.618	3593795	WORD	n/a	wordpools/wordpool_EN.txt	STEM	5	19	[0, 0, 0]	n/a	FR1	5	R1230J
2782.456	0.833	3595413	WORD_OFF	n/a	n/a	STEM	5	19	[0, 0, 0]	n/a	FR1	5	R1230J
2783.289	1.616	3596246	WORD	n/a	wordpools/wordpool_EN.txt	FISH	6	19	[0, 0, 0]	n/a	FR1	5	R1230J
2784.905	0.817	3597862	WORD_OFF	n/a	n/a	FISH	6	19	[0, 0, 0]	n/a	FR1	5	R1230J
2785.722	1.618	3598679	WORD	n/a	wordpools/wordpool_EN.txt	HEN	7	19	[0, 0, 0]	n/a	FR1	5	R1230J
2787.34	0.783	3600297	WORD_OFF	n/a	n/a	HEN	7	19	[0, 0, 0]	n/a	FR1	5	R1230J
2788.123	1.616	3601080	WORD	n/a	wordpools/wordpool_EN.txt	EGG	8	19	[0, 0, 0]	n/a	FR1	5	R1230J
2789.739	0.818	3602696	WORD_OFF	n/a	n/a	EGG	8	19	[0, 0, 0]	n/a	FR1	5	R1230J
2790.557	1.617	3603514	WORD	n/a	wordpools/wordpool_EN.txt	WHALE	9	19	[0, 0, 0]	n/a	FR1	5	R1230J
2792.174	0.832	3605131	WORD_OFF	n/a	n/a	WHALE	9	19	[0, 0, 0]	n/a	FR1	5	R1230J
2793.006	1.618	3605963	WORD	n/a	wordpools/wordpool_EN.txt	TANK	10	19	[0, 0, 0]	n/a	FR1	5	R1230J
2794.624	0.967	3607581	WORD_OFF	n/a	n/a	TANK	10	19	[0, 0, 0]	n/a	FR1	5	R1230J
2795.591	1.617	3608548	WORD	n/a	wordpools/wordpool_EN.txt	SALT	11	19	[0, 0, 0]	n/a	FR1	5	R1230J
2797.208	0.933	3610165	WORD_OFF	n/a	n/a	SALT	11	19	[0, 0, 0]	n/a	FR1	5	R1230J
2798.141	1.616	3611098	WORD	n/a	wordpools/wordpool_EN.txt	SOAP	12	19	[0, 0, 0]	n/a	FR1	5	R1230J
2799.757	0.0	3612714	WORD_OFF	n/a	n/a	SOAP	12	19	[0, 0, 0]	n/a	FR1	5	R1230J
2799.757	0.001	3612714	DISTRACT_START	n/a	n/a	n/a	-999	19	[0, 0, 0]	n/a	FR1	5	R1230J
2799.758	0.016	3612715	START	n/a	n/a	n/a	-999	20	[-999, -999, -999]	n/a	FR1	5	R1230J
2799.774	3.033	3612731	PROB	3.033	n/a	n/a	-999	20	[7, 2, 9]	18	FR1	5	R1230J
2802.807	5.702	3615764	PROB	5.702	n/a	n/a	-999	20	[6, 6, 7]	20	FR1	5	R1230J
2808.509	3.801	3621466	PROB	3.801	n/a	n/a	-999	20	[9, 3, 5]	17	FR1	5	R1230J
2812.31	2.616	3625267	PROB	2.616	n/a	n/a	-999	20	[7, 1, 9]	17	FR1	5	R1230J
2814.926	2.884	3627883	PROB	2.884	n/a	n/a	-999	20	[9, 7, 7]	21	FR1	5	R1230J
2817.81	3.093	3630767	PROB	3.093	n/a	n/a	-999	20	[4, 4, 1]	9	FR1	5	R1230J
2820.903	0.007	3633860	STOP	n/a	n/a	n/a	-999	20	[-999, -999, -999]	n/a	FR1	5	R1230J
2820.91	0.684	3633867	DISTRACT_END	n/a	n/a	n/a	-999	19	[0, 0, 0]	n/a	FR1	5	R1230J
2821.594	0.518	3634551	RETRIEVAL_ORIENT	n/a	n/a	n/a	-999	19	[0, 0, 0]	n/a	FR1	5	R1230J
2822.112	0.624	3635069	REC_START	n/a	n/a	n/a	-999	19	[0, 0, 0]	n/a	FR1	5	R1230J
2822.736	1.168	3635693	REC_WORD	1.168	n/a	PLANT	-999	19	[0, 0, 0]	n/a	FR1	5	R1230J
2823.904	1.215	3636861	REC_WORD	1.215	n/a	RAKE	-999	19	[0, 0, 0]	n/a	FR1	5	R1230J
2825.119	1.152	3638076	REC_WORD	1.152	n/a	BIRD	-999	19	[0, 0, 0]	n/a	FR1	5	R1230J
2826.271	2.444	3639228	REC_WORD	2.444	n/a	FISH	-999	19	[0, 0, 0]	n/a	FR1	5	R1230J
2828.715	23.407	3641672	REC_WORD	23.407	n/a	FOWL	-999	19	[0, 0, 0]	n/a	FR1	5	R1230J
2852.122	5.01	3665080	REC_END	n/a	n/a	n/a	-999	19	[0, 0, 0]	n/a	FR1	5	R1230J
2857.132	0.5	3670090	TRIAL	n/a	n/a	n/a	-999	20	[0, 0, 0]	n/a	FR1	5	R1230J
2857.632	10.428	3670590	COUNTDOWN_START	n/a	n/a	n/a	-999	20	[0, 0, 0]	n/a	FR1	5	R1230J
2868.06	0.007	3681018	COUNTDOWN_END	n/a	n/a	n/a	-999	20	[0, 0, 0]	n/a	FR1	5	R1230J
2868.067	1.616	3681025	ORIENT	n/a	n/a	n/a	-999	20	[0, 0, 0]	n/a	FR1	5	R1230J
2869.683	1.95	3682641	ORIENT_OFF	n/a	n/a	n/a	-999	20	[0, 0, 0]	n/a	FR1	5	R1230J
2871.633	1.618	3684591	WORD	n/a	wordpools/wordpool_EN.txt	DART	1	20	[0, 0, 0]	n/a	FR1	5	R1230J
2873.251	0.933	3686209	WORD_OFF	n/a	n/a	DART	1	20	[0, 0, 0]	n/a	FR1	5	R1230J
2874.184	1.616	3687142	WORD	n/a	wordpools/wordpool_EN.txt	HAND	2	20	[0, 0, 0]	n/a	FR1	5	R1230J
2875.8	0.95	3688758	WORD_OFF	n/a	n/a	HAND	2	20	[0, 0, 0]	n/a	FR1	5	R1230J
2876.75	1.618	3689708	WORD	n/a	wordpools/wordpool_EN.txt	PEACH	3	20	[0, 0, 0]	n/a	FR1	5	R1230J
2878.368	0.784	3691326	WORD_OFF	n/a	n/a	PEACH	3	20	[0, 0, 0]	n/a	FR1	5	R1230J
2879.152	1.616	3692110	WORD	n/a	wordpools/wordpool_EN.txt	GEESE	4	20	[0, 0, 0]	n/a	FR1	5	R1230J
2880.768	0.983	3693726	WORD_OFF	n/a	n/a	GEESE	4	20	[0, 0, 0]	n/a	FR1	5	R1230J
2881.751	1.618	3694709	WORD	n/a	wordpools/wordpool_EN.txt	OAK	5	20	[0, 0, 0]	n/a	FR1	5	R1230J
2883.369	0.816	3696327	WORD_OFF	n/a	n/a	OAK	5	20	[0, 0, 0]	n/a	FR1	5	R1230J
2884.185	1.616	3697143	WORD	n/a	wordpools/wordpool_EN.txt	GATE	6	20	[0, 0, 0]	n/a	FR1	5	R1230J
2885.801	0.9	3698759	WORD_OFF	n/a	n/a	GATE	6	20	[0, 0, 0]	n/a	FR1	5	R1230J
2886.701	1.618	3699659	WORD	n/a	wordpools/wordpool_EN.txt	POOL	7	20	[0, 0, 0]	n/a	FR1	5	R1230J
2888.319	0.867	3701277	WORD_OFF	n/a	n/a	POOL	7	20	[0, 0, 0]	n/a	FR1	5	R1230J
2889.186	1.616	3702144	WORD	n/a	wordpools/wordpool_EN.txt	CUP	8	20	[0, 0, 0]	n/a	FR1	5	R1230J
2890.802	0.917	3703760	WORD_OFF	n/a	n/a	CUP	8	20	[0, 0, 0]	n/a	FR1	5	R1230J
2891.719	1.618	3704677	WORD	n/a	wordpools/wordpool_EN.txt	LAMB	9	20	[0, 0, 0]	n/a	FR1	5	R1230J
2893.337	0.85	3706295	WORD_OFF	n/a	n/a	LAMB	9	20	[0, 0, 0]	n/a	FR1	5	R1230J
2894.187	1.616	3707145	WORD	n/a	wordpools/wordpool_EN.txt	FLOOR	10	20	[0, 0, 0]	n/a	FR1	5	R1230J
2895.803	0.966	3708761	WORD_OFF	n/a	n/a	FLOOR	10	20	[0, 0, 0]	n/a	FR1	5	R1230J
2896.769	1.618	3709727	WORD	n/a	wordpools/wordpool_EN.txt	PALM	11	20	[0, 0, 0]	n/a	FR1	5	R1230J
2898.387	0.851	3711345	WORD_OFF	n/a	n/a	PALM	11	20	[0, 0, 0]	n/a	FR1	5	R1230J
2899.238	1.615	3712196	WORD	n/a	wordpools/wordpool_EN.txt	STOOL	12	20	[0, 0, 0]	n/a	FR1	5	R1230J
2900.853	0.0	3713811	WORD_OFF	n/a	n/a	STOOL	12	20	[0, 0, 0]	n/a	FR1	5	R1230J
2900.853	0.001	3713811	DISTRACT_START	n/a	n/a	n/a	-999	20	[0, 0, 0]	n/a	FR1	5	R1230J
2900.854	0.016	3713812	START	n/a	n/a	n/a	-999	21	[-999, -999, -999]	n/a	FR1	5	R1230J
2900.87	3.8	3713828	PROB	3.8	n/a	n/a	-999	21	[1, 6, 1]	8	FR1	5	R1230J
2904.67	3.635	3717628	PROB	3.635	n/a	n/a	-999	21	[3, 1, 8]	12	FR1	5	R1230J
2908.305	2.234	3721263	PROB	2.234	n/a	n/a	-999	21	[6, 3, 9]	18	FR1	5	R1230J
2910.539	2.466	3723497	PROB	2.466	n/a	n/a	-999	21	[7, 4, 3]	14	FR1	5	R1230J
2913.005	3.917	3725963	PROB	3.917	n/a	n/a	-999	21	[2, 2, 3]	7	FR1	5	R1230J
2916.922	3.368	3729880	PROB	3.368	n/a	n/a	-999	21	[2, 2, 7]	11	FR1	5	R1230J
2920.29	2.552	3733248	PROB	2.552	n/a	n/a	-999	21	[9, 1, 8]	18	FR1	5	R1230J
2922.842	0.014	3735800	STOP	n/a	n/a	n/a	-999	21	[-999, -999, -999]	n/a	FR1	5	R1230J
2922.856	0.518	3735814	DISTRACT_END	n/a	n/a	n/a	-999	20	[0, 0, 0]	n/a	FR1	5	R1230J
2923.374	0.516	3736332	RETRIEVAL_ORIENT	n/a	n/a	n/a	-999	20	[0, 0, 0]	n/a	FR1	5	R1230J
2923.89	0.279	3736848	REC_START	n/a	n/a	n/a	-999	20	[0, 0, 0]	n/a	FR1	5	R1230J
2924.169	0.036	3737127	REC_WORD_VV	0.036	n/a	<>	-999	20	[0, 0, 0]	n/a	FR1	5	R1230J
2924.205	0.779	3737163	REC_WORD	0.779	n/a	FLOOR	-999	20	[0, 0, 0]	n/a	FR1	5	R1230J
2924.984	0.214	3737942	REC_WORD_VV	0.214	n/a	<>	-999	20	[0, 0, 0]	n/a	FR1	5	R1230J
2925.198	0.65	3738156	REC_WORD	0.65	n/a	PALM	-999	20	[0, 0, 0]	n/a	FR1	5	R1230J
2925.848	0.085	3738806	REC_WORD_VV	0.085	n/a	<>	-999	20	[0, 0, 0]	n/a	FR1	5	R1230J
2925.933	2.316	3738891	REC_WORD	2.316	n/a	STOOL	-999	20	[0, 0, 0]	n/a	FR1	5	R1230J
2928.249	0.243	3741207	REC_WORD_VV	0.243	n/a	<>	-999	20	[0, 0, 0]	n/a	FR1	5	R1230J
2928.492	1.079	3741450	REC_WORD	1.079	n/a	DOG	-999	20	[0, 0, 0]	n/a	FR1	5	R1230J
2929.571	24.327	3742529	REC_WORD	24.327	n/a	EAT	-999	20	[0, 0, 0]	n/a	FR1	5	R1230J
2953.898	12.864	3766856	REC_END	n/a	n/a	n/a	-999	20	[0, 0, 0]	n/a	FR1	5	R1230J
2966.762	0.5	3779720	TRIAL	n/a	n/a	n/a	-999	21	[0, 0, 0]	n/a	FR1	5	R1230J
2967.262	10.428	3780220	COUNTDOWN_START	n/a	n/a	n/a	-999	21	[0, 0, 0]	n/a	FR1	5	R1230J
2977.69	0.007	3790648	COUNTDOWN_END	n/a	n/a	n/a	-999	21	[0, 0, 0]	n/a	FR1	5	R1230J
2977.697	1.617	3790655	ORIENT	n/a	n/a	n/a	-999	21	[0, 0, 0]	n/a	FR1	5	R1230J
2979.314	2.001	3792272	ORIENT_OFF	n/a	n/a	n/a	-999	21	[0, 0, 0]	n/a	FR1	5	R1230J
2981.315	1.615	3794273	WORD	n/a	wordpools/wordpool_EN.txt	CASH	1	21	[0, 0, 0]	n/a	FR1	5	R1230J
2982.93	0.867	3795888	WORD_OFF	n/a	n/a	CASH	1	21	[0, 0, 0]	n/a	FR1	5	R1230J
2983.797	1.618	3796755	WORD	n/a	wordpools/wordpool_EN.txt	CUBE	2	21	[0, 0, 0]	n/a	FR1	5	R1230J
2985.415	0.8	3798373	WORD_OFF	n/a	n/a	CUBE	2	21	[0, 0, 0]	n/a	FR1	5	R1230J
2986.215	1.616	3799173	WORD	n/a	wordpools/wordpool_EN.txt	NET	3	21	[0, 0, 0]	n/a	FR1	5	R1230J
2987.831	0.834	3800789	WORD_OFF	n/a	n/a	NET	3	21	[0, 0, 0]	n/a	FR1	5	R1230J
2988.665	1.618	3801623	WORD	n/a	wordpools/wordpool_EN.txt	BANK	4	21	[0, 0, 0]	n/a	FR1	5	R1230J
2990.283	0.866	3803241	WORD_OFF	n/a	n/a	BANK	4	21	[0, 0, 0]	n/a	FR1	5	R1230J
2991.149	1.616	3804107	WORD	n/a	wordpools/wordpool_EN.txt	ICE	5	21	[0, 0, 0]	n/a	FR1	5	R1230J
2992.765	0.984	3805723	WORD_OFF	n/a	n/a	ICE	5	21	[0, 0, 0]	n/a	FR1	5	R1230J
2993.749	1.617	3806707	WORD	n/a	wordpools/wordpool_EN.txt	INK	6	21	[0, 0, 0]	n/a	FR1	5	R1230J
2995.366	0.95	3808324	WORD_OFF	n/a	n/a	INK	6	21	[0, 0, 0]	n/a	FR1	5	R1230J
2996.316	1.617	3809274	WORD	n/a	wordpools/wordpool_EN.txt	COIN	7	21	[0, 0, 0]	n/a	FR1	5	R1230J
2997.933	0.883	3810891	WORD_OFF	n/a	n/a	COIN	7	21	[0, 0, 0]	n/a	FR1	5	R1230J
2998.816	1.618	3811774	WORD	n/a	wordpools/wordpool_EN.txt	PHONE	8	21	[0, 0, 0]	n/a	FR1	5	R1230J
3000.434	1.0	3813392	WORD_OFF	n/a	n/a	PHONE	8	21	[0, 0, 0]	n/a	FR1	5	R1230J
3001.434	1.617	3814392	WORD	n/a	wordpools/wordpool_EN.txt	STORE	9	21	[0, 0, 0]	n/a	FR1	5	R1230J
3003.051	0.782	3816009	WORD_OFF	n/a	n/a	STORE	9	21	[0, 0, 0]	n/a	FR1	5	R1230J
3003.833	1.601	3816791	WORD	n/a	wordpools/wordpool_EN.txt	CONE	10	21	[0, 0, 0]	n/a	FR1	5	R1230J
3005.434	0.9	3818392	WORD_OFF	n/a	n/a	CONE	10	21	[0, 0, 0]	n/a	FR1	5	R1230J
3006.334	1.616	3819292	WORD	n/a	wordpools/wordpool_EN.txt	SHEET	11	21	[0, 0, 0]	n/a	FR1	5	R1230J
3007.95	0.951	3820908	WORD_OFF	n/a	n/a	SHEET	11	21	[0, 0, 0]	n/a	FR1	5	R1230J
3008.901	1.617	3821859	WORD	n/a	wordpools/wordpool_EN.txt	MAIL	12	21	[0, 0, 0]	n/a	FR1	5	R1230J
3010.518	0.0	3823476	WORD_OFF	n/a	n/a	MAIL	12	21	[0, 0, 0]	n/a	FR1	5	R1230J
3010.518	0.001	3823476	DISTRACT_START	n/a	n/a	n/a	-999	21	[0, 0, 0]	n/a	FR1	5	R1230J
3010.519	0.016	3823477	START	n/a	n/a	n/a	-999	22	[-999, -999, -999]	n/a	FR1	5	R1230J
3010.535	2.884	3823493	PROB	2.884	n/a	n/a	-999	22	[7, 7, 7]	21	FR1	5	R1230J
3013.419	5.466	3826377	PROB	5.466	n/a	n/a	-999	22	[9, 2, 4]	15	FR1	5	R1230J
3018.885	2.685	3831843	PROB	2.685	n/a	n/a	-999	22	[2, 2, 6]	10	FR1	5	R1230J
3021.57	3.282	3834528	PROB	3.282	n/a	n/a	-999	22	[9, 4, 9]	22	FR1	5	R1230J
3024.852	2.335	3837810	PROB	2.335	n/a	n/a	-999	22	[7, 5, 1]	13	FR1	5	R1230J
3027.187	3.201	3840145	PROB	3.201	n/a	n/a	-999	22	[2, 2, 9]	13	FR1	5	R1230J
3030.388	3.321	3843346	PROB	3.321	n/a	n/a	-999	22	[2, 5, 4]	11	FR1	5	R1230J
3033.709	0.011	3846667	STOP	n/a	n/a	n/a	-999	22	[-999, -999, -999]	n/a	FR1	5	R1230J
3033.72	0.585	3846678	DISTRACT_END	n/a	n/a	n/a	-999	21	[0, 0, 0]	n/a	FR1	5	R1230J
3034.305	0.516	3847263	RETRIEVAL_ORIENT	n/a	n/a	n/a	-999	21	[0, 0, 0]	n/a	FR1	5	R1230J
3034.821	3.592	3847779	REC_START	n/a	n/a	n/a	-999	21	[0, 0, 0]	n/a	FR1	5	R1230J
3038.413	26.419	3851371	REC_WORD_VV	26.419	n/a	<>	-999	21	[0, 0, 0]	n/a	FR1	5	R1230J
3064.832	4.744	3877790	REC_END	n/a	n/a	n/a	-999	21	[0, 0, 0]	n/a	FR1	5	R1230J
3069.576	0.5	3882534	TRIAL	n/a	n/a	n/a	-999	22	[0, 0, 0]	n/a	FR1	5	R1230J
3070.076	10.428	3883034	COUNTDOWN_START	n/a	n/a	n/a	-999	22	[0, 0, 0]	n/a	FR1	5	R1230J
3080.504	0.007	3893462	COUNTDOWN_END	n/a	n/a	n/a	-999	22	[0, 0, 0]	n/a	FR1	5	R1230J
3080.511	1.617	3893469	ORIENT	n/a	n/a	n/a	-999	22	[0, 0, 0]	n/a	FR1	5	R1230J
3082.128	2.166	3895086	ORIENT_OFF	n/a	n/a	n/a	-999	22	[0, 0, 0]	n/a	FR1	5	R1230J
3084.294	1.616	3897252	WORD	n/a	wordpools/wordpool_EN.txt	BALL	1	22	[0, 0, 0]	n/a	FR1	5	R1230J
3085.91	1.017	3898868	WORD_OFF	n/a	n/a	BALL	1	22	[0, 0, 0]	n/a	FR1	5	R1230J
3086.927	1.618	3899885	WORD	n/a	wordpools/wordpool_EN.txt	BRIDGE	2	22	[0, 0, 0]	n/a	FR1	5	R1230J
3088.545	0.967	3901503	WORD_OFF	n/a	n/a	BRIDGE	2	22	[0, 0, 0]	n/a	FR1	5	R1230J
3089.512	1.617	3902470	WORD	n/a	wordpools/wordpool_EN.txt	CORD	3	22	[0, 0, 0]	n/a	FR1	5	R1230J
3091.129	0.816	3904087	WORD_OFF	n/a	n/a	CORD	3	22	[0, 0, 0]	n/a	FR1	5	R1230J
3091.945	1.617	3904903	WORD	n/a	wordpools/wordpool_EN.txt	ZOO	4	22	[0, 0, 0]	n/a	FR1	5	R1230J
3093.562	1.0	3906520	WORD_OFF	n/a	n/a	ZOO	4	22	[0, 0, 0]	n/a	FR1	5	R1230J
3094.562	1.617	3907520	WORD	n/a	wordpools/wordpool_EN.txt	WHEEL	5	22	[0, 0, 0]	n/a	FR1	5	R1230J
3096.179	0.783	3909137	WORD_OFF	n/a	n/a	WHEEL	5	22	[0, 0, 0]	n/a	FR1	5	R1230J
3096.962	1.618	3909920	WORD	n/a	wordpools/wordpool_EN.txt	TEETH	6	22	[0, 0, 0]	n/a	FR1	5	R1230J
3098.58	0.933	3911538	WORD_OFF	n/a	n/a	TEETH	6	22	[0, 0, 0]	n/a	FR1	5	R1230J
3099.513	1.617	3912471	WORD	n/a	wordpools/wordpool_EN.txt	ARK	7	22	[0, 0, 0]	n/a	FR1	5	R1230J
3101.13	0.95	3914088	WORD_OFF	n/a	n/a	ARK	7	22	[0, 0, 0]	n/a	FR1	5	R1230J
3102.08	1.616	3915038	WORD	n/a	wordpools/wordpool_EN.txt	FILM	8	22	[0, 0, 0]	n/a	FR1	5	R1230J
3103.696	0.834	3916654	WORD_OFF	n/a	n/a	FILM	8	22	[0, 0, 0]	n/a	FR1	5	R1230J
3104.53	1.617	3917488	WORD	n/a	wordpools/wordpool_EN.txt	BOMB	9	22	[0, 0, 0]	n/a	FR1	5	R1230J
3106.147	0.917	3919105	WORD_OFF	n/a	n/a	BOMB	9	22	[0, 0, 0]	n/a	FR1	5	R1230J
3107.064	1.616	3920022	WORD	n/a	wordpools/wordpool_EN.txt	STEAM	10	22	[0, 0, 0]	n/a	FR1	5	R1230J
3108.68	0.967	3921638	WORD_OFF	n/a	n/a	STEAM	10	22	[0, 0, 0]	n/a	FR1	5	R1230J
3109.647	1.618	3922605	WORD	n/a	wordpools/wordpool_EN.txt	MOLE	11	22	[0, 0, 0]	n/a	FR1	5	R1230J
3111.265	0.816	3924223	WORD_OFF	n/a	n/a	MOLE	11	22	[0, 0, 0]	n/a	FR1	5	R1230J
3112.081	1.616	3925039	WORD	n/a	wordpools/wordpool_EN.txt	TOOTH	12	22	[0, 0, 0]	n/a	FR1	5	R1230J
3113.697	0.0	3926655	WORD_OFF	n/a	n/a	TOOTH	12	22	[0, 0, 0]	n/a	FR1	5	R1230J
3113.697	0.001	3926655	DISTRACT_START	n/a	n/a	n/a	-999	22	[0, 0, 0]	n/a	FR1	5	R1230J
3113.698	0.016	3926656	START	n/a	n/a	n/a	-999	23	[-999, -999, -999]	n/a	FR1	5	R1230J
3113.714	3.034	3926672	PROB	3.034	n/a	n/a	-999	23	[6, 4, 3]	13	FR1	5	R1230J
3116.748	2.401	3929706	PROB	2.401	n/a	n/a	-999	23	[3, 7, 9]	19	FR1	5	R1230J
3119.149	2.384	3932107	PROB	2.384	n/a	n/a	-999	23	[2, 9, 1]	12	FR1	5	R1230J
3121.533	2.149	3934491	PROB	2.149	n/a	n/a	-999	23	[2, 1, 1]	4	FR1	5	R1230J
3123.682	3.0	3936640	PROB	3.0	n/a	n/a	-999	23	[6, 5, 5]	16	FR1	5	R1230J
3126.682	2.852	3939640	PROB	2.852	n/a	n/a	-999	23	[1, 9, 9]	19	FR1	5	R1230J
3129.534	2.466	3942492	PROB	2.466	n/a	n/a	-999	23	[9, 2, 3]	14	FR1	5	R1230J
3132.0	2.0	3944958	PROB	2.0	n/a	n/a	-999	23	[6, 5, 1]	12	FR1	5	R1230J
3134.0	0.016	3946958	STOP	n/a	n/a	n/a	-999	23	[-999, -999, -999]	n/a	FR1	5	R1230J
3134.016	0.568	3946974	DISTRACT_END	n/a	n/a	n/a	-999	22	[0, 0, 0]	n/a	FR1	5	R1230J
3134.584	0.518	3947542	RETRIEVAL_ORIENT	n/a	n/a	n/a	-999	22	[0, 0, 0]	n/a	FR1	5	R1230J
3135.102	0.316	3948060	REC_START	n/a	n/a	n/a	-999	22	[0, 0, 0]	n/a	FR1	5	R1230J
3135.418	0.244	3948376	REC_WORD_VV	0.244	n/a	<>	-999	22	[0, 0, 0]	n/a	FR1	5	R1230J
3135.662	0.457	3948620	REC_WORD	0.457	n/a	BALL	-999	22	[0, 0, 0]	n/a	FR1	5	R1230J
3136.119	0.234	3949077	REC_WORD_VV	0.234	n/a	<>	-999	22	[0, 0, 0]	n/a	FR1	5	R1230J
3136.353	6.722	3949311	REC_WORD	6.722	n/a	BRIDGE	-999	22	[0, 0, 0]	n/a	FR1	5	R1230J
3143.075	22.037	3956033	REC_WORD	22.037	n/a	CORD	-999	22	[0, 0, 0]	n/a	FR1	5	R1230J
3165.112	4.393	3978070	REC_END	n/a	n/a	n/a	-999	22	[0, 0, 0]	n/a	FR1	5	R1230J
3169.505	0.5	3982463	TRIAL	n/a	n/a	n/a	-999	23	[0, 0, 0]	n/a	FR1	5	R1230J
3170.005	10.428	3982963	COUNTDOWN_START	n/a	n/a	n/a	-999	23	[0, 0, 0]	n/a	FR1	5	R1230J
3180.433	0.007	3993391	COUNTDOWN_END	n/a	n/a	n/a	-999	23	[0, 0, 0]	n/a	FR1	5	R1230J
3180.44	1.617	3993398	ORIENT	n/a	n/a	n/a	-999	23	[0, 0, 0]	n/a	FR1	5	R1230J
3182.057	1.899	3995015	ORIENT_OFF	n/a	n/a	n/a	-999	23	[0, 0, 0]	n/a	FR1	5	R1230J
3183.956	1.601	3996914	WORD	n/a	wordpools/wordpool_EN.txt	CAPE	1	23	[0, 0, 0]	n/a	FR1	5	R1230J
3185.557	0.917	3998515	WORD_OFF	n/a	n/a	CAPE	1	23	[0, 0, 0]	n/a	FR1	5	R1230J
3186.474	1.617	3999432	WORD	n/a	wordpools/wordpool_EN.txt	PLANE	2	23	[0, 0, 0]	n/a	FR1	5	R1230J
3188.091	0.866	4001049	WORD_OFF	n/a	n/a	PLANE	2	23	[0, 0, 0]	n/a	FR1	5	R1230J
3188.957	1.618	4001915	WORD	n/a	wordpools/wordpool_EN.txt	FORT	3	23	[0, 0, 0]	n/a	FR1	5	R1230J
3190.575	1.0	4003533	WORD_OFF	n/a	n/a	FORT	3	23	[0, 0, 0]	n/a	FR1	5	R1230J
3191.575	1.617	4004533	WORD	n/a	wordpools/wordpool_EN.txt	SHIP	4	23	[0, 0, 0]	n/a	FR1	5	R1230J
3193.192	0.815	4006150	WORD_OFF	n/a	n/a	SHIP	4	23	[0, 0, 0]	n/a	FR1	5	R1230J
3194.007	1.618	4006965	WORD	n/a	wordpools/wordpool_EN.txt	STAR	5	23	[0, 0, 0]	n/a	FR1	5	R1230J
3195.625	0.984	4008583	WORD_OFF	n/a	n/a	STAR	5	23	[0, 0, 0]	n/a	FR1	5	R1230J
3196.609	1.617	4009567	WORD	n/a	wordpools/wordpool_EN.txt	SAIL	6	23	[0, 0, 0]	n/a	FR1	5	R1230J
3198.226	0.766	4011184	WORD_OFF	n/a	n/a	SAIL	6	23	[0, 0, 0]	n/a	FR1	5	R1230J
3198.992	1.617	4011950	WORD	n/a	wordpools/wordpool_EN.txt	WAVE	7	23	[0, 0, 0]	n/a	FR1	5	R1230J
3200.609	0.817	4013567	WORD_OFF	n/a	n/a	WAVE	7	23	[0, 0, 0]	n/a	FR1	5	R1230J
3201.426	1.617	4014384	WORD	n/a	wordpools/wordpool_EN.txt	SUN	8	23	[0, 0, 0]	n/a	FR1	5	R1230J
3203.043	1.017	4016001	WORD_OFF	n/a	n/a	SUN	8	23	[0, 0, 0]	n/a	FR1	5	R1230J
3204.06	1.616	4017018	WORD	n/a	wordpools/wordpool_EN.txt	FROG	9	23	[0, 0, 0]	n/a	FR1	5	R1230J
3205.676	0.767	4018634	WORD_OFF	n/a	n/a	FROG	9	23	[0, 0, 0]	n/a	FR1	5	R1230J
3206.443	1.617	4019401	WORD	n/a	wordpools/wordpool_EN.txt	POLE	10	23	[0, 0, 0]	n/a	FR1	5	R1230J
3208.06	0.783	4021018	WORD_OFF	n/a	n/a	POLE	10	23	[0, 0, 0]	n/a	FR1	5	R1230J
3208.843	1.618	4021801	WORD	n/a	wordpools/wordpool_EN.txt	BOARD	11	23	[0, 0, 0]	n/a	FR1	5	R1230J
3210.461	0.917	4023419	WORD_OFF	n/a	n/a	BOARD	11	23	[0, 0, 0]	n/a	FR1	5	R1230J
3211.378	1.615	4024336	WORD	n/a	wordpools/wordpool_EN.txt	BAND	12	23	[0, 0, 0]	n/a	FR1	5	R1230J
3212.993	0.0	4025951	WORD_OFF	n/a	n/a	BAND	12	23	[0, 0, 0]	n/a	FR1	5	R1230J
3212.993	0.001	4025951	DISTRACT_START	n/a	n/a	n/a	-999	23	[0, 0, 0]	n/a	FR1	5	R1230J
3212.994	0.016	4025952	START	n/a	n/a	n/a	-999	24	[-999, -999, -999]	n/a	FR1	5	R1230J
3213.01	3.268	4025968	PROB	3.268	n/a	n/a	-999	24	[6, 3, 9]	18	FR1	5	R1230J
3216.278	3.184	4029236	PROB	3.184	n/a	n/a	-999	24	[9, 7, 4]	20	FR1	5	R1230J
3219.462	2.433	4032420	PROB	2.433	n/a	n/a	-999	24	[7, 4, 6]	17	FR1	5	R1230J
3221.895	4.584	4034853	PROB	4.584	n/a	n/a	-999	24	[2, 2, 9]	13	FR1	5	R1230J
3226.479	4.701	4039437	PROB	4.701	n/a	n/a	-999	24	[1, 7, 2]	10	FR1	5	R1230J
3231.18	3.577	4044138	PROB	3.577	n/a	n/a	-999	24	[3, 2, 2]	7	FR1	5	R1230J
3234.757	0.022	4047715	STOP	n/a	n/a	n/a	-999	24	[-999, -999, -999]	n/a	FR1	5	R1230J
3234.779	0.635	4047737	DISTRACT_END	n/a	n/a	n/a	-999	23	[0, 0, 0]	n/a	FR1	5	R1230J
3235.414	0.516	4048372	RETRIEVAL_ORIENT	n/a	n/a	n/a	-999	23	[0, 0, 0]	n/a	FR1	5	R1230J
3235.93	0.291	4048888	REC_START	n/a	n/a	n/a	-999	23	[0, 0, 0]	n/a	FR1	5	R1230J
3236.221	3.287	4049179	REC_WORD	3.287	n/a	CAPE	-999	23	[0, 0, 0]	n/a	FR1	5	R1230J
3239.508	5.409	4052466	REC_WORD	5.409	n/a	FORT	-999	23	[0, 0, 0]	n/a	FR1	5	R1230J
3244.917	3.253	4057875	REC_WORD	3.253	n/a	ROCK	-999	23	[0, 0, 0]	n/a	FR1	5	R1230J
3248.17	2.751	4061128	REC_WORD	2.751	n/a	DRILL	-999	23	[0, 0, 0]	n/a	FR1	5	R1230J
3250.921	1.007	4063879	REC_WORD_VV	1.007	n/a	<>	-999	23	[0, 0, 0]	n/a	FR1	5	R1230J
3251.928	1.008	4064886	REC_WORD_VV	1.008	n/a	<>	-999	23	[0, 0, 0]	n/a	FR1	5	R1230J
3252.936	1.98	4065894	REC_WORD_VV	1.98	n/a	<>	-999	23	[0, 0, 0]	n/a	FR1	5	R1230J
3254.916	10.609	4067874	REC_WORD_VV	10.609	n/a	<>	-999	23	[0, 0, 0]	n/a	FR1	5	R1230J
3265.525	0.415	4078483	REC_WORD_VV	0.415	n/a	<>	-999	23	[0, 0, 0]	n/a	FR1	5	R1230J
3265.94	15.045	4078898	REC_END	n/a	n/a	n/a	-999	23	[0, 0, 0]	n/a	FR1	5	R1230J
3280.985	0.5	4093943	TRIAL	n/a	n/a	n/a	-999	24	[0, 0, 0]	n/a	FR1	5	R1230J
3281.485	10.428	4094443	COUNTDOWN_START	n/a	n/a	n/a	-999	24	[0, 0, 0]	n/a	FR1	5	R1230J
3291.913	0.007	4104871	COUNTDOWN_END	n/a	n/a	n/a	-999	24	[0, 0, 0]	n/a	FR1	5	R1230J
3291.92	1.601	4104878	ORIENT	n/a	n/a	n/a	-999	24	[0, 0, 0]	n/a	FR1	5	R1230J
3293.521	2.133	4106479	ORIENT_OFF	n/a	n/a	n/a	-999	24	[0, 0, 0]	n/a	FR1	5	R1230J
3295.654	1.618	4108612	WORD	n/a	wordpools/wordpool_EN.txt	WORM	1	24	[0, 0, 0]	n/a	FR1	5	R1230J
3297.272	0.933	4110230	WORD_OFF	n/a	n/a	WORM	1	24	[0, 0, 0]	n/a	FR1	5	R1230J
3298.205	1.616	4111163	WORD	n/a	wordpools/wordpool_EN.txt	HOLE	2	24	[0, 0, 0]	n/a	FR1	5	R1230J
3299.821	0.817	4112779	WORD_OFF	n/a	n/a	HOLE	2	24	[0, 0, 0]	n/a	FR1	5	R1230J
3300.638	1.618	4113596	WORD	n/a	wordpools/wordpool_EN.txt	FLAME	3	24	[0, 0, 0]	n/a	FR1	5	R1230J
3302.256	0.933	4115214	WORD_OFF	n/a	n/a	FLAME	3	24	[0, 0, 0]	n/a	FR1	5	R1230J
3303.189	1.616	4116147	WORD	n/a	wordpools/wordpool_EN.txt	BEAR	4	24	[0, 0, 0]	n/a	FR1	5	R1230J
3304.805	0.768	4117763	WORD_OFF	n/a	n/a	BEAR	4	24	[0, 0, 0]	n/a	FR1	5	R1230J
3305.573	1.617	4118531	WORD	n/a	wordpools/wordpool_EN.txt	AXE	5	24	[0, 0, 0]	n/a	FR1	5	R1230J
3307.19	0.866	4120148	WORD_OFF	n/a	n/a	AXE	5	24	[0, 0, 0]	n/a	FR1	5	R1230J
3308.056	1.616	4121014	WORD	n/a	wordpools/wordpool_EN.txt	MILK	6	24	[0, 0, 0]	n/a	FR1	5	R1230J
3309.672	0.952	4122630	WORD_OFF	n/a	n/a	MILK	6	24	[0, 0, 0]	n/a	FR1	5	R1230J
3310.624	1.617	4123582	WORD	n/a	wordpools/wordpool_EN.txt	FORK	7	24	[0, 0, 0]	n/a	FR1	5	R1230J
3312.241	0.999	4125199	WORD_OFF	n/a	n/a	FORK	7	24	[0, 0, 0]	n/a	FR1	5	R1230J
3313.24	1.616	4126198	WORD	n/a	wordpools/wordpool_EN.txt	SPOON	8	24	[0, 0, 0]	n/a	FR1	5	R1230J
3314.856	0.95	4127814	WORD_OFF	n/a	n/a	SPOON	8	24	[0, 0, 0]	n/a	FR1	5	R1230J
3315.806	1.618	4128764	WORD	n/a	wordpools/wordpool_EN.txt	DRUM	9	24	[0, 0, 0]	n/a	FR1	5	R1230J
3317.424	0.85	4130382	WORD_OFF	n/a	n/a	DRUM	9	24	[0, 0, 0]	n/a	FR1	5	R1230J
3318.274	1.616	4131232	WORD	n/a	wordpools/wordpool_EN.txt	BLUSH	10	24	[0, 0, 0]	n/a	FR1	5	R1230J
3319.89	0.951	4132848	WORD_OFF	n/a	n/a	BLUSH	10	24	[0, 0, 0]	n/a	FR1	5	R1230J
3320.841	1.617	4133799	WORD	n/a	wordpools/wordpool_EN.txt	DOLL	11	24	[0, 0, 0]	n/a	FR1	5	R1230J
3322.458	0.817	4135416	WORD_OFF	n/a	n/a	DOLL	11	24	[0, 0, 0]	n/a	FR1	5	R1230J
3323.275	1.616	4136233	WORD	n/a	wordpools/wordpool_EN.txt	FENCE	12	24	[0, 0, 0]	n/a	FR1	5	R1230J
3324.891	0.0	4137849	WORD_OFF	n/a	n/a	FENCE	12	24	[0, 0, 0]	n/a	FR1	5	R1230J
3324.891	0.001	4137849	DISTRACT_START	n/a	n/a	n/a	-999	24	[0, 0, 0]	n/a	FR1	5	R1230J
3324.892	0.016	4137850	START	n/a	n/a	n/a	-999	25	[-999, -999, -999]	n/a	FR1	5	R1230J
3324.908	3.518	4137866	PROB	3.518	n/a	n/a	-999	25	[6, 6, 7]	19	FR1	5	R1230J
3328.426	2.316	4141384	PROB	2.316	n/a	n/a	-999	25	[3, 7, 4]	14	FR1	5	R1230J
3330.742	2.15	4143700	PROB	2.15	n/a	n/a	-999	25	[6, 5, 1]	12	FR1	5	R1230J
3332.892	2.685	4145850	PROB	2.685	n/a	n/a	-999	25	[8, 4, 6]	18	FR1	5	R1230J
3335.577	5.166	4148535	PROB	5.166	n/a	n/a	-999	25	[8, 9, 8]	25	FR1	5	R1230J
3340.743	3.485	4153701	PROB	3.485	n/a	n/a	-999	25	[2, 5, 8]	15	FR1	5	R1230J
3344.228	2.998	4157186	PROB	2.998	n/a	n/a	-999	25	[7, 4, 3]	14	FR1	5	R1230J
3347.226	0.019	4160184	STOP	n/a	n/a	n/a	-999	25	[-999, -999, -999]	n/a	FR1	5	R1230J
3347.245	0.632	4160203	DISTRACT_END	n/a	n/a	n/a	-999	24	[0, 0, 0]	n/a	FR1	5	R1230J
3347.877	0.519	4160835	RETRIEVAL_ORIENT	n/a	n/a	n/a	-999	24	[0, 0, 0]	n/a	FR1	5	R1230J
3348.396	0.33	4161354	REC_START	n/a	n/a	n/a	-999	24	[0, 0, 0]	n/a	FR1	5	R1230J
3348.726	0.737	4161684	REC_WORD	0.737	n/a	WORM	-999	24	[0, 0, 0]	n/a	FR1	5	R1230J
3349.463	0.789	4162421	REC_WORD	0.789	n/a	HOLE	-999	24	[0, 0, 0]	n/a	FR1	5	R1230J
3350.252	28.154	4163210	REC_WORD	28.154	n/a	FLAME	-999	24	[0, 0, 0]	n/a	FR1	5	R1230J
3378.406	5.609	4191364	REC_END	n/a	n/a	n/a	-999	24	[0, 0, 0]	n/a	FR1	5	R1230J
3384.015	0.5	4196973	TRIAL	n/a	n/a	n/a	-999	25	[0, 0, 0]	n/a	FR1	5	R1230J
3384.515	10.428	4197473	COUNTDOWN_START	n/a	n/a	n/a	-999	25	[0, 0, 0]	n/a	FR1	5	R1230J
3394.943	0.007	4207901	COUNTDOWN_END	n/a	n/a	n/a	-999	25	[0, 0, 0]	n/a	FR1	5	R1230J
3394.95	1.601	4207908	ORIENT	n/a	n/a	n/a	-999	25	[0, 0, 0]	n/a	FR1	5	R1230J
3396.551	2.333	4209509	ORIENT_OFF	n/a	n/a	n/a	-999	25	[0, 0, 0]	n/a	FR1	5	R1230J
3398.884	1.618	4211842	WORD	n/a	wordpools/wordpool_EN.txt	FOAM	1	25	[0, 0, 0]	n/a	FR1	5	R1230J
3400.502	0.85	4213460	WORD_OFF	n/a	n/a	FOAM	1	25	[0, 0, 0]	n/a	FR1	5	R1230J
3401.352	1.615	4214310	WORD	n/a	wordpools/wordpool_EN.txt	SQUARE	2	25	[0, 0, 0]	n/a	FR1	5	R1230J
3402.967	0.884	4215925	WORD_OFF	n/a	n/a	SQUARE	2	25	[0, 0, 0]	n/a	FR1	5	R1230J
3403.851	1.618	4216809	WORD	n/a	wordpools/wordpool_EN.txt	HAT	3	25	[0, 0, 0]	n/a	FR1	5	R1230J
3405.469	0.833	4218427	WORD_OFF	n/a	n/a	HAT	3	25	[0, 0, 0]	n/a	FR1	5	R1230J
3406.302	1.616	4219260	WORD	n/a	wordpools/wordpool_EN.txt	SHOE	4	25	[0, 0, 0]	n/a	FR1	5	R1230J
3407.918	0.934	4220876	WORD_OFF	n/a	n/a	SHOE	4	25	[0, 0, 0]	n/a	FR1	5	R1230J
3408.852	1.618	4221810	WORD	n/a	wordpools/wordpool_EN.txt	OAR	5	25	[0, 0, 0]	n/a	FR1	5	R1230J
3410.47	0.8	4223428	WORD_OFF	n/a	n/a	OAR	5	25	[0, 0, 0]	n/a	FR1	5	R1230J
3411.27	1.615	4224228	WORD	n/a	wordpools/wordpool_EN.txt	CLAY	6	25	[0, 0, 0]	n/a	FR1	5	R1230J
3412.885	0.967	4225843	WORD_OFF	n/a	n/a	CLAY	6	25	[0, 0, 0]	n/a	FR1	5	R1230J
3413.852	1.601	4226810	WORD	n/a	wordpools/wordpool_EN.txt	BOAT	7	25	[0, 0, 0]	n/a	FR1	5	R1230J
3415.453	0.817	4228411	WORD_OFF	n/a	n/a	BOAT	7	25	[0, 0, 0]	n/a	FR1	5	R1230J
3416.27	1.616	4229228	WORD	n/a	wordpools/wordpool_EN.txt	GLOVE	8	25	[0, 0, 0]	n/a	FR1	5	R1230J
3417.886	0.834	4230844	WORD_OFF	n/a	n/a	GLOVE	8	25	[0, 0, 0]	n/a	FR1	5	R1230J
3418.72	1.618	4231678	WORD	n/a	wordpools/wordpool_EN.txt	RUG	9	25	[0, 0, 0]	n/a	FR1	5	R1230J
3420.338	0.833	4233296	WORD_OFF	n/a	n/a	RUG	9	25	[0, 0, 0]	n/a	FR1	5	R1230J
3421.171	1.616	4234129	WORD	n/a	wordpools/wordpool_EN.txt	LOCK	10	25	[0, 0, 0]	n/a	FR1	5	R1230J
3422.787	1.017	4235745	WORD_OFF	n/a	n/a	LOCK	10	25	[0, 0, 0]	n/a	FR1	5	R1230J
3423.804	1.617	4236762	WORD	n/a	wordpools/wordpool_EN.txt	STRING	11	25	[0, 0, 0]	n/a	FR1	5	R1230J
3425.421	0.834	4238379	WORD_OFF	n/a	n/a	STRING	11	25	[0, 0, 0]	n/a	FR1	5	R1230J
