onset	duration	sample	trial_type	response_time	stim_file	item_name	serialpos	list	test	answer	experiment	session	subject
0.0	196.641	40	INSTRUCT_START	n/a	n/a	n/a	-999	-999	[0, 0, 0]	n/a	FR1	0	R1368T
196.641	25.272	197310	INSTRUCT_END	n/a	n/a	n/a	-999	-999	[0, 0, 0]	n/a	FR1	0	R1368T
221.913	10.429	222585	COUNTDOWN_START	n/a	n/a	n/a	-999	-999	[0, 0, 0]	n/a	FR1	0	R1368T
232.342	1.09	232980	COUNTDOWN_END	n/a	n/a	n/a	-999	-999	[0, 0, 0]	n/a	FR1	0	R1368T
233.432	0.868	234069	ENCODING_START	n/a	n/a	n/a	-999	-1	[0, 0, 0]	n/a	FR1	0	R1368T
234.3	1.631	234950	WORD	n/a	n/a	COTTON	1	-1	[0, 0, 0]	n/a	FR1	0	R1368T
235.931	0.905	236570	WORD_OFF	n/a	n/a	COTTON	1	-1	[0, 0, 0]	n/a	FR1	0	R1368T
236.836	1.629	237479	WORD	n/a	n/a	IMAGE	2	-1	[0, 0, 0]	n/a	FR1	0	R1368T
238.465	1.114	239099	WORD_OFF	n/a	n/a	IMAGE	2	-1	[0, 0, 0]	n/a	FR1	0	R1368T
239.579	1.636	240231	WORD	n/a	n/a	BEAM	3	-1	[0, 0, 0]	n/a	FR1	0	R1368T
241.215	0.789	241852	WORD_OFF	n/a	n/a	BEAM	3	-1	[0, 0, 0]	n/a	FR1	0	R1368T
242.004	1.629	242648	WORD	n/a	n/a	CAMEL	4	-1	[0, 0, 0]	n/a	FR1	0	R1368T
243.633	0.958	244269	WORD_OFF	n/a	n/a	CAMEL	4	-1	[0, 0, 0]	n/a	FR1	0	R1368T
244.591	1.625	245233	WORD	n/a	n/a	WAGON	5	-1	[0, 0, 0]	n/a	FR1	0	R1368T
246.216	1.054	246854	WORD_OFF	n/a	n/a	WAGON	5	-1	[0, 0, 0]	n/a	FR1	0	R1368T
247.27	1.63	247915	WORD	n/a	n/a	BABY	6	-1	[0, 0, 0]	n/a	FR1	0	R1368T
248.9	0.954	249536	WORD_OFF	n/a	n/a	BABY	6	-1	[0, 0, 0]	n/a	FR1	0	R1368T
249.854	1.63	250500	WORD	n/a	n/a	CHEST	7	-1	[0, 0, 0]	n/a	FR1	0	R1368T
251.484	0.785	252121	WORD_OFF	n/a	n/a	CHEST	7	-1	[0, 0, 0]	n/a	FR1	0	R1368T
252.269	1.632	252917	WORD	n/a	n/a	WATCH	8	-1	[0, 0, 0]	n/a	FR1	0	R1368T
253.901	1.076	254538	WORD_OFF	n/a	n/a	WATCH	8	-1	[0, 0, 0]	n/a	FR1	0	R1368T
254.977	1.625	255614	WORD	n/a	n/a	TONGUE	9	-1	[0, 0, 0]	n/a	FR1	0	R1368T
256.602	1.114	257235	WORD_OFF	n/a	n/a	TONGUE	9	-1	[0, 0, 0]	n/a	FR1	0	R1368T
257.716	1.636	258366	WORD	n/a	n/a	FLOOD	10	-1	[0, 0, 0]	n/a	FR1	0	R1368T
259.352	1.145	259987	WORD_OFF	n/a	n/a	FLOOD	10	-1	[0, 0, 0]	n/a	FR1	0	R1368T
260.497	1.622	261133	WORD	n/a	n/a	RING	11	-1	[0, 0, 0]	n/a	FR1	0	R1368T
262.119	0.988	262754	WORD_OFF	n/a	n/a	RING	11	-1	[0, 0, 0]	n/a	FR1	0	R1368T
263.107	1.631	263760	WORD	n/a	n/a	RHINO	12	-1	[0, 0, 0]	n/a	FR1	0	R1368T
264.738	0.0	265391	START	n/a	n/a	n/a	-999	-1	[-999, -999, -999]	n/a	FR1	0	R1368T
264.737	0.0	265394	WORD_OFF	n/a	n/a	RHINO	12	-1	[0, 0, 0]	n/a	FR1	0	R1368T
264.737	0.001	265394	ENCODING_END	n/a	n/a	n/a	-999	-1	[0, 0, 0]	n/a	FR1	0	R1368T
264.738	0.015	265394	DISTRACT_START	n/a	n/a	n/a	-999	-1	[0, 0, 0]	n/a	FR1	0	R1368T
264.753	9.885	265406	PROB	9.885	n/a	n/a	-999	-1	[7, 7, 6]	20	FR1	0	R1368T
274.638	6.451	275291	PROB	6.451	n/a	n/a	-999	-1	[2, 2, 3]	7	FR1	0	R1368T
281.089	6.135	281742	PROB	6.135	n/a	n/a	-999	-1	[1, 5, 5]	11	FR1	0	R1368T
287.224	0.0	287861	DISTRACT_END	n/a	n/a	n/a	-999	-1	[0, 0, 0]	n/a	FR1	0	R1368T
287.213	2.295	287865	STOP	n/a	n/a	n/a	-999	-1	[-999, -999, -999]	n/a	FR1	0	R1368T
289.508	3.287	290152	REC_START	n/a	n/a	n/a	-999	-1	[0, 0, 0]	n/a	FR1	0	R1368T
292.795	1.492	293447	REC_WORD	1.492	n/a	FLOOD	10	-1	[0, 0, 0]	n/a	FR1	0	R1368T
294.287	2.195	294939	REC_WORD	2.195	n/a	WATCH	8	-1	[0, 0, 0]	n/a	FR1	0	R1368T
296.482	1.707	297134	REC_WORD	1.707	n/a	CAMEL	4	-1	[0, 0, 0]	n/a	FR1	0	R1368T
298.189	16.085	298841	REC_WORD	16.085	n/a	TONGUE	9	-1	[0, 0, 0]	n/a	FR1	0	R1368T
314.274	1.0	314925	REC_WORD_VV	1.0	n/a	<>	-999	-1	[0, 0, 0]	n/a	FR1	0	R1368T
315.274	1.0	315925	REC_WORD_VV	1.0	n/a	<>	-999	-1	[0, 0, 0]	n/a	FR1	0	R1368T
316.274	1.0	316925	REC_WORD_VV	1.0	n/a	<>	-999	-1	[0, 0, 0]	n/a	FR1	0	R1368T
317.274	2.244	317925	REC_WORD_VV	2.244	n/a	<>	-999	-1	[0, 0, 0]	n/a	FR1	0	R1368T
319.518	58.323	323196	REC_END	n/a	n/a	n/a	-999	-1	[0, 0, 0]	n/a	FR1	0	R1368T
377.841	10.43	378510	COUNTDOWN_START	n/a	n/a	n/a	-999	1	[0, 0, 0]	n/a	FR1	0	R1368T
388.271	1.222	388905	COUNTDOWN_END	n/a	n/a	n/a	-999	1	[0, 0, 0]	n/a	FR1	0	R1368T
389.493	1.111	390121	ENCODING_START	n/a	n/a	n/a	-999	1	[0, 0, 0]	n/a	FR1	0	R1368T
390.604	1.622	391238	WORD	n/a	n/a	BADGE	1	1	[0, 0, 0]	n/a	FR1	0	R1368T
392.226	0.926	392859	WORD_OFF	n/a	n/a	BADGE	1	1	[0, 0, 0]	n/a	FR1	0	R1368T
393.152	1.625	393795	WORD	n/a	n/a	SOCK	2	1	[0, 0, 0]	n/a	FR1	0	R1368T
394.777	0.896	395402	WORD_OFF	n/a	n/a	SOCK	2	1	[0, 0, 0]	n/a	FR1	0	R1368T
395.673	1.637	396324	WORD	n/a	n/a	THUMB	3	1	[0, 0, 0]	n/a	FR1	0	R1368T
397.31	0.957	397945	WORD_OFF	n/a	n/a	THUMB	3	1	[0, 0, 0]	n/a	FR1	0	R1368T
398.267	1.627	398909	WORD	n/a	n/a	SNAKE	4	1	[0, 0, 0]	n/a	FR1	0	R1368T
399.894	1.086	400530	WORD_OFF	n/a	n/a	SNAKE	4	1	[0, 0, 0]	n/a	FR1	0	R1368T
400.98	1.632	401619	WORD	n/a	n/a	TIE	5	1	[0, 0, 0]	n/a	FR1	0	R1368T
402.612	1.062	403240	WORD_OFF	n/a	n/a	TIE	5	1	[0, 0, 0]	n/a	FR1	0	R1368T
403.674	1.621	404302	WORD	n/a	n/a	CHIEF	6	1	[0, 0, 0]	n/a	FR1	0	R1368T
405.295	0.795	405923	WORD_OFF	n/a	n/a	CHIEF	6	1	[0, 0, 0]	n/a	FR1	0	R1368T
406.09	1.622	406719	WORD	n/a	n/a	PHONE	7	1	[0, 0, 0]	n/a	FR1	0	R1368T
407.712	1.128	408340	WORD_OFF	n/a	n/a	PHONE	7	1	[0, 0, 0]	n/a	FR1	0	R1368T
408.84	1.623	409472	WORD	n/a	n/a	STONE	8	1	[0, 0, 0]	n/a	FR1	0	R1368T
410.463	0.929	411092	WORD_OFF	n/a	n/a	STONE	8	1	[0, 0, 0]	n/a	FR1	0	R1368T
411.392	1.621	412028	WORD	n/a	n/a	CROWN	9	1	[0, 0, 0]	n/a	FR1	0	R1368T
413.013	0.823	413635	WORD_OFF	n/a	n/a	CROWN	9	1	[0, 0, 0]	n/a	FR1	0	R1368T
413.836	1.628	414474	WORD	n/a	n/a	CAT	10	1	[0, 0, 0]	n/a	FR1	0	R1368T
415.464	0.885	416094	WORD_OFF	n/a	n/a	CAT	10	1	[0, 0, 0]	n/a	FR1	0	R1368T
416.349	1.632	416988	WORD	n/a	n/a	BAND	11	1	[0, 0, 0]	n/a	FR1	0	R1368T
417.981	0.915	418609	WORD_OFF	n/a	n/a	BAND	11	1	[0, 0, 0]	n/a	FR1	0	R1368T
418.896	1.637	419545	WORD	n/a	n/a	SHEEP	12	1	[0, 0, 0]	n/a	FR1	0	R1368T
420.533	0.0	421178	START	n/a	n/a	n/a	-999	1	[-999, -999, -999]	n/a	FR1	0	R1368T
420.531	0.001	421180	WORD_OFF	n/a	n/a	SHEEP	12	1	[0, 0, 0]	n/a	FR1	0	R1368T
420.532	0.0	421180	ENCODING_END	n/a	n/a	n/a	-999	1	[0, 0, 0]	n/a	FR1	0	R1368T
420.532	0.016	421180	DISTRACT_START	n/a	n/a	n/a	-999	1	[0, 0, 0]	n/a	FR1	0	R1368T
420.548	7.168	421193	PROB	7.168	n/a	n/a	-999	1	[8, 1, 3]	12	FR1	0	R1368T
427.716	11.969	428361	PROB	11.969	n/a	n/a	-999	1	[9, 4, 7]	20	FR1	0	R1368T
439.685	16.239	440329	PROB	16.239	n/a	n/a	-999	1	[7, 5, 9]	21	FR1	0	R1368T
455.924	0.014	456568	STOP	n/a	n/a	n/a	-999	1	[-999, -999, -999]	n/a	FR1	0	R1368T
455.938	2.084	456571	DISTRACT_END	n/a	n/a	n/a	-999	1	[0, 0, 0]	n/a	FR1	0	R1368T
458.022	1.946	458652	REC_START	n/a	n/a	n/a	-999	1	[0, 0, 0]	n/a	FR1	0	R1368T
459.968	1.492	460611	REC_WORD	1.492	n/a	BADGE	1	1	[0, 0, 0]	n/a	FR1	0	R1368T
461.46	2.729	462103	REC_WORD	2.729	n/a	MODEL	-999	1	[0, 0, 0]	n/a	FR1	0	R1368T
464.189	3.875	464832	REC_WORD_VV	3.875	n/a	<>	-999	1	[0, 0, 0]	n/a	FR1	0	R1368T
468.064	3.527	468707	REC_WORD	3.527	n/a	CHIEF	6	1	[0, 0, 0]	n/a	FR1	0	R1368T
471.591	4.133	472234	REC_WORD	4.133	n/a	SIT	-999	1	[0, 0, 0]	n/a	FR1	0	R1368T
475.724	2.977	476366	REC_WORD_VV	2.977	n/a	<>	-999	1	[0, 0, 0]	n/a	FR1	0	R1368T
478.701	1.59	479343	REC_WORD	1.59	n/a	CAT	10	1	[0, 0, 0]	n/a	FR1	0	R1368T
480.291	3.033	480933	REC_WORD	3.033	n/a	CROWN	9	1	[0, 0, 0]	n/a	FR1	0	R1368T
483.324	4.708	483966	REC_WORD	4.708	n/a	CHANGE	-999	1	[0, 0, 0]	n/a	FR1	0	R1368T
488.032	4.68	488678	REC_END	n/a	n/a	n/a	-999	1	[0, 0, 0]	n/a	FR1	0	R1368T
492.712	10.429	493372	COUNTDOWN_START	n/a	n/a	n/a	-999	2	[0, 0, 0]	n/a	FR1	0	R1368T
503.141	1.056	503767	COUNTDOWN_END	n/a	n/a	n/a	-999	2	[0, 0, 0]	n/a	FR1	0	R1368T
504.197	0.82	504829	ENCODING_START	n/a	n/a	n/a	-999	2	[0, 0, 0]	n/a	FR1	0	R1368T
505.017	1.63	505654	WORD	n/a	n/a	VEST	1	2	[0, 0, 0]	n/a	FR1	0	R1368T
506.647	1.09	507274	WORD_OFF	n/a	n/a	VEST	1	2	[0, 0, 0]	n/a	FR1	0	R1368T
507.737	1.627	508364	WORD	n/a	n/a	FACE	2	2	[0, 0, 0]	n/a	FR1	0	R1368T
509.364	0.977	509985	WORD_OFF	n/a	n/a	FACE	2	2	[0, 0, 0]	n/a	FR1	0	R1368T
510.341	1.624	510977	WORD	n/a	n/a	TANK	3	2	[0, 0, 0]	n/a	FR1	0	R1368T
511.965	0.846	512584	WORD_OFF	n/a	n/a	TANK	3	2	[0, 0, 0]	n/a	FR1	0	R1368T
512.811	1.637	513450	WORD	n/a	n/a	BENCH	4	2	[0, 0, 0]	n/a	FR1	0	R1368T
514.448	0.764	515071	WORD_OFF	n/a	n/a	BENCH	4	2	[0, 0, 0]	n/a	FR1	0	R1368T
515.212	1.637	515853	WORD	n/a	n/a	WEB	5	2	[0, 0, 0]	n/a	FR1	0	R1368T
516.849	0.98	517474	WORD_OFF	n/a	n/a	WEB	5	2	[0, 0, 0]	n/a	FR1	0	R1368T
517.829	1.637	518466	WORD	n/a	n/a	HORSE	6	2	[0, 0, 0]	n/a	FR1	0	R1368T
519.466	0.822	520086	WORD_OFF	n/a	n/a	HORSE	6	2	[0, 0, 0]	n/a	FR1	0	R1368T
520.288	1.628	520925	WORD	n/a	n/a	COUCH	7	2	[0, 0, 0]	n/a	FR1	0	R1368T
521.916	1.024	522546	WORD_OFF	n/a	n/a	COUCH	7	2	[0, 0, 0]	n/a	FR1	0	R1368T
522.94	1.627	523565	WORD	n/a	n/a	HOOK	8	2	[0, 0, 0]	n/a	FR1	0	R1368T
524.567	1.046	525186	WORD_OFF	n/a	n/a	HOOK	8	2	[0, 0, 0]	n/a	FR1	0	R1368T
525.613	1.638	526262	WORD	n/a	n/a	WOOD	9	2	[0, 0, 0]	n/a	FR1	0	R1368T
527.251	1.045	527869	WORD_OFF	n/a	n/a	WOOD	9	2	[0, 0, 0]	n/a	FR1	0	R1368T
528.296	1.622	528917	WORD	n/a	n/a	PIT	10	2	[0, 0, 0]	n/a	FR1	0	R1368T
529.918	0.786	530537	WORD_OFF	n/a	n/a	PIT	10	2	[0, 0, 0]	n/a	FR1	0	R1368T
530.704	1.631	531334	WORD	n/a	n/a	TOAST	11	2	[0, 0, 0]	n/a	FR1	0	R1368T
532.335	0.832	532955	WORD_OFF	n/a	n/a	TOAST	11	2	[0, 0, 0]	n/a	FR1	0	R1368T
533.167	1.635	533807	WORD	n/a	n/a	ROOF	12	2	[0, 0, 0]	n/a	FR1	0	R1368T
534.802	0.001	535442	WORD_OFF	n/a	n/a	ROOF	12	2	[0, 0, 0]	n/a	FR1	0	R1368T
534.803	0.0	535442	ENCODING_END	n/a	n/a	n/a	-999	2	[0, 0, 0]	n/a	FR1	0	R1368T
534.803	0.0	535442	DISTRACT_START	n/a	n/a	n/a	-999	2	[0, 0, 0]	n/a	FR1	0	R1368T
534.803	0.016	535442	START	n/a	n/a	n/a	-999	2	[-999, -999, -999]	n/a	FR1	0	R1368T
534.819	25.688	535458	PROB	25.688	n/a	n/a	-999	2	[8, 3, 7]	18	FR1	0	R1368T
560.507	0.0	561122	DISTRACT_END	n/a	n/a	n/a	-999	2	[0, 0, 0]	n/a	FR1	0	R1368T
560.487	2.321	561125	STOP	n/a	n/a	n/a	-999	2	[-999, -999, -999]	n/a	FR1	0	R1368T
562.808	3.697	563441	REC_START	n/a	n/a	n/a	-999	2	[0, 0, 0]	n/a	FR1	0	R1368T
566.505	1.577	567143	REC_WORD	1.577	n/a	BEN	-999	2	[0, 0, 0]	n/a	FR1	0	R1368T
568.082	3.811	568720	REC_WORD	3.811	n/a	BENCH	4	2	[0, 0, 0]	n/a	FR1	0	R1368T
571.893	2.677	572531	REC_WORD_VV	2.677	n/a	<>	-999	2	[0, 0, 0]	n/a	FR1	0	R1368T
574.57	1.862	575207	REC_WORD	1.862	n/a	CROWN	-999	2	[0, 0, 0]	n/a	FR1	0	R1368T
576.432	1.0	577069	REC_WORD_VV	1.0	n/a	<>	-999	2	[0, 0, 0]	n/a	FR1	0	R1368T
577.432	1.646	578069	REC_WORD_VV	1.646	n/a	<>	-999	2	[0, 0, 0]	n/a	FR1	0	R1368T
579.078	4.122	579715	REC_WORD_VV	4.122	n/a	<>	-999	2	[0, 0, 0]	n/a	FR1	0	R1368T
583.2	9.618	583837	REC_WORD	9.618	n/a	STAND	-999	2	[0, 0, 0]	n/a	FR1	0	R1368T
592.818	4.746	593453	REC_END	n/a	n/a	n/a	-999	2	[0, 0, 0]	n/a	FR1	0	R1368T
597.564	10.429	598217	COUNTDOWN_START	n/a	n/a	n/a	-999	3	[0, 0, 0]	n/a	FR1	0	R1368T
607.993	1.207	608612	COUNTDOWN_END	n/a	n/a	n/a	-999	3	[0, 0, 0]	n/a	FR1	0	R1368T
609.2	1.077	609827	ENCODING_START	n/a	n/a	n/a	-999	3	[0, 0, 0]	n/a	FR1	0	R1368T
610.277	1.622	610903	WORD	n/a	n/a	CASH	1	3	[0, 0, 0]	n/a	FR1	0	R1368T
611.899	1.065	612510	WORD_OFF	n/a	n/a	CASH	1	3	[0, 0, 0]	n/a	FR1	0	R1368T
612.964	1.636	613600	WORD	n/a	n/a	PASTE	2	3	[0, 0, 0]	n/a	FR1	0	R1368T
614.6	0.952	615221	WORD_OFF	n/a	n/a	PASTE	2	3	[0, 0, 0]	n/a	FR1	0	R1368T
615.552	1.632	616185	WORD	n/a	n/a	WEED	3	3	[0, 0, 0]	n/a	FR1	0	R1368T
617.184	1.052	617805	WORD_OFF	n/a	n/a	WEED	3	3	[0, 0, 0]	n/a	FR1	0	R1368T
618.236	1.632	618867	WORD	n/a	n/a	CLOUD	4	3	[0, 0, 0]	n/a	FR1	0	R1368T
619.868	1.125	620488	WORD_OFF	n/a	n/a	CLOUD	4	3	[0, 0, 0]	n/a	FR1	0	R1368T
620.993	1.625	621620	WORD	n/a	n/a	FISH	5	3	[0, 0, 0]	n/a	FR1	0	R1368T
622.618	0.808	623240	WORD_OFF	n/a	n/a	FISH	5	3	[0, 0, 0]	n/a	FR1	0	R1368T
623.426	1.626	624051	WORD	n/a	n/a	HOUSE	6	3	[0, 0, 0]	n/a	FR1	0	R1368T
625.052	1.055	625672	WORD_OFF	n/a	n/a	HOUSE	6	3	[0, 0, 0]	n/a	FR1	0	R1368T
626.107	1.629	626733	WORD	n/a	n/a	CHEEK	7	3	[0, 0, 0]	n/a	FR1	0	R1368T
627.736	1.131	628354	WORD_OFF	n/a	n/a	CHEEK	7	3	[0, 0, 0]	n/a	FR1	0	R1368T
628.867	1.636	629500	WORD	n/a	n/a	BRICK	8	3	[0, 0, 0]	n/a	FR1	0	R1368T
630.503	0.963	631121	WORD_OFF	n/a	n/a	BRICK	8	3	[0, 0, 0]	n/a	FR1	0	R1368T
631.466	1.637	632099	WORD	n/a	n/a	STOOL	9	3	[0, 0, 0]	n/a	FR1	0	R1368T
633.103	0.946	633719	WORD_OFF	n/a	n/a	STOOL	9	3	[0, 0, 0]	n/a	FR1	0	R1368T
634.049	1.621	634669	WORD	n/a	n/a	PET	10	3	[0, 0, 0]	n/a	FR1	0	R1368T
635.67	0.762	636290	WORD_OFF	n/a	n/a	PET	10	3	[0, 0, 0]	n/a	FR1	0	R1368T
636.432	1.622	637059	WORD	n/a	n/a	SEAT	11	3	[0, 0, 0]	n/a	FR1	0	R1368T
638.054	0.86	638665	WORD_OFF	n/a	n/a	SEAT	11	3	[0, 0, 0]	n/a	FR1	0	R1368T
638.914	1.624	639532	WORD	n/a	n/a	TRASH	12	3	[0, 0, 0]	n/a	FR1	0	R1368T
640.538	0.0	641166	WORD_OFF	n/a	n/a	TRASH	12	3	[0, 0, 0]	n/a	FR1	0	R1368T
640.538	0.001	641166	ENCODING_END	n/a	n/a	n/a	-999	3	[0, 0, 0]	n/a	FR1	0	R1368T
640.539	0.0	641173	START	n/a	n/a	n/a	-999	3	[-999, -999, -999]	n/a	FR1	0	R1368T
640.539	0.015	641180	DISTRACT_START	n/a	n/a	n/a	-999	3	[0, 0, 0]	n/a	FR1	0	R1368T
640.554	10.102	641188	PROB	10.102	n/a	n/a	-999	3	[4, 3, 1]	8	FR1	0	R1368T
650.656	6.501	651289	PROB	6.501	n/a	n/a	-999	3	[5, 4, 5]	14	FR1	0	R1368T
657.157	4.718	657790	PROB	4.718	n/a	n/a	-999	3	[3, 5, 5]	13	FR1	0	R1368T
661.875	0.0	662487	DISTRACT_END	n/a	n/a	n/a	-999	3	[0, 0, 0]	n/a	FR1	0	R1368T
661.859	2.384	662492	STOP	n/a	n/a	n/a	-999	3	[-999, -999, -999]	n/a	FR1	0	R1368T
664.243	2.599	664862	REC_START	n/a	n/a	n/a	-999	3	[0, 0, 0]	n/a	FR1	0	R1368T
666.842	5.607	667475	REC_WORD_VV	5.607	n/a	<>	-999	3	[0, 0, 0]	n/a	FR1	0	R1368T
672.449	2.657	673081	REC_WORD_VV	2.657	n/a	<>	-999	3	[0, 0, 0]	n/a	FR1	0	R1368T
675.106	7.809	675738	REC_WORD	7.809	n/a	COUCH	-999	3	[0, 0, 0]	n/a	FR1	0	R1368T
682.915	6.732	683547	REC_WORD	6.732	n/a	STAND	-999	3	[0, 0, 0]	n/a	FR1	0	R1368T
689.647	2.024	690278	REC_WORD	2.024	n/a	CHEEK	7	3	[0, 0, 0]	n/a	FR1	0	R1368T
691.671	2.583	692302	REC_WORD	2.583	n/a	BRICK	8	3	[0, 0, 0]	n/a	FR1	0	R1368T
694.254	5.545	694888	REC_END	n/a	n/a	n/a	-999	3	[0, 0, 0]	n/a	FR1	0	R1368T
699.799	10.429	700449	COUNTDOWN_START	n/a	n/a	n/a	-999	4	[0, 0, 0]	n/a	FR1	0	R1368T
710.228	1.24	710844	COUNTDOWN_END	n/a	n/a	n/a	-999	4	[0, 0, 0]	n/a	FR1	0	R1368T
711.468	0.923	712087	ENCODING_START	n/a	n/a	n/a	-999	4	[0, 0, 0]	n/a	FR1	0	R1368T
712.391	1.627	713009	WORD	n/a	n/a	SNOW	1	4	[0, 0, 0]	n/a	FR1	0	R1368T
714.018	0.926	714630	WORD_OFF	n/a	n/a	SNOW	1	4	[0, 0, 0]	n/a	FR1	0	R1368T
714.944	1.624	715566	WORD	n/a	n/a	GUARD	2	4	[0, 0, 0]	n/a	FR1	0	R1368T
716.568	0.802	717187	WORD_OFF	n/a	n/a	GUARD	2	4	[0, 0, 0]	n/a	FR1	0	R1368T
717.37	1.632	717997	WORD	n/a	n/a	DEER	3	4	[0, 0, 0]	n/a	FR1	0	R1368T
719.002	1.005	719618	WORD_OFF	n/a	n/a	DEER	3	4	[0, 0, 0]	n/a	FR1	0	R1368T
720.007	1.629	720638	WORD	n/a	n/a	MOLE	4	4	[0, 0, 0]	n/a	FR1	0	R1368T
721.636	1.038	722245	WORD_OFF	n/a	n/a	MOLE	4	4	[0, 0, 0]	n/a	FR1	0	R1368T
722.674	1.629	723293	WORD	n/a	n/a	SKY	5	4	[0, 0, 0]	n/a	FR1	0	R1368T
724.303	1.105	724913	WORD_OFF	n/a	n/a	SKY	5	4	[0, 0, 0]	n/a	FR1	0	R1368T
725.408	1.629	726031	WORD	n/a	n/a	HEART	6	4	[0, 0, 0]	n/a	FR1	0	R1368T
727.037	1.083	727652	WORD_OFF	n/a	n/a	HEART	6	4	[0, 0, 0]	n/a	FR1	0	R1368T
728.12	1.634	728742	WORD	n/a	n/a	STOVE	7	4	[0, 0, 0]	n/a	FR1	0	R1368T
729.754	0.752	730362	WORD_OFF	n/a	n/a	STOVE	7	4	[0, 0, 0]	n/a	FR1	0	R1368T
730.506	1.632	731131	WORD	n/a	n/a	ROOT	8	4	[0, 0, 0]	n/a	FR1	0	R1368T
732.138	0.966	732752	WORD_OFF	n/a	n/a	ROOT	8	4	[0, 0, 0]	n/a	FR1	0	R1368T
733.104	1.634	733730	WORD	n/a	n/a	EAR	9	4	[0, 0, 0]	n/a	FR1	0	R1368T
734.738	0.988	735350	WORD_OFF	n/a	n/a	EAR	9	4	[0, 0, 0]	n/a	FR1	0	R1368T
735.726	1.63	736356	WORD	n/a	n/a	DART	10	4	[0, 0, 0]	n/a	FR1	0	R1368T
737.356	0.959	737963	WORD_OFF	n/a	n/a	DART	10	4	[0, 0, 0]	n/a	FR1	0	R1368T
738.315	1.624	738927	WORD	n/a	n/a	TEA	11	4	[0, 0, 0]	n/a	FR1	0	R1368T
739.939	0.753	740548	WORD_OFF	n/a	n/a	TEA	11	4	[0, 0, 0]	n/a	FR1	0	R1368T
740.692	1.631	741316	WORD	n/a	n/a	BOX	12	4	[0, 0, 0]	n/a	FR1	0	R1368T
742.323	0.001	742951	WORD_OFF	n/a	n/a	BOX	12	4	[0, 0, 0]	n/a	FR1	0	R1368T
742.324	0.0	742951	ENCODING_END	n/a	n/a	n/a	-999	4	[0, 0, 0]	n/a	FR1	0	R1368T
742.324	0.0	742951	DISTRACT_START	n/a	n/a	n/a	-999	4	[0, 0, 0]	n/a	FR1	0	R1368T
742.324	0.016	742953	START	n/a	n/a	n/a	-999	4	[-999, -999, -999]	n/a	FR1	0	R1368T
742.34	16.619	742969	PROB	16.619	n/a	n/a	-999	4	[8, 3, 9]	20	FR1	0	R1368T
758.959	8.148	759587	PROB	8.148	n/a	n/a	-999	4	[1, 7, 9]	17	FR1	0	R1368T
767.107	0.02	767734	STOP	n/a	n/a	n/a	-999	4	[-999, -999, -999]	n/a	FR1	0	R1368T
767.127	2.401	767737	DISTRACT_END	n/a	n/a	n/a	-999	4	[0, 0, 0]	n/a	FR1	0	R1368T
769.528	6.218	770140	REC_START	n/a	n/a	n/a	-999	4	[0, 0, 0]	n/a	FR1	0	R1368T
775.746	7.809	776373	REC_WORD	7.809	n/a	TEA	11	4	[0, 0, 0]	n/a	FR1	0	R1368T
783.555	9.891	784182	REC_WORD	9.891	n/a	PAY	-999	4	[0, 0, 0]	n/a	FR1	0	R1368T
793.446	5.281	794072	REC_WORD	5.281	n/a	MONEY	-999	4	[0, 0, 0]	n/a	FR1	0	R1368T
798.727	0.813	799353	REC_WORD	0.813	n/a	CHANGE	-999	4	[0, 0, 0]	n/a	FR1	0	R1368T
799.54	4.862	800166	REC_END	n/a	n/a	n/a	-999	4	[0, 0, 0]	n/a	FR1	0	R1368T
804.402	10.428	805042	COUNTDOWN_START	n/a	n/a	n/a	-999	5	[0, 0, 0]	n/a	FR1	0	R1368T
814.83	1.207	815437	COUNTDOWN_END	n/a	n/a	n/a	-999	5	[0, 0, 0]	n/a	FR1	0	R1368T
816.037	0.972	816652	ENCODING_START	n/a	n/a	n/a	-999	5	[0, 0, 0]	n/a	FR1	0	R1368T
817.009	1.628	817630	WORD	n/a	n/a	PANTS	1	5	[0, 0, 0]	n/a	FR1	0	R1368T
818.637	1.056	819251	WORD_OFF	n/a	n/a	PANTS	1	5	[0, 0, 0]	n/a	FR1	0	R1368T
819.693	1.628	820313	WORD	n/a	n/a	STEAM	2	5	[0, 0, 0]	n/a	FR1	0	R1368T
821.321	0.868	821934	WORD_OFF	n/a	n/a	STEAM	2	5	[0, 0, 0]	n/a	FR1	0	R1368T
822.189	1.632	822814	WORD	n/a	n/a	FRUIT	3	5	[0, 0, 0]	n/a	FR1	0	R1368T
823.821	0.996	824435	WORD_OFF	n/a	n/a	FRUIT	3	5	[0, 0, 0]	n/a	FR1	0	R1368T
824.817	1.638	825441	WORD	n/a	n/a	WHEEL	4	5	[0, 0, 0]	n/a	FR1	0	R1368T
826.455	0.878	827061	WORD_OFF	n/a	n/a	WHEEL	4	5	[0, 0, 0]	n/a	FR1	0	R1368T
827.333	1.622	827942	WORD	n/a	n/a	PEACH	5	5	[0, 0, 0]	n/a	FR1	0	R1368T
828.955	0.803	829562	WORD_OFF	n/a	n/a	PEACH	5	5	[0, 0, 0]	n/a	FR1	0	R1368T
829.758	1.631	830373	WORD	n/a	n/a	FROG	6	5	[0, 0, 0]	n/a	FR1	0	R1368T
831.389	0.983	831993	WORD_OFF	n/a	n/a	FROG	6	5	[0, 0, 0]	n/a	FR1	0	R1368T
832.372	1.634	832999	WORD	n/a	n/a	CLIFF	7	5	[0, 0, 0]	n/a	FR1	0	R1368T
834.006	1.098	834606	WORD_OFF	n/a	n/a	CLIFF	7	5	[0, 0, 0]	n/a	FR1	0	R1368T
835.104	1.636	835724	WORD	n/a	n/a	BARN	8	5	[0, 0, 0]	n/a	FR1	0	R1368T
836.74	0.969	837345	WORD_OFF	n/a	n/a	BARN	8	5	[0, 0, 0]	n/a	FR1	0	R1368T
837.709	1.632	838323	WORD	n/a	n/a	FOOD	9	5	[0, 0, 0]	n/a	FR1	0	R1368T
839.341	0.815	839943	WORD_OFF	n/a	n/a	FOOD	9	5	[0, 0, 0]	n/a	FR1	0	R1368T
840.156	1.635	840782	WORD	n/a	n/a	FAN	10	5	[0, 0, 0]	n/a	FR1	0	R1368T
841.791	1.084	842402	WORD_OFF	n/a	n/a	FAN	10	5	[0, 0, 0]	n/a	FR1	0	R1368T
842.875	1.633	843492	WORD	n/a	n/a	ROPE	11	5	[0, 0, 0]	n/a	FR1	0	R1368T
844.508	0.989	845113	WORD_OFF	n/a	n/a	ROPE	11	5	[0, 0, 0]	n/a	FR1	0	R1368T
845.497	1.629	846119	WORD	n/a	n/a	MAP	12	5	[0, 0, 0]	n/a	FR1	0	R1368T
847.126	0.0	847749	START	n/a	n/a	n/a	-999	5	[-999, -999, -999]	n/a	FR1	0	R1368T
847.125	0.001	847754	WORD_OFF	n/a	n/a	MAP	12	5	[0, 0, 0]	n/a	FR1	0	R1368T
847.126	0.0	847754	ENCODING_END	n/a	n/a	n/a	-999	5	[0, 0, 0]	n/a	FR1	0	R1368T
847.126	0.016	847754	DISTRACT_START	n/a	n/a	n/a	-999	5	[0, 0, 0]	n/a	FR1	0	R1368T
847.142	8.018	847765	PROB	8.018	n/a	n/a	-999	5	[5, 9, 1]	15	FR1	0	R1368T
855.16	8.402	855783	PROB	8.402	n/a	n/a	-999	5	[9, 4, 1]	14	FR1	0	R1368T
863.562	16.132	864184	PROB	16.132	n/a	n/a	-999	5	[8, 6, 9]	23	FR1	0	R1368T
879.694	0.02	880316	STOP	n/a	n/a	n/a	-999	5	[-999, -999, -999]	n/a	FR1	0	R1368T
879.714	2.168	880322	DISTRACT_END	n/a	n/a	n/a	-999	5	[0, 0, 0]	n/a	FR1	0	R1368T
881.882	5.661	882501	REC_START	n/a	n/a	n/a	-999	5	[0, 0, 0]	n/a	FR1	0	R1368T
887.543	9.852	888164	REC_WORD_VV	9.852	n/a	<>	-999	5	[0, 0, 0]	n/a	FR1	0	R1368T
897.395	1.0	898016	REC_WORD_VV	1.0	n/a	<>	-999	5	[0, 0, 0]	n/a	FR1	0	R1368T
898.395	1.0	899016	REC_WORD_VV	1.0	n/a	<>	-999	5	[0, 0, 0]	n/a	FR1	0	R1368T
899.395	12.497	900016	REC_WORD_VV	12.497	n/a	<>	-999	5	[0, 0, 0]	n/a	FR1	0	R1368T
911.892	5.13	912513	REC_END	n/a	n/a	n/a	-999	5	[0, 0, 0]	n/a	FR1	0	R1368T
917.022	10.429	917655	COUNTDOWN_START	n/a	n/a	n/a	-999	6	[0, 0, 0]	n/a	FR1	0	R1368T
927.451	1.14	928064	COUNTDOWN_END	n/a	n/a	n/a	-999	6	[0, 0, 0]	n/a	FR1	0	R1368T
928.591	1.134	929195	ENCODING_START	n/a	n/a	n/a	-999	6	[0, 0, 0]	n/a	FR1	0	R1368T
929.725	1.632	930341	WORD	n/a	n/a	WOLF	1	6	[0, 0, 0]	n/a	FR1	0	R1368T
931.357	1.137	931962	WORD_OFF	n/a	n/a	WOLF	1	6	[0, 0, 0]	n/a	FR1	0	R1368T
932.494	1.614	933107	WORD	n/a	n/a	COIN	2	6	[0, 0, 0]	n/a	FR1	0	R1368T
934.108	0.884	934714	WORD_OFF	n/a	n/a	COIN	2	6	[0, 0, 0]	n/a	FR1	0	R1368T
934.992	1.633	935608	WORD	n/a	n/a	FLEA	3	6	[0, 0, 0]	n/a	FR1	0	R1368T
936.625	0.899	937229	WORD_OFF	n/a	n/a	FLEA	3	6	[0, 0, 0]	n/a	FR1	0	R1368T
937.524	1.635	938137	WORD	n/a	n/a	STORE	4	6	[0, 0, 0]	n/a	FR1	0	R1368T
939.159	0.817	939758	WORD_OFF	n/a	n/a	STORE	4	6	[0, 0, 0]	n/a	FR1	0	R1368T
939.976	1.633	940596	WORD	n/a	n/a	BIRD	5	6	[0, 0, 0]	n/a	FR1	0	R1368T
941.609	1.007	942203	WORD_OFF	n/a	n/a	BIRD	5	6	[0, 0, 0]	n/a	FR1	0	R1368T
942.616	1.627	943223	WORD	n/a	n/a	FOX	6	6	[0, 0, 0]	n/a	FR1	0	R1368T
944.243	1.042	944844	WORD_OFF	n/a	n/a	FOX	6	6	[0, 0, 0]	n/a	FR1	0	R1368T
945.285	1.625	945892	WORD	n/a	n/a	GRASS	7	6	[0, 0, 0]	n/a	FR1	0	R1368T
946.91	1.041	947512	WORD_OFF	n/a	n/a	GRASS	7	6	[0, 0, 0]	n/a	FR1	0	R1368T
947.951	1.626	948560	WORD	n/a	n/a	SLUSH	8	6	[0, 0, 0]	n/a	FR1	0	R1368T
949.577	1.052	950181	WORD_OFF	n/a	n/a	SLUSH	8	6	[0, 0, 0]	n/a	FR1	0	R1368T
950.629	1.632	951243	WORD	n/a	n/a	JET	9	6	[0, 0, 0]	n/a	FR1	0	R1368T
952.261	0.978	952864	WORD_OFF	n/a	n/a	JET	9	6	[0, 0, 0]	n/a	FR1	0	R1368T
953.239	1.623	953842	WORD	n/a	n/a	POLE	10	6	[0, 0, 0]	n/a	FR1	0	R1368T
954.862	0.762	955462	WORD_OFF	n/a	n/a	POLE	10	6	[0, 0, 0]	n/a	FR1	0	R1368T
955.624	1.621	956231	WORD	n/a	n/a	APE	11	6	[0, 0, 0]	n/a	FR1	0	R1368T
957.245	0.753	957852	WORD_OFF	n/a	n/a	APE	11	6	[0, 0, 0]	n/a	FR1	0	R1368T
957.998	1.631	958606	WORD	n/a	n/a	HOSE	12	6	[0, 0, 0]	n/a	FR1	0	R1368T
959.629	0.0	960241	WORD_OFF	n/a	n/a	HOSE	12	6	[0, 0, 0]	n/a	FR1	0	R1368T
959.629	0.001	960241	ENCODING_END	n/a	n/a	n/a	-999	6	[0, 0, 0]	n/a	FR1	0	R1368T
959.63	0.0	960247	START	n/a	n/a	n/a	-999	6	[-999, -999, -999]	n/a	FR1	0	R1368T
959.63	0.016	960255	DISTRACT_START	n/a	n/a	n/a	-999	6	[0, 0, 0]	n/a	FR1	0	R1368T
959.646	14.719	960263	PROB	14.719	n/a	n/a	-999	6	[8, 4, 6]	18	FR1	0	R1368T
974.365	12.386	974982	PROB	12.386	n/a	n/a	-999	6	[4, 6, 8]	18	FR1	0	R1368T
986.751	0.0	987346	DISTRACT_END	n/a	n/a	n/a	-999	6	[0, 0, 0]	n/a	FR1	0	R1368T
986.742	2.243	987358	STOP	n/a	n/a	n/a	-999	6	[-999, -999, -999]	n/a	FR1	0	R1368T
988.985	1.954	989595	REC_START	n/a	n/a	n/a	-999	6	[0, 0, 0]	n/a	FR1	0	R1368T
990.939	0.694	991555	REC_WORD	0.694	n/a	WOLF	1	6	[0, 0, 0]	n/a	FR1	0	R1368T
991.633	0.774	992249	REC_WORD	0.774	n/a	FLEA	3	6	[0, 0, 0]	n/a	FR1	0	R1368T
992.407	6.316	993023	REC_WORD	6.316	n/a	BIRD	5	6	[0, 0, 0]	n/a	FR1	0	R1368T
998.723	0.591	999338	REC_WORD_VV	0.591	n/a	<>	-999	6	[0, 0, 0]	n/a	FR1	0	R1368T
999.314	12.628	999929	REC_WORD	12.628	n/a	APE	11	6	[0, 0, 0]	n/a	FR1	0	R1368T
1011.942	7.052	1012557	REC_WORD_VV	7.052	n/a	<>	-999	6	[0, 0, 0]	n/a	FR1	0	R1368T
1018.994	6.414	1019607	REC_END	n/a	n/a	n/a	-999	6	[0, 0, 0]	n/a	FR1	0	R1368T
1025.408	10.429	1026034	COUNTDOWN_START	n/a	n/a	n/a	-999	7	[0, 0, 0]	n/a	FR1	0	R1368T
1035.837	1.14	1036443	COUNTDOWN_END	n/a	n/a	n/a	-999	7	[0, 0, 0]	n/a	FR1	0	R1368T
1036.977	0.863	1037575	ENCODING_START	n/a	n/a	n/a	-999	7	[0, 0, 0]	n/a	FR1	0	R1368T
1037.84	1.637	1038455	WORD	n/a	n/a	JAIL	1	7	[0, 0, 0]	n/a	FR1	0	R1368T
1039.477	0.788	1040076	WORD_OFF	n/a	n/a	JAIL	1	7	[0, 0, 0]	n/a	FR1	0	R1368T
1040.265	1.629	1040872	WORD	n/a	n/a	NET	2	7	[0, 0, 0]	n/a	FR1	0	R1368T
1041.894	0.922	1042493	WORD_OFF	n/a	n/a	NET	2	7	[0, 0, 0]	n/a	FR1	0	R1368T
1042.816	1.628	1043429	WORD	n/a	n/a	SEA	3	7	[0, 0, 0]	n/a	FR1	0	R1368T
1044.444	0.787	1045036	WORD_OFF	n/a	n/a	SEA	3	7	[0, 0, 0]	n/a	FR1	0	R1368T
1045.231	1.631	1045846	WORD	n/a	n/a	ROOM	4	7	[0, 0, 0]	n/a	FR1	0	R1368T
1046.862	1.009	1047453	WORD_OFF	n/a	n/a	ROOM	4	7	[0, 0, 0]	n/a	FR1	0	R1368T
1047.871	1.624	1048473	WORD	n/a	n/a	LEAF	5	7	[0, 0, 0]	n/a	FR1	0	R1368T
1049.495	0.819	1050093	WORD_OFF	n/a	n/a	LEAF	5	7	[0, 0, 0]	n/a	FR1	0	R1368T
1050.314	1.632	1050918	WORD	n/a	n/a	SLIME	6	7	[0, 0, 0]	n/a	FR1	0	R1368T
1051.946	0.937	1052538	WORD_OFF	n/a	n/a	SLIME	6	7	[0, 0, 0]	n/a	FR1	0	R1368T
1052.883	1.63	1053489	WORD	n/a	n/a	CAKE	7	7	[0, 0, 0]	n/a	FR1	0	R1368T
1054.513	0.793	1055109	WORD_OFF	n/a	n/a	CAKE	7	7	[0, 0, 0]	n/a	FR1	0	R1368T
1055.306	1.624	1055906	WORD	n/a	n/a	BREAD	8	7	[0, 0, 0]	n/a	FR1	0	R1368T
1056.93	1.006	1057526	WORD_OFF	n/a	n/a	BREAD	8	7	[0, 0, 0]	n/a	FR1	0	R1368T
1057.936	1.628	1058546	WORD	n/a	n/a	FENCE	9	7	[0, 0, 0]	n/a	FR1	0	R1368T
1059.564	1.054	1060153	WORD_OFF	n/a	n/a	FENCE	9	7	[0, 0, 0]	n/a	FR1	0	R1368T
1060.618	1.63	1061229	WORD	n/a	n/a	FLAG	10	7	[0, 0, 0]	n/a	FR1	0	R1368T
1062.248	0.952	1062836	WORD_OFF	n/a	n/a	FLAG	10	7	[0, 0, 0]	n/a	FR1	0	R1368T
1063.2	1.631	1063814	WORD	n/a	n/a	MAT	11	7	[0, 0, 0]	n/a	FR1	0	R1368T
1064.831	0.859	1065421	WORD_OFF	n/a	n/a	MAT	11	7	[0, 0, 0]	n/a	FR1	0	R1368T
1065.69	1.627	1066287	WORD	n/a	n/a	MOUSE	12	7	[0, 0, 0]	n/a	FR1	0	R1368T
1067.317	0.0	1067929	START	n/a	n/a	n/a	-999	7	[-999, -999, -999]	n/a	FR1	0	R1368T
1067.315	0.001	1067935	WORD_OFF	n/a	n/a	MOUSE	12	7	[0, 0, 0]	n/a	FR1	0	R1368T
1067.316	0.001	1067935	ENCODING_END	n/a	n/a	n/a	-999	7	[0, 0, 0]	n/a	FR1	0	R1368T
1067.317	0.015	1067935	DISTRACT_START	n/a	n/a	n/a	-999	7	[0, 0, 0]	n/a	FR1	0	R1368T
1067.332	8.968	1067944	PROB	8.968	n/a	n/a	-999	7	[2, 1, 9]	12	FR1	0	R1368T
1076.3	5.935	1076911	PROB	5.935	n/a	n/a	-999	7	[8, 8, 1]	17	FR1	0	R1368T
1082.235	8.635	1082846	PROB	8.635	n/a	n/a	-999	7	[6, 8, 6]	20	FR1	0	R1368T
1090.87	0.0	1091464	DISTRACT_END	n/a	n/a	n/a	-999	7	[0, 0, 0]	n/a	FR1	0	R1368T
1090.859	2.278	1091470	STOP	n/a	n/a	n/a	-999	7	[-999, -999, -999]	n/a	FR1	0	R1368T
1093.137	4.318	1093741	REC_START	n/a	n/a	n/a	-999	7	[0, 0, 0]	n/a	FR1	0	R1368T
1097.455	1.0	1098065	REC_WORD_VV	1.0	n/a	<>	-999	7	[0, 0, 0]	n/a	FR1	0	R1368T
1098.455	24.692	1099065	REC_WORD_VV	24.692	n/a	<>	-999	7	[0, 0, 0]	n/a	FR1	0	R1368T
1123.147	4.38	1123753	REC_END	n/a	n/a	n/a	-999	7	[0, 0, 0]	n/a	FR1	0	R1368T
1127.527	10.428	1128154	COUNTDOWN_START	n/a	n/a	n/a	-999	8	[0, 0, 0]	n/a	FR1	0	R1368T
1137.955	1.157	1138549	COUNTDOWN_END	n/a	n/a	n/a	-999	8	[0, 0, 0]	n/a	FR1	0	R1368T
1139.112	0.779	1139709	ENCODING_START	n/a	n/a	n/a	-999	8	[0, 0, 0]	n/a	FR1	0	R1368T
1139.891	1.638	1140505	WORD	n/a	n/a	WAND	1	8	[0, 0, 0]	n/a	FR1	0	R1368T
1141.529	0.783	1142126	WORD_OFF	n/a	n/a	WAND	1	8	[0, 0, 0]	n/a	FR1	0	R1368T
1142.312	1.634	1142922	WORD	n/a	n/a	SMOKE	2	8	[0, 0, 0]	n/a	FR1	0	R1368T
1143.946	1.038	1144543	WORD_OFF	n/a	n/a	SMOKE	2	8	[0, 0, 0]	n/a	FR1	0	R1368T
1144.984	1.629	1145591	WORD	n/a	n/a	BOWL	3	8	[0, 0, 0]	n/a	FR1	0	R1368T
1146.613	0.766	1147198	WORD_OFF	n/a	n/a	BOWL	3	8	[0, 0, 0]	n/a	FR1	0	R1368T
1147.379	1.634	1147980	WORD	n/a	n/a	SIGN	4	8	[0, 0, 0]	n/a	FR1	0	R1368T
1149.013	0.909	1149601	WORD_OFF	n/a	n/a	SIGN	4	8	[0, 0, 0]	n/a	FR1	0	R1368T
1149.922	1.625	1150523	WORD	n/a	n/a	FOG	5	8	[0, 0, 0]	n/a	FR1	0	R1368T
1151.547	1.032	1152144	WORD_OFF	n/a	n/a	FOG	5	8	[0, 0, 0]	n/a	FR1	0	R1368T
1152.579	1.635	1153191	WORD	n/a	n/a	PURSE	6	8	[0, 0, 0]	n/a	FR1	0	R1368T
1154.214	0.791	1154798	WORD_OFF	n/a	n/a	PURSE	6	8	[0, 0, 0]	n/a	FR1	0	R1368T
1155.005	1.626	1155609	WORD	n/a	n/a	MOTH	7	8	[0, 0, 0]	n/a	FR1	0	R1368T
1156.631	1.042	1157215	WORD_OFF	n/a	n/a	MOTH	7	8	[0, 0, 0]	n/a	FR1	0	R1368T
1157.673	1.626	1158277	WORD	n/a	n/a	LAKE	8	8	[0, 0, 0]	n/a	FR1	0	R1368T
1159.299	0.858	1159884	WORD_OFF	n/a	n/a	LAKE	8	8	[0, 0, 0]	n/a	FR1	0	R1368T
1160.157	1.625	1160750	WORD	n/a	n/a	DOOR	9	8	[0, 0, 0]	n/a	FR1	0	R1368T
1161.782	1.022	1162371	WORD_OFF	n/a	n/a	DOOR	9	8	[0, 0, 0]	n/a	FR1	0	R1368T
1162.804	1.629	1163405	WORD	n/a	n/a	CLOTH	10	8	[0, 0, 0]	n/a	FR1	0	R1368T
1164.433	1.018	1165026	WORD_OFF	n/a	n/a	CLOTH	10	8	[0, 0, 0]	n/a	FR1	0	R1368T
1165.451	1.632	1166060	WORD	n/a	n/a	DESK	11	8	[0, 0, 0]	n/a	FR1	0	R1368T
1167.083	1.018	1167666	WORD_OFF	n/a	n/a	DESK	11	8	[0, 0, 0]	n/a	FR1	0	R1368T
1168.101	1.633	1168700	WORD	n/a	n/a	POND	12	8	[0, 0, 0]	n/a	FR1	0	R1368T
1169.734	0.0	1170335	WORD_OFF	n/a	n/a	POND	12	8	[0, 0, 0]	n/a	FR1	0	R1368T
1169.734	0.001	1170335	ENCODING_END	n/a	n/a	n/a	-999	8	[0, 0, 0]	n/a	FR1	0	R1368T
1169.735	0.0	1170342	START	n/a	n/a	n/a	-999	8	[-999, -999, -999]	n/a	FR1	0	R1368T
1169.735	0.015	1170349	DISTRACT_START	n/a	n/a	n/a	-999	8	[0, 0, 0]	n/a	FR1	0	R1368T
1169.75	15.703	1170357	PROB	15.703	n/a	n/a	-999	8	[2, 1, 4]	7	FR1	0	R1368T
1185.453	6.602	1186059	PROB	6.602	n/a	n/a	-999	8	[4, 4, 8]	16	FR1	0	R1368T
1192.055	0.0	1192648	DISTRACT_END	n/a	n/a	n/a	-999	8	[0, 0, 0]	n/a	FR1	0	R1368T
1192.044	2.078	1192649	STOP	n/a	n/a	n/a	-999	8	[-999, -999, -999]	n/a	FR1	0	R1368T
1194.122	3.4	1194716	REC_START	n/a	n/a	n/a	-999	8	[0, 0, 0]	n/a	FR1	0	R1368T
1197.522	1.315	1198127	REC_WORD_VV	1.315	n/a	<>	-999	8	[0, 0, 0]	n/a	FR1	0	R1368T
1198.837	3.713	1199442	REC_WORD	3.713	n/a	WAND	1	8	[0, 0, 0]	n/a	FR1	0	R1368T
1202.55	2.616	1203155	REC_WORD	2.616	n/a	SMOKE	2	8	[0, 0, 0]	n/a	FR1	0	R1368T
1205.166	18.3	1205771	REC_WORD	18.3	n/a	FOG	5	8	[0, 0, 0]	n/a	FR1	0	R1368T
1223.466	0.665	1224070	REC_WORD_VV	0.665	n/a	<>	-999	8	[0, 0, 0]	n/a	FR1	0	R1368T
1224.131	3.497	1224741	REC_END	n/a	n/a	n/a	-999	8	[0, 0, 0]	n/a	FR1	0	R1368T
1227.628	10.429	1228248	COUNTDOWN_START	n/a	n/a	n/a	-999	9	[0, 0, 0]	n/a	FR1	0	R1368T
1238.057	1.024	1238643	COUNTDOWN_END	n/a	n/a	n/a	-999	9	[0, 0, 0]	n/a	FR1	0	R1368T
1239.081	1.089	1239663	ENCODING_START	n/a	n/a	n/a	-999	9	[0, 0, 0]	n/a	FR1	0	R1368T
1240.17	1.627	1240767	WORD	n/a	n/a	COW	1	9	[0, 0, 0]	n/a	FR1	0	R1368T
1241.797	1.051	1242388	WORD_OFF	n/a	n/a	COW	1	9	[0, 0, 0]	n/a	FR1	0	R1368T
1242.848	1.633	1243449	WORD	n/a	n/a	PIPE	2	9	[0, 0, 0]	n/a	FR1	0	R1368T
1244.481	1.097	1245070	WORD_OFF	n/a	n/a	PIPE	2	9	[0, 0, 0]	n/a	FR1	0	R1368T
1245.578	1.637	1246188	WORD	n/a	n/a	CONE	3	9	[0, 0, 0]	n/a	FR1	0	R1368T
1247.215	0.967	1247795	WORD_OFF	n/a	n/a	CONE	3	9	[0, 0, 0]	n/a	FR1	0	R1368T
1248.182	1.633	1248787	WORD	n/a	n/a	MOUTH	4	9	[0, 0, 0]	n/a	FR1	0	R1368T
1249.815	1.084	1250393	WORD_OFF	n/a	n/a	MOUTH	4	9	[0, 0, 0]	n/a	FR1	0	R1368T
1250.899	1.633	1251497	WORD	n/a	n/a	STORM	5	9	[0, 0, 0]	n/a	FR1	0	R1368T
1252.532	0.758	1253118	WORD_OFF	n/a	n/a	STORM	5	9	[0, 0, 0]	n/a	FR1	0	R1368T
1253.29	1.626	1253886	WORD	n/a	n/a	STRING	6	9	[0, 0, 0]	n/a	FR1	0	R1368T
1254.916	1.088	1255507	WORD_OFF	n/a	n/a	STRING	6	9	[0, 0, 0]	n/a	FR1	0	R1368T
1256.004	1.629	1256597	WORD	n/a	n/a	PARK	7	9	[0, 0, 0]	n/a	FR1	0	R1368T
1257.633	0.809	1258218	WORD_OFF	n/a	n/a	PARK	7	9	[0, 0, 0]	n/a	FR1	0	R1368T
1258.442	1.625	1259028	WORD	n/a	n/a	WORM	8	9	[0, 0, 0]	n/a	FR1	0	R1368T
1260.067	0.901	1260649	WORD_OFF	n/a	n/a	WORM	8	9	[0, 0, 0]	n/a	FR1	0	R1368T
1260.968	1.633	1261571	WORD	n/a	n/a	EEL	9	9	[0, 0, 0]	n/a	FR1	0	R1368T
1262.601	0.922	1263178	WORD_OFF	n/a	n/a	EEL	9	9	[0, 0, 0]	n/a	FR1	0	R1368T
1263.523	1.628	1264114	WORD	n/a	n/a	WALL	10	9	[0, 0, 0]	n/a	FR1	0	R1368T
1265.151	0.827	1265734	WORD_OFF	n/a	n/a	WALL	10	9	[0, 0, 0]	n/a	FR1	0	R1368T
1265.978	1.624	1266573	WORD	n/a	n/a	CHALK	11	9	[0, 0, 0]	n/a	FR1	0	R1368T
1267.602	0.883	1268180	WORD_OFF	n/a	n/a	CHALK	11	9	[0, 0, 0]	n/a	FR1	0	R1368T
1268.485	1.635	1269088	WORD	n/a	n/a	PALM	12	9	[0, 0, 0]	n/a	FR1	0	R1368T
1270.12	0.0	1270721	START	n/a	n/a	n/a	-999	9	[-999, -999, -999]	n/a	FR1	0	R1368T
1270.119	0.0	1270722	WORD_OFF	n/a	n/a	PALM	12	9	[0, 0, 0]	n/a	FR1	0	R1368T
1270.119	0.001	1270722	ENCODING_END	n/a	n/a	n/a	-999	9	[0, 0, 0]	n/a	FR1	0	R1368T
1270.12	0.015	1270722	DISTRACT_START	n/a	n/a	n/a	-999	9	[0, 0, 0]	n/a	FR1	0	R1368T
1270.135	17.053	1270736	PROB	17.053	n/a	n/a	-999	9	[1, 6, 4]	11	FR1	0	R1368T
1287.188	5.435	1287788	PROB	5.435	n/a	n/a	-999	9	[6, 1, 5]	12	FR1	0	R1368T
1292.623	0.0	1293203	DISTRACT_END	n/a	n/a	n/a	-999	9	[0, 0, 0]	n/a	FR1	0	R1368T
1292.603	2.271	1293203	STOP	n/a	n/a	n/a	-999	9	[-999, -999, -999]	n/a	FR1	0	R1368T
1294.874	2.027	1295466	REC_START	n/a	n/a	n/a	-999	9	[0, 0, 0]	n/a	FR1	0	R1368T
1296.901	1.737	1297501	REC_WORD_VV	1.737	n/a	<>	-999	9	[0, 0, 0]	n/a	FR1	0	R1368T
1298.638	1.725	1299238	REC_WORD	1.725	n/a	STORM	5	9	[0, 0, 0]	n/a	FR1	0	R1368T
1300.363	20.286	1300963	REC_WORD	20.286	n/a	LINE	-999	9	[0, 0, 0]	n/a	FR1	0	R1368T
1320.649	4.234	1321248	REC_WORD	4.234	n/a	MOUSE	-999	9	[0, 0, 0]	n/a	FR1	0	R1368T
1324.883	5.397	1325478	REC_END	n/a	n/a	n/a	-999	9	[0, 0, 0]	n/a	FR1	0	R1368T
1330.28	10.429	1330899	COUNTDOWN_START	n/a	n/a	n/a	-999	10	[0, 0, 0]	n/a	FR1	0	R1368T
1340.709	1.073	1341294	COUNTDOWN_END	n/a	n/a	n/a	-999	10	[0, 0, 0]	n/a	FR1	0	R1368T
1341.782	0.983	1342370	ENCODING_START	n/a	n/a	n/a	-999	10	[0, 0, 0]	n/a	FR1	0	R1368T
1342.765	1.634	1343362	WORD	n/a	n/a	BANK	1	10	[0, 0, 0]	n/a	FR1	0	R1368T
1344.399	0.803	1344983	WORD_OFF	n/a	n/a	BANK	1	10	[0, 0, 0]	n/a	FR1	0	R1368T
1345.202	1.631	1345793	WORD	n/a	n/a	SUIT	2	10	[0, 0, 0]	n/a	FR1	0	R1368T
1346.833	0.776	1347414	WORD_OFF	n/a	n/a	SUIT	2	10	[0, 0, 0]	n/a	FR1	0	R1368T
1347.609	1.624	1348196	WORD	n/a	n/a	KEY	3	10	[0, 0, 0]	n/a	FR1	0	R1368T
1349.233	0.995	1349817	WORD_OFF	n/a	n/a	KEY	3	10	[0, 0, 0]	n/a	FR1	0	R1368T
1350.228	1.622	1350809	WORD	n/a	n/a	SPEAR	4	10	[0, 0, 0]	n/a	FR1	0	R1368T
1351.85	1.019	1352430	WORD_OFF	n/a	n/a	SPEAR	4	10	[0, 0, 0]	n/a	FR1	0	R1368T
1352.869	1.632	1353464	WORD	n/a	n/a	FUDGE	5	10	[0, 0, 0]	n/a	FR1	0	R1368T
1354.501	0.897	1355084	WORD_OFF	n/a	n/a	FUDGE	5	10	[0, 0, 0]	n/a	FR1	0	R1368T
1355.398	1.636	1355992	WORD	n/a	n/a	OWL	6	10	[0, 0, 0]	n/a	FR1	0	R1368T
1357.034	1.09	1357613	WORD_OFF	n/a	n/a	OWL	6	10	[0, 0, 0]	n/a	FR1	0	R1368T
1358.124	1.628	1358717	WORD	n/a	n/a	JUICE	7	10	[0, 0, 0]	n/a	FR1	0	R1368T
1359.752	0.885	1360338	WORD_OFF	n/a	n/a	JUICE	7	10	[0, 0, 0]	n/a	FR1	0	R1368T
1360.637	1.632	1361232	WORD	n/a	n/a	VASE	8	10	[0, 0, 0]	n/a	FR1	0	R1368T
1362.269	1.151	1362853	WORD_OFF	n/a	n/a	VASE	8	10	[0, 0, 0]	n/a	FR1	0	R1368T
1363.42	1.633	1364012	WORD	n/a	n/a	RIB	9	10	[0, 0, 0]	n/a	FR1	0	R1368T
1365.053	0.893	1365633	WORD_OFF	n/a	n/a	RIB	9	10	[0, 0, 0]	n/a	FR1	0	R1368T
1365.946	1.624	1366527	WORD	n/a	n/a	PIE	10	10	[0, 0, 0]	n/a	FR1	0	R1368T
1367.57	0.963	1368148	WORD_OFF	n/a	n/a	PIE	10	10	[0, 0, 0]	n/a	FR1	0	R1368T
1368.533	1.637	1369126	WORD	n/a	n/a	GOLD	11	10	[0, 0, 0]	n/a	FR1	0	R1368T
1370.17	0.949	1370747	WORD_OFF	n/a	n/a	GOLD	11	10	[0, 0, 0]	n/a	FR1	0	R1368T
1371.119	1.635	1371711	WORD	n/a	n/a	HOLE	12	10	[0, 0, 0]	n/a	FR1	0	R1368T
1372.754	0.001	1373345	WORD_OFF	n/a	n/a	HOLE	12	10	[0, 0, 0]	n/a	FR1	0	R1368T
1372.755	0.0	1373345	ENCODING_END	n/a	n/a	n/a	-999	10	[0, 0, 0]	n/a	FR1	0	R1368T
1372.755	0.0	1373345	DISTRACT_START	n/a	n/a	n/a	-999	10	[0, 0, 0]	n/a	FR1	0	R1368T
1372.755	0.016	1373351	START	n/a	n/a	n/a	-999	10	[-999, -999, -999]	n/a	FR1	0	R1368T
1372.771	9.501	1373367	PROB	9.501	n/a	n/a	-999	10	[4, 4, 1]	9	FR1	0	R1368T
1382.272	4.618	1382868	PROB	4.618	n/a	n/a	-999	10	[3, 1, 2]	6	FR1	0	R1368T
1386.89	12.202	1387485	PROB	12.202	n/a	n/a	-999	10	[5, 2, 8]	15	FR1	0	R1368T
1399.092	0.0	1399668	DISTRACT_END	n/a	n/a	n/a	-999	10	[0, 0, 0]	n/a	FR1	0	R1368T
1399.083	2.243	1399678	STOP	n/a	n/a	n/a	-999	10	[-999, -999, -999]	n/a	FR1	0	R1368T
1401.326	4.387	1401918	REC_START	n/a	n/a	n/a	-999	10	[0, 0, 0]	n/a	FR1	0	R1368T
1405.713	3.893	1406307	REC_WORD	3.893	n/a	BANK	1	10	[0, 0, 0]	n/a	FR1	0	R1368T
1409.606	3.841	1410200	REC_WORD	3.841	n/a	SUIT	2	10	[0, 0, 0]	n/a	FR1	0	R1368T
1413.447	8.648	1414041	REC_WORD	8.648	n/a	FROG	-999	10	[0, 0, 0]	n/a	FR1	0	R1368T
1422.095	9.242	1422688	REC_WORD	9.242	n/a	CHALK	-999	10	[0, 0, 0]	n/a	FR1	0	R1368T
1431.337	5.779	1431929	REC_END	n/a	n/a	n/a	-999	10	[0, 0, 0]	n/a	FR1	0	R1368T
1437.116	10.429	1437728	COUNTDOWN_START	n/a	n/a	n/a	-999	11	[0, 0, 0]	n/a	FR1	0	R1368T
1447.545	1.057	1448123	COUNTDOWN_END	n/a	n/a	n/a	-999	11	[0, 0, 0]	n/a	FR1	0	R1368T
1448.602	1.015	1449184	ENCODING_START	n/a	n/a	n/a	-999	11	[0, 0, 0]	n/a	FR1	0	R1368T
1449.617	1.635	1450204	WORD	n/a	n/a	NEST	1	11	[0, 0, 0]	n/a	FR1	0	R1368T
1451.252	0.82	1451825	WORD_OFF	n/a	n/a	NEST	1	11	[0, 0, 0]	n/a	FR1	0	R1368T
1452.072	1.63	1452663	WORD	n/a	n/a	TRUCK	2	11	[0, 0, 0]	n/a	FR1	0	R1368T
1453.702	0.757	1454270	WORD_OFF	n/a	n/a	TRUCK	2	11	[0, 0, 0]	n/a	FR1	0	R1368T
1454.459	1.627	1455039	WORD	n/a	n/a	TAIL	3	11	[0, 0, 0]	n/a	FR1	0	R1368T
1456.086	0.934	1456659	WORD_OFF	n/a	n/a	TAIL	3	11	[0, 0, 0]	n/a	FR1	0	R1368T
1457.02	1.633	1457609	WORD	n/a	n/a	ARK	4	11	[0, 0, 0]	n/a	FR1	0	R1368T
1458.653	1.103	1459230	WORD_OFF	n/a	n/a	ARK	4	11	[0, 0, 0]	n/a	FR1	0	R1368T
1459.756	1.631	1460348	WORD	n/a	n/a	PLANE	5	11	[0, 0, 0]	n/a	FR1	0	R1368T
1461.387	0.786	1461955	WORD_OFF	n/a	n/a	PLANE	5	11	[0, 0, 0]	n/a	FR1	0	R1368T
1462.173	1.631	1462765	WORD	n/a	n/a	SNAIL	6	11	[0, 0, 0]	n/a	FR1	0	R1368T
1463.804	0.833	1464372	WORD_OFF	n/a	n/a	SNAIL	6	11	[0, 0, 0]	n/a	FR1	0	R1368T
1464.637	1.634	1465224	WORD	n/a	n/a	FUR	7	11	[0, 0, 0]	n/a	FR1	0	R1368T
1466.271	0.783	1466845	WORD_OFF	n/a	n/a	FUR	7	11	[0, 0, 0]	n/a	FR1	0	R1368T
1467.054	1.634	1467641	WORD	n/a	n/a	BEACH	8	11	[0, 0, 0]	n/a	FR1	0	R1368T
1468.688	1.063	1469262	WORD_OFF	n/a	n/a	BEACH	8	11	[0, 0, 0]	n/a	FR1	0	R1368T
1469.751	1.604	1470324	WORD	n/a	n/a	STICK	9	11	[0, 0, 0]	n/a	FR1	0	R1368T
1471.355	1.144	1471931	WORD_OFF	n/a	n/a	STICK	9	11	[0, 0, 0]	n/a	FR1	0	R1368T
1472.499	1.623	1473076	WORD	n/a	n/a	FILM	10	11	[0, 0, 0]	n/a	FR1	0	R1368T
1474.122	1.048	1474697	WORD_OFF	n/a	n/a	FILM	10	11	[0, 0, 0]	n/a	FR1	0	R1368T
1475.17	1.636	1475759	WORD	n/a	n/a	PLANT	11	11	[0, 0, 0]	n/a	FR1	0	R1368T
1476.806	0.936	1477380	WORD_OFF	n/a	n/a	PLANT	11	11	[0, 0, 0]	n/a	FR1	0	R1368T
1477.742	1.631	1478330	WORD	n/a	n/a	CANE	12	11	[0, 0, 0]	n/a	FR1	0	R1368T
1479.373	0.001	1479964	WORD_OFF	n/a	n/a	CANE	12	11	[0, 0, 0]	n/a	FR1	0	R1368T
1479.374	0.0	1479964	ENCODING_END	n/a	n/a	n/a	-999	11	[0, 0, 0]	n/a	FR1	0	R1368T
1479.374	0.0	1479964	DISTRACT_START	n/a	n/a	n/a	-999	11	[0, 0, 0]	n/a	FR1	0	R1368T
1479.374	0.016	1479965	START	n/a	n/a	n/a	-999	11	[-999, -999, -999]	n/a	FR1	0	R1368T
1479.39	7.568	1479981	PROB	7.568	n/a	n/a	-999	11	[5, 5, 6]	11	FR1	0	R1368T
1486.958	7.368	1487548	PROB	7.368	n/a	n/a	-999	11	[1, 8, 3]	12	FR1	0	R1368T
1494.326	14.536	1494916	PROB	14.536	n/a	n/a	-999	11	[9, 3, 6]	18	FR1	0	R1368T
1508.862	0.0	1509431	DISTRACT_END	n/a	n/a	n/a	-999	11	[0, 0, 0]	n/a	FR1	0	R1368T
1508.851	2.245	1509440	STOP	n/a	n/a	n/a	-999	11	[-999, -999, -999]	n/a	FR1	0	R1368T
1511.096	2.43	1511680	REC_START	n/a	n/a	n/a	-999	11	[0, 0, 0]	n/a	FR1	0	R1368T
1513.526	0.745	1514115	REC_WORD	0.745	n/a	TRUCK	2	11	[0, 0, 0]	n/a	FR1	0	R1368T
1514.271	0.853	1514860	REC_WORD	0.853	n/a	PLANE	5	11	[0, 0, 0]	n/a	FR1	0	R1368T
1515.124	11.549	1515713	REC_WORD	11.549	n/a	ARK	4	11	[0, 0, 0]	n/a	FR1	0	R1368T
1526.673	13.882	1527261	REC_WORD	13.882	n/a	STORM	-999	11	[0, 0, 0]	n/a	FR1	0	R1368T
1540.555	0.552	1541142	REC_WORD	0.552	n/a	TAX	-999	11	[0, 0, 0]	n/a	FR1	0	R1368T
1541.107	4.696	1541692	REC_END	n/a	n/a	n/a	-999	11	[0, 0, 0]	n/a	FR1	0	R1368T
1545.803	10.429	1546400	COUNTDOWN_START	n/a	n/a	n/a	-999	12	[0, 0, 0]	n/a	FR1	0	R1368T
1556.232	1.139	1556809	COUNTDOWN_END	n/a	n/a	n/a	-999	12	[0, 0, 0]	n/a	FR1	0	R1368T
1557.371	0.93	1557941	ENCODING_START	n/a	n/a	n/a	-999	12	[0, 0, 0]	n/a	FR1	0	R1368T
1558.301	1.637	1558891	WORD	n/a	n/a	SHARK	1	12	[0, 0, 0]	n/a	FR1	0	R1368T
1559.938	0.858	1560512	WORD_OFF	n/a	n/a	SHARK	1	12	[0, 0, 0]	n/a	FR1	0	R1368T
1560.796	1.626	1561378	WORD	n/a	n/a	FORK	2	12	[0, 0, 0]	n/a	FR1	0	R1368T
1562.422	0.849	1562985	WORD_OFF	n/a	n/a	FORK	2	12	[0, 0, 0]	n/a	FR1	0	R1368T
1563.271	1.635	1563851	WORD	n/a	n/a	CRANE	3	12	[0, 0, 0]	n/a	FR1	0	R1368T
1564.906	0.778	1565472	WORD_OFF	n/a	n/a	CRANE	3	12	[0, 0, 0]	n/a	FR1	0	R1368T
1565.684	1.622	1566254	WORD	n/a	n/a	TEETH	4	12	[0, 0, 0]	n/a	FR1	0	R1368T
1567.306	1.035	1567875	WORD_OFF	n/a	n/a	TEETH	4	12	[0, 0, 0]	n/a	FR1	0	R1368T
1568.341	1.632	1568923	WORD	n/a	n/a	HAWK	5	12	[0, 0, 0]	n/a	FR1	0	R1368T
1569.973	0.894	1570544	WORD_OFF	n/a	n/a	HAWK	5	12	[0, 0, 0]	n/a	FR1	0	R1368T
1570.867	1.623	1571438	WORD	n/a	n/a	SHEET	6	12	[0, 0, 0]	n/a	FR1	0	R1368T
1572.49	0.826	1573059	WORD_OFF	n/a	n/a	SHEET	6	12	[0, 0, 0]	n/a	FR1	0	R1368T
1573.316	1.625	1573897	WORD	n/a	n/a	MOON	7	12	[0, 0, 0]	n/a	FR1	0	R1368T
1574.941	1.108	1575504	WORD_OFF	n/a	n/a	MOON	7	12	[0, 0, 0]	n/a	FR1	0	R1368T
1576.049	1.626	1576621	WORD	n/a	n/a	SAIL	8	12	[0, 0, 0]	n/a	FR1	0	R1368T
1577.675	0.99	1578242	WORD_OFF	n/a	n/a	SAIL	8	12	[0, 0, 0]	n/a	FR1	0	R1368T
1578.665	1.627	1579248	WORD	n/a	n/a	SPONGE	9	12	[0, 0, 0]	n/a	FR1	0	R1368T
1580.292	0.763	1580855	WORD_OFF	n/a	n/a	SPONGE	9	12	[0, 0, 0]	n/a	FR1	0	R1368T
1581.055	1.637	1581637	WORD	n/a	n/a	TOY	10	12	[0, 0, 0]	n/a	FR1	0	R1368T
1582.692	0.959	1583258	WORD_OFF	n/a	n/a	TOY	10	12	[0, 0, 0]	n/a	FR1	0	R1368T
1583.651	1.625	1584222	WORD	n/a	n/a	BALL	11	12	[0, 0, 0]	n/a	FR1	0	R1368T
1585.276	0.981	1585843	WORD_OFF	n/a	n/a	BALL	11	12	[0, 0, 0]	n/a	FR1	0	R1368T
1586.257	1.637	1586849	WORD	n/a	n/a	JAR	12	12	[0, 0, 0]	n/a	FR1	0	R1368T
1587.894	0.0	1588479	START	n/a	n/a	n/a	-999	12	[-999, -999, -999]	n/a	FR1	0	R1368T
1587.893	0.001	1588483	WORD_OFF	n/a	n/a	JAR	12	12	[0, 0, 0]	n/a	FR1	0	R1368T
1587.894	0.0	1588483	ENCODING_END	n/a	n/a	n/a	-999	12	[0, 0, 0]	n/a	FR1	0	R1368T
1587.894	0.016	1588483	DISTRACT_START	n/a	n/a	n/a	-999	12	[0, 0, 0]	n/a	FR1	0	R1368T
1587.91	12.902	1588495	PROB	12.902	n/a	n/a	-999	12	[8, 3, 3]	14	FR1	0	R1368T
1600.812	16.036	1601396	PROB	16.036	n/a	n/a	-999	12	[6, 9, 7]	22	FR1	0	R1368T
1616.848	0.0	1617419	DISTRACT_END	n/a	n/a	n/a	-999	12	[0, 0, 0]	n/a	FR1	0	R1368T
1616.839	2.094	1617422	STOP	n/a	n/a	n/a	-999	12	[-999, -999, -999]	n/a	FR1	0	R1368T
1618.933	3.583	1619515	REC_START	n/a	n/a	n/a	-999	12	[0, 0, 0]	n/a	FR1	0	R1368T
1622.516	1.844	1623099	REC_WORD	1.844	n/a	HAWK	5	12	[0, 0, 0]	n/a	FR1	0	R1368T
1624.36	7.498	1624943	REC_WORD	7.498	n/a	SAIL	8	12	[0, 0, 0]	n/a	FR1	0	R1368T
1631.858	1.0	1632441	REC_WORD_VV	1.0	n/a	<>	-999	12	[0, 0, 0]	n/a	FR1	0	R1368T
1632.858	3.119	1633441	REC_WORD_VV	3.119	n/a	<>	-999	12	[0, 0, 0]	n/a	FR1	0	R1368T
1635.977	12.965	1636559	REC_WORD	12.965	n/a	SNAIL	-999	12	[0, 0, 0]	n/a	FR1	0	R1368T
1648.942	4.047	1649526	REC_END	n/a	n/a	n/a	-999	12	[0, 0, 0]	n/a	FR1	0	R1368T
1652.989	10.429	1653592	COUNTDOWN_START	n/a	n/a	n/a	-999	13	[0, 0, 0]	n/a	FR1	0	R1368T
1663.418	1.09	1663987	COUNTDOWN_END	n/a	n/a	n/a	-999	13	[0, 0, 0]	n/a	FR1	0	R1368T
1664.508	1.052	1665077	ENCODING_START	n/a	n/a	n/a	-999	13	[0, 0, 0]	n/a	FR1	0	R1368T
1665.56	1.631	1666139	WORD	n/a	n/a	CHAIR	1	13	[0, 0, 0]	n/a	FR1	0	R1368T
1667.191	1.018	1667760	WORD_OFF	n/a	n/a	CHAIR	1	13	[0, 0, 0]	n/a	FR1	0	R1368T
1668.209	1.632	1668793	WORD	n/a	n/a	LAMB	2	13	[0, 0, 0]	n/a	FR1	0	R1368T
1669.841	0.839	1670400	WORD_OFF	n/a	n/a	LAMB	2	13	[0, 0, 0]	n/a	FR1	0	R1368T
1670.68	1.628	1671253	WORD	n/a	n/a	SKUNK	3	13	[0, 0, 0]	n/a	FR1	0	R1368T
1672.308	0.865	1672873	WORD_OFF	n/a	n/a	SKUNK	3	13	[0, 0, 0]	n/a	FR1	0	R1368T
1673.173	1.636	1673753	WORD	n/a	n/a	SINK	4	13	[0, 0, 0]	n/a	FR1	0	R1368T
1674.809	1.131	1675374	WORD_OFF	n/a	n/a	SINK	4	13	[0, 0, 0]	n/a	FR1	0	R1368T
1675.94	1.636	1676520	WORD	n/a	n/a	SUN	5	13	[0, 0, 0]	n/a	FR1	0	R1368T
1677.576	1.128	1678141	WORD_OFF	n/a	n/a	SUN	5	13	[0, 0, 0]	n/a	FR1	0	R1368T
1678.704	1.622	1679272	WORD	n/a	n/a	CUP	6	13	[0, 0, 0]	n/a	FR1	0	R1368T
1680.326	1.093	1680893	WORD_OFF	n/a	n/a	CUP	6	13	[0, 0, 0]	n/a	FR1	0	R1368T
1681.419	1.625	1681983	WORD	n/a	n/a	BOARD	7	13	[0, 0, 0]	n/a	FR1	0	R1368T
1683.044	1.08	1683604	WORD_OFF	n/a	n/a	BOARD	7	13	[0, 0, 0]	n/a	FR1	0	R1368T
1684.124	1.637	1684707	WORD	n/a	n/a	MUD	8	13	[0, 0, 0]	n/a	FR1	0	R1368T
1685.761	1.019	1686328	WORD_OFF	n/a	n/a	MUD	8	13	[0, 0, 0]	n/a	FR1	0	R1368T
1686.78	1.631	1687362	WORD	n/a	n/a	SWORD	9	13	[0, 0, 0]	n/a	FR1	0	R1368T
1688.411	0.932	1688969	WORD_OFF	n/a	n/a	SWORD	9	13	[0, 0, 0]	n/a	FR1	0	R1368T
1689.343	1.635	1689919	WORD	n/a	n/a	OAK	10	13	[0, 0, 0]	n/a	FR1	0	R1368T
1690.978	1.042	1691540	WORD_OFF	n/a	n/a	OAK	10	13	[0, 0, 0]	n/a	FR1	0	R1368T
1692.02	1.626	1692587	WORD	n/a	n/a	BOY	11	13	[0, 0, 0]	n/a	FR1	0	R1368T
1693.646	1.054	1694208	WORD_OFF	n/a	n/a	BOY	11	13	[0, 0, 0]	n/a	FR1	0	R1368T
1694.7	1.629	1695270	WORD	n/a	n/a	SPOON	12	13	[0, 0, 0]	n/a	FR1	0	R1368T
1696.329	0.001	1696905	WORD_OFF	n/a	n/a	SPOON	12	13	[0, 0, 0]	n/a	FR1	0	R1368T
1696.33	0.0	1696905	ENCODING_END	n/a	n/a	n/a	-999	13	[0, 0, 0]	n/a	FR1	0	R1368T
1696.33	0.0	1696905	DISTRACT_START	n/a	n/a	n/a	-999	13	[0, 0, 0]	n/a	FR1	0	R1368T
1696.33	0.016	1696909	START	n/a	n/a	n/a	-999	13	[-999, -999, -999]	n/a	FR1	0	R1368T
1696.346	15.82	1696925	PROB	15.82	n/a	n/a	-999	13	[5, 3, 5]	13	FR1	0	R1368T
1712.166	7.879	1712744	PROB	7.879	n/a	n/a	-999	13	[2, 3, 7]	12	FR1	0	R1368T
1720.045	0.022	1720623	STOP	n/a	n/a	n/a	-999	13	[-999, -999, -999]	n/a	FR1	0	R1368T
1720.067	2.184	1720629	DISTRACT_END	n/a	n/a	n/a	-999	13	[0, 0, 0]	n/a	FR1	0	R1368T
1722.251	5.869	1722822	REC_START	n/a	n/a	n/a	-999	13	[0, 0, 0]	n/a	FR1	0	R1368T
1728.12	1.563	1728698	REC_WORD	1.563	n/a	SKUNK	3	13	[0, 0, 0]	n/a	FR1	0	R1368T
1729.683	4.622	1730261	REC_WORD	4.622	n/a	BOY	11	13	[0, 0, 0]	n/a	FR1	0	R1368T
1734.305	14.03	1734882	REC_WORD	14.03	n/a	SAND	-999	13	[0, 0, 0]	n/a	FR1	0	R1368T
1748.335	3.926	1748912	REC_WORD	3.926	n/a	SNAKE	-999	13	[0, 0, 0]	n/a	FR1	0	R1368T
1752.261	6.197	1752834	REC_END	n/a	n/a	n/a	-999	13	[0, 0, 0]	n/a	FR1	0	R1368T
1758.458	10.429	1759051	COUNTDOWN_START	n/a	n/a	n/a	-999	14	[0, 0, 0]	n/a	FR1	0	R1368T
1768.887	1.14	1769446	COUNTDOWN_END	n/a	n/a	n/a	-999	14	[0, 0, 0]	n/a	FR1	0	R1368T
1770.027	1.053	1770592	ENCODING_START	n/a	n/a	n/a	-999	14	[0, 0, 0]	n/a	FR1	0	R1368T
1771.08	1.63	1771654	WORD	n/a	n/a	SQUARE	1	14	[0, 0, 0]	n/a	FR1	0	R1368T
1772.71	1.023	1773275	WORD_OFF	n/a	n/a	SQUARE	1	14	[0, 0, 0]	n/a	FR1	0	R1368T
1773.733	1.627	1774295	WORD	n/a	n/a	CAR	2	14	[0, 0, 0]	n/a	FR1	0	R1368T
1775.36	1.066	1775915	WORD_OFF	n/a	n/a	CAR	2	14	[0, 0, 0]	n/a	FR1	0	R1368T
1776.426	1.635	1777005	WORD	n/a	n/a	BROOM	3	14	[0, 0, 0]	n/a	FR1	0	R1368T
1778.061	1.08	1778612	WORD_OFF	n/a	n/a	BROOM	3	14	[0, 0, 0]	n/a	FR1	0	R1368T
1779.141	1.62	1779702	WORD	n/a	n/a	JEEP	4	14	[0, 0, 0]	n/a	FR1	0	R1368T
1780.761	0.917	1781322	WORD_OFF	n/a	n/a	JEEP	4	14	[0, 0, 0]	n/a	FR1	0	R1368T
1781.678	1.634	1782259	WORD	n/a	n/a	SHRIMP	5	14	[0, 0, 0]	n/a	FR1	0	R1368T
1783.312	1.108	1783865	WORD_OFF	n/a	n/a	SHRIMP	5	14	[0, 0, 0]	n/a	FR1	0	R1368T
1784.42	1.626	1784983	WORD	n/a	n/a	JUDGE	6	14	[0, 0, 0]	n/a	FR1	0	R1368T
1786.046	0.759	1786604	WORD_OFF	n/a	n/a	JUDGE	6	14	[0, 0, 0]	n/a	FR1	0	R1368T
1786.805	1.624	1787372	WORD	n/a	n/a	SHELL	7	14	[0, 0, 0]	n/a	FR1	0	R1368T
1788.429	1.012	1788993	WORD_OFF	n/a	n/a	SHELL	7	14	[0, 0, 0]	n/a	FR1	0	R1368T
1789.441	1.622	1789999	WORD	n/a	n/a	SHIP	8	14	[0, 0, 0]	n/a	FR1	0	R1368T
1791.063	0.924	1791620	WORD_OFF	n/a	n/a	SHIP	8	14	[0, 0, 0]	n/a	FR1	0	R1368T
1791.987	1.627	1792556	WORD	n/a	n/a	SEAL	9	14	[0, 0, 0]	n/a	FR1	0	R1368T
1793.614	1.058	1794177	WORD_OFF	n/a	n/a	SEAL	9	14	[0, 0, 0]	n/a	FR1	0	R1368T
1794.672	1.626	1795238	WORD	n/a	n/a	TRAY	10	14	[0, 0, 0]	n/a	FR1	0	R1368T
1796.298	1.133	1796859	WORD_OFF	n/a	n/a	TRAY	10	14	[0, 0, 0]	n/a	FR1	0	R1368T
1797.431	1.634	1798005	WORD	n/a	n/a	BLOOM	11	14	[0, 0, 0]	n/a	FR1	0	R1368T
1799.065	0.842	1799626	WORD_OFF	n/a	n/a	BLOOM	11	14	[0, 0, 0]	n/a	FR1	0	R1368T
1799.907	1.625	1800464	WORD	n/a	n/a	SWAMP	12	14	[0, 0, 0]	n/a	FR1	0	R1368T
1801.532	0.001	1802099	WORD_OFF	n/a	n/a	SWAMP	12	14	[0, 0, 0]	n/a	FR1	0	R1368T
1801.533	0.0	1802107	START	n/a	n/a	n/a	-999	14	[-999, -999, -999]	n/a	FR1	0	R1368T
1801.532	0.001	1802113	ENCODING_END	n/a	n/a	n/a	-999	14	[0, 0, 0]	n/a	FR1	0	R1368T
1801.533	0.015	1802113	DISTRACT_START	n/a	n/a	n/a	-999	14	[0, 0, 0]	n/a	FR1	0	R1368T
1801.548	13.536	1802122	PROB	13.536	n/a	n/a	-999	14	[5, 4, 4]	13	FR1	0	R1368T
1815.084	6.285	1815657	PROB	6.285	n/a	n/a	-999	14	[2, 4, 8]	14	FR1	0	R1368T
1821.369	5.633	1821942	PROB	5.633	n/a	n/a	-999	14	[6, 1, 6]	13	FR1	0	R1368T
1827.002	0.018	1827575	STOP	n/a	n/a	n/a	-999	14	[-999, -999, -999]	n/a	FR1	0	R1368T
1827.02	2.234	1827583	DISTRACT_END	n/a	n/a	n/a	-999	14	[0, 0, 0]	n/a	FR1	0	R1368T
1829.254	1.088	1829819	REC_START	n/a	n/a	n/a	-999	14	[0, 0, 0]	n/a	FR1	0	R1368T
1830.342	2.773	1830914	REC_WORD_VV	2.773	n/a	<>	-999	14	[0, 0, 0]	n/a	FR1	0	R1368T
1833.115	2.54	1833687	REC_WORD	2.54	n/a	JUDGE	6	14	[0, 0, 0]	n/a	FR1	0	R1368T
1835.655	16.045	1836227	REC_WORD	16.045	n/a	SHEEP	-999	14	[0, 0, 0]	n/a	FR1	0	R1368T
1851.7	7.563	1852271	REC_WORD_VV	7.563	n/a	<>	-999	14	[0, 0, 0]	n/a	FR1	0	R1368T
1859.263	6.081	1859830	REC_END	n/a	n/a	n/a	-999	14	[0, 0, 0]	n/a	FR1	0	R1368T
1865.344	10.429	1865936	COUNTDOWN_START	n/a	n/a	n/a	-999	15	[0, 0, 0]	n/a	FR1	0	R1368T
1875.773	1.09	1876331	COUNTDOWN_END	n/a	n/a	n/a	-999	15	[0, 0, 0]	n/a	FR1	0	R1368T
1876.863	1.13	1877421	ENCODING_START	n/a	n/a	n/a	-999	15	[0, 0, 0]	n/a	FR1	0	R1368T
1877.993	1.636	1878566	WORD	n/a	n/a	CALF	1	15	[0, 0, 0]	n/a	FR1	0	R1368T
1879.629	0.95	1880187	WORD_OFF	n/a	n/a	CALF	1	15	[0, 0, 0]	n/a	FR1	0	R1368T
1880.579	1.634	1881151	WORD	n/a	n/a	ROCK	2	15	[0, 0, 0]	n/a	FR1	0	R1368T
1882.213	1.076	1882772	WORD_OFF	n/a	n/a	ROCK	2	15	[0, 0, 0]	n/a	FR1	0	R1368T
1883.289	1.625	1883848	WORD	n/a	n/a	DITCH	3	15	[0, 0, 0]	n/a	FR1	0	R1368T
1884.914	0.985	1885468	WORD_OFF	n/a	n/a	DITCH	3	15	[0, 0, 0]	n/a	FR1	0	R1368T
1885.899	1.632	1886460	WORD	n/a	n/a	TREE	4	15	[0, 0, 0]	n/a	FR1	0	R1368T
1887.531	0.919	1888081	WORD_OFF	n/a	n/a	TREE	4	15	[0, 0, 0]	n/a	FR1	0	R1368T
1888.45	1.631	1889017	WORD	n/a	n/a	LEG	5	15	[0, 0, 0]	n/a	FR1	0	R1368T
1890.081	1.142	1890638	WORD_OFF	n/a	n/a	LEG	5	15	[0, 0, 0]	n/a	FR1	0	R1368T
1891.223	1.625	1891784	WORD	n/a	n/a	WAVE	6	15	[0, 0, 0]	n/a	FR1	0	R1368T
1892.848	0.991	1893404	WORD_OFF	n/a	n/a	WAVE	6	15	[0, 0, 0]	n/a	FR1	0	R1368T
1893.839	1.627	1894396	WORD	n/a	n/a	RUG	7	15	[0, 0, 0]	n/a	FR1	0	R1368T
1895.466	1.015	1896017	WORD_OFF	n/a	n/a	RUG	7	15	[0, 0, 0]	n/a	FR1	0	R1368T
1896.481	1.635	1897051	WORD	n/a	n/a	TENT	8	15	[0, 0, 0]	n/a	FR1	0	R1368T
1898.116	0.85	1898672	WORD_OFF	n/a	n/a	TENT	8	15	[0, 0, 0]	n/a	FR1	0	R1368T
1898.966	1.634	1899538	WORD	n/a	n/a	GOAT	9	15	[0, 0, 0]	n/a	FR1	0	R1368T
1900.6	0.768	1901145	WORD_OFF	n/a	n/a	GOAT	9	15	[0, 0, 0]	n/a	FR1	0	R1368T
1901.368	1.632	1901941	WORD	n/a	n/a	ANT	10	15	[0, 0, 0]	n/a	FR1	0	R1368T
1903.0	1.081	1903548	WORD_OFF	n/a	n/a	ANT	10	15	[0, 0, 0]	n/a	FR1	0	R1368T
1904.081	1.636	1904652	WORD	n/a	n/a	RICE	11	15	[0, 0, 0]	n/a	FR1	0	R1368T
1905.717	0.922	1906272	WORD_OFF	n/a	n/a	RICE	11	15	[0, 0, 0]	n/a	FR1	0	R1368T
1906.639	1.629	1907195	WORD	n/a	n/a	CAGE	12	15	[0, 0, 0]	n/a	FR1	0	R1368T
1908.268	0.0	1908829	WORD_OFF	n/a	n/a	CAGE	12	15	[0, 0, 0]	n/a	FR1	0	R1368T
1908.268	0.001	1908829	ENCODING_END	n/a	n/a	n/a	-999	15	[0, 0, 0]	n/a	FR1	0	R1368T
1908.269	0.0	1908837	START	n/a	n/a	n/a	-999	15	[-999, -999, -999]	n/a	FR1	0	R1368T
1908.269	0.015	1908843	DISTRACT_START	n/a	n/a	n/a	-999	15	[0, 0, 0]	n/a	FR1	0	R1368T
1908.284	12.619	1908852	PROB	12.619	n/a	n/a	-999	15	[3, 1, 3]	7	FR1	0	R1368T
1920.903	10.352	1921471	PROB	10.352	n/a	n/a	-999	15	[7, 8, 8]	23	FR1	0	R1368T
1931.255	0.0	1931799	DISTRACT_END	n/a	n/a	n/a	-999	15	[0, 0, 0]	n/a	FR1	0	R1368T
1931.243	2.33	1931810	STOP	n/a	n/a	n/a	-999	15	[-999, -999, -999]	n/a	FR1	0	R1368T
1933.573	1.455	1934132	REC_START	n/a	n/a	n/a	-999	15	[0, 0, 0]	n/a	FR1	0	R1368T
1935.028	4.338	1935595	REC_WORD_VV	4.338	n/a	<>	-999	15	[0, 0, 0]	n/a	FR1	0	R1368T
1939.366	1.874	1939933	REC_WORD	1.874	n/a	ANT	10	15	[0, 0, 0]	n/a	FR1	0	R1368T
1941.24	2.411	1941807	REC_WORD	2.411	n/a	SHEEP	-999	15	[0, 0, 0]	n/a	FR1	0	R1368T
1943.651	9.216	1944217	REC_WORD	9.216	n/a	GOAT	9	15	[0, 0, 0]	n/a	FR1	0	R1368T
1952.867	8.87	1953433	REC_WORD_VV	8.87	n/a	<>	-999	15	[0, 0, 0]	n/a	FR1	0	R1368T
1961.737	1.845	1962303	REC_WORD_VV	1.845	n/a	<>	-999	15	[0, 0, 0]	n/a	FR1	0	R1368T
1963.582	118.168	1964144	REC_END	n/a	n/a	n/a	-999	15	[0, 0, 0]	n/a	FR1	0	R1368T
2081.75	10.429	2082331	COUNTDOWN_START	n/a	n/a	n/a	-999	16	[0, 0, 0]	n/a	FR1	0	R1368T
2092.179	1.223	2092726	COUNTDOWN_END	n/a	n/a	n/a	-999	16	[0, 0, 0]	n/a	FR1	0	R1368T
2093.402	0.869	2093942	ENCODING_START	n/a	n/a	n/a	-999	16	[0, 0, 0]	n/a	FR1	0	R1368T
2094.271	1.631	2094822	WORD	n/a	n/a	FLOOR	1	16	[0, 0, 0]	n/a	FR1	0	R1368T
2095.902	1.069	2096443	WORD_OFF	n/a	n/a	FLOOR	1	16	[0, 0, 0]	n/a	FR1	0	R1368T
2096.971	1.631	2097533	WORD	n/a	n/a	HAT	2	16	[0, 0, 0]	n/a	FR1	0	R1368T
2098.602	0.912	2099139	WORD_OFF	n/a	n/a	HAT	2	16	[0, 0, 0]	n/a	FR1	0	R1368T
2099.514	1.622	2100062	WORD	n/a	n/a	CROW	3	16	[0, 0, 0]	n/a	FR1	0	R1368T
2101.136	1.019	2101682	WORD_OFF	n/a	n/a	CROW	3	16	[0, 0, 0]	n/a	FR1	0	R1368T
2102.155	1.632	2102716	WORD	n/a	n/a	PRINCE	4	16	[0, 0, 0]	n/a	FR1	0	R1368T
2103.787	0.828	2104323	WORD_OFF	n/a	n/a	PRINCE	4	16	[0, 0, 0]	n/a	FR1	0	R1368T
2104.615	1.622	2105161	WORD	n/a	n/a	HILL	5	16	[0, 0, 0]	n/a	FR1	0	R1368T
2106.237	0.849	2106782	WORD_OFF	n/a	n/a	HILL	5	16	[0, 0, 0]	n/a	FR1	0	R1368T
2107.086	1.635	2107648	WORD	n/a	n/a	HAND	6	16	[0, 0, 0]	n/a	FR1	0	R1368T
2108.721	0.899	2109255	WORD_OFF	n/a	n/a	HAND	6	16	[0, 0, 0]	n/a	FR1	0	R1368T
2109.62	1.635	2110177	WORD	n/a	n/a	HEN	7	16	[0, 0, 0]	n/a	FR1	0	R1368T
2111.255	1.058	2111798	WORD_OFF	n/a	n/a	HEN	7	16	[0, 0, 0]	n/a	FR1	0	R1368T
2112.313	1.626	2112860	WORD	n/a	n/a	MAIL	8	16	[0, 0, 0]	n/a	FR1	0	R1368T
2113.939	0.777	2114480	WORD_OFF	n/a	n/a	MAIL	8	16	[0, 0, 0]	n/a	FR1	0	R1368T
2114.716	1.623	2115263	WORD	n/a	n/a	SCHOOL	9	16	[0, 0, 0]	n/a	FR1	0	R1368T
2116.339	0.797	2116884	WORD_OFF	n/a	n/a	SCHOOL	9	16	[0, 0, 0]	n/a	FR1	0	R1368T
2117.136	1.637	2117694	WORD	n/a	n/a	SPARK	10	16	[0, 0, 0]	n/a	FR1	0	R1368T
2118.773	0.937	2119315	WORD_OFF	n/a	n/a	SPARK	10	16	[0, 0, 0]	n/a	FR1	0	R1368T
2119.71	1.63	2120265	WORD	n/a	n/a	TOOTH	11	16	[0, 0, 0]	n/a	FR1	0	R1368T
2121.34	0.872	2121886	WORD_OFF	n/a	n/a	TOOTH	11	16	[0, 0, 0]	n/a	FR1	0	R1368T
2122.212	1.629	2122766	WORD	n/a	n/a	PIG	12	16	[0, 0, 0]	n/a	FR1	0	R1368T
2123.841	0.0	2124398	START	n/a	n/a	n/a	-999	16	[-999, -999, -999]	n/a	FR1	0	R1368T
2123.84	0.001	2124400	WORD_OFF	n/a	n/a	PIG	12	16	[0, 0, 0]	n/a	FR1	0	R1368T
2123.841	0.0	2124400	ENCODING_END	n/a	n/a	n/a	-999	16	[0, 0, 0]	n/a	FR1	0	R1368T
2123.841	0.016	2124400	DISTRACT_START	n/a	n/a	n/a	-999	16	[0, 0, 0]	n/a	FR1	0	R1368T
2123.857	28.372	2124414	PROB	28.372	n/a	n/a	-999	16	[6, 8, 7]	21	FR1	0	R1368T
2152.229	0.0	2152763	DISTRACT_END	n/a	n/a	n/a	-999	16	[0, 0, 0]	n/a	FR1	0	R1368T
2152.21	2.22	2152766	STOP	n/a	n/a	n/a	-999	16	[-999, -999, -999]	n/a	FR1	0	R1368T
2154.43	3.647	2154971	REC_START	n/a	n/a	n/a	-999	16	[0, 0, 0]	n/a	FR1	0	R1368T
2158.077	3.645	2158632	REC_WORD_VV	3.645	n/a	<>	-999	16	[0, 0, 0]	n/a	FR1	0	R1368T
2161.722	0.903	2162277	REC_WORD	0.903	n/a	CROW	3	16	[0, 0, 0]	n/a	FR1	0	R1368T
2162.625	6.962	2163180	REC_WORD	6.962	n/a	PIG	12	16	[0, 0, 0]	n/a	FR1	0	R1368T
2169.587	11.081	2170142	REC_WORD_VV	11.081	n/a	<>	-999	16	[0, 0, 0]	n/a	FR1	0	R1368T
2180.668	3.772	2181222	REC_WORD	3.772	n/a	SLIME	-999	16	[0, 0, 0]	n/a	FR1	0	R1368T
2184.44	4.729	2184996	REC_END	n/a	n/a	n/a	-999	16	[0, 0, 0]	n/a	FR1	0	R1368T
2189.169	10.43	2189733	COUNTDOWN_START	n/a	n/a	n/a	-999	17	[0, 0, 0]	n/a	FR1	0	R1368T
2199.599	1.106	2200142	COUNTDOWN_END	n/a	n/a	n/a	-999	17	[0, 0, 0]	n/a	FR1	0	R1368T
2200.705	1.099	2201245	ENCODING_START	n/a	n/a	n/a	-999	17	[0, 0, 0]	n/a	FR1	0	R1368T
2201.804	1.634	2202349	WORD	n/a	n/a	PIN	1	17	[0, 0, 0]	n/a	FR1	0	R1368T
2203.438	0.835	2203970	WORD_OFF	n/a	n/a	PIN	1	17	[0, 0, 0]	n/a	FR1	0	R1368T
2204.273	1.632	2204822	WORD	n/a	n/a	POOL	2	17	[0, 0, 0]	n/a	FR1	0	R1368T
2205.905	0.956	2206443	WORD_OFF	n/a	n/a	POOL	2	17	[0, 0, 0]	n/a	FR1	0	R1368T
2206.861	1.628	2207407	WORD	n/a	n/a	SOAP	3	17	[0, 0, 0]	n/a	FR1	0	R1368T
2208.489	0.791	2209028	WORD_OFF	n/a	n/a	SOAP	3	17	[0, 0, 0]	n/a	FR1	0	R1368T
2209.28	1.626	2209824	WORD	n/a	n/a	BEE	4	17	[0, 0, 0]	n/a	FR1	0	R1368T
2210.906	1.074	2211445	WORD_OFF	n/a	n/a	BEE	4	17	[0, 0, 0]	n/a	FR1	0	R1368T
2211.98	1.627	2212521	WORD	n/a	n/a	CHIN	5	17	[0, 0, 0]	n/a	FR1	0	R1368T
2213.607	1.008	2214141	WORD_OFF	n/a	n/a	CHIN	5	17	[0, 0, 0]	n/a	FR1	0	R1368T
2214.615	1.625	2215161	WORD	n/a	n/a	CUBE	6	17	[0, 0, 0]	n/a	FR1	0	R1368T
2216.24	0.989	2216782	WORD_OFF	n/a	n/a	CUBE	6	17	[0, 0, 0]	n/a	FR1	0	R1368T
2217.229	1.629	2217774	WORD	n/a	n/a	STEM	7	17	[0, 0, 0]	n/a	FR1	0	R1368T
2218.858	1.024	2219395	WORD_OFF	n/a	n/a	STEM	7	17	[0, 0, 0]	n/a	FR1	0	R1368T
2219.882	1.626	2220429	WORD	n/a	n/a	STEAK	8	17	[0, 0, 0]	n/a	FR1	0	R1368T
2221.508	1.08	2222049	WORD_OFF	n/a	n/a	STEAK	8	17	[0, 0, 0]	n/a	FR1	0	R1368T
2222.588	1.621	2223125	WORD	n/a	n/a	AXE	9	17	[0, 0, 0]	n/a	FR1	0	R1368T
2224.209	1.009	2224746	WORD_OFF	n/a	n/a	AXE	9	17	[0, 0, 0]	n/a	FR1	0	R1368T
2225.218	1.624	2225766	WORD	n/a	n/a	STREET	10	17	[0, 0, 0]	n/a	FR1	0	R1368T
2226.842	0.755	2227373	WORD_OFF	n/a	n/a	STREET	10	17	[0, 0, 0]	n/a	FR1	0	R1368T
2227.597	1.629	2228141	WORD	n/a	n/a	BOOT	11	17	[0, 0, 0]	n/a	FR1	0	R1368T
2229.226	1.057	2229762	WORD_OFF	n/a	n/a	BOOT	11	17	[0, 0, 0]	n/a	FR1	0	R1368T
2230.283	1.627	2230824	WORD	n/a	n/a	MULE	12	17	[0, 0, 0]	n/a	FR1	0	R1368T
2231.91	0.0	2232458	WORD_OFF	n/a	n/a	MULE	12	17	[0, 0, 0]	n/a	FR1	0	R1368T
2231.91	0.001	2232458	ENCODING_END	n/a	n/a	n/a	-999	17	[0, 0, 0]	n/a	FR1	0	R1368T
2231.911	0.0	2232458	DISTRACT_START	n/a	n/a	n/a	-999	17	[0, 0, 0]	n/a	FR1	0	R1368T
2231.911	0.016	2232463	START	n/a	n/a	n/a	-999	17	[-999, -999, -999]	n/a	FR1	0	R1368T
2231.927	20.903	2232479	PROB	20.903	n/a	n/a	-999	17	[8, 4, 5]	17	FR1	0	R1368T
2252.83	0.0	2253360	DISTRACT_END	n/a	n/a	n/a	-999	17	[0, 0, 0]	n/a	FR1	0	R1368T
2252.812	2.286	2253362	STOP	n/a	n/a	n/a	-999	17	[-999, -999, -999]	n/a	FR1	0	R1368T
2255.098	7.758	2255638	REC_START	n/a	n/a	n/a	-999	17	[0, 0, 0]	n/a	FR1	0	R1368T
2262.856	5.09	2263406	REC_WORD	5.09	n/a	POLE	-999	17	[0, 0, 0]	n/a	FR1	0	R1368T
2267.946	2.292	2268496	REC_WORD	2.292	n/a	FOOT	-999	17	[0, 0, 0]	n/a	FR1	0	R1368T
2270.238	13.828	2270788	REC_WORD	13.828	n/a	LEG	-999	17	[0, 0, 0]	n/a	FR1	0	R1368T
2284.066	1.041	2284615	REC_WORD	1.041	n/a	ARM	-999	17	[0, 0, 0]	n/a	FR1	0	R1368T
2285.107	6.448	2285663	REC_END	n/a	n/a	n/a	-999	17	[0, 0, 0]	n/a	FR1	0	R1368T
2291.555	10.43	2292118	COUNTDOWN_START	n/a	n/a	n/a	-999	18	[0, 0, 0]	n/a	FR1	0	R1368T
2301.985	1.255	2302513	COUNTDOWN_END	n/a	n/a	n/a	-999	18	[0, 0, 0]	n/a	FR1	0	R1368T
2303.24	0.933	2303771	ENCODING_START	n/a	n/a	n/a	-999	18	[0, 0, 0]	n/a	FR1	0	R1368T
2304.173	1.634	2304721	WORD	n/a	n/a	DIME	1	18	[0, 0, 0]	n/a	FR1	0	R1368T
2305.807	0.926	2306341	WORD_OFF	n/a	n/a	DIME	1	18	[0, 0, 0]	n/a	FR1	0	R1368T
2306.733	1.624	2307264	WORD	n/a	n/a	LAMP	2	18	[0, 0, 0]	n/a	FR1	0	R1368T
2308.357	0.814	2308884	WORD_OFF	n/a	n/a	LAMP	2	18	[0, 0, 0]	n/a	FR1	0	R1368T
2309.171	1.637	2309723	WORD	n/a	n/a	STAIR	3	18	[0, 0, 0]	n/a	FR1	0	R1368T
2310.808	1.008	2311343	WORD_OFF	n/a	n/a	STAIR	3	18	[0, 0, 0]	n/a	FR1	0	R1368T
2311.816	1.625	2312349	WORD	n/a	n/a	PEN	4	18	[0, 0, 0]	n/a	FR1	0	R1368T
2313.441	1.147	2313970	WORD_OFF	n/a	n/a	PEN	4	18	[0, 0, 0]	n/a	FR1	0	R1368T
2314.588	1.621	2315116	WORD	n/a	n/a	GRAPE	5	18	[0, 0, 0]	n/a	FR1	0	R1368T
2316.209	0.965	2316737	WORD_OFF	n/a	n/a	GRAPE	5	18	[0, 0, 0]	n/a	FR1	0	R1368T
2317.174	1.635	2317716	WORD	n/a	n/a	MAZE	6	18	[0, 0, 0]	n/a	FR1	0	R1368T
2318.809	1.025	2319335	WORD_OFF	n/a	n/a	MAZE	6	18	[0, 0, 0]	n/a	FR1	0	R1368T
2319.834	1.626	2320369	WORD	n/a	n/a	VINE	7	18	[0, 0, 0]	n/a	FR1	0	R1368T
2321.46	0.847	2321990	WORD_OFF	n/a	n/a	VINE	7	18	[0, 0, 0]	n/a	FR1	0	R1368T
2322.307	1.636	2322856	WORD	n/a	n/a	WHALE	8	18	[0, 0, 0]	n/a	FR1	0	R1368T
2323.943	1.052	2324477	WORD_OFF	n/a	n/a	WHALE	8	18	[0, 0, 0]	n/a	FR1	0	R1368T
2324.995	1.632	2325539	WORD	n/a	n/a	SEED	9	18	[0, 0, 0]	n/a	FR1	0	R1368T
2326.627	0.832	2327160	WORD_OFF	n/a	n/a	SEED	9	18	[0, 0, 0]	n/a	FR1	0	R1368T
2327.459	1.635	2328012	WORD	n/a	n/a	EGG	10	18	[0, 0, 0]	n/a	FR1	0	R1368T
2329.094	0.988	2329619	WORD_OFF	n/a	n/a	EGG	10	18	[0, 0, 0]	n/a	FR1	0	R1368T
2330.082	1.629	2330625	WORD	n/a	n/a	MOOSE	11	18	[0, 0, 0]	n/a	FR1	0	R1368T
2331.711	1.114	2332245	WORD_OFF	n/a	n/a	MOOSE	11	18	[0, 0, 0]	n/a	FR1	0	R1368T
2332.825	1.638	2333377	WORD	n/a	n/a	BEAK	12	18	[0, 0, 0]	n/a	FR1	0	R1368T
2334.463	0.0	2335009	START	n/a	n/a	n/a	-999	18	[-999, -999, -999]	n/a	FR1	0	R1368T
2334.462	0.0	2335012	WORD_OFF	n/a	n/a	BEAK	12	18	[0, 0, 0]	n/a	FR1	0	R1368T
2334.462	0.001	2335012	ENCODING_END	n/a	n/a	n/a	-999	18	[0, 0, 0]	n/a	FR1	0	R1368T
2334.463	0.016	2335012	DISTRACT_START	n/a	n/a	n/a	-999	18	[0, 0, 0]	n/a	FR1	0	R1368T
2334.479	13.352	2335025	PROB	13.352	n/a	n/a	-999	18	[3, 7, 9]	19	FR1	0	R1368T
2347.831	11.602	2348377	PROB	11.602	n/a	n/a	-999	18	[7, 4, 4]	15	FR1	0	R1368T
2359.433	0.0	2359965	DISTRACT_END	n/a	n/a	n/a	-999	18	[0, 0, 0]	n/a	FR1	0	R1368T
2359.426	2.375	2359971	STOP	n/a	n/a	n/a	-999	18	[-999, -999, -999]	n/a	FR1	0	R1368T
2361.801	27.176	2362341	REC_START	n/a	n/a	n/a	-999	18	[0, 0, 0]	n/a	FR1	0	R1368T
2388.977	1.002	2389520	REC_WORD_VV	1.002	n/a	<>	-999	18	[0, 0, 0]	n/a	FR1	0	R1368T
2389.979	1.832	2390522	REC_WORD_VV	1.832	n/a	<>	-999	18	[0, 0, 0]	n/a	FR1	0	R1368T
2391.811	7.513	2392352	REC_END	n/a	n/a	n/a	-999	18	[0, 0, 0]	n/a	FR1	0	R1368T
2399.324	10.429	2399883	COUNTDOWN_START	n/a	n/a	n/a	-999	19	[0, 0, 0]	n/a	FR1	0	R1368T
2409.753	1.124	2410278	COUNTDOWN_END	n/a	n/a	n/a	-999	19	[0, 0, 0]	n/a	FR1	0	R1368T
2410.877	1.132	2411410	ENCODING_START	n/a	n/a	n/a	-999	19	[0, 0, 0]	n/a	FR1	0	R1368T
2412.009	1.634	2412555	WORD	n/a	n/a	BUSH	1	19	[0, 0, 0]	n/a	FR1	0	R1368T
2413.643	0.809	2414176	WORD_OFF	n/a	n/a	BUSH	1	19	[0, 0, 0]	n/a	FR1	0	R1368T
2414.452	1.625	2414986	WORD	n/a	n/a	HORN	2	19	[0, 0, 0]	n/a	FR1	0	R1368T
2416.077	0.854	2416607	WORD_OFF	n/a	n/a	HORN	2	19	[0, 0, 0]	n/a	FR1	0	R1368T
2416.931	1.63	2417473	WORD	n/a	n/a	BED	3	19	[0, 0, 0]	n/a	FR1	0	R1368T
2418.561	1.01	2419080	WORD_OFF	n/a	n/a	BED	3	19	[0, 0, 0]	n/a	FR1	0	R1368T
2419.571	1.623	2420100	WORD	n/a	n/a	TOE	4	19	[0, 0, 0]	n/a	FR1	0	R1368T
2421.194	1.032	2421721	WORD_OFF	n/a	n/a	TOE	4	19	[0, 0, 0]	n/a	FR1	0	R1368T
2422.226	1.635	2422769	WORD	n/a	n/a	GLASS	5	19	[0, 0, 0]	n/a	FR1	0	R1368T
2423.861	1.007	2424389	WORD_OFF	n/a	n/a	GLASS	5	19	[0, 0, 0]	n/a	FR1	0	R1368T
2424.868	1.627	2425395	WORD	n/a	n/a	MUG	6	19	[0, 0, 0]	n/a	FR1	0	R1368T
2426.495	0.8	2427016	WORD_OFF	n/a	n/a	MUG	6	19	[0, 0, 0]	n/a	FR1	0	R1368T
2427.295	1.634	2427840	WORD	n/a	n/a	GLOVE	7	19	[0, 0, 0]	n/a	FR1	0	R1368T
2428.929	0.772	2429447	WORD_OFF	n/a	n/a	GLOVE	7	19	[0, 0, 0]	n/a	FR1	0	R1368T
2429.701	1.629	2430230	WORD	n/a	n/a	CORN	8	19	[0, 0, 0]	n/a	FR1	0	R1368T
2431.33	0.872	2431850	WORD_OFF	n/a	n/a	CORN	8	19	[0, 0, 0]	n/a	FR1	0	R1368T
2432.202	1.628	2432731	WORD	n/a	n/a	CART	9	19	[0, 0, 0]	n/a	FR1	0	R1368T
2433.83	0.752	2434351	WORD_OFF	n/a	n/a	CART	9	19	[0, 0, 0]	n/a	FR1	0	R1368T
2434.582	1.632	2435120	WORD	n/a	n/a	FLUTE	10	19	[0, 0, 0]	n/a	FR1	0	R1368T
2436.214	0.92	2436740	WORD_OFF	n/a	n/a	FLUTE	10	19	[0, 0, 0]	n/a	FR1	0	R1368T
2437.134	1.63	2437677	WORD	n/a	n/a	NAIL	11	19	[0, 0, 0]	n/a	FR1	0	R1368T
2438.764	1.102	2439283	WORD_OFF	n/a	n/a	NAIL	11	19	[0, 0, 0]	n/a	FR1	0	R1368T
2439.866	1.632	2440401	WORD	n/a	n/a	CORD	12	19	[0, 0, 0]	n/a	FR1	0	R1368T
2441.498	0.001	2442036	WORD_OFF	n/a	n/a	CORD	12	19	[0, 0, 0]	n/a	FR1	0	R1368T
2441.499	0.0	2442036	ENCODING_END	n/a	n/a	n/a	-999	19	[0, 0, 0]	n/a	FR1	0	R1368T
2441.499	0.0	2442036	DISTRACT_START	n/a	n/a	n/a	-999	19	[0, 0, 0]	n/a	FR1	0	R1368T
2441.499	0.016	2442040	START	n/a	n/a	n/a	-999	19	[-999, -999, -999]	n/a	FR1	0	R1368T
2441.515	10.452	2442056	PROB	10.452	n/a	n/a	-999	19	[6, 6, 5]	17	FR1	0	R1368T
2451.967	14.69	2452507	PROB	14.69	n/a	n/a	-999	19	[7, 9, 8]	24	FR1	0	R1368T
2466.657	0.012	2467196	STOP	n/a	n/a	n/a	-999	19	[-999, -999, -999]	n/a	FR1	0	R1368T
2466.669	2.235	2467199	DISTRACT_END	n/a	n/a	n/a	-999	19	[0, 0, 0]	n/a	FR1	0	R1368T
2468.904	5.033	2469434	REC_START	n/a	n/a	n/a	-999	19	[0, 0, 0]	n/a	FR1	0	R1368T
2473.937	22.388	2474476	REC_WORD_VV	22.388	n/a	<>	-999	19	[0, 0, 0]	n/a	FR1	0	R1368T
2496.325	1.0	2496863	REC_WORD_VV	1.0	n/a	<>	-999	19	[0, 0, 0]	n/a	FR1	0	R1368T
2497.325	1.588	2497863	REC_WORD_VV	1.588	n/a	<>	-999	19	[0, 0, 0]	n/a	FR1	0	R1368T
2498.913	5.114	2499446	REC_END	n/a	n/a	n/a	-999	19	[0, 0, 0]	n/a	FR1	0	R1368T
2504.027	10.429	2504574	COUNTDOWN_START	n/a	n/a	n/a	-999	20	[0, 0, 0]	n/a	FR1	0	R1368T
2514.456	1.206	2514983	COUNTDOWN_END	n/a	n/a	n/a	-999	20	[0, 0, 0]	n/a	FR1	0	R1368T
2515.662	1.085	2516184	ENCODING_START	n/a	n/a	n/a	-999	20	[0, 0, 0]	n/a	FR1	0	R1368T
2516.747	1.632	2517274	WORD	n/a	n/a	ICE	1	20	[0, 0, 0]	n/a	FR1	0	R1368T
2518.379	0.802	2518895	WORD_OFF	n/a	n/a	ICE	1	20	[0, 0, 0]	n/a	FR1	0	R1368T
2519.181	1.631	2519719	WORD	n/a	n/a	KITE	2	20	[0, 0, 0]	n/a	FR1	0	R1368T
2520.812	1.122	2521326	WORD_OFF	n/a	n/a	KITE	2	20	[0, 0, 0]	n/a	FR1	0	R1368T
2521.934	1.629	2522472	WORD	n/a	n/a	BLUSH	3	20	[0, 0, 0]	n/a	FR1	0	R1368T
2523.563	1.134	2524078	WORD_OFF	n/a	n/a	BLUSH	3	20	[0, 0, 0]	n/a	FR1	0	R1368T
2524.697	1.633	2525238	WORD	n/a	n/a	PEA	4	20	[0, 0, 0]	n/a	FR1	0	R1368T
2526.33	0.936	2526845	WORD_OFF	n/a	n/a	PEA	4	20	[0, 0, 0]	n/a	FR1	0	R1368T
2527.266	1.631	2527795	WORD	n/a	n/a	ZOO	5	20	[0, 0, 0]	n/a	FR1	0	R1368T
2528.897	1.147	2529416	WORD_OFF	n/a	n/a	ZOO	5	20	[0, 0, 0]	n/a	FR1	0	R1368T
2530.044	1.637	2530589	WORD	n/a	n/a	SLEEVE	6	20	[0, 0, 0]	n/a	FR1	0	R1368T
2531.681	0.972	2532196	WORD_OFF	n/a	n/a	SLEEVE	6	20	[0, 0, 0]	n/a	FR1	0	R1368T
2532.653	1.629	2533188	WORD	n/a	n/a	DOCK	7	20	[0, 0, 0]	n/a	FR1	0	R1368T
2534.282	0.817	2534795	WORD_OFF	n/a	n/a	DOCK	7	20	[0, 0, 0]	n/a	FR1	0	R1368T
2535.099	1.633	2535633	WORD	n/a	n/a	LOCK	8	20	[0, 0, 0]	n/a	FR1	0	R1368T
2536.732	0.764	2537254	WORD_OFF	n/a	n/a	LOCK	8	20	[0, 0, 0]	n/a	FR1	0	R1368T
2537.496	1.636	2538036	WORD	n/a	n/a	BRIDGE	9	20	[0, 0, 0]	n/a	FR1	0	R1368T
2539.132	0.966	2539657	WORD_OFF	n/a	n/a	BRIDGE	9	20	[0, 0, 0]	n/a	FR1	0	R1368T
2540.098	1.635	2540635	WORD	n/a	n/a	BOMB	10	20	[0, 0, 0]	n/a	FR1	0	R1368T
2541.733	0.785	2542256	WORD_OFF	n/a	n/a	BOMB	10	20	[0, 0, 0]	n/a	FR1	0	R1368T
2542.518	1.632	2543052	WORD	n/a	n/a	CLAY	11	20	[0, 0, 0]	n/a	FR1	0	R1368T
2544.15	0.839	2544673	WORD_OFF	n/a	n/a	CLAY	11	20	[0, 0, 0]	n/a	FR1	0	R1368T
2544.989	1.628	2545512	WORD	n/a	n/a	BOOK	12	20	[0, 0, 0]	n/a	FR1	0	R1368T
2546.617	0.001	2547146	WORD_OFF	n/a	n/a	BOOK	12	20	[0, 0, 0]	n/a	FR1	0	R1368T
2546.618	0.0	2547153	START	n/a	n/a	n/a	-999	20	[-999, -999, -999]	n/a	FR1	0	R1368T
2546.618	0.0	2547160	ENCODING_END	n/a	n/a	n/a	-999	20	[0, 0, 0]	n/a	FR1	0	R1368T
2546.618	0.016	2547160	DISTRACT_START	n/a	n/a	n/a	-999	20	[0, 0, 0]	n/a	FR1	0	R1368T
2546.634	14.419	2547169	PROB	14.419	n/a	n/a	-999	20	[8, 4, 9]	21	FR1	0	R1368T
2561.053	9.985	2561587	PROB	9.985	n/a	n/a	-999	20	[3, 7, 6]	16	FR1	0	R1368T
2571.038	0.0	2571555	DISTRACT_END	n/a	n/a	n/a	-999	20	[0, 0, 0]	n/a	FR1	0	R1368T
2571.031	2.258	2571565	STOP	n/a	n/a	n/a	-999	20	[-999, -999, -999]	n/a	FR1	0	R1368T
2573.289	28.454	2573818	REC_START	n/a	n/a	n/a	-999	20	[0, 0, 0]	n/a	FR1	0	R1368T
2601.743	1.556	2602275	REC_WORD_VV	1.556	n/a	<>	-999	20	[0, 0, 0]	n/a	FR1	0	R1368T
2603.299	66.591	2603829	REC_END	n/a	n/a	n/a	-999	20	[0, 0, 0]	n/a	FR1	0	R1368T
2669.89	10.429	2670433	COUNTDOWN_START	n/a	n/a	n/a	-999	21	[0, 0, 0]	n/a	FR1	0	R1368T
2680.319	1.19	2680842	COUNTDOWN_END	n/a	n/a	n/a	-999	21	[0, 0, 0]	n/a	FR1	0	R1368T
2681.509	0.933	2682016	ENCODING_START	n/a	n/a	n/a	-999	21	[0, 0, 0]	n/a	FR1	0	R1368T
2682.442	1.634	2682966	WORD	n/a	n/a	PLATE	1	21	[0, 0, 0]	n/a	FR1	0	R1368T
2684.076	1.092	2684587	WORD_OFF	n/a	n/a	PLATE	1	21	[0, 0, 0]	n/a	FR1	0	R1368T
2685.168	1.625	2685690	WORD	n/a	n/a	TRAIN	2	21	[0, 0, 0]	n/a	FR1	0	R1368T
2686.793	0.99	2687297	WORD_OFF	n/a	n/a	TRAIN	2	21	[0, 0, 0]	n/a	FR1	0	R1368T
2687.783	1.627	2688303	WORD	n/a	n/a	BRANCH	3	21	[0, 0, 0]	n/a	FR1	0	R1368T
2689.41	0.875	2689924	WORD_OFF	n/a	n/a	BRANCH	3	21	[0, 0, 0]	n/a	FR1	0	R1368T
2690.285	1.625	2690804	WORD	n/a	n/a	CAPE	4	21	[0, 0, 0]	n/a	FR1	0	R1368T
2691.91	1.056	2692425	WORD_OFF	n/a	n/a	CAPE	4	21	[0, 0, 0]	n/a	FR1	0	R1368T
2692.966	1.628	2693487	WORD	n/a	n/a	SMILE	5	21	[0, 0, 0]	n/a	FR1	0	R1368T
2694.594	1.003	2695107	WORD_OFF	n/a	n/a	SMILE	5	21	[0, 0, 0]	n/a	FR1	0	R1368T
2695.597	1.631	2696113	WORD	n/a	n/a	DRUM	6	21	[0, 0, 0]	n/a	FR1	0	R1368T
2697.228	0.759	2697734	WORD_OFF	n/a	n/a	DRUM	6	21	[0, 0, 0]	n/a	FR1	0	R1368T
2697.987	1.625	2698502	WORD	n/a	n/a	SKI	7	21	[0, 0, 0]	n/a	FR1	0	R1368T
2699.612	1.117	2700123	WORD_OFF	n/a	n/a	SKI	7	21	[0, 0, 0]	n/a	FR1	0	R1368T
2700.729	1.633	2701255	WORD	n/a	n/a	DUCK	8	21	[0, 0, 0]	n/a	FR1	0	R1368T
2702.362	0.762	2702876	WORD_OFF	n/a	n/a	DUCK	8	21	[0, 0, 0]	n/a	FR1	0	R1368T
2703.124	1.623	2703644	WORD	n/a	n/a	WING	9	21	[0, 0, 0]	n/a	FR1	0	R1368T
2704.747	0.9	2705251	WORD_OFF	n/a	n/a	WING	9	21	[0, 0, 0]	n/a	FR1	0	R1368T
2705.647	1.633	2706173	WORD	n/a	n/a	PEARL	10	21	[0, 0, 0]	n/a	FR1	0	R1368T
2707.28	1.044	2707794	WORD_OFF	n/a	n/a	PEARL	10	21	[0, 0, 0]	n/a	FR1	0	R1368T
2708.324	1.623	2708842	WORD	n/a	n/a	ARM	11	21	[0, 0, 0]	n/a	FR1	0	R1368T
2709.947	0.938	2710462	WORD_OFF	n/a	n/a	ARM	11	21	[0, 0, 0]	n/a	FR1	0	R1368T
2710.885	1.629	2711412	WORD	n/a	n/a	RAKE	12	21	[0, 0, 0]	n/a	FR1	0	R1368T
2712.514	0.001	2713033	WORD_OFF	n/a	n/a	RAKE	12	21	[0, 0, 0]	n/a	FR1	0	R1368T
2712.515	0.0	2713042	START	n/a	n/a	n/a	-999	21	[-999, -999, -999]	n/a	FR1	0	R1368T
2712.515	0.0	2713047	ENCODING_END	n/a	n/a	n/a	-999	21	[0, 0, 0]	n/a	FR1	0	R1368T
2712.515	0.015	2713047	DISTRACT_START	n/a	n/a	n/a	-999	21	[0, 0, 0]	n/a	FR1	0	R1368T
2712.53	23.855	2713057	PROB	23.855	n/a	n/a	-999	21	[5, 8, 9]	22	FR1	0	R1368T
2736.385	0.0	2736897	DISTRACT_END	n/a	n/a	n/a	-999	21	[0, 0, 0]	n/a	FR1	0	R1368T
2736.378	2.241	2736903	STOP	n/a	n/a	n/a	-999	21	[-999, -999, -999]	n/a	FR1	0	R1368T
2738.619	3.358	2739133	REC_START	n/a	n/a	n/a	-999	21	[0, 0, 0]	n/a	FR1	0	R1368T
2741.977	1.091	2742502	REC_WORD	1.091	n/a	DUCK	8	21	[0, 0, 0]	n/a	FR1	0	R1368T
2743.068	1.138	2743593	REC_WORD	1.138	n/a	ARM	11	21	[0, 0, 0]	n/a	FR1	0	R1368T
2744.206	2.437	2744731	REC_WORD	2.437	n/a	PLATE	1	21	[0, 0, 0]	n/a	FR1	0	R1368T
2746.643	11.407	2747168	REC_WORD	11.407	n/a	TRAIN	2	21	[0, 0, 0]	n/a	FR1	0	R1368T
2758.05	10.58	2758574	REC_WORD	10.58	n/a	BRANCH	3	21	[0, 0, 0]	n/a	FR1	0	R1368T
2768.63	5.146	2769158	REC_END	n/a	n/a	n/a	-999	21	[0, 0, 0]	n/a	FR1	0	R1368T
2773.776	10.429	2774314	COUNTDOWN_START	n/a	n/a	n/a	-999	22	[0, 0, 0]	n/a	FR1	0	R1368T
2784.205	1.189	2784709	COUNTDOWN_END	n/a	n/a	n/a	-999	22	[0, 0, 0]	n/a	FR1	0	R1368T
2785.394	0.752	2785896	ENCODING_START	n/a	n/a	n/a	-999	22	[0, 0, 0]	n/a	FR1	0	R1368T
2786.146	1.632	2786665	WORD	n/a	n/a	CLOWN	1	22	[0, 0, 0]	n/a	FR1	0	R1368T
2787.778	0.986	2788285	WORD_OFF	n/a	n/a	CLOWN	1	22	[0, 0, 0]	n/a	FR1	0	R1368T
2788.764	1.631	2789277	WORD	n/a	n/a	FOAM	2	22	[0, 0, 0]	n/a	FR1	0	R1368T
2790.395	1.02	2790898	WORD_OFF	n/a	n/a	FOAM	2	22	[0, 0, 0]	n/a	FR1	0	R1368T
2791.415	1.63	2791932	WORD	n/a	n/a	CAVE	3	22	[0, 0, 0]	n/a	FR1	0	R1368T
2793.045	1.101	2793553	WORD_OFF	n/a	n/a	CAVE	3	22	[0, 0, 0]	n/a	FR1	0	R1368T
2794.146	1.633	2794670	WORD	n/a	n/a	INK	4	22	[0, 0, 0]	n/a	FR1	0	R1368T
2795.779	0.967	2796278	WORD_OFF	n/a	n/a	INK	4	22	[0, 0, 0]	n/a	FR1	0	R1368T
2796.746	1.634	2797269	WORD	n/a	n/a	ROAD	5	22	[0, 0, 0]	n/a	FR1	0	R1368T
2798.38	0.751	2798890	WORD_OFF	n/a	n/a	ROAD	5	22	[0, 0, 0]	n/a	FR1	0	R1368T
2799.131	1.617	2799644	WORD	n/a	n/a	THREAD	6	22	[0, 0, 0]	n/a	FR1	0	R1368T
2800.748	0.781	2801251	WORD_OFF	n/a	n/a	THREAD	6	22	[0, 0, 0]	n/a	FR1	0	R1368T
2801.529	1.635	2802048	WORD	n/a	n/a	FLAME	7	22	[0, 0, 0]	n/a	FR1	0	R1368T
2803.164	0.861	2803668	WORD_OFF	n/a	n/a	FLAME	7	22	[0, 0, 0]	n/a	FR1	0	R1368T
2804.025	1.623	2804535	WORD	n/a	n/a	ELF	8	22	[0, 0, 0]	n/a	FR1	0	R1368T
2805.648	1.011	2806155	WORD_OFF	n/a	n/a	ELF	8	22	[0, 0, 0]	n/a	FR1	0	R1368T
2806.659	1.622	2807175	WORD	n/a	n/a	GATE	9	22	[0, 0, 0]	n/a	FR1	0	R1368T
2808.281	1.134	2808782	WORD_OFF	n/a	n/a	GATE	9	22	[0, 0, 0]	n/a	FR1	0	R1368T
2809.415	1.634	2809942	WORD	n/a	n/a	MILK	10	22	[0, 0, 0]	n/a	FR1	0	R1368T
2811.049	0.958	2811548	WORD_OFF	n/a	n/a	MILK	10	22	[0, 0, 0]	n/a	FR1	0	R1368T
2812.007	1.625	2812513	WORD	n/a	n/a	BOAT	11	22	[0, 0, 0]	n/a	FR1	0	R1368T
2813.632	0.989	2814133	WORD_OFF	n/a	n/a	BOAT	11	22	[0, 0, 0]	n/a	FR1	0	R1368T
2814.621	1.63	2815139	WORD	n/a	n/a	CLOCK	12	22	[0, 0, 0]	n/a	FR1	0	R1368T
2816.251	0.0	2816772	START	n/a	n/a	n/a	-999	22	[-999, -999, -999]	n/a	FR1	0	R1368T
2816.249	0.001	2816774	WORD_OFF	n/a	n/a	CLOCK	12	22	[0, 0, 0]	n/a	FR1	0	R1368T
2816.25	0.001	2816774	ENCODING_END	n/a	n/a	n/a	-999	22	[0, 0, 0]	n/a	FR1	0	R1368T
2816.251	0.015	2816774	DISTRACT_START	n/a	n/a	n/a	-999	22	[0, 0, 0]	n/a	FR1	0	R1368T
2816.266	22.069	2816787	PROB	22.069	n/a	n/a	-999	22	[3, 4, 5]	12	FR1	0	R1368T
2838.335	0.019	2838855	STOP	n/a	n/a	n/a	-999	22	[-999, -999, -999]	n/a	FR1	0	R1368T
2838.354	2.3	2838863	DISTRACT_END	n/a	n/a	n/a	-999	22	[0, 0, 0]	n/a	FR1	0	R1368T
2840.654	11.503	2841169	REC_START	n/a	n/a	n/a	-999	22	[0, 0, 0]	n/a	FR1	0	R1368T
2852.157	4.194	2852676	REC_WORD	4.194	n/a	COAT	-999	22	[0, 0, 0]	n/a	FR1	0	R1368T
2856.351	5.953	2856870	REC_WORD	5.953	n/a	TRAIN	-999	22	[0, 0, 0]	n/a	FR1	0	R1368T
2862.304	6.37	2862823	REC_WORD	6.37	n/a	SET	-999	22	[0, 0, 0]	n/a	FR1	0	R1368T
2868.674	1.99	2869193	REC_WORD	1.99	n/a	SAIL	-999	22	[0, 0, 0]	n/a	FR1	0	R1368T
2870.664	6.864	2871180	REC_END	n/a	n/a	n/a	-999	22	[0, 0, 0]	n/a	FR1	0	R1368T
2877.528	10.429	2878068	COUNTDOWN_START	n/a	n/a	n/a	-999	23	[0, 0, 0]	n/a	FR1	0	R1368T
2887.957	1.223	2888463	COUNTDOWN_END	n/a	n/a	n/a	-999	23	[0, 0, 0]	n/a	FR1	0	R1368T
2889.18	0.793	2889679	ENCODING_START	n/a	n/a	n/a	-999	23	[0, 0, 0]	n/a	FR1	0	R1368T
2889.973	1.624	2890475	WORD	n/a	n/a	LAND	1	23	[0, 0, 0]	n/a	FR1	0	R1368T
2891.597	0.819	2892096	WORD_OFF	n/a	n/a	LAND	1	23	[0, 0, 0]	n/a	FR1	0	R1368T
2892.416	1.631	2892934	WORD	n/a	n/a	DOG	2	23	[0, 0, 0]	n/a	FR1	0	R1368T
2894.047	1.101	2894541	WORD_OFF	n/a	n/a	DOG	2	23	[0, 0, 0]	n/a	FR1	0	R1368T
2895.148	1.633	2895659	WORD	n/a	n/a	WORLD	3	23	[0, 0, 0]	n/a	FR1	0	R1368T
2896.781	0.784	2897280	WORD_OFF	n/a	n/a	WORLD	3	23	[0, 0, 0]	n/a	FR1	0	R1368T
2897.565	1.633	2898076	WORD	n/a	n/a	TOOL	4	23	[0, 0, 0]	n/a	FR1	0	R1368T
2899.198	0.929	2899697	WORD_OFF	n/a	n/a	TOOL	4	23	[0, 0, 0]	n/a	FR1	0	R1368T
2900.127	1.622	2900633	WORD	n/a	n/a	OAR	5	23	[0, 0, 0]	n/a	FR1	0	R1368T
2901.749	0.75	2902253	WORD_OFF	n/a	n/a	OAR	5	23	[0, 0, 0]	n/a	FR1	0	R1368T
2902.499	1.633	2903008	WORD	n/a	n/a	YARD	6	23	[0, 0, 0]	n/a	FR1	0	R1368T
2904.132	0.793	2904629	WORD_OFF	n/a	n/a	YARD	6	23	[0, 0, 0]	n/a	FR1	0	R1368T
2904.925	1.624	2905425	WORD	n/a	n/a	VAN	7	23	[0, 0, 0]	n/a	FR1	0	R1368T
2906.549	0.761	2907046	WORD_OFF	n/a	n/a	VAN	7	23	[0, 0, 0]	n/a	FR1	0	R1368T
2907.31	1.623	2907814	WORD	n/a	n/a	BRUSH	8	23	[0, 0, 0]	n/a	FR1	0	R1368T
2908.933	0.962	2909435	WORD_OFF	n/a	n/a	BRUSH	8	23	[0, 0, 0]	n/a	FR1	0	R1368T
2909.895	1.622	2910399	WORD	n/a	n/a	BAT	9	23	[0, 0, 0]	n/a	FR1	0	R1368T
2911.517	1.114	2912020	WORD_OFF	n/a	n/a	BAT	9	23	[0, 0, 0]	n/a	FR1	0	R1368T
2912.631	1.636	2913152	WORD	n/a	n/a	GEESE	10	23	[0, 0, 0]	n/a	FR1	0	R1368T
2914.267	0.859	2914772	WORD_OFF	n/a	n/a	GEESE	10	23	[0, 0, 0]	n/a	FR1	0	R1368T
2915.126	1.625	2915638	WORD	n/a	n/a	HOOF	11	23	[0, 0, 0]	n/a	FR1	0	R1368T
2916.751	0.759	2917245	WORD_OFF	n/a	n/a	HOOF	11	23	[0, 0, 0]	n/a	FR1	0	R1368T
2917.51	1.625	2918014	WORD	n/a	n/a	SHOE	12	23	[0, 0, 0]	n/a	FR1	0	R1368T
2919.135	0.0	2919648	WORD_OFF	n/a	n/a	SHOE	12	23	[0, 0, 0]	n/a	FR1	0	R1368T
2919.135	0.001	2919648	ENCODING_END	n/a	n/a	n/a	-999	23	[0, 0, 0]	n/a	FR1	0	R1368T
2919.136	0.0	2919648	DISTRACT_START	n/a	n/a	n/a	-999	23	[0, 0, 0]	n/a	FR1	0	R1368T
2919.136	0.015	2919652	START	n/a	n/a	n/a	-999	23	[-999, -999, -999]	n/a	FR1	0	R1368T
2919.151	19.237	2919667	PROB	19.237	n/a	n/a	-999	23	[2, 5, 9]	16	FR1	0	R1368T
2938.388	5.135	2938903	PROB	5.135	n/a	n/a	-999	23	[2, 6, 4]	12	FR1	0	R1368T
2943.523	0.0	2944029	DISTRACT_END	n/a	n/a	n/a	-999	23	[0, 0, 0]	n/a	FR1	0	R1368T
2943.515	2.192	2944030	STOP	n/a	n/a	n/a	-999	23	[-999, -999, -999]	n/a	FR1	0	R1368T
2945.707	4.642	2946209	REC_START	n/a	n/a	n/a	-999	23	[0, 0, 0]	n/a	FR1	0	R1368T
2950.349	0.738	2950863	REC_WORD	0.738	n/a	DOG	2	23	[0, 0, 0]	n/a	FR1	0	R1368T
2951.087	2.24	2951601	REC_WORD	2.24	n/a	BAT	9	23	[0, 0, 0]	n/a	FR1	0	R1368T
2953.327	0.977	2953841	REC_WORD	0.977	n/a	SHEEP	-999	23	[0, 0, 0]	n/a	FR1	0	R1368T
2954.304	15.224	2954818	REC_WORD	15.224	n/a	GEESE	10	23	[0, 0, 0]	n/a	FR1	0	R1368T
2969.528	6.19	2970041	REC_WORD	6.19	n/a	AXE	-999	23	[0, 0, 0]	n/a	FR1	0	R1368T
2975.718	6.262	2976234	REC_END	n/a	n/a	n/a	-999	23	[0, 0, 0]	n/a	FR1	0	R1368T
2981.98	10.43	2982508	COUNTDOWN_START	n/a	n/a	n/a	-999	24	[0, 0, 0]	n/a	FR1	0	R1368T
2992.41	1.222	2992903	COUNTDOWN_END	n/a	n/a	n/a	-999	24	[0, 0, 0]	n/a	FR1	0	R1368T
2993.632	0.949	2994132	ENCODING_START	n/a	n/a	n/a	-999	24	[0, 0, 0]	n/a	FR1	0	R1368T
2994.581	1.635	2995096	WORD	n/a	n/a	STRAW	1	24	[0, 0, 0]	n/a	FR1	0	R1368T
2996.216	1.077	2996717	WORD_OFF	n/a	n/a	STRAW	1	24	[0, 0, 0]	n/a	FR1	0	R1368T
2997.293	1.623	2997793	WORD	n/a	n/a	LAWN	2	24	[0, 0, 0]	n/a	FR1	0	R1368T
2998.916	1.028	2999414	WORD_OFF	n/a	n/a	LAWN	2	24	[0, 0, 0]	n/a	FR1	0	R1368T
2999.944	1.622	3000447	WORD	n/a	n/a	NOSE	3	24	[0, 0, 0]	n/a	FR1	0	R1368T
3001.566	0.864	3002054	WORD_OFF	n/a	n/a	NOSE	3	24	[0, 0, 0]	n/a	FR1	0	R1368T
3002.43	1.637	3002948	WORD	n/a	n/a	FARM	4	24	[0, 0, 0]	n/a	FR1	0	R1368T
3004.067	0.933	3004555	WORD_OFF	n/a	n/a	FARM	4	24	[0, 0, 0]	n/a	FR1	0	R1368T
3005.0	1.634	3005505	WORD	n/a	n/a	ROSE	5	24	[0, 0, 0]	n/a	FR1	0	R1368T
3006.634	0.766	3007126	WORD_OFF	n/a	n/a	ROSE	5	24	[0, 0, 0]	n/a	FR1	0	R1368T
3007.4	1.635	3007908	WORD	n/a	n/a	BAG	6	24	[0, 0, 0]	n/a	FR1	0	R1368T
3009.035	0.932	3009529	WORD_OFF	n/a	n/a	BAG	6	24	[0, 0, 0]	n/a	FR1	0	R1368T
3009.967	1.635	3010479	WORD	n/a	n/a	BEAN	7	24	[0, 0, 0]	n/a	FR1	0	R1368T
3011.602	1.057	3012100	WORD_OFF	n/a	n/a	BEAN	7	24	[0, 0, 0]	n/a	FR1	0	R1368T
3012.659	1.626	3013162	WORD	n/a	n/a	SOUP	8	24	[0, 0, 0]	n/a	FR1	0	R1368T
3014.285	0.841	3014782	WORD_OFF	n/a	n/a	SOUP	8	24	[0, 0, 0]	n/a	FR1	0	R1368T
3015.126	1.627	3015635	WORD	n/a	n/a	BEAR	9	24	[0, 0, 0]	n/a	FR1	0	R1368T
3016.753	0.831	3017242	WORD_OFF	n/a	n/a	BEAR	9	24	[0, 0, 0]	n/a	FR1	0	R1368T
3017.584	1.636	3018094	WORD	n/a	n/a	FORT	10	24	[0, 0, 0]	n/a	FR1	0	R1368T
3019.22	0.84	3019715	WORD_OFF	n/a	n/a	FORT	10	24	[0, 0, 0]	n/a	FR1	0	R1368T
3020.06	1.627	3020567	WORD	n/a	n/a	SHIELD	11	24	[0, 0, 0]	n/a	FR1	0	R1368T
3021.687	1.017	3022174	WORD_OFF	n/a	n/a	SHIELD	11	24	[0, 0, 0]	n/a	FR1	0	R1368T
3022.704	1.633	3023208	WORD	n/a	n/a	DRESS	12	24	[0, 0, 0]	n/a	FR1	0	R1368T
3024.337	0.001	3024842	WORD_OFF	n/a	n/a	DRESS	12	24	[0, 0, 0]	n/a	FR1	0	R1368T
3024.338	0.0	3024842	ENCODING_END	n/a	n/a	n/a	-999	24	[0, 0, 0]	n/a	FR1	0	R1368T
3024.338	0.0	3024848	START	n/a	n/a	n/a	-999	24	[-999, -999, -999]	n/a	FR1	0	R1368T
3024.338	0.016	3024856	DISTRACT_START	n/a	n/a	n/a	-999	24	[0, 0, 0]	n/a	FR1	0	R1368T
3024.354	15.486	3024864	PROB	15.486	n/a	n/a	-999	24	[8, 5, 1]	14	FR1	0	R1368T
3039.84	6.101	3040350	PROB	6.101	n/a	n/a	-999	24	[2, 6, 2]	10	FR1	0	R1368T
3045.941	0.0	3046429	DISTRACT_END	n/a	n/a	n/a	-999	24	[0, 0, 0]	n/a	FR1	0	R1368T
3045.926	2.25	3046435	STOP	n/a	n/a	n/a	-999	24	[-999, -999, -999]	n/a	FR1	0	R1368T
3048.176	11.294	3048678	REC_START	n/a	n/a	n/a	-999	24	[0, 0, 0]	n/a	FR1	0	R1368T
3059.47	11.18	3059979	REC_WORD	11.18	n/a	BEAR	9	24	[0, 0, 0]	n/a	FR1	0	R1368T
3070.65	7.379	3071158	REC_WORD	7.379	n/a	STAND	-999	24	[0, 0, 0]	n/a	FR1	0	R1368T
3078.029	0.158	3078537	REC_WORD_VV	0.158	n/a	<>	-999	24	[0, 0, 0]	n/a	FR1	0	R1368T
3078.187	4.628	3078704	REC_END	n/a	n/a	n/a	-999	24	[0, 0, 0]	n/a	FR1	0	R1368T
3082.815	10.428	3083342	COUNTDOWN_START	n/a	n/a	n/a	-999	25	[0, 0, 0]	n/a	FR1	0	R1368T
3093.243	1.141	3093737	COUNTDOWN_END	n/a	n/a	n/a	-999	25	[0, 0, 0]	n/a	FR1	0	R1368T
3094.384	0.764	3094869	ENCODING_START	n/a	n/a	n/a	-999	25	[0, 0, 0]	n/a	FR1	0	R1368T
3095.148	1.636	3095651	WORD	n/a	n/a	FOOT	1	25	[0, 0, 0]	n/a	FR1	0	R1368T
3096.784	0.977	3097272	WORD_OFF	n/a	n/a	FOOT	1	25	[0, 0, 0]	n/a	FR1	0	R1368T
3097.761	1.623	3098250	WORD	n/a	n/a	LIP	2	25	[0, 0, 0]	n/a	FR1	0	R1368T
3099.384	0.988	3099871	WORD_OFF	n/a	n/a	LIP	2	25	[0, 0, 0]	n/a	FR1	0	R1368T
3100.372	1.629	3100877	WORD	n/a	n/a	PEAR	3	25	[0, 0, 0]	n/a	FR1	0	R1368T
3102.001	0.931	3102484	WORD_OFF	n/a	n/a	PEAR	3	25	[0, 0, 0]	n/a	FR1	0	R1368T
3102.932	1.637	3103434	WORD	n/a	n/a	BATH	4	25	[0, 0, 0]	n/a	FR1	0	R1368T
3104.569	0.771	3105054	WORD_OFF	n/a	n/a	BATH	4	25	[0, 0, 0]	n/a	FR1	0	R1368T
3105.34	1.629	3105837	WORD	n/a	n/a	DOLL	5	25	[0, 0, 0]	n/a	FR1	0	R1368T
3106.969	1.127	3107458	WORD_OFF	n/a	n/a	DOLL	5	25	[0, 0, 0]	n/a	FR1	0	R1368T
3108.096	1.624	3108589	WORD	n/a	n/a	STAR	6	25	[0, 0, 0]	n/a	FR1	0	R1368T
3109.72	0.812	3110210	WORD_OFF	n/a	n/a	STAR	6	25	[0, 0, 0]	n/a	FR1	0	R1368T
3110.532	1.621	3111020	WORD	n/a	n/a	SALT	7	25	[0, 0, 0]	n/a	FR1	0	R1368T
3112.153	0.966	3112641	WORD_OFF	n/a	n/a	SALT	7	25	[0, 0, 0]	n/a	FR1	0	R1368T
3113.119	1.635	3113619	WORD	n/a	n/a	RAT	8	25	[0, 0, 0]	n/a	FR1	0	R1368T
3114.754	0.798	3115240	WORD_OFF	n/a	n/a	RAT	8	25	[0, 0, 0]	n/a	FR1	0	R1368T
3115.552	1.636	3116064	WORD	n/a	n/a	TOAD	9	25	[0, 0, 0]	n/a	FR1	0	R1368T
3117.188	0.948	3117671	WORD_OFF	n/a	n/a	TOAD	9	25	[0, 0, 0]	n/a	FR1	0	R1368T
3118.136	1.635	3118643	WORD	n/a	n/a	SHIRT	10	25	[0, 0, 0]	n/a	FR1	0	R1368T
3119.771	0.784	3120256	WORD_OFF	n/a	n/a	SHIRT	10	25	[0, 0, 0]	n/a	FR1	0	R1368T
3120.555	1.634	3121052	WORD	n/a	n/a	SPRING	11	25	[0, 0, 0]	n/a	FR1	0	R1368T
3122.189	1.136	3122673	WORD_OFF	n/a	n/a	SPRING	11	25	[0, 0, 0]	n/a	FR1	0	R1368T
3123.325	1.631	3123819	WORD	n/a	n/a	RAIN	12	25	[0, 0, 0]	n/a	FR1	0	R1368T
3124.956	0.001	3125453	WORD_OFF	n/a	n/a	RAIN	12	25	[0, 0, 0]	n/a	FR1	0	R1368T
3124.957	0.0	3125462	START	n/a	n/a	n/a	-999	25	[-999, -999, -999]	n/a	FR1	0	R1368T
3124.956	0.0	3125467	ENCODING_END	n/a	n/a	n/a	-999	25	[0, 0, 0]	n/a	FR1	0	R1368T
3124.956	0.016	3125467	DISTRACT_START	n/a	n/a	n/a	-999	25	[0, 0, 0]	n/a	FR1	0	R1368T
3124.972	6.468	3125477	PROB	6.468	n/a	n/a	-999	25	[4, 4, 4]	12	FR1	0	R1368T
3131.44	8.335	3131945	PROB	8.335	n/a	n/a	-999	25	[5, 2, 2]	9	FR1	0	R1368T
3139.775	20.587	3140280	PROB	20.587	n/a	n/a	-999	25	[2, 4, 9]	15	FR1	0	R1368T
3160.362	0.0	3160844	DISTRACT_END	n/a	n/a	n/a	-999	25	[0, 0, 0]	n/a	FR1	0	R1368T
3160.343	2.32	3160846	STOP	n/a	n/a	n/a	-999	25	[-999, -999, -999]	n/a	FR1	0	R1368T
3162.663	15.563	3163163	REC_START	n/a	n/a	n/a	-999	25	[0, 0, 0]	n/a	FR1	0	R1368T
3178.226	2.318	3178729	REC_WORD_VV	2.318	n/a	<>	-999	25	[0, 0, 0]	n/a	FR1	0	R1368T
3180.544	1.0	3181046	REC_WORD_VV	1.0	n/a	<>	-999	25	[0, 0, 0]	n/a	FR1	0	R1368T
3181.544	1.0	3182046	REC_WORD_VV	1.0	n/a	<>	-999	25	[0, 0, 0]	n/a	FR1	0	R1368T
3182.544	10.127	3183046	REC_WORD_VV	10.127	n/a	<>	-999	25	[0, 0, 0]	n/a	FR1	0	R1368T
3192.671	0.0	3193175	REC_END	n/a	n/a	n/a	-999	25	[0, 0, 0]	n/a	FR1	0	R1368T
