onset	duration	sample	trial_type	response_time	stim_file	item_name	serialpos	list	test	answer	experiment	session	subject
0.0	53.797	406138	SESS_START	n/a	n/a	n/a	-999	-999	[0, 0, 0]	n/a	FR1	0	R1162N
53.797	10.428	459933	COUNTDOWN_START	n/a	n/a	n/a	-999	-999	[0, 0, 0]	n/a	FR1	0	R1162N
64.225	3.708	470360	COUNTDOWN_END	n/a	n/a	n/a	-999	-999	[0, 0, 0]	n/a	FR1	0	R1162N
67.933	2.483	474068	PRACTICE_WORD	n/a	n/a	CHEST	1	-1	[0, 0, 0]	n/a	FR1	0	R1162N
70.416	2.551	476551	PRACTICE_WORD	n/a	n/a	CAMEL	2	-1	[0, 0, 0]	n/a	FR1	0	R1162N
72.967	2.5	479102	PRACTICE_WORD	n/a	n/a	WATCH	3	-1	[0, 0, 0]	n/a	FR1	0	R1162N
75.467	2.484	481602	PRACTICE_WORD	n/a	n/a	RING	4	-1	[0, 0, 0]	n/a	FR1	0	R1162N
77.951	2.55	484086	PRACTICE_WORD	n/a	n/a	COTTON	5	-1	[0, 0, 0]	n/a	FR1	0	R1162N
80.501	2.401	486636	PRACTICE_WORD	n/a	n/a	FLOOD	6	-1	[0, 0, 0]	n/a	FR1	0	R1162N
82.902	2.534	489036	PRACTICE_WORD	n/a	n/a	IRON	7	-1	[0, 0, 0]	n/a	FR1	0	R1162N
85.436	2.516	491570	PRACTICE_WORD	n/a	n/a	ATTIC	8	-1	[0, 0, 0]	n/a	FR1	0	R1162N
87.952	2.451	494086	PRACTICE_WORD	n/a	n/a	BEAM	9	-1	[0, 0, 0]	n/a	FR1	0	R1162N
90.403	2.55	496537	PRACTICE_WORD	n/a	n/a	RHINO	10	-1	[0, 0, 0]	n/a	FR1	0	R1162N
92.953	2.434	499087	PRACTICE_WORD	n/a	n/a	TONGUE	11	-1	[0, 0, 0]	n/a	FR1	0	R1162N
95.387	1.617	501521	PRACTICE_WORD	n/a	n/a	WAGON	12	-1	[0, 0, 0]	n/a	FR1	0	R1162N
97.004	0.0	503138	PRACTICE_DISTRACT_START	n/a	n/a	n/a	-999	-1	[0, 0, 0]	n/a	FR1	0	R1162N
97.004	0.017	503138	START	n/a	n/a	n/a	-999	-1	[-999, -999, -999]	n/a	FR1	0	R1162N
97.021	5.034	503155	PROB	5.034	n/a	n/a	-999	-1	[9, 7, 5]	21	FR1	0	R1162N
102.055	3.233	508188	PROB	3.233	n/a	n/a	-999	-1	[8, 1, 6]	15	FR1	0	R1162N
105.288	3.501	511421	PROB	3.501	n/a	n/a	-999	-1	[7, 2, 6]	15	FR1	0	R1162N
108.789	3.101	514922	PROB	3.101	n/a	n/a	-999	-1	[7, 5, 6]	18	FR1	0	R1162N
111.89	5.56	518023	PROB	5.56	n/a	n/a	-999	-1	[9, 3, 1]	13	FR1	0	R1162N
117.45	0.007	523583	STOP	n/a	n/a	n/a	-999	-1	[-999, -999, -999]	n/a	FR1	0	R1162N
117.457	0.619	523590	PRACTICE_DISTRACT_END	n/a	n/a	n/a	-999	-1	[0, 0, 0]	n/a	FR1	0	R1162N
118.076	30.515	524209	PRACTICE_REC_START	n/a	n/a	n/a	-999	-1	[0, 0, 0]	n/a	FR1	0	R1162N
148.591	13.773	554722	PRACTICE_REC_END	n/a	n/a	n/a	-999	-1	[0, 0, 0]	n/a	FR1	0	R1162N
162.364	0.001	568494	COUNTDOWN_START	n/a	n/a	n/a	-999	1	[0, 0, 0]	n/a	FR1	0	R1162N
162.365	10.427	568495	TRIAL	n/a	n/a	n/a	-999	1	[0, 0, 0]	n/a	FR1	0	R1162N
172.792	0.007	578922	COUNTDOWN_END	n/a	n/a	n/a	-999	1	[0, 0, 0]	n/a	FR1	0	R1162N
172.799	2.618	578929	ORIENT	n/a	n/a	n/a	-999	1	[0, 0, 0]	n/a	FR1	0	R1162N
175.417	2.416	581547	WORD	n/a	wordpools/wordpool_EN.txt	LEG	1	1	[0, 0, 0]	n/a	FR1	0	R1162N
177.833	2.467	583963	WORD	n/a	wordpools/wordpool_EN.txt	SNAKE	2	1	[0, 0, 0]	n/a	FR1	0	R1162N
180.3	2.501	586430	WORD	n/a	wordpools/wordpool_EN.txt	NOSE	3	1	[0, 0, 0]	n/a	FR1	0	R1162N
182.801	2.617	588930	WORD	n/a	wordpools/wordpool_EN.txt	MOOSE	4	1	[0, 0, 0]	n/a	FR1	0	R1162N
185.418	2.45	591547	WORD	n/a	wordpools/wordpool_EN.txt	GOAT	5	1	[0, 0, 0]	n/a	FR1	0	R1162N
187.868	2.466	593997	WORD	n/a	wordpools/wordpool_EN.txt	MILK	6	1	[0, 0, 0]	n/a	FR1	0	R1162N
190.334	2.385	596463	WORD	n/a	wordpools/wordpool_EN.txt	CLIFF	7	1	[0, 0, 0]	n/a	FR1	0	R1162N
192.719	2.55	598848	WORD	n/a	wordpools/wordpool_EN.txt	MOUSE	8	1	[0, 0, 0]	n/a	FR1	0	R1162N
195.269	2.451	601398	WORD	n/a	wordpools/wordpool_EN.txt	GRASS	9	1	[0, 0, 0]	n/a	FR1	0	R1162N
197.72	2.566	603849	WORD	n/a	wordpools/wordpool_EN.txt	STOOL	10	1	[0, 0, 0]	n/a	FR1	0	R1162N
200.286	2.585	606415	WORD	n/a	wordpools/wordpool_EN.txt	CALF	11	1	[0, 0, 0]	n/a	FR1	0	R1162N
202.871	1.617	608999	WORD	n/a	wordpools/wordpool_EN.txt	WEB	12	1	[0, 0, 0]	n/a	FR1	0	R1162N
204.488	0.001	610616	DISTRACT_START	n/a	n/a	n/a	-999	1	[0, 0, 0]	n/a	FR1	0	R1162N
204.489	0.015	610617	START	n/a	n/a	n/a	-999	1	[-999, -999, -999]	n/a	FR1	0	R1162N
204.504	3.101	610632	PROB	3.101	n/a	n/a	-999	1	[3, 1, 1]	5	FR1	0	R1162N
207.605	2.467	613733	PROB	2.467	n/a	n/a	-999	1	[1, 3, 6]	10	FR1	0	R1162N
210.072	2.917	616200	PROB	2.917	n/a	n/a	-999	1	[7, 7, 5]	19	FR1	0	R1162N
212.989	2.65	619117	PROB	2.65	n/a	n/a	-999	1	[2, 9, 6]	17	FR1	0	R1162N
215.639	3.417	621767	PROB	3.417	n/a	n/a	-999	1	[9, 4, 5]	17	FR1	0	R1162N
219.056	2.768	625184	PROB	2.768	n/a	n/a	-999	1	[6, 7, 2]	15	FR1	0	R1162N
221.824	2.433	627952	PROB	2.433	n/a	n/a	-999	1	[4, 4, 6]	14	FR1	0	R1162N
224.257	4.328	630384	PROB	4.328	n/a	n/a	-999	1	[1, 6, 8]	15	FR1	0	R1162N
228.585	0.007	634712	STOP	n/a	n/a	n/a	-999	1	[-999, -999, -999]	n/a	FR1	0	R1162N
228.592	1.034	634719	DISTRACT_END	n/a	n/a	n/a	-999	1	[0, 0, 0]	n/a	FR1	0	R1162N
229.626	1.366	635753	REC_START	n/a	n/a	n/a	-999	1	[0, 0, 0]	n/a	FR1	0	R1162N
230.992	1.028	637119	REC_WORD	1.028	n/a	GOAT	5	1	[0, 0, 0]	n/a	FR1	0	R1162N
232.02	1.537	638147	REC_WORD	1.537	n/a	LAMN	-999	1	[0, 0, 0]	n/a	FR1	0	R1162N
233.557	26.079	639684	REC_WORD	26.079	n/a	WEB	12	1	[0, 0, 0]	n/a	FR1	0	R1162N
259.636	2.411	665762	REC_END	n/a	n/a	n/a	-999	1	[0, 0, 0]	n/a	FR1	0	R1162N
262.047	0.0	668173	TRIAL	n/a	n/a	n/a	-999	2	[0, 0, 0]	n/a	FR1	0	R1162N
262.047	10.428	668173	COUNTDOWN_START	n/a	n/a	n/a	-999	2	[0, 0, 0]	n/a	FR1	0	R1162N
272.475	0.007	678600	COUNTDOWN_END	n/a	n/a	n/a	-999	2	[0, 0, 0]	n/a	FR1	0	R1162N
272.482	2.484	678607	ORIENT	n/a	n/a	n/a	-999	2	[0, 0, 0]	n/a	FR1	0	R1162N
274.966	2.383	681091	WORD	n/a	wordpools/wordpool_EN.txt	PIT	1	2	[0, 0, 0]	n/a	FR1	0	R1162N
277.349	2.4	683474	WORD	n/a	wordpools/wordpool_EN.txt	PEACH	2	2	[0, 0, 0]	n/a	FR1	0	R1162N
279.749	2.567	685874	WORD	n/a	wordpools/wordpool_EN.txt	FLUTE	3	2	[0, 0, 0]	n/a	FR1	0	R1162N
282.316	2.551	688441	WORD	n/a	wordpools/wordpool_EN.txt	CORN	4	2	[0, 0, 0]	n/a	FR1	0	R1162N
284.867	2.399	690991	WORD	n/a	wordpools/wordpool_EN.txt	JUDGE	5	2	[0, 0, 0]	n/a	FR1	0	R1162N
287.266	2.368	693390	WORD	n/a	wordpools/wordpool_EN.txt	CART	6	2	[0, 0, 0]	n/a	FR1	0	R1162N
289.634	2.418	695758	WORD	n/a	wordpools/wordpool_EN.txt	TREE	7	2	[0, 0, 0]	n/a	FR1	0	R1162N
292.052	2.4	698176	WORD	n/a	wordpools/wordpool_EN.txt	ROOM	8	2	[0, 0, 0]	n/a	FR1	0	R1162N
294.452	2.417	700576	WORD	n/a	wordpools/wordpool_EN.txt	STREET	9	2	[0, 0, 0]	n/a	FR1	0	R1162N
296.869	2.517	702993	WORD	n/a	wordpools/wordpool_EN.txt	BENCH	10	2	[0, 0, 0]	n/a	FR1	0	R1162N
299.386	2.55	705510	WORD	n/a	wordpools/wordpool_EN.txt	BOWL	11	2	[0, 0, 0]	n/a	FR1	0	R1162N
301.936	1.617	708060	WORD	n/a	wordpools/wordpool_EN.txt	FRUIT	12	2	[0, 0, 0]	n/a	FR1	0	R1162N
303.553	0.001	709677	DISTRACT_START	n/a	n/a	n/a	-999	2	[0, 0, 0]	n/a	FR1	0	R1162N
303.554	0.016	709678	START	n/a	n/a	n/a	-999	2	[-999, -999, -999]	n/a	FR1	0	R1162N
303.57	6.667	709694	PROB	6.667	n/a	n/a	-999	2	[4, 8, 9]	21	FR1	0	R1162N
310.237	5.385	716360	PROB	5.385	n/a	n/a	-999	2	[5, 8, 9]	22	FR1	0	R1162N
315.622	2.017	721745	PROB	2.017	n/a	n/a	-999	2	[7, 3, 5]	15	FR1	0	R1162N
317.639	3.784	723762	PROB	3.784	n/a	n/a	-999	2	[3, 9, 6]	18	FR1	0	R1162N
321.423	2.601	727546	PROB	2.601	n/a	n/a	-999	2	[4, 8, 4]	16	FR1	0	R1162N
324.024	0.016	730147	STOP	n/a	n/a	n/a	-999	2	[-999, -999, -999]	n/a	FR1	0	R1162N
324.04	1.183	730163	DISTRACT_END	n/a	n/a	n/a	-999	2	[0, 0, 0]	n/a	FR1	0	R1162N
325.223	0.798	731345	REC_START	n/a	n/a	n/a	-999	2	[0, 0, 0]	n/a	FR1	0	R1162N
326.021	1.137	732143	REC_WORD	1.137	n/a	ROOM	8	2	[0, 0, 0]	n/a	FR1	0	R1162N
327.158	0.936	733280	REC_WORD	0.936	n/a	BENCH	10	2	[0, 0, 0]	n/a	FR1	0	R1162N
328.094	0.806	734216	REC_WORD	0.806	n/a	PEACH	2	2	[0, 0, 0]	n/a	FR1	0	R1162N
328.9	1.579	735022	REC_WORD	1.579	n/a	PIT	1	2	[0, 0, 0]	n/a	FR1	0	R1162N
330.479	16.102	736601	REC_WORD	16.102	n/a	PARK	-999	2	[0, 0, 0]	n/a	FR1	0	R1162N
346.581	8.652	752702	REC_WORD_VV	8.652	n/a	<>	-999	2	[0, 0, 0]	n/a	FR1	0	R1162N
355.233	2.645	761354	REC_END	n/a	n/a	n/a	-999	2	[0, 0, 0]	n/a	FR1	0	R1162N
357.878	0.001	763999	COUNTDOWN_START	n/a	n/a	n/a	-999	3	[0, 0, 0]	n/a	FR1	0	R1162N
357.879	10.427	764000	TRIAL	n/a	n/a	n/a	-999	3	[0, 0, 0]	n/a	FR1	0	R1162N
368.306	0.006	774426	COUNTDOWN_END	n/a	n/a	n/a	-999	3	[0, 0, 0]	n/a	FR1	0	R1162N
368.312	2.452	774432	ORIENT	n/a	n/a	n/a	-999	3	[0, 0, 0]	n/a	FR1	0	R1162N
370.764	2.533	776884	WORD	n/a	wordpools/wordpool_EN.txt	JAR	1	3	[0, 0, 0]	n/a	FR1	0	R1162N
373.297	2.384	779417	WORD	n/a	wordpools/wordpool_EN.txt	STRAW	2	3	[0, 0, 0]	n/a	FR1	0	R1162N
375.681	2.433	781801	WORD	n/a	wordpools/wordpool_EN.txt	CHIN	3	3	[0, 0, 0]	n/a	FR1	0	R1162N
378.114	2.385	784234	WORD	n/a	wordpools/wordpool_EN.txt	BEAK	4	3	[0, 0, 0]	n/a	FR1	0	R1162N
380.499	2.567	786619	WORD	n/a	wordpools/wordpool_EN.txt	FACE	5	3	[0, 0, 0]	n/a	FR1	0	R1162N
383.066	2.517	789186	WORD	n/a	wordpools/wordpool_EN.txt	DOLL	6	3	[0, 0, 0]	n/a	FR1	0	R1162N
385.583	2.45	791702	WORD	n/a	wordpools/wordpool_EN.txt	YARD	7	3	[0, 0, 0]	n/a	FR1	0	R1162N
388.033	2.434	794152	WORD	n/a	wordpools/wordpool_EN.txt	CHEEK	8	3	[0, 0, 0]	n/a	FR1	0	R1162N
390.467	2.534	796586	WORD	n/a	wordpools/wordpool_EN.txt	TEA	9	3	[0, 0, 0]	n/a	FR1	0	R1162N
393.001	2.6	799120	WORD	n/a	wordpools/wordpool_EN.txt	SINK	10	3	[0, 0, 0]	n/a	FR1	0	R1162N
395.601	2.599	801720	WORD	n/a	wordpools/wordpool_EN.txt	CHAIR	11	3	[0, 0, 0]	n/a	FR1	0	R1162N
398.2	1.601	804319	WORD	n/a	wordpools/wordpool_EN.txt	BAG	12	3	[0, 0, 0]	n/a	FR1	0	R1162N
399.801	0.001	805920	DISTRACT_START	n/a	n/a	n/a	-999	3	[0, 0, 0]	n/a	FR1	0	R1162N
399.802	0.016	805921	START	n/a	n/a	n/a	-999	3	[-999, -999, -999]	n/a	FR1	0	R1162N
399.818	2.35	805937	PROB	2.35	n/a	n/a	-999	3	[1, 5, 9]	15	FR1	0	R1162N
402.168	5.117	808287	PROB	5.117	n/a	n/a	-999	3	[9, 8, 3]	20	FR1	0	R1162N
407.285	3.851	813403	PROB	3.851	n/a	n/a	-999	3	[7, 8, 4]	18	FR1	0	R1162N
411.136	1.983	817254	PROB	1.983	n/a	n/a	-999	3	[5, 5, 2]	12	FR1	0	R1162N
413.119	5.586	819237	PROB	5.586	n/a	n/a	-999	3	[4, 8, 7]	19	FR1	0	R1162N
418.705	4.231	824823	PROB	4.231	n/a	n/a	-999	3	[9, 2, 2]	13	FR1	0	R1162N
422.936	0.019	829054	STOP	n/a	n/a	n/a	-999	3	[-999, -999, -999]	n/a	FR1	0	R1162N
422.955	1.183	829073	DISTRACT_END	n/a	n/a	n/a	-999	3	[0, 0, 0]	n/a	FR1	0	R1162N
424.138	23.02	830256	REC_START	n/a	n/a	n/a	-999	3	[0, 0, 0]	n/a	FR1	0	R1162N
447.158	6.994	853274	REC_WORD	6.994	n/a	STREETS	-999	3	[0, 0, 0]	n/a	FR1	0	R1162N
454.152	2.041	860268	REC_END	n/a	n/a	n/a	-999	3	[0, 0, 0]	n/a	FR1	0	R1162N
456.193	0.0	862309	TRIAL	n/a	n/a	n/a	-999	4	[0, 0, 0]	n/a	FR1	0	R1162N
456.193	10.428	862309	COUNTDOWN_START	n/a	n/a	n/a	-999	4	[0, 0, 0]	n/a	FR1	0	R1162N
466.621	0.008	872736	COUNTDOWN_END	n/a	n/a	n/a	-999	4	[0, 0, 0]	n/a	FR1	0	R1162N
466.629	2.466	872744	ORIENT	n/a	n/a	n/a	-999	4	[0, 0, 0]	n/a	FR1	0	R1162N
469.095	2.568	875210	WORD	n/a	wordpools/wordpool_EN.txt	AXE	1	4	[0, 0, 0]	n/a	FR1	0	R1162N
471.663	2.449	877778	WORD	n/a	wordpools/wordpool_EN.txt	CLOTH	2	4	[0, 0, 0]	n/a	FR1	0	R1162N
474.112	2.635	880227	WORD	n/a	wordpools/wordpool_EN.txt	SPRING	3	4	[0, 0, 0]	n/a	FR1	0	R1162N
476.747	2.566	882862	WORD	n/a	wordpools/wordpool_EN.txt	CROWN	4	4	[0, 0, 0]	n/a	FR1	0	R1162N
479.313	2.618	885428	WORD	n/a	wordpools/wordpool_EN.txt	BED	5	4	[0, 0, 0]	n/a	FR1	0	R1162N
481.931	2.45	888046	WORD	n/a	wordpools/wordpool_EN.txt	HEART	6	4	[0, 0, 0]	n/a	FR1	0	R1162N
484.381	2.418	890496	WORD	n/a	wordpools/wordpool_EN.txt	BOARD	7	4	[0, 0, 0]	n/a	FR1	0	R1162N
486.799	2.416	892913	WORD	n/a	wordpools/wordpool_EN.txt	TOOTH	8	4	[0, 0, 0]	n/a	FR1	0	R1162N
489.215	2.434	895329	WORD	n/a	wordpools/wordpool_EN.txt	CUP	9	4	[0, 0, 0]	n/a	FR1	0	R1162N
491.649	2.55	897763	WORD	n/a	wordpools/wordpool_EN.txt	MUD	10	4	[0, 0, 0]	n/a	FR1	0	R1162N
494.199	2.418	900313	WORD	n/a	wordpools/wordpool_EN.txt	OAR	11	4	[0, 0, 0]	n/a	FR1	0	R1162N
496.617	1.616	902731	WORD	n/a	wordpools/wordpool_EN.txt	LAMB	12	4	[0, 0, 0]	n/a	FR1	0	R1162N
498.233	0.001	904347	DISTRACT_START	n/a	n/a	n/a	-999	4	[0, 0, 0]	n/a	FR1	0	R1162N
498.234	0.015	904348	START	n/a	n/a	n/a	-999	4	[-999, -999, -999]	n/a	FR1	0	R1162N
498.249	3.034	904363	PROB	3.034	n/a	n/a	-999	4	[4, 4, 9]	17	FR1	0	R1162N
501.283	1.718	907397	PROB	1.718	n/a	n/a	-999	4	[5, 1, 9]	15	FR1	0	R1162N
503.001	2.55	909115	PROB	2.55	n/a	n/a	-999	4	[1, 3, 5]	9	FR1	0	R1162N
505.551	2.034	911665	PROB	2.034	n/a	n/a	-999	4	[9, 1, 9]	19	FR1	0	R1162N
507.585	4.334	913698	PROB	4.334	n/a	n/a	-999	4	[4, 7, 3]	14	FR1	0	R1162N
511.919	4.134	918032	PROB	4.134	n/a	n/a	-999	4	[7, 7, 9]	23	FR1	0	R1162N
516.053	2.385	922166	PROB	2.385	n/a	n/a	-999	4	[8, 5, 1]	14	FR1	0	R1162N
518.438	0.015	924551	STOP	n/a	n/a	n/a	-999	4	[-999, -999, -999]	n/a	FR1	0	R1162N
518.453	1.068	924566	DISTRACT_END	n/a	n/a	n/a	-999	4	[0, 0, 0]	n/a	FR1	0	R1162N
519.521	0.774	925634	REC_START	n/a	n/a	n/a	-999	4	[0, 0, 0]	n/a	FR1	0	R1162N
520.295	0.755	926408	REC_WORD	0.755	n/a	BOARD	7	4	[0, 0, 0]	n/a	FR1	0	R1162N
521.05	5.517	927163	REC_WORD	5.517	n/a	OAR	11	4	[0, 0, 0]	n/a	FR1	0	R1162N
526.567	1.444	932680	REC_WORD	1.444	n/a	CHEST	-999	4	[0, 0, 0]	n/a	FR1	0	R1162N
528.011	2.729	934123	REC_WORD	2.729	n/a	BED	5	4	[0, 0, 0]	n/a	FR1	0	R1162N
530.74	3.869	936852	REC_WORD	3.869	n/a	FACE	-999	4	[0, 0, 0]	n/a	FR1	0	R1162N
534.609	5.278	940721	REC_WORD	5.278	n/a	CHIN	-999	4	[0, 0, 0]	n/a	FR1	0	R1162N
539.887	9.644	945999	REC_WORD	9.644	n/a	FOOT	-999	4	[0, 0, 0]	n/a	FR1	0	R1162N
549.531	2.061	955642	REC_END	n/a	n/a	n/a	-999	4	[0, 0, 0]	n/a	FR1	0	R1162N
551.592	0.0	957703	COUNTDOWN_START	n/a	n/a	n/a	-999	5	[0, 0, 0]	n/a	FR1	0	R1162N
551.592	10.428	957703	TRIAL	n/a	n/a	n/a	-999	5	[0, 0, 0]	n/a	FR1	0	R1162N
562.02	0.007	968131	COUNTDOWN_END	n/a	n/a	n/a	-999	5	[0, 0, 0]	n/a	FR1	0	R1162N
562.027	2.6	968138	ORIENT	n/a	n/a	n/a	-999	5	[0, 0, 0]	n/a	FR1	0	R1162N
564.627	2.483	970738	WORD	n/a	wordpools/wordpool_EN.txt	BEE	1	5	[0, 0, 0]	n/a	FR1	0	R1162N
567.11	2.485	973221	WORD	n/a	wordpools/wordpool_EN.txt	STORE	2	5	[0, 0, 0]	n/a	FR1	0	R1162N
569.595	2.417	975705	WORD	n/a	wordpools/wordpool_EN.txt	MOLE	3	5	[0, 0, 0]	n/a	FR1	0	R1162N
572.012	2.617	978122	WORD	n/a	wordpools/wordpool_EN.txt	ROCK	4	5	[0, 0, 0]	n/a	FR1	0	R1162N
574.629	2.466	980739	WORD	n/a	wordpools/wordpool_EN.txt	BIRD	5	5	[0, 0, 0]	n/a	FR1	0	R1162N
577.095	2.468	983205	WORD	n/a	wordpools/wordpool_EN.txt	BEAR	6	5	[0, 0, 0]	n/a	FR1	0	R1162N
579.563	2.383	985673	WORD	n/a	wordpools/wordpool_EN.txt	RAIN	7	5	[0, 0, 0]	n/a	FR1	0	R1162N
581.946	2.468	988056	WORD	n/a	wordpools/wordpool_EN.txt	APE	8	5	[0, 0, 0]	n/a	FR1	0	R1162N
584.414	2.417	990524	WORD	n/a	wordpools/wordpool_EN.txt	ANT	9	5	[0, 0, 0]	n/a	FR1	0	R1162N
586.831	2.533	992941	WORD	n/a	wordpools/wordpool_EN.txt	NEST	10	5	[0, 0, 0]	n/a	FR1	0	R1162N
589.364	2.401	995473	WORD	n/a	wordpools/wordpool_EN.txt	JAIL	11	5	[0, 0, 0]	n/a	FR1	0	R1162N
591.765	1.617	997874	WORD	n/a	wordpools/wordpool_EN.txt	RAT	12	5	[0, 0, 0]	n/a	FR1	0	R1162N
593.382	0.0	999491	DISTRACT_START	n/a	n/a	n/a	-999	5	[0, 0, 0]	n/a	FR1	0	R1162N
593.382	0.016	999491	START	n/a	n/a	n/a	-999	5	[-999, -999, -999]	n/a	FR1	0	R1162N
593.398	2.417	999507	PROB	2.417	n/a	n/a	-999	5	[2, 6, 6]	14	FR1	0	R1162N
595.815	3.567	1001924	PROB	3.567	n/a	n/a	-999	5	[9, 3, 5]	17	FR1	0	R1162N
599.382	2.001	1005491	PROB	2.001	n/a	n/a	-999	5	[1, 3, 5]	9	FR1	0	R1162N
601.383	1.967	1007492	PROB	1.967	n/a	n/a	-999	5	[1, 1, 7]	9	FR1	0	R1162N
603.35	2.05	1009459	PROB	2.05	n/a	n/a	-999	5	[5, 5, 7]	17	FR1	0	R1162N
605.4	4.534	1011509	PROB	4.534	n/a	n/a	-999	5	[9, 5, 8]	22	FR1	0	R1162N
609.934	3.034	1016042	PROB	3.034	n/a	n/a	-999	5	[9, 5, 5]	19	FR1	0	R1162N
612.968	2.316	1019076	PROB	2.316	n/a	n/a	-999	5	[6, 6, 5]	17	FR1	0	R1162N
615.284	0.017	1021392	STOP	n/a	n/a	n/a	-999	5	[-999, -999, -999]	n/a	FR1	0	R1162N
615.301	1.168	1021409	DISTRACT_END	n/a	n/a	n/a	-999	5	[0, 0, 0]	n/a	FR1	0	R1162N
616.469	1.262	1022577	REC_START	n/a	n/a	n/a	-999	5	[0, 0, 0]	n/a	FR1	0	R1162N
617.731	0.836	1023839	REC_WORD	0.836	n/a	BEE	1	5	[0, 0, 0]	n/a	FR1	0	R1162N
618.567	0.876	1024675	REC_WORD	0.876	n/a	ANT	9	5	[0, 0, 0]	n/a	FR1	0	R1162N
619.443	0.864	1025551	REC_WORD	0.864	n/a	BEAR	6	5	[0, 0, 0]	n/a	FR1	0	R1162N
620.307	1.317	1026415	REC_WORD	1.317	n/a	BIRD	5	5	[0, 0, 0]	n/a	FR1	0	R1162N
621.624	2.249	1027732	REC_WORD	2.249	n/a	RAT	12	5	[0, 0, 0]	n/a	FR1	0	R1162N
623.873	1.446	1029981	REC_WORD	1.446	n/a	MOUSE	-999	5	[0, 0, 0]	n/a	FR1	0	R1162N
625.319	7.87	1031427	REC_WORD	7.87	n/a	MULE	-999	5	[0, 0, 0]	n/a	FR1	0	R1162N
633.189	13.289	1039296	REC_WORD	13.289	n/a	BENCH	-999	5	[0, 0, 0]	n/a	FR1	0	R1162N
646.478	1.644	1052585	REC_END	n/a	n/a	n/a	-999	5	[0, 0, 0]	n/a	FR1	0	R1162N
648.122	0.0	1054229	COUNTDOWN_START	n/a	n/a	n/a	-999	6	[0, 0, 0]	n/a	FR1	0	R1162N
648.122	10.428	1054229	TRIAL	n/a	n/a	n/a	-999	6	[0, 0, 0]	n/a	FR1	0	R1162N
658.55	0.008	1064656	COUNTDOWN_END	n/a	n/a	n/a	-999	6	[0, 0, 0]	n/a	FR1	0	R1162N
658.558	2.434	1064664	ORIENT	n/a	n/a	n/a	-999	6	[0, 0, 0]	n/a	FR1	0	R1162N
660.992	2.584	1067098	WORD	n/a	wordpools/wordpool_EN.txt	JEEP	1	6	[0, 0, 0]	n/a	FR1	0	R1162N
663.576	2.5	1069682	WORD	n/a	wordpools/wordpool_EN.txt	MOUTH	2	6	[0, 0, 0]	n/a	FR1	0	R1162N
666.076	2.417	1072182	WORD	n/a	wordpools/wordpool_EN.txt	OAK	3	6	[0, 0, 0]	n/a	FR1	0	R1162N
668.493	2.467	1074599	WORD	n/a	wordpools/wordpool_EN.txt	CUBE	4	6	[0, 0, 0]	n/a	FR1	0	R1162N
670.96	2.534	1077065	WORD	n/a	wordpools/wordpool_EN.txt	RAKE	5	6	[0, 0, 0]	n/a	FR1	0	R1162N
673.494	2.5	1079599	WORD	n/a	wordpools/wordpool_EN.txt	TENT	6	6	[0, 0, 0]	n/a	FR1	0	R1162N
675.994	2.417	1082099	WORD	n/a	wordpools/wordpool_EN.txt	PET	7	6	[0, 0, 0]	n/a	FR1	0	R1162N
678.411	2.384	1084516	WORD	n/a	wordpools/wordpool_EN.txt	TRAIN	8	6	[0, 0, 0]	n/a	FR1	0	R1162N
680.795	2.533	1086900	WORD	n/a	wordpools/wordpool_EN.txt	HAT	9	6	[0, 0, 0]	n/a	FR1	0	R1162N
683.328	2.418	1089433	WORD	n/a	wordpools/wordpool_EN.txt	CAPE	10	6	[0, 0, 0]	n/a	FR1	0	R1162N
685.746	2.399	1091851	WORD	n/a	wordpools/wordpool_EN.txt	CAT	11	6	[0, 0, 0]	n/a	FR1	0	R1162N
688.145	1.601	1094250	WORD	n/a	wordpools/wordpool_EN.txt	COW	12	6	[0, 0, 0]	n/a	FR1	0	R1162N
689.746	0.001	1095850	DISTRACT_START	n/a	n/a	n/a	-999	6	[0, 0, 0]	n/a	FR1	0	R1162N
689.747	0.016	1095851	START	n/a	n/a	n/a	-999	6	[-999, -999, -999]	n/a	FR1	0	R1162N
689.763	2.134	1095867	PROB	2.134	n/a	n/a	-999	6	[1, 3, 2]	6	FR1	0	R1162N
691.897	2.399	1098001	PROB	2.399	n/a	n/a	-999	6	[6, 3, 7]	16	FR1	0	R1162N
694.296	2.034	1100400	PROB	2.034	n/a	n/a	-999	6	[7, 3, 5]	15	FR1	0	R1162N
696.33	2.568	1102434	PROB	2.568	n/a	n/a	-999	6	[9, 1, 4]	14	FR1	0	R1162N
698.898	2.332	1105002	PROB	2.332	n/a	n/a	-999	6	[8, 1, 5]	14	FR1	0	R1162N
701.23	2.635	1107334	PROB	2.635	n/a	n/a	-999	6	[1, 8, 4]	13	FR1	0	R1162N
703.865	1.784	1109969	PROB	1.784	n/a	n/a	-999	6	[7, 1, 7]	15	FR1	0	R1162N
705.649	2.15	1111753	PROB	2.15	n/a	n/a	-999	6	[3, 1, 3]	7	FR1	0	R1162N
707.799	2.669	1113903	PROB	2.669	n/a	n/a	-999	6	[1, 8, 1]	10	FR1	0	R1162N
710.468	0.015	1116571	STOP	n/a	n/a	n/a	-999	6	[-999, -999, -999]	n/a	FR1	0	R1162N
710.483	1.167	1116586	DISTRACT_END	n/a	n/a	n/a	-999	6	[0, 0, 0]	n/a	FR1	0	R1162N
711.65	0.683	1117753	REC_START	n/a	n/a	n/a	-999	6	[0, 0, 0]	n/a	FR1	0	R1162N
712.333	0.717	1118436	REC_WORD	0.717	n/a	TRAIN	8	6	[0, 0, 0]	n/a	FR1	0	R1162N
713.05	0.791	1119153	REC_WORD	0.791	n/a	CAT	11	6	[0, 0, 0]	n/a	FR1	0	R1162N
713.841	0.714	1119944	REC_WORD	0.714	n/a	HAT	9	6	[0, 0, 0]	n/a	FR1	0	R1162N
714.555	2.595	1120658	REC_WORD	2.595	n/a	BIRD	-999	6	[0, 0, 0]	n/a	FR1	0	R1162N
717.15	18.914	1123253	REC_WORD	18.914	n/a	NEST	-999	6	[0, 0, 0]	n/a	FR1	0	R1162N
736.064	1.499	1142166	REC_WORD	1.499	n/a	OAK	3	6	[0, 0, 0]	n/a	FR1	0	R1162N
737.563	4.101	1143665	REC_WORD	4.101	n/a	MOUTH	2	6	[0, 0, 0]	n/a	FR1	0	R1162N
741.664	2.857	1147766	REC_END	n/a	n/a	n/a	-999	6	[0, 0, 0]	n/a	FR1	0	R1162N
744.521	0.001	1150623	COUNTDOWN_START	n/a	n/a	n/a	-999	7	[0, 0, 0]	n/a	FR1	0	R1162N
744.522	10.427	1150624	TRIAL	n/a	n/a	n/a	-999	7	[0, 0, 0]	n/a	FR1	0	R1162N
754.949	0.007	1161050	COUNTDOWN_END	n/a	n/a	n/a	-999	7	[0, 0, 0]	n/a	FR1	0	R1162N
754.956	2.417	1161057	ORIENT	n/a	n/a	n/a	-999	7	[0, 0, 0]	n/a	FR1	0	R1162N
757.373	2.567	1163474	WORD	n/a	wordpools/wordpool_EN.txt	SAIL	1	7	[0, 0, 0]	n/a	FR1	0	R1162N
759.94	2.417	1166041	WORD	n/a	wordpools/wordpool_EN.txt	SHIP	2	7	[0, 0, 0]	n/a	FR1	0	R1162N
762.357	2.501	1168458	WORD	n/a	wordpools/wordpool_EN.txt	WORM	3	7	[0, 0, 0]	n/a	FR1	0	R1162N
764.858	2.382	1170959	WORD	n/a	wordpools/wordpool_EN.txt	SLIME	4	7	[0, 0, 0]	n/a	FR1	0	R1162N
767.24	2.368	1173341	WORD	n/a	wordpools/wordpool_EN.txt	STEAM	5	7	[0, 0, 0]	n/a	FR1	0	R1162N
769.608	2.55	1175709	WORD	n/a	wordpools/wordpool_EN.txt	BOAT	6	7	[0, 0, 0]	n/a	FR1	0	R1162N
772.158	2.635	1178258	WORD	n/a	wordpools/wordpool_EN.txt	HOOK	7	7	[0, 0, 0]	n/a	FR1	0	R1162N
774.793	2.617	1180893	WORD	n/a	wordpools/wordpool_EN.txt	DESK	8	7	[0, 0, 0]	n/a	FR1	0	R1162N
777.41	2.583	1183510	WORD	n/a	wordpools/wordpool_EN.txt	PEARL	9	7	[0, 0, 0]	n/a	FR1	0	R1162N
779.993	2.617	1186093	WORD	n/a	wordpools/wordpool_EN.txt	WHEEL	10	7	[0, 0, 0]	n/a	FR1	0	R1162N
782.61	2.6	1188710	WORD	n/a	wordpools/wordpool_EN.txt	FISH	11	7	[0, 0, 0]	n/a	FR1	0	R1162N
785.21	1.618	1191310	WORD	n/a	wordpools/wordpool_EN.txt	DRESS	12	7	[0, 0, 0]	n/a	FR1	0	R1162N
786.828	0.001	1192928	DISTRACT_START	n/a	n/a	n/a	-999	7	[0, 0, 0]	n/a	FR1	0	R1162N
786.829	0.015	1192929	START	n/a	n/a	n/a	-999	7	[-999, -999, -999]	n/a	FR1	0	R1162N
786.844	3.283	1192944	PROB	3.283	n/a	n/a	-999	7	[3, 8, 6]	17	FR1	0	R1162N
790.127	2.285	1196227	PROB	2.285	n/a	n/a	-999	7	[4, 5, 1]	10	FR1	0	R1162N
792.412	2.866	1198511	PROB	2.866	n/a	n/a	-999	7	[9, 7, 8]	23	FR1	0	R1162N
795.278	3.235	1201377	PROB	3.235	n/a	n/a	-999	7	[1, 2, 6]	9	FR1	0	R1162N
798.513	3.05	1204612	PROB	3.05	n/a	n/a	-999	7	[2, 2, 7]	11	FR1	0	R1162N
801.563	3.167	1207662	PROB	3.167	n/a	n/a	-999	7	[3, 7, 9]	19	FR1	0	R1162N
804.73	4.137	1210829	PROB	4.137	n/a	n/a	-999	7	[5, 8, 7]	20	FR1	0	R1162N
808.867	0.014	1214966	STOP	n/a	n/a	n/a	-999	7	[-999, -999, -999]	n/a	FR1	0	R1162N
808.881	1.034	1214980	DISTRACT_END	n/a	n/a	n/a	-999	7	[0, 0, 0]	n/a	FR1	0	R1162N
809.915	1.05	1216014	REC_START	n/a	n/a	n/a	-999	7	[0, 0, 0]	n/a	FR1	0	R1162N
810.965	0.549	1217064	REC_WORD	0.549	n/a	BOAT	6	7	[0, 0, 0]	n/a	FR1	0	R1162N
811.514	2.181	1217612	REC_WORD	2.181	n/a	SAIL	1	7	[0, 0, 0]	n/a	FR1	0	R1162N
813.695	0.743	1219793	REC_WORD	0.743	n/a	HAT	-999	7	[0, 0, 0]	n/a	FR1	0	R1162N
814.438	0.737	1220536	REC_WORD	0.737	n/a	CHAIR	-999	7	[0, 0, 0]	n/a	FR1	0	R1162N
815.175	3.213	1221273	REC_WORD	3.213	n/a	DRESS	12	7	[0, 0, 0]	n/a	FR1	0	R1162N
818.388	2.512	1224486	REC_WORD	2.512	n/a	DECK	-999	7	[0, 0, 0]	n/a	FR1	0	R1162N
820.9	3.906	1226998	REC_WORD	3.906	n/a	WHEEL	10	7	[0, 0, 0]	n/a	FR1	0	R1162N
824.806	15.12	1230904	REC_WORD	15.12	n/a	FISH	11	7	[0, 0, 0]	n/a	FR1	0	R1162N
839.926	1.392	1246023	REC_END	n/a	n/a	n/a	-999	7	[0, 0, 0]	n/a	FR1	0	R1162N
841.318	0.0	1247415	TRIAL	n/a	n/a	n/a	-999	8	[0, 0, 0]	n/a	FR1	0	R1162N
841.318	10.428	1247415	COUNTDOWN_START	n/a	n/a	n/a	-999	8	[0, 0, 0]	n/a	FR1	0	R1162N
851.746	0.008	1257843	COUNTDOWN_END	n/a	n/a	n/a	-999	8	[0, 0, 0]	n/a	FR1	0	R1162N
851.754	2.383	1257851	ORIENT	n/a	n/a	n/a	-999	8	[0, 0, 0]	n/a	FR1	0	R1162N
854.137	2.401	1260233	WORD	n/a	wordpools/wordpool_EN.txt	THREAD	1	8	[0, 0, 0]	n/a	FR1	0	R1162N
856.538	2.583	1262634	WORD	n/a	wordpools/wordpool_EN.txt	PIE	2	8	[0, 0, 0]	n/a	FR1	0	R1162N
859.121	2.468	1265217	WORD	n/a	wordpools/wordpool_EN.txt	WALL	3	8	[0, 0, 0]	n/a	FR1	0	R1162N
861.589	2.533	1267685	WORD	n/a	wordpools/wordpool_EN.txt	SUIT	4	8	[0, 0, 0]	n/a	FR1	0	R1162N
864.122	2.484	1270218	WORD	n/a	wordpools/wordpool_EN.txt	STEAK	5	8	[0, 0, 0]	n/a	FR1	0	R1162N
866.606	2.434	1272702	WORD	n/a	wordpools/wordpool_EN.txt	VASE	6	8	[0, 0, 0]	n/a	FR1	0	R1162N
869.04	2.617	1275136	WORD	n/a	wordpools/wordpool_EN.txt	SLUSH	7	8	[0, 0, 0]	n/a	FR1	0	R1162N
871.657	2.599	1277753	WORD	n/a	wordpools/wordpool_EN.txt	TOAST	8	8	[0, 0, 0]	n/a	FR1	0	R1162N
874.256	2.535	1280351	WORD	n/a	wordpools/wordpool_EN.txt	PHONE	9	8	[0, 0, 0]	n/a	FR1	0	R1162N
876.791	2.466	1282886	WORD	n/a	wordpools/wordpool_EN.txt	BAND	10	8	[0, 0, 0]	n/a	FR1	0	R1162N
879.257	2.368	1285352	WORD	n/a	wordpools/wordpool_EN.txt	MAIL	11	8	[0, 0, 0]	n/a	FR1	0	R1162N
881.625	1.616	1287720	WORD	n/a	wordpools/wordpool_EN.txt	SHRIMP	12	8	[0, 0, 0]	n/a	FR1	0	R1162N
883.241	0.001	1289336	DISTRACT_START	n/a	n/a	n/a	-999	8	[0, 0, 0]	n/a	FR1	0	R1162N
883.242	0.016	1289337	START	n/a	n/a	n/a	-999	8	[-999, -999, -999]	n/a	FR1	0	R1162N
883.258	6.851	1289353	PROB	6.851	n/a	n/a	-999	8	[9, 7, 9]	25	FR1	0	R1162N
890.109	4.918	1296204	PROB	4.918	n/a	n/a	-999	8	[4, 8, 5]	17	FR1	0	R1162N
895.027	3.418	1301121	PROB	3.418	n/a	n/a	-999	8	[2, 5, 7]	14	FR1	0	R1162N
898.445	9.477	1304539	PROB	9.477	n/a	n/a	-999	8	[5, 2, 3]	10	FR1	0	R1162N
907.922	0.007	1314016	STOP	n/a	n/a	n/a	-999	8	[-999, -999, -999]	n/a	FR1	0	R1162N
907.929	1.084	1314023	DISTRACT_END	n/a	n/a	n/a	-999	8	[0, 0, 0]	n/a	FR1	0	R1162N
909.013	1.226	1315107	REC_START	n/a	n/a	n/a	-999	8	[0, 0, 0]	n/a	FR1	0	R1162N
910.239	0.523	1316333	REC_WORD	0.523	n/a	PIE	2	8	[0, 0, 0]	n/a	FR1	0	R1162N
910.762	0.742	1316856	REC_WORD	0.742	n/a	STEAK	5	8	[0, 0, 0]	n/a	FR1	0	R1162N
911.504	1.15	1317598	REC_WORD	1.15	n/a	SHRIMP	12	8	[0, 0, 0]	n/a	FR1	0	R1162N
912.654	26.373	1318748	REC_WORD	26.373	n/a	HAT	-999	8	[0, 0, 0]	n/a	FR1	0	R1162N
939.027	2.173	1345119	REC_END	n/a	n/a	n/a	-999	8	[0, 0, 0]	n/a	FR1	0	R1162N
941.2	0.0	1347292	COUNTDOWN_START	n/a	n/a	n/a	-999	9	[0, 0, 0]	n/a	FR1	0	R1162N
941.2	10.428	1347292	TRIAL	n/a	n/a	n/a	-999	9	[0, 0, 0]	n/a	FR1	0	R1162N
951.628	0.008	1357720	COUNTDOWN_END	n/a	n/a	n/a	-999	9	[0, 0, 0]	n/a	FR1	0	R1162N
951.636	2.599	1357728	ORIENT	n/a	n/a	n/a	-999	9	[0, 0, 0]	n/a	FR1	0	R1162N
954.235	2.468	1360326	WORD	n/a	wordpools/wordpool_EN.txt	SQUARE	1	9	[0, 0, 0]	n/a	FR1	0	R1162N
956.703	2.416	1362794	WORD	n/a	wordpools/wordpool_EN.txt	BRICK	2	9	[0, 0, 0]	n/a	FR1	0	R1162N
959.119	2.402	1365210	WORD	n/a	wordpools/wordpool_EN.txt	SMOKE	3	9	[0, 0, 0]	n/a	FR1	0	R1162N
961.521	2.582	1367612	WORD	n/a	wordpools/wordpool_EN.txt	NAIL	4	9	[0, 0, 0]	n/a	FR1	0	R1162N
964.103	2.368	1370194	WORD	n/a	wordpools/wordpool_EN.txt	PIN	5	9	[0, 0, 0]	n/a	FR1	0	R1162N
966.471	2.601	1372562	WORD	n/a	wordpools/wordpool_EN.txt	VEST	6	9	[0, 0, 0]	n/a	FR1	0	R1162N
969.072	2.467	1375163	WORD	n/a	wordpools/wordpool_EN.txt	WHALE	7	9	[0, 0, 0]	n/a	FR1	0	R1162N
971.539	2.616	1377630	WORD	n/a	wordpools/wordpool_EN.txt	SNOW	8	9	[0, 0, 0]	n/a	FR1	0	R1162N
974.155	2.501	1380245	WORD	n/a	wordpools/wordpool_EN.txt	FLAME	9	9	[0, 0, 0]	n/a	FR1	0	R1162N
976.656	2.483	1382746	WORD	n/a	wordpools/wordpool_EN.txt	DOCK	10	9	[0, 0, 0]	n/a	FR1	0	R1162N
979.139	2.501	1385229	WORD	n/a	wordpools/wordpool_EN.txt	STORM	11	9	[0, 0, 0]	n/a	FR1	0	R1162N
981.64	1.616	1387730	WORD	n/a	wordpools/wordpool_EN.txt	LAKE	12	9	[0, 0, 0]	n/a	FR1	0	R1162N
983.256	0.001	1389346	DISTRACT_START	n/a	n/a	n/a	-999	9	[0, 0, 0]	n/a	FR1	0	R1162N
983.257	0.016	1389347	START	n/a	n/a	n/a	-999	9	[-999, -999, -999]	n/a	FR1	0	R1162N
983.273	4.0	1389363	PROB	4.0	n/a	n/a	-999	9	[2, 2, 9]	13	FR1	0	R1162N
987.273	2.118	1393363	PROB	2.118	n/a	n/a	-999	9	[1, 6, 1]	8	FR1	0	R1162N
989.391	3.334	1395481	PROB	3.334	n/a	n/a	-999	9	[6, 6, 1]	13	FR1	0	R1162N
992.725	2.301	1398815	PROB	2.301	n/a	n/a	-999	9	[2, 8, 5]	15	FR1	0	R1162N
995.026	2.6	1401115	PROB	2.6	n/a	n/a	-999	9	[1, 3, 9]	13	FR1	0	R1162N
997.626	4.084	1403715	PROB	4.084	n/a	n/a	-999	9	[9, 3, 8]	20	FR1	0	R1162N
1001.71	2.218	1407799	PROB	2.218	n/a	n/a	-999	9	[5, 8, 2]	15	FR1	0	R1162N
1003.928	0.016	1410017	STOP	n/a	n/a	n/a	-999	9	[-999, -999, -999]	n/a	FR1	0	R1162N
1003.944	1.134	1410033	DISTRACT_END	n/a	n/a	n/a	-999	9	[0, 0, 0]	n/a	FR1	0	R1162N
1005.078	17.71	1411167	REC_START	n/a	n/a	n/a	-999	9	[0, 0, 0]	n/a	FR1	0	R1162N
1022.788	4.565	1428876	REC_WORD	4.565	n/a	NAIL	4	9	[0, 0, 0]	n/a	FR1	0	R1162N
1027.353	7.735	1433441	REC_WORD	7.735	n/a	DOCK	10	9	[0, 0, 0]	n/a	FR1	0	R1162N
1035.088	1.894	1441175	REC_END	n/a	n/a	n/a	-999	9	[0, 0, 0]	n/a	FR1	0	R1162N
1036.982	0.0	1443069	TRIAL	n/a	n/a	n/a	-999	10	[0, 0, 0]	n/a	FR1	0	R1162N
1036.982	10.428	1443069	COUNTDOWN_START	n/a	n/a	n/a	-999	10	[0, 0, 0]	n/a	FR1	0	R1162N
1047.41	0.007	1453497	COUNTDOWN_END	n/a	n/a	n/a	-999	10	[0, 0, 0]	n/a	FR1	0	R1162N
1047.417	2.617	1453504	ORIENT	n/a	n/a	n/a	-999	10	[0, 0, 0]	n/a	FR1	0	R1162N
1050.034	2.5	1456121	WORD	n/a	wordpools/wordpool_EN.txt	SHEET	1	10	[0, 0, 0]	n/a	FR1	0	R1162N
1052.534	2.517	1458621	WORD	n/a	wordpools/wordpool_EN.txt	NET	2	10	[0, 0, 0]	n/a	FR1	0	R1162N
1055.051	2.451	1461137	WORD	n/a	wordpools/wordpool_EN.txt	WORLD	3	10	[0, 0, 0]	n/a	FR1	0	R1162N
1057.502	2.433	1463588	WORD	n/a	wordpools/wordpool_EN.txt	LIP	4	10	[0, 0, 0]	n/a	FR1	0	R1162N
1059.935	2.617	1466021	WORD	n/a	wordpools/wordpool_EN.txt	SCHOOL	5	10	[0, 0, 0]	n/a	FR1	0	R1162N
1062.552	2.616	1468638	WORD	n/a	wordpools/wordpool_EN.txt	WING	6	10	[0, 0, 0]	n/a	FR1	0	R1162N
1065.168	2.385	1471254	WORD	n/a	wordpools/wordpool_EN.txt	SWAMP	7	10	[0, 0, 0]	n/a	FR1	0	R1162N
1067.553	2.4	1473639	WORD	n/a	wordpools/wordpool_EN.txt	BAT	8	10	[0, 0, 0]	n/a	FR1	0	R1162N
1069.953	2.601	1476039	WORD	n/a	wordpools/wordpool_EN.txt	MAZE	9	10	[0, 0, 0]	n/a	FR1	0	R1162N
1072.554	2.599	1478640	WORD	n/a	wordpools/wordpool_EN.txt	TANK	10	10	[0, 0, 0]	n/a	FR1	0	R1162N
1075.153	2.518	1481239	WORD	n/a	wordpools/wordpool_EN.txt	BADGE	11	10	[0, 0, 0]	n/a	FR1	0	R1162N
1077.671	1.616	1483756	WORD	n/a	wordpools/wordpool_EN.txt	JET	12	10	[0, 0, 0]	n/a	FR1	0	R1162N
1079.287	0.001	1485372	DISTRACT_START	n/a	n/a	n/a	-999	10	[0, 0, 0]	n/a	FR1	0	R1162N
1079.288	0.016	1485373	START	n/a	n/a	n/a	-999	10	[-999, -999, -999]	n/a	FR1	0	R1162N
1079.304	2.584	1485389	PROB	2.584	n/a	n/a	-999	10	[2, 9, 8]	19	FR1	0	R1162N
1081.888	4.283	1487973	PROB	4.283	n/a	n/a	-999	10	[9, 7, 7]	23	FR1	0	R1162N
1086.171	2.502	1492256	PROB	2.502	n/a	n/a	-999	10	[1, 8, 9]	18	FR1	0	R1162N
1088.673	6.45	1494758	PROB	6.45	n/a	n/a	-999	10	[7, 5, 9]	20	FR1	0	R1162N
1095.123	4.468	1501208	PROB	4.468	n/a	n/a	-999	10	[2, 1, 4]	7	FR1	0	R1162N
1099.591	0.017	1505675	STOP	n/a	n/a	n/a	-999	10	[-999, -999, -999]	n/a	FR1	0	R1162N
1099.608	1.2	1505692	DISTRACT_END	n/a	n/a	n/a	-999	10	[0, 0, 0]	n/a	FR1	0	R1162N
1100.808	0.918	1506892	REC_START	n/a	n/a	n/a	-999	10	[0, 0, 0]	n/a	FR1	0	R1162N
1101.726	0.931	1507810	REC_WORD	0.931	n/a	LIP	4	10	[0, 0, 0]	n/a	FR1	0	R1162N
1102.657	0.96	1508741	REC_WORD	0.96	n/a	TANK	10	10	[0, 0, 0]	n/a	FR1	0	R1162N
1103.617	27.205	1509701	REC_WORD	27.205	n/a	BADGE	11	10	[0, 0, 0]	n/a	FR1	0	R1162N
1130.822	1.957	1536905	REC_END	n/a	n/a	n/a	-999	10	[0, 0, 0]	n/a	FR1	0	R1162N
1132.779	0.001	1538862	COUNTDOWN_START	n/a	n/a	n/a	-999	11	[0, 0, 0]	n/a	FR1	0	R1162N
1132.78	10.427	1538863	TRIAL	n/a	n/a	n/a	-999	11	[0, 0, 0]	n/a	FR1	0	R1162N
1143.207	0.006	1549289	COUNTDOWN_END	n/a	n/a	n/a	-999	11	[0, 0, 0]	n/a	FR1	0	R1162N
1143.213	2.385	1549295	ORIENT	n/a	n/a	n/a	-999	11	[0, 0, 0]	n/a	FR1	0	R1162N
1145.598	2.45	1551680	WORD	n/a	wordpools/wordpool_EN.txt	STEM	1	11	[0, 0, 0]	n/a	FR1	0	R1162N
1148.048	2.567	1554130	WORD	n/a	wordpools/wordpool_EN.txt	MOON	2	11	[0, 0, 0]	n/a	FR1	0	R1162N
1150.615	2.6	1556697	WORD	n/a	wordpools/wordpool_EN.txt	EGG	3	11	[0, 0, 0]	n/a	FR1	0	R1162N
1153.215	2.418	1559297	WORD	n/a	wordpools/wordpool_EN.txt	TOAD	4	11	[0, 0, 0]	n/a	FR1	0	R1162N
1155.633	2.4	1561715	WORD	n/a	wordpools/wordpool_EN.txt	LEAF	5	11	[0, 0, 0]	n/a	FR1	0	R1162N
1158.033	2.617	1564114	WORD	n/a	wordpools/wordpool_EN.txt	HORSE	6	11	[0, 0, 0]	n/a	FR1	0	R1162N
1160.65	2.533	1566731	WORD	n/a	wordpools/wordpool_EN.txt	CASH	7	11	[0, 0, 0]	n/a	FR1	0	R1162N
1163.183	2.535	1569264	WORD	n/a	wordpools/wordpool_EN.txt	POLE	8	11	[0, 0, 0]	n/a	FR1	0	R1162N
1165.718	2.616	1571799	WORD	n/a	wordpools/wordpool_EN.txt	CORD	9	11	[0, 0, 0]	n/a	FR1	0	R1162N
1168.334	2.468	1574415	WORD	n/a	wordpools/wordpool_EN.txt	BOOK	10	11	[0, 0, 0]	n/a	FR1	0	R1162N
1170.802	2.617	1576883	WORD	n/a	wordpools/wordpool_EN.txt	FUDGE	11	11	[0, 0, 0]	n/a	FR1	0	R1162N
1173.419	1.617	1579500	WORD	n/a	wordpools/wordpool_EN.txt	SEED	12	11	[0, 0, 0]	n/a	FR1	0	R1162N
1175.036	0.0	1581117	DISTRACT_START	n/a	n/a	n/a	-999	11	[0, 0, 0]	n/a	FR1	0	R1162N
1175.036	0.016	1581117	START	n/a	n/a	n/a	-999	11	[-999, -999, -999]	n/a	FR1	0	R1162N
1175.052	3.751	1581133	PROB	3.751	n/a	n/a	-999	11	[6, 8, 9]	24	FR1	0	R1162N
1178.803	2.349	1584883	PROB	2.349	n/a	n/a	-999	11	[4, 2, 5]	11	FR1	0	R1162N
1181.152	1.934	1587232	PROB	1.934	n/a	n/a	-999	11	[6, 6, 2]	14	FR1	0	R1162N
1183.086	4.968	1589166	PROB	4.968	n/a	n/a	-999	11	[4, 9, 7]	21	FR1	0	R1162N
1188.054	2.534	1594134	PROB	2.534	n/a	n/a	-999	11	[1, 9, 9]	19	FR1	0	R1162N
1190.588	2.666	1596668	PROB	2.666	n/a	n/a	-999	11	[3, 5, 6]	14	FR1	0	R1162N
1193.254	3.375	1599334	PROB	3.375	n/a	n/a	-999	11	[5, 8, 5]	18	FR1	0	R1162N
1196.629	0.01	1602709	STOP	n/a	n/a	n/a	-999	11	[-999, -999, -999]	n/a	FR1	0	R1162N
1196.639	1.151	1602719	DISTRACT_END	n/a	n/a	n/a	-999	11	[0, 0, 0]	n/a	FR1	0	R1162N
1197.79	1.007	1603869	REC_START	n/a	n/a	n/a	-999	11	[0, 0, 0]	n/a	FR1	0	R1162N
1198.797	0.881	1604876	REC_WORD	0.881	n/a	CASH	7	11	[0, 0, 0]	n/a	FR1	0	R1162N
1199.678	0.877	1605757	REC_WORD	0.877	n/a	BOOK	10	11	[0, 0, 0]	n/a	FR1	0	R1162N
1200.555	5.509	1606634	REC_WORD	5.509	n/a	BADGE	-999	11	[0, 0, 0]	n/a	FR1	0	R1162N
1206.064	4.176	1612143	REC_WORD	4.176	n/a	MOON	2	11	[0, 0, 0]	n/a	FR1	0	R1162N
1210.24	17.56	1616319	REC_WORD	17.56	n/a	HORSE	6	11	[0, 0, 0]	n/a	FR1	0	R1162N
1227.8	1.342	1633878	REC_END	n/a	n/a	n/a	-999	11	[0, 0, 0]	n/a	FR1	0	R1162N
1229.142	0.001	1635220	COUNTDOWN_START	n/a	n/a	n/a	-999	12	[0, 0, 0]	n/a	FR1	0	R1162N
1229.143	10.427	1635221	TRIAL	n/a	n/a	n/a	-999	12	[0, 0, 0]	n/a	FR1	0	R1162N
1239.57	0.009	1645647	COUNTDOWN_END	n/a	n/a	n/a	-999	12	[0, 0, 0]	n/a	FR1	0	R1162N
1239.579	2.515	1645656	ORIENT	n/a	n/a	n/a	-999	12	[0, 0, 0]	n/a	FR1	0	R1162N
1242.094	2.419	1648171	WORD	n/a	wordpools/wordpool_EN.txt	FORK	1	12	[0, 0, 0]	n/a	FR1	0	R1162N
1244.513	2.599	1650590	WORD	n/a	wordpools/wordpool_EN.txt	BANK	2	12	[0, 0, 0]	n/a	FR1	0	R1162N
1247.112	2.384	1653189	WORD	n/a	wordpools/wordpool_EN.txt	SLEEVE	3	12	[0, 0, 0]	n/a	FR1	0	R1162N
1249.496	2.468	1655573	WORD	n/a	wordpools/wordpool_EN.txt	WAND	4	12	[0, 0, 0]	n/a	FR1	0	R1162N
1251.964	2.617	1658041	WORD	n/a	wordpools/wordpool_EN.txt	TOE	5	12	[0, 0, 0]	n/a	FR1	0	R1162N
1254.581	2.532	1660658	WORD	n/a	wordpools/wordpool_EN.txt	COUCH	6	12	[0, 0, 0]	n/a	FR1	0	R1162N
1257.113	2.402	1663190	WORD	n/a	wordpools/wordpool_EN.txt	GATE	7	12	[0, 0, 0]	n/a	FR1	0	R1162N
1259.515	2.566	1665591	WORD	n/a	wordpools/wordpool_EN.txt	STRING	8	12	[0, 0, 0]	n/a	FR1	0	R1162N
1262.081	2.618	1668157	WORD	n/a	wordpools/wordpool_EN.txt	VINE	9	12	[0, 0, 0]	n/a	FR1	0	R1162N
1264.699	2.583	1670775	WORD	n/a	wordpools/wordpool_EN.txt	SPEAR	10	12	[0, 0, 0]	n/a	FR1	0	R1162N
1267.282	2.401	1673358	WORD	n/a	wordpools/wordpool_EN.txt	TIE	11	12	[0, 0, 0]	n/a	FR1	0	R1162N
1269.683	1.616	1675759	WORD	n/a	wordpools/wordpool_EN.txt	PALM	12	12	[0, 0, 0]	n/a	FR1	0	R1162N
1271.299	0.001	1677375	DISTRACT_START	n/a	n/a	n/a	-999	12	[0, 0, 0]	n/a	FR1	0	R1162N
1271.3	0.015	1677376	START	n/a	n/a	n/a	-999	12	[-999, -999, -999]	n/a	FR1	0	R1162N
1271.315	2.535	1677391	PROB	2.535	n/a	n/a	-999	12	[2, 3, 6]	11	FR1	0	R1162N
1273.85	2.433	1679926	PROB	2.433	n/a	n/a	-999	12	[3, 1, 4]	8	FR1	0	R1162N
1276.283	5.901	1682359	PROB	5.901	n/a	n/a	-999	12	[7, 6, 9]	22	FR1	0	R1162N
1282.184	1.768	1688259	PROB	1.768	n/a	n/a	-999	12	[1, 1, 3]	5	FR1	0	R1162N
1283.952	1.667	1690027	PROB	1.667	n/a	n/a	-999	12	[5, 1, 5]	11	FR1	0	R1162N
1285.619	2.549	1691694	PROB	2.549	n/a	n/a	-999	12	[2, 9, 4]	15	FR1	0	R1162N
1288.168	2.635	1694243	PROB	2.635	n/a	n/a	-999	12	[5, 1, 4]	10	FR1	0	R1162N
1290.803	2.121	1696878	PROB	2.121	n/a	n/a	-999	12	[2, 4, 8]	14	FR1	0	R1162N
1292.924	0.012	1698999	STOP	n/a	n/a	n/a	-999	12	[-999, -999, -999]	n/a	FR1	0	R1162N
1292.936	1.183	1699011	DISTRACT_END	n/a	n/a	n/a	-999	12	[0, 0, 0]	n/a	FR1	0	R1162N
1294.119	1.588	1700194	REC_START	n/a	n/a	n/a	-999	12	[0, 0, 0]	n/a	FR1	0	R1162N
1295.707	28.426	1701782	REC_WORD	28.426	n/a	SPORT	-999	12	[0, 0, 0]	n/a	FR1	0	R1162N
1324.133	1.825	1730206	REC_END	n/a	n/a	n/a	-999	12	[0, 0, 0]	n/a	FR1	0	R1162N
1325.958	0.0	1732031	TRIAL	n/a	n/a	n/a	-999	13	[0, 0, 0]	n/a	FR1	0	R1162N
1325.958	10.428	1732031	COUNTDOWN_START	n/a	n/a	n/a	-999	13	[0, 0, 0]	n/a	FR1	0	R1162N
1336.386	0.007	1742459	COUNTDOWN_END	n/a	n/a	n/a	-999	13	[0, 0, 0]	n/a	FR1	0	R1162N
1336.393	2.567	1742466	ORIENT	n/a	n/a	n/a	-999	13	[0, 0, 0]	n/a	FR1	0	R1162N
1338.96	2.4	1745033	WORD	n/a	wordpools/wordpool_EN.txt	SHELL	1	13	[0, 0, 0]	n/a	FR1	0	R1162N
1341.36	2.551	1747432	WORD	n/a	wordpools/wordpool_EN.txt	GLASS	2	13	[0, 0, 0]	n/a	FR1	0	R1162N
1343.911	2.399	1749983	WORD	n/a	wordpools/wordpool_EN.txt	HOOF	3	13	[0, 0, 0]	n/a	FR1	0	R1162N
1346.31	2.484	1752382	WORD	n/a	wordpools/wordpool_EN.txt	ZOO	4	13	[0, 0, 0]	n/a	FR1	0	R1162N
1348.794	2.551	1754866	WORD	n/a	wordpools/wordpool_EN.txt	FLEA	5	13	[0, 0, 0]	n/a	FR1	0	R1162N
1351.345	2.584	1757417	WORD	n/a	wordpools/wordpool_EN.txt	SEA	6	13	[0, 0, 0]	n/a	FR1	0	R1162N
1353.929	2.467	1760001	WORD	n/a	wordpools/wordpool_EN.txt	CONE	7	13	[0, 0, 0]	n/a	FR1	0	R1162N
1356.396	2.45	1762468	WORD	n/a	wordpools/wordpool_EN.txt	BEACH	8	13	[0, 0, 0]	n/a	FR1	0	R1162N
1358.846	2.567	1764918	WORD	n/a	wordpools/wordpool_EN.txt	SNAIL	9	13	[0, 0, 0]	n/a	FR1	0	R1162N
1361.413	2.434	1767484	WORD	n/a	wordpools/wordpool_EN.txt	CLAY	10	13	[0, 0, 0]	n/a	FR1	0	R1162N
1363.847	2.449	1769918	WORD	n/a	wordpools/wordpool_EN.txt	SPONGE	11	13	[0, 0, 0]	n/a	FR1	0	R1162N
1366.296	1.601	1772367	WORD	n/a	wordpools/wordpool_EN.txt	WAVE	12	13	[0, 0, 0]	n/a	FR1	0	R1162N
1367.897	0.001	1773968	DISTRACT_START	n/a	n/a	n/a	-999	13	[0, 0, 0]	n/a	FR1	0	R1162N
1367.898	0.016	1773969	START	n/a	n/a	n/a	-999	13	[-999, -999, -999]	n/a	FR1	0	R1162N
1367.914	2.534	1773985	PROB	2.534	n/a	n/a	-999	13	[2, 4, 5]	11	FR1	0	R1162N
1370.448	1.782	1776519	PROB	1.782	n/a	n/a	-999	13	[7, 4, 7]	18	FR1	0	R1162N
1372.23	1.835	1778301	PROB	1.835	n/a	n/a	-999	13	[1, 8, 8]	17	FR1	0	R1162N
1374.065	2.45	1780136	PROB	2.45	n/a	n/a	-999	13	[5, 4, 8]	17	FR1	0	R1162N
1376.515	2.384	1782586	PROB	2.384	n/a	n/a	-999	13	[5, 1, 1]	7	FR1	0	R1162N
1378.899	2.7	1784970	PROB	2.7	n/a	n/a	-999	13	[3, 8, 6]	17	FR1	0	R1162N
1381.599	4.6	1787669	PROB	4.6	n/a	n/a	-999	13	[8, 9, 8]	27	FR1	0	R1162N
1386.199	3.259	1792269	PROB	3.259	n/a	n/a	-999	13	[6, 4, 3]	13	FR1	0	R1162N
1389.458	0.009	1795528	STOP	n/a	n/a	n/a	-999	13	[-999, -999, -999]	n/a	FR1	0	R1162N
1389.467	1.184	1795537	DISTRACT_END	n/a	n/a	n/a	-999	13	[0, 0, 0]	n/a	FR1	0	R1162N
1390.651	9.391	1796721	REC_START	n/a	n/a	n/a	-999	13	[0, 0, 0]	n/a	FR1	0	R1162N
1400.042	0.794	1806111	REC_WORD	0.794	n/a	FISH	-999	13	[0, 0, 0]	n/a	FR1	0	R1162N
1400.836	19.826	1806905	REC_WORD	19.826	n/a	LINE	-999	13	[0, 0, 0]	n/a	FR1	0	R1162N
1420.662	1.793	1826730	REC_END	n/a	n/a	n/a	-999	13	[0, 0, 0]	n/a	FR1	0	R1162N
1422.455	0.0	1828523	TRIAL	n/a	n/a	n/a	-999	14	[0, 0, 0]	n/a	FR1	0	R1162N
1422.455	10.428	1828523	COUNTDOWN_START	n/a	n/a	n/a	-999	14	[0, 0, 0]	n/a	FR1	0	R1162N
1432.883	0.007	1838951	COUNTDOWN_END	n/a	n/a	n/a	-999	14	[0, 0, 0]	n/a	FR1	0	R1162N
1432.89	2.55	1838958	ORIENT	n/a	n/a	n/a	-999	14	[0, 0, 0]	n/a	FR1	0	R1162N
1435.44	2.384	1841508	WORD	n/a	wordpools/wordpool_EN.txt	BRIDGE	1	14	[0, 0, 0]	n/a	FR1	0	R1162N
1437.824	2.433	1843892	WORD	n/a	wordpools/wordpool_EN.txt	CAGE	2	14	[0, 0, 0]	n/a	FR1	0	R1162N
1440.257	2.584	1846325	WORD	n/a	wordpools/wordpool_EN.txt	BOOT	3	14	[0, 0, 0]	n/a	FR1	0	R1162N
1442.841	2.618	1848908	WORD	n/a	wordpools/wordpool_EN.txt	GEESE	4	14	[0, 0, 0]	n/a	FR1	0	R1162N
1445.459	2.4	1851526	WORD	n/a	wordpools/wordpool_EN.txt	SKUNK	5	14	[0, 0, 0]	n/a	FR1	0	R1162N
1447.859	2.433	1853926	WORD	n/a	wordpools/wordpool_EN.txt	CLOCK	6	14	[0, 0, 0]	n/a	FR1	0	R1162N
1450.292	2.468	1856359	WORD	n/a	wordpools/wordpool_EN.txt	ICE	7	14	[0, 0, 0]	n/a	FR1	0	R1162N
1452.76	2.583	1858827	WORD	n/a	wordpools/wordpool_EN.txt	LAND	8	14	[0, 0, 0]	n/a	FR1	0	R1162N
1455.343	2.417	1861410	WORD	n/a	wordpools/wordpool_EN.txt	FARM	9	14	[0, 0, 0]	n/a	FR1	0	R1162N
1457.76	2.55	1863827	WORD	n/a	wordpools/wordpool_EN.txt	MAP	10	14	[0, 0, 0]	n/a	FR1	0	R1162N
1460.31	2.401	1866377	WORD	n/a	wordpools/wordpool_EN.txt	ARK	11	14	[0, 0, 0]	n/a	FR1	0	R1162N
1462.711	1.616	1868777	WORD	n/a	wordpools/wordpool_EN.txt	SKY	12	14	[0, 0, 0]	n/a	FR1	0	R1162N
1464.327	0.001	1870393	DISTRACT_START	n/a	n/a	n/a	-999	14	[0, 0, 0]	n/a	FR1	0	R1162N
1464.328	0.017	1870394	START	n/a	n/a	n/a	-999	14	[-999, -999, -999]	n/a	FR1	0	R1162N
1464.345	2.333	1870411	PROB	2.333	n/a	n/a	-999	14	[1, 2, 4]	7	FR1	0	R1162N
1466.678	2.117	1872744	PROB	2.117	n/a	n/a	-999	14	[2, 1, 8]	11	FR1	0	R1162N
1468.795	3.35	1874861	PROB	3.35	n/a	n/a	-999	14	[1, 8, 2]	11	FR1	0	R1162N
1472.145	3.301	1878211	PROB	3.301	n/a	n/a	-999	14	[8, 4, 6]	18	FR1	0	R1162N
1475.446	3.833	1881512	PROB	3.833	n/a	n/a	-999	14	[2, 7, 5]	15	FR1	0	R1162N
1479.279	2.418	1885345	PROB	2.418	n/a	n/a	-999	14	[1, 9, 6]	16	FR1	0	R1162N
1481.697	4.791	1887762	PROB	4.791	n/a	n/a	-999	14	[8, 1, 4]	13	FR1	0	R1162N
1486.488	0.01	1892553	STOP	n/a	n/a	n/a	-999	14	[-999, -999, -999]	n/a	FR1	0	R1162N
1486.498	1.051	1892563	DISTRACT_END	n/a	n/a	n/a	-999	14	[0, 0, 0]	n/a	FR1	0	R1162N
1487.549	0.799	1893614	REC_START	n/a	n/a	n/a	-999	14	[0, 0, 0]	n/a	FR1	0	R1162N
1488.348	0.754	1894413	REC_WORD	0.754	n/a	ICE	7	14	[0, 0, 0]	n/a	FR1	0	R1162N
1489.102	0.746	1895167	REC_WORD	0.746	n/a	LAND	8	14	[0, 0, 0]	n/a	FR1	0	R1162N
1489.848	0.986	1895913	REC_WORD	0.986	n/a	FARM	9	14	[0, 0, 0]	n/a	FR1	0	R1162N
1490.834	1.505	1896899	REC_WORD	1.505	n/a	MAP	10	14	[0, 0, 0]	n/a	FR1	0	R1162N
1492.339	2.836	1898404	REC_WORD	2.836	n/a	ZOO	-999	14	[0, 0, 0]	n/a	FR1	0	R1162N
1495.175	1.019	1901240	REC_WORD	1.019	n/a	BIRD	-999	14	[0, 0, 0]	n/a	FR1	0	R1162N
1496.194	21.365	1902259	REC_WORD	21.365	n/a	GEESE	4	14	[0, 0, 0]	n/a	FR1	0	R1162N
1517.559	1.86	1923623	REC_END	n/a	n/a	n/a	-999	14	[0, 0, 0]	n/a	FR1	0	R1162N
1519.419	0.001	1925483	COUNTDOWN_START	n/a	n/a	n/a	-999	15	[0, 0, 0]	n/a	FR1	0	R1162N
1519.42	10.427	1925484	TRIAL	n/a	n/a	n/a	-999	15	[0, 0, 0]	n/a	FR1	0	R1162N
1529.847	0.007	1935910	COUNTDOWN_END	n/a	n/a	n/a	-999	15	[0, 0, 0]	n/a	FR1	0	R1162N
1529.854	2.433	1935917	ORIENT	n/a	n/a	n/a	-999	15	[0, 0, 0]	n/a	FR1	0	R1162N
1532.287	2.568	1938350	WORD	n/a	wordpools/wordpool_EN.txt	HOSE	1	15	[0, 0, 0]	n/a	FR1	0	R1162N
1534.855	2.449	1940918	WORD	n/a	wordpools/wordpool_EN.txt	TRASH	2	15	[0, 0, 0]	n/a	FR1	0	R1162N
1537.304	2.368	1943367	WORD	n/a	wordpools/wordpool_EN.txt	TRUCK	3	15	[0, 0, 0]	n/a	FR1	0	R1162N
1539.672	2.45	1945735	WORD	n/a	wordpools/wordpool_EN.txt	SOUP	4	15	[0, 0, 0]	n/a	FR1	0	R1162N
1542.122	2.501	1948184	WORD	n/a	wordpools/wordpool_EN.txt	DRUM	5	15	[0, 0, 0]	n/a	FR1	0	R1162N
1544.623	2.4	1950685	WORD	n/a	wordpools/wordpool_EN.txt	SUN	6	15	[0, 0, 0]	n/a	FR1	0	R1162N
1547.023	2.434	1953085	WORD	n/a	wordpools/wordpool_EN.txt	PLATE	7	15	[0, 0, 0]	n/a	FR1	0	R1162N
1549.457	2.534	1955519	WORD	n/a	wordpools/wordpool_EN.txt	PIG	8	15	[0, 0, 0]	n/a	FR1	0	R1162N
1551.991	2.417	1958053	WORD	n/a	wordpools/wordpool_EN.txt	SALT	9	15	[0, 0, 0]	n/a	FR1	0	R1162N
1554.408	2.617	1960470	WORD	n/a	wordpools/wordpool_EN.txt	STONE	10	15	[0, 0, 0]	n/a	FR1	0	R1162N
1557.025	2.433	1963087	WORD	n/a	wordpools/wordpool_EN.txt	GRAPE	11	15	[0, 0, 0]	n/a	FR1	0	R1162N
1559.458	1.617	1965520	WORD	n/a	wordpools/wordpool_EN.txt	ELF	12	15	[0, 0, 0]	n/a	FR1	0	R1162N
1561.075	0.001	1967137	DISTRACT_START	n/a	n/a	n/a	-999	15	[0, 0, 0]	n/a	FR1	0	R1162N
1561.076	0.015	1967138	START	n/a	n/a	n/a	-999	15	[-999, -999, -999]	n/a	FR1	0	R1162N
1561.091	2.134	1967153	PROB	2.134	n/a	n/a	-999	15	[3, 4, 1]	8	FR1	0	R1162N
1563.225	2.651	1969286	PROB	2.651	n/a	n/a	-999	15	[3, 7, 9]	19	FR1	0	R1162N
1565.876	2.366	1971937	PROB	2.366	n/a	n/a	-999	15	[6, 3, 5]	14	FR1	0	R1162N
1568.242	1.601	1974303	PROB	1.601	n/a	n/a	-999	15	[1, 6, 1]	8	FR1	0	R1162N
1569.843	2.001	1975904	PROB	2.001	n/a	n/a	-999	15	[1, 4, 6]	11	FR1	0	R1162N
1571.844	2.667	1977905	PROB	2.667	n/a	n/a	-999	15	[6, 9, 8]	23	FR1	0	R1162N
1574.511	4.85	1980572	PROB	4.85	n/a	n/a	-999	15	[6, 7, 8]	21	FR1	0	R1162N
1579.361	2.836	1985422	PROB	2.836	n/a	n/a	-999	15	[7, 6, 2]	15	FR1	0	R1162N
1582.197	0.014	1988258	STOP	n/a	n/a	n/a	-999	15	[-999, -999, -999]	n/a	FR1	0	R1162N
1582.211	1.185	1988272	DISTRACT_END	n/a	n/a	n/a	-999	15	[0, 0, 0]	n/a	FR1	0	R1162N
1583.396	0.89	1989456	REC_START	n/a	n/a	n/a	-999	15	[0, 0, 0]	n/a	FR1	0	R1162N
1584.286	0.684	1990346	REC_WORD	0.684	n/a	HOSE	1	15	[0, 0, 0]	n/a	FR1	0	R1162N
1584.97	0.749	1991030	REC_WORD	0.749	n/a	TRASH	2	15	[0, 0, 0]	n/a	FR1	0	R1162N
1585.719	27.687	1991779	REC_WORD	27.687	n/a	TRUCK	3	15	[0, 0, 0]	n/a	FR1	0	R1162N
1613.406	3.077	2019465	REC_END	n/a	n/a	n/a	-999	15	[0, 0, 0]	n/a	FR1	0	R1162N
1616.483	0.001	2022542	COUNTDOWN_START	n/a	n/a	n/a	-999	16	[0, 0, 0]	n/a	FR1	0	R1162N
1616.484	10.427	2022543	TRIAL	n/a	n/a	n/a	-999	16	[0, 0, 0]	n/a	FR1	0	R1162N
1626.911	0.007	2032969	COUNTDOWN_END	n/a	n/a	n/a	-999	16	[0, 0, 0]	n/a	FR1	0	R1162N
1626.918	2.416	2032976	ORIENT	n/a	n/a	n/a	-999	16	[0, 0, 0]	n/a	FR1	0	R1162N
1629.334	2.552	2035392	WORD	n/a	wordpools/wordpool_EN.txt	KEY	1	16	[0, 0, 0]	n/a	FR1	0	R1162N
1631.886	2.432	2037944	WORD	n/a	wordpools/wordpool_EN.txt	GOLD	2	16	[0, 0, 0]	n/a	FR1	0	R1162N
1634.318	2.502	2040376	WORD	n/a	wordpools/wordpool_EN.txt	FILM	3	16	[0, 0, 0]	n/a	FR1	0	R1162N
1636.82	2.567	2042878	WORD	n/a	wordpools/wordpool_EN.txt	BOMB	4	16	[0, 0, 0]	n/a	FR1	0	R1162N
1639.387	2.433	2045445	WORD	n/a	wordpools/wordpool_EN.txt	PRINCE	5	16	[0, 0, 0]	n/a	FR1	0	R1162N
1641.82	2.433	2047878	WORD	n/a	wordpools/wordpool_EN.txt	EAR	6	16	[0, 0, 0]	n/a	FR1	0	R1162N
1644.253	2.601	2050310	WORD	n/a	wordpools/wordpool_EN.txt	DART	7	16	[0, 0, 0]	n/a	FR1	0	R1162N
1646.854	2.551	2052911	WORD	n/a	wordpools/wordpool_EN.txt	BALL	8	16	[0, 0, 0]	n/a	FR1	0	R1162N
1649.405	2.484	2055462	WORD	n/a	wordpools/wordpool_EN.txt	PLANE	9	16	[0, 0, 0]	n/a	FR1	0	R1162N
1651.889	2.449	2057946	WORD	n/a	wordpools/wordpool_EN.txt	SPARK	10	16	[0, 0, 0]	n/a	FR1	0	R1162N
1654.338	2.568	2060395	WORD	n/a	wordpools/wordpool_EN.txt	COIN	11	16	[0, 0, 0]	n/a	FR1	0	R1162N
1656.906	1.617	2062963	WORD	n/a	wordpools/wordpool_EN.txt	SPOON	12	16	[0, 0, 0]	n/a	FR1	0	R1162N
1658.523	0.001	2064580	DISTRACT_START	n/a	n/a	n/a	-999	16	[0, 0, 0]	n/a	FR1	0	R1162N
1658.524	0.015	2064581	START	n/a	n/a	n/a	-999	16	[-999, -999, -999]	n/a	FR1	0	R1162N
1658.539	2.7	2064596	PROB	2.7	n/a	n/a	-999	16	[2, 4, 4]	10	FR1	0	R1162N
1661.239	2.017	2067296	PROB	2.017	n/a	n/a	-999	16	[5, 5, 5]	15	FR1	0	R1162N
1663.256	4.851	2069313	PROB	4.851	n/a	n/a	-999	16	[5, 8, 3]	21	FR1	0	R1162N
1668.107	2.618	2074163	PROB	2.618	n/a	n/a	-999	16	[2, 5, 3]	10	FR1	0	R1162N
1670.725	3.733	2076781	PROB	3.733	n/a	n/a	-999	16	[4, 9, 3]	16	FR1	0	R1162N
1674.458	2.317	2080514	PROB	2.317	n/a	n/a	-999	16	[3, 1, 4]	8	FR1	0	R1162N
1676.775	3.157	2082831	PROB	3.157	n/a	n/a	-999	16	[7, 9, 7]	23	FR1	0	R1162N
1679.932	0.011	2085988	STOP	n/a	n/a	n/a	-999	16	[-999, -999, -999]	n/a	FR1	0	R1162N
1679.943	1.1	2085999	DISTRACT_END	n/a	n/a	n/a	-999	16	[0, 0, 0]	n/a	FR1	0	R1162N
1681.043	1.839	2087099	REC_START	n/a	n/a	n/a	-999	16	[0, 0, 0]	n/a	FR1	0	R1162N
1682.882	0.596	2088938	REC_WORD	0.596	n/a	BALL	8	16	[0, 0, 0]	n/a	FR1	0	R1162N
1683.478	0.627	2089534	REC_WORD	0.627	n/a	PRINCE	5	16	[0, 0, 0]	n/a	FR1	0	R1162N
1684.105	0.899	2090160	REC_WORD	0.899	n/a	SPOON	12	16	[0, 0, 0]	n/a	FR1	0	R1162N
1685.004	26.053	2091059	REC_WORD	26.053	n/a	FORK	-999	16	[0, 0, 0]	n/a	FR1	0	R1162N
1711.057	1.657	2117111	REC_END	n/a	n/a	n/a	-999	16	[0, 0, 0]	n/a	FR1	0	R1162N
1712.714	0.0	2118768	TRIAL	n/a	n/a	n/a	-999	17	[0, 0, 0]	n/a	FR1	0	R1162N
1712.714	10.428	2118768	COUNTDOWN_START	n/a	n/a	n/a	-999	17	[0, 0, 0]	n/a	FR1	0	R1162N
1723.142	0.006	2129196	COUNTDOWN_END	n/a	n/a	n/a	-999	17	[0, 0, 0]	n/a	FR1	0	R1162N
1723.148	2.401	2129202	ORIENT	n/a	n/a	n/a	-999	17	[0, 0, 0]	n/a	FR1	0	R1162N
1725.549	2.599	2131602	WORD	n/a	wordpools/wordpool_EN.txt	MULE	1	17	[0, 0, 0]	n/a	FR1	0	R1162N
1728.148	2.585	2134201	WORD	n/a	wordpools/wordpool_EN.txt	FORT	2	17	[0, 0, 0]	n/a	FR1	0	R1162N
1730.733	2.5	2136786	WORD	n/a	wordpools/wordpool_EN.txt	PEA	3	17	[0, 0, 0]	n/a	FR1	0	R1162N
1733.233	2.534	2139286	WORD	n/a	wordpools/wordpool_EN.txt	HILL	4	17	[0, 0, 0]	n/a	FR1	0	R1162N
1735.767	2.601	2141820	WORD	n/a	wordpools/wordpool_EN.txt	HEN	5	17	[0, 0, 0]	n/a	FR1	0	R1162N
1738.368	2.583	2144421	WORD	n/a	wordpools/wordpool_EN.txt	MAT	6	17	[0, 0, 0]	n/a	FR1	0	R1162N
1740.951	2.434	2147004	WORD	n/a	wordpools/wordpool_EN.txt	PANTS	7	17	[0, 0, 0]	n/a	FR1	0	R1162N
1743.385	2.601	2149438	WORD	n/a	wordpools/wordpool_EN.txt	FOX	8	17	[0, 0, 0]	n/a	FR1	0	R1162N
1745.986	2.5	2152038	WORD	n/a	wordpools/wordpool_EN.txt	FLAG	9	17	[0, 0, 0]	n/a	FR1	0	R1162N
1748.486	2.616	2154538	WORD	n/a	wordpools/wordpool_EN.txt	SIGN	10	17	[0, 0, 0]	n/a	FR1	0	R1162N
1751.102	2.568	2157154	WORD	n/a	wordpools/wordpool_EN.txt	GUARD	11	17	[0, 0, 0]	n/a	FR1	0	R1162N
1753.67	1.616	2159722	WORD	n/a	wordpools/wordpool_EN.txt	HAWK	12	17	[0, 0, 0]	n/a	FR1	0	R1162N
1755.286	0.001	2161338	DISTRACT_START	n/a	n/a	n/a	-999	17	[0, 0, 0]	n/a	FR1	0	R1162N
1755.287	0.015	2161339	START	n/a	n/a	n/a	-999	17	[-999, -999, -999]	n/a	FR1	0	R1162N
1755.302	3.951	2161354	PROB	3.951	n/a	n/a	-999	17	[5, 2, 6]	13	FR1	0	R1162N
1759.253	3.884	2165305	PROB	3.884	n/a	n/a	-999	17	[9, 4, 8]	21	FR1	0	R1162N
1763.137	3.718	2169189	PROB	3.718	n/a	n/a	-999	17	[7, 8, 2]	17	FR1	0	R1162N
1766.855	2.15	2172906	PROB	2.15	n/a	n/a	-999	17	[1, 3, 3]	7	FR1	0	R1162N
1769.005	4.133	2175056	PROB	4.133	n/a	n/a	-999	17	[4, 9, 3]	16	FR1	0	R1162N
1773.138	2.4	2179189	PROB	2.4	n/a	n/a	-999	17	[1, 8, 4]	13	FR1	0	R1162N
1775.538	0.018	2181589	STOP	n/a	n/a	n/a	-999	17	[-999, -999, -999]	n/a	FR1	0	R1162N
1775.556	1.118	2181607	DISTRACT_END	n/a	n/a	n/a	-999	17	[0, 0, 0]	n/a	FR1	0	R1162N
1776.674	0.703	2182725	REC_START	n/a	n/a	n/a	-999	17	[0, 0, 0]	n/a	FR1	0	R1162N
1777.377	0.896	2183428	REC_WORD	0.896	n/a	FORT	2	17	[0, 0, 0]	n/a	FR1	0	R1162N
1778.273	1.009	2184324	REC_WORD	1.009	n/a	SIGN	10	17	[0, 0, 0]	n/a	FR1	0	R1162N
1779.282	7.821	2185333	REC_WORD	7.821	n/a	HILL	4	17	[0, 0, 0]	n/a	FR1	0	R1162N
1787.103	19.581	2193153	REC_WORD	19.581	n/a	BASE	-999	17	[0, 0, 0]	n/a	FR1	0	R1162N
1806.684	2.16	2212733	REC_END	n/a	n/a	n/a	-999	17	[0, 0, 0]	n/a	FR1	0	R1162N
1808.844	0.001	2214893	COUNTDOWN_START	n/a	n/a	n/a	-999	18	[0, 0, 0]	n/a	FR1	0	R1162N
1808.845	10.427	2214894	TRIAL	n/a	n/a	n/a	-999	18	[0, 0, 0]	n/a	FR1	0	R1162N
1819.272	0.006	2225321	COUNTDOWN_END	n/a	n/a	n/a	-999	18	[0, 0, 0]	n/a	FR1	0	R1162N
1819.278	2.435	2225327	ORIENT	n/a	n/a	n/a	-999	18	[0, 0, 0]	n/a	FR1	0	R1162N
1821.713	2.416	2227762	WORD	n/a	wordpools/wordpool_EN.txt	INK	1	18	[0, 0, 0]	n/a	FR1	0	R1162N
1824.129	2.501	2230178	WORD	n/a	wordpools/wordpool_EN.txt	FENCE	2	18	[0, 0, 0]	n/a	FR1	0	R1162N
1826.63	2.583	2232678	WORD	n/a	wordpools/wordpool_EN.txt	TRAY	3	18	[0, 0, 0]	n/a	FR1	0	R1162N
1829.213	2.585	2235261	WORD	n/a	wordpools/wordpool_EN.txt	STICK	4	18	[0, 0, 0]	n/a	FR1	0	R1162N
1831.798	2.466	2237846	WORD	n/a	wordpools/wordpool_EN.txt	STAIR	5	18	[0, 0, 0]	n/a	FR1	0	R1162N
1834.264	2.384	2240312	WORD	n/a	wordpools/wordpool_EN.txt	SHEEP	6	18	[0, 0, 0]	n/a	FR1	0	R1162N
1836.648	2.483	2242696	WORD	n/a	wordpools/wordpool_EN.txt	MUG	7	18	[0, 0, 0]	n/a	FR1	0	R1162N
1839.131	2.485	2245179	WORD	n/a	wordpools/wordpool_EN.txt	SHARK	8	18	[0, 0, 0]	n/a	FR1	0	R1162N
1841.616	2.383	2247664	WORD	n/a	wordpools/wordpool_EN.txt	ROSE	9	18	[0, 0, 0]	n/a	FR1	0	R1162N
1843.999	2.451	2250047	WORD	n/a	wordpools/wordpool_EN.txt	CANE	10	18	[0, 0, 0]	n/a	FR1	0	R1162N
1846.45	2.4	2252497	WORD	n/a	wordpools/wordpool_EN.txt	BARN	11	18	[0, 0, 0]	n/a	FR1	0	R1162N
1848.85	1.617	2254897	WORD	n/a	wordpools/wordpool_EN.txt	PEN	12	18	[0, 0, 0]	n/a	FR1	0	R1162N
1850.467	0.001	2256514	DISTRACT_START	n/a	n/a	n/a	-999	18	[0, 0, 0]	n/a	FR1	0	R1162N
1850.468	0.016	2256515	START	n/a	n/a	n/a	-999	18	[-999, -999, -999]	n/a	FR1	0	R1162N
1850.484	2.217	2256531	PROB	2.217	n/a	n/a	-999	18	[2, 5, 5]	12	FR1	0	R1162N
1852.701	2.382	2258748	PROB	2.382	n/a	n/a	-999	18	[9, 3, 4]	16	FR1	0	R1162N
1855.083	1.485	2261130	PROB	1.485	n/a	n/a	-999	18	[1, 6, 1]	8	FR1	0	R1162N
1856.568	4.234	2262615	PROB	4.234	n/a	n/a	-999	18	[7, 8, 7]	22	FR1	0	R1162N
1860.802	2.2	2266849	PROB	2.2	n/a	n/a	-999	18	[8, 2, 9]	19	FR1	0	R1162N
1863.002	1.834	2269049	PROB	1.834	n/a	n/a	-999	18	[6, 2, 6]	14	FR1	0	R1162N
1864.836	2.65	2270883	PROB	2.65	n/a	n/a	-999	18	[4, 1, 7]	15	FR1	0	R1162N
1867.486	3.729	2273532	PROB	3.729	n/a	n/a	-999	18	[6, 3, 9]	18	FR1	0	R1162N
1871.215	0.004	2277261	STOP	n/a	n/a	n/a	-999	18	[-999, -999, -999]	n/a	FR1	0	R1162N
1871.219	1.067	2277265	DISTRACT_END	n/a	n/a	n/a	-999	18	[0, 0, 0]	n/a	FR1	0	R1162N
1872.286	0.597	2278332	REC_START	n/a	n/a	n/a	-999	18	[0, 0, 0]	n/a	FR1	0	R1162N
1872.883	0.767	2278929	REC_WORD	0.767	n/a	INK	1	18	[0, 0, 0]	n/a	FR1	0	R1162N
1873.65	0.656	2279696	REC_WORD	0.656	n/a	ROSE	9	18	[0, 0, 0]	n/a	FR1	0	R1162N
1874.306	0.852	2280352	REC_WORD	0.852	n/a	CANE	10	18	[0, 0, 0]	n/a	FR1	0	R1162N
1875.158	27.142	2281204	REC_WORD	27.142	n/a	BARN	11	18	[0, 0, 0]	n/a	FR1	0	R1162N
1902.3	1.475	2308345	REC_END	n/a	n/a	n/a	-999	18	[0, 0, 0]	n/a	FR1	0	R1162N
1903.775	0.0	2309820	TRIAL	n/a	n/a	n/a	-999	19	[0, 0, 0]	n/a	FR1	0	R1162N
1903.775	10.428	2309820	COUNTDOWN_START	n/a	n/a	n/a	-999	19	[0, 0, 0]	n/a	FR1	0	R1162N
1914.203	0.005	2320247	COUNTDOWN_END	n/a	n/a	n/a	-999	19	[0, 0, 0]	n/a	FR1	0	R1162N
1914.208	2.535	2320252	ORIENT	n/a	n/a	n/a	-999	19	[0, 0, 0]	n/a	FR1	0	R1162N
1916.743	2.566	2322787	WORD	n/a	wordpools/wordpool_EN.txt	SEAT	1	19	[0, 0, 0]	n/a	FR1	0	R1162N
1919.309	2.435	2325353	WORD	n/a	wordpools/wordpool_EN.txt	DOOR	2	19	[0, 0, 0]	n/a	FR1	0	R1162N
1921.744	2.6	2327788	WORD	n/a	wordpools/wordpool_EN.txt	THUMB	3	19	[0, 0, 0]	n/a	FR1	0	R1162N
1924.344	2.517	2330388	WORD	n/a	wordpools/wordpool_EN.txt	BROOM	4	19	[0, 0, 0]	n/a	FR1	0	R1162N
1926.861	2.517	2332905	WORD	n/a	wordpools/wordpool_EN.txt	HAND	5	19	[0, 0, 0]	n/a	FR1	0	R1162N
1929.378	2.384	2335421	WORD	n/a	wordpools/wordpool_EN.txt	CRANE	6	19	[0, 0, 0]	n/a	FR1	0	R1162N
1931.762	2.466	2337805	WORD	n/a	wordpools/wordpool_EN.txt	TOOL	7	19	[0, 0, 0]	n/a	FR1	0	R1162N
1934.228	2.501	2340271	WORD	n/a	wordpools/wordpool_EN.txt	HOUSE	8	19	[0, 0, 0]	n/a	FR1	0	R1162N
1936.729	2.55	2342772	WORD	n/a	wordpools/wordpool_EN.txt	SHOE	9	19	[0, 0, 0]	n/a	FR1	0	R1162N
1939.279	2.618	2345322	WORD	n/a	wordpools/wordpool_EN.txt	HORN	10	19	[0, 0, 0]	n/a	FR1	0	R1162N
1941.897	2.432	2347940	WORD	n/a	wordpools/wordpool_EN.txt	LOCK	11	19	[0, 0, 0]	n/a	FR1	0	R1162N
1944.329	1.601	2350372	WORD	n/a	wordpools/wordpool_EN.txt	FROG	12	19	[0, 0, 0]	n/a	FR1	0	R1162N
1945.93	0.001	2351973	DISTRACT_START	n/a	n/a	n/a	-999	19	[0, 0, 0]	n/a	FR1	0	R1162N
1945.931	0.016	2351974	START	n/a	n/a	n/a	-999	19	[-999, -999, -999]	n/a	FR1	0	R1162N
1945.947	7.25	2351990	PROB	7.25	n/a	n/a	-999	19	[7, 6, 8]	21	FR1	0	R1162N
1953.197	5.252	2359239	PROB	5.252	n/a	n/a	-999	19	[9, 5, 8]	23	FR1	0	R1162N
1958.449	2.984	2364491	PROB	2.984	n/a	n/a	-999	19	[1, 3, 8]	12	FR1	0	R1162N
1961.433	3.084	2367475	PROB	3.084	n/a	n/a	-999	19	[9, 7, 8]	23	FR1	0	R1162N
1964.517	5.313	2370559	PROB	5.313	n/a	n/a	-999	19	[9, 6, 9]	24	FR1	0	R1162N
1969.83	0.004	2375871	STOP	n/a	n/a	n/a	-999	19	[-999, -999, -999]	n/a	FR1	0	R1162N
1969.834	1.218	2375875	DISTRACT_END	n/a	n/a	n/a	-999	19	[0, 0, 0]	n/a	FR1	0	R1162N
1971.052	0.786	2377093	REC_START	n/a	n/a	n/a	-999	19	[0, 0, 0]	n/a	FR1	0	R1162N
1971.838	1.047	2377879	REC_WORD	1.047	n/a	SINK	-999	19	[0, 0, 0]	n/a	FR1	0	R1162N
1972.885	2.501	2378926	REC_WORD	2.501	n/a	DOOR	2	19	[0, 0, 0]	n/a	FR1	0	R1162N
1975.386	0.61	2381427	REC_WORD	0.61	n/a	THUMB	3	19	[0, 0, 0]	n/a	FR1	0	R1162N
1975.996	2.6	2382037	REC_WORD	2.6	n/a	HAND	5	19	[0, 0, 0]	n/a	FR1	0	R1162N
1978.596	22.475	2384637	REC_WORD	22.475	n/a	TOE	-999	19	[0, 0, 0]	n/a	FR1	0	R1162N
2001.071	1.284	2407111	REC_END	n/a	n/a	n/a	-999	19	[0, 0, 0]	n/a	FR1	0	R1162N
2002.355	0.001	2408395	COUNTDOWN_START	n/a	n/a	n/a	-999	20	[0, 0, 0]	n/a	FR1	0	R1162N
2002.356	10.427	2408396	TRIAL	n/a	n/a	n/a	-999	20	[0, 0, 0]	n/a	FR1	0	R1162N
2012.783	0.007	2418822	COUNTDOWN_END	n/a	n/a	n/a	-999	20	[0, 0, 0]	n/a	FR1	0	R1162N
2012.79	2.466	2418829	ORIENT	n/a	n/a	n/a	-999	20	[0, 0, 0]	n/a	FR1	0	R1162N
2015.256	2.552	2421295	WORD	n/a	wordpools/wordpool_EN.txt	SHIRT	1	20	[0, 0, 0]	n/a	FR1	0	R1162N
2017.808	2.432	2423847	WORD	n/a	wordpools/wordpool_EN.txt	FUR	2	20	[0, 0, 0]	n/a	FR1	0	R1162N
2020.24	2.385	2426279	WORD	n/a	wordpools/wordpool_EN.txt	RIB	3	20	[0, 0, 0]	n/a	FR1	0	R1162N
2022.625	2.566	2428664	WORD	n/a	wordpools/wordpool_EN.txt	POOL	4	20	[0, 0, 0]	n/a	FR1	0	R1162N
2025.191	2.435	2431230	WORD	n/a	wordpools/wordpool_EN.txt	SWORD	5	20	[0, 0, 0]	n/a	FR1	0	R1162N
2027.626	2.516	2433665	WORD	n/a	wordpools/wordpool_EN.txt	ARM	6	20	[0, 0, 0]	n/a	FR1	0	R1162N
2030.142	2.434	2436180	WORD	n/a	wordpools/wordpool_EN.txt	FAN	7	20	[0, 0, 0]	n/a	FR1	0	R1162N
2032.576	2.6	2438614	WORD	n/a	wordpools/wordpool_EN.txt	BOY	8	20	[0, 0, 0]	n/a	FR1	0	R1162N
2035.176	2.551	2441214	WORD	n/a	wordpools/wordpool_EN.txt	PURSE	9	20	[0, 0, 0]	n/a	FR1	0	R1162N
2037.727	2.449	2443765	WORD	n/a	wordpools/wordpool_EN.txt	ROPE	10	20	[0, 0, 0]	n/a	FR1	0	R1162N
2040.176	2.385	2446214	WORD	n/a	wordpools/wordpool_EN.txt	BUSH	11	20	[0, 0, 0]	n/a	FR1	0	R1162N
2042.561	1.616	2448599	WORD	n/a	wordpools/wordpool_EN.txt	FOOT	12	20	[0, 0, 0]	n/a	FR1	0	R1162N
2044.177	0.001	2450215	DISTRACT_START	n/a	n/a	n/a	-999	20	[0, 0, 0]	n/a	FR1	0	R1162N
2044.178	0.016	2450216	START	n/a	n/a	n/a	-999	20	[-999, -999, -999]	n/a	FR1	0	R1162N
2044.194	2.401	2450232	PROB	2.401	n/a	n/a	-999	20	[4, 5, 6]	15	FR1	0	R1162N
2046.595	2.4	2452633	PROB	2.4	n/a	n/a	-999	20	[1, 3, 8]	12	FR1	0	R1162N
2048.995	1.567	2455033	PROB	1.567	n/a	n/a	-999	20	[2, 6, 6]	14	FR1	0	R1162N
2050.562	3.301	2456599	PROB	3.301	n/a	n/a	-999	20	[2, 8, 4]	14	FR1	0	R1162N
2053.863	4.167	2459900	PROB	4.167	n/a	n/a	-999	20	[9, 6, 5]	20	FR1	0	R1162N
2058.03	2.149	2464067	PROB	2.149	n/a	n/a	-999	20	[7, 4, 1]	15	FR1	0	R1162N
2060.179	3.185	2466216	PROB	3.185	n/a	n/a	-999	20	[5, 9, 1]	15	FR1	0	R1162N
2063.364	4.312	2469401	PROB	4.312	n/a	n/a	-999	20	[6, 6, 8]	20	FR1	0	R1162N
2067.676	0.005	2473713	STOP	n/a	n/a	n/a	-999	20	[-999, -999, -999]	n/a	FR1	0	R1162N
2067.681	1.168	2473718	DISTRACT_END	n/a	n/a	n/a	-999	20	[0, 0, 0]	n/a	FR1	0	R1162N
2068.849	1.703	2474886	REC_START	n/a	n/a	n/a	-999	20	[0, 0, 0]	n/a	FR1	0	R1162N
2070.552	1.433	2476588	REC_WORD	1.433	n/a	POOL	4	20	[0, 0, 0]	n/a	FR1	0	R1162N
2071.985	26.876	2478021	REC_WORD	26.876	n/a	BOY	8	20	[0, 0, 0]	n/a	FR1	0	R1162N
2098.861	2.424	2504896	REC_END	n/a	n/a	n/a	-999	20	[0, 0, 0]	n/a	FR1	0	R1162N
2101.285	0.0	2507320	COUNTDOWN_START	n/a	n/a	n/a	-999	21	[0, 0, 0]	n/a	FR1	0	R1162N
2101.285	10.428	2507320	TRIAL	n/a	n/a	n/a	-999	21	[0, 0, 0]	n/a	FR1	0	R1162N
2111.713	0.008	2517747	COUNTDOWN_END	n/a	n/a	n/a	-999	21	[0, 0, 0]	n/a	FR1	0	R1162N
2111.721	2.516	2517755	ORIENT	n/a	n/a	n/a	-999	21	[0, 0, 0]	n/a	FR1	0	R1162N
2114.237	2.568	2520271	WORD	n/a	wordpools/wordpool_EN.txt	DOG	1	21	[0, 0, 0]	n/a	FR1	0	R1162N
2116.805	2.383	2522839	WORD	n/a	wordpools/wordpool_EN.txt	PEAR	2	21	[0, 0, 0]	n/a	FR1	0	R1162N
2119.188	2.551	2525222	WORD	n/a	wordpools/wordpool_EN.txt	BREAD	3	21	[0, 0, 0]	n/a	FR1	0	R1162N
2121.739	2.583	2527773	WORD	n/a	wordpools/wordpool_EN.txt	TAIL	4	21	[0, 0, 0]	n/a	FR1	0	R1162N
2124.322	2.517	2530356	WORD	n/a	wordpools/wordpool_EN.txt	BRANCH	5	21	[0, 0, 0]	n/a	FR1	0	R1162N
2126.839	2.551	2532873	WORD	n/a	wordpools/wordpool_EN.txt	BEAN	6	21	[0, 0, 0]	n/a	FR1	0	R1162N
2129.39	2.467	2535424	WORD	n/a	wordpools/wordpool_EN.txt	BLOOM	7	21	[0, 0, 0]	n/a	FR1	0	R1162N
2131.857	2.5	2537890	WORD	n/a	wordpools/wordpool_EN.txt	FOOD	8	21	[0, 0, 0]	n/a	FR1	0	R1162N
2134.357	2.601	2540390	WORD	n/a	wordpools/wordpool_EN.txt	LAWN	9	21	[0, 0, 0]	n/a	FR1	0	R1162N
2136.958	2.517	2542991	WORD	n/a	wordpools/wordpool_EN.txt	RICE	10	21	[0, 0, 0]	n/a	FR1	0	R1162N
2139.475	2.383	2545508	WORD	n/a	wordpools/wordpool_EN.txt	EEL	11	21	[0, 0, 0]	n/a	FR1	0	R1162N
2141.858	1.617	2547891	WORD	n/a	wordpools/wordpool_EN.txt	MOTH	12	21	[0, 0, 0]	n/a	FR1	0	R1162N
2143.475	0.001	2549508	DISTRACT_START	n/a	n/a	n/a	-999	21	[0, 0, 0]	n/a	FR1	0	R1162N
2143.476	0.016	2549509	START	n/a	n/a	n/a	-999	21	[-999, -999, -999]	n/a	FR1	0	R1162N
2143.492	2.783	2549525	PROB	2.783	n/a	n/a	-999	21	[3, 6, 4]	13	FR1	0	R1162N
2146.275	2.368	2552308	PROB	2.368	n/a	n/a	-999	21	[3, 7, 6]	16	FR1	0	R1162N
2148.643	3.117	2554676	PROB	3.117	n/a	n/a	-999	21	[9, 6, 3]	18	FR1	0	R1162N
2151.76	1.617	2557792	PROB	1.617	n/a	n/a	-999	21	[1, 3, 3]	7	FR1	0	R1162N
2153.377	1.7	2559409	PROB	1.7	n/a	n/a	-999	21	[1, 3, 4]	8	FR1	0	R1162N
2155.077	2.233	2561109	PROB	2.233	n/a	n/a	-999	21	[5, 1, 9]	15	FR1	0	R1162N
2157.31	2.017	2563342	PROB	2.017	n/a	n/a	-999	21	[1, 4, 1]	6	FR1	0	R1162N
2159.327	2.484	2565359	PROB	2.484	n/a	n/a	-999	21	[9, 4, 6]	19	FR1	0	R1162N
2161.811	2.422	2567843	PROB	2.422	n/a	n/a	-999	21	[8, 3, 4]	15	FR1	0	R1162N
2164.233	0.011	2570265	STOP	n/a	n/a	n/a	-999	21	[-999, -999, -999]	n/a	FR1	0	R1162N
2164.244	1.219	2570276	DISTRACT_END	n/a	n/a	n/a	-999	21	[0, 0, 0]	n/a	FR1	0	R1162N
2165.463	0.763	2571495	REC_START	n/a	n/a	n/a	-999	21	[0, 0, 0]	n/a	FR1	0	R1162N
2166.226	0.558	2572258	REC_WORD	0.558	n/a	DOG	1	21	[0, 0, 0]	n/a	FR1	0	R1162N
2166.784	0.858	2572816	REC_WORD	0.858	n/a	FOOD	8	21	[0, 0, 0]	n/a	FR1	0	R1162N
2167.642	27.833	2573674	REC_WORD	27.833	n/a	TAIL	4	21	[0, 0, 0]	n/a	FR1	0	R1162N
2195.475	2.158	2601505	REC_END	n/a	n/a	n/a	-999	21	[0, 0, 0]	n/a	FR1	0	R1162N
2197.633	0.0	2603663	TRIAL	n/a	n/a	n/a	-999	22	[0, 0, 0]	n/a	FR1	0	R1162N
2197.633	10.428	2603663	COUNTDOWN_START	n/a	n/a	n/a	-999	22	[0, 0, 0]	n/a	FR1	0	R1162N
2208.061	0.007	2614091	COUNTDOWN_END	n/a	n/a	n/a	-999	22	[0, 0, 0]	n/a	FR1	0	R1162N
2208.068	2.533	2614098	ORIENT	n/a	n/a	n/a	-999	22	[0, 0, 0]	n/a	FR1	0	R1162N
2210.601	2.483	2616631	WORD	n/a	wordpools/wordpool_EN.txt	STAR	1	22	[0, 0, 0]	n/a	FR1	0	R1162N
2213.084	2.551	2619113	WORD	n/a	wordpools/wordpool_EN.txt	PIPE	2	22	[0, 0, 0]	n/a	FR1	0	R1162N
2215.635	2.384	2621664	WORD	n/a	wordpools/wordpool_EN.txt	OWL	3	22	[0, 0, 0]	n/a	FR1	0	R1162N
2218.019	2.467	2624048	WORD	n/a	wordpools/wordpool_EN.txt	WOOD	4	22	[0, 0, 0]	n/a	FR1	0	R1162N
2220.486	2.6	2626515	WORD	n/a	wordpools/wordpool_EN.txt	DUCK	5	22	[0, 0, 0]	n/a	FR1	0	R1162N
2223.086	2.534	2629115	WORD	n/a	wordpools/wordpool_EN.txt	POND	6	22	[0, 0, 0]	n/a	FR1	0	R1162N
2225.62	2.434	2631649	WORD	n/a	wordpools/wordpool_EN.txt	CLOUD	7	22	[0, 0, 0]	n/a	FR1	0	R1162N
2228.054	2.45	2634083	WORD	n/a	wordpools/wordpool_EN.txt	FLOOR	8	22	[0, 0, 0]	n/a	FR1	0	R1162N
2230.504	2.484	2636533	WORD	n/a	wordpools/wordpool_EN.txt	DEER	9	22	[0, 0, 0]	n/a	FR1	0	R1162N
2232.988	2.434	2639016	WORD	n/a	wordpools/wordpool_EN.txt	SKI	10	22	[0, 0, 0]	n/a	FR1	0	R1162N
2235.422	2.467	2641450	WORD	n/a	wordpools/wordpool_EN.txt	TOY	11	22	[0, 0, 0]	n/a	FR1	0	R1162N
2237.889	1.617	2643917	WORD	n/a	wordpools/wordpool_EN.txt	WOLF	12	22	[0, 0, 0]	n/a	FR1	0	R1162N
2239.506	0.0	2645534	DISTRACT_START	n/a	n/a	n/a	-999	22	[0, 0, 0]	n/a	FR1	0	R1162N
2239.506	0.016	2645534	START	n/a	n/a	n/a	-999	22	[-999, -999, -999]	n/a	FR1	0	R1162N
2239.522	3.067	2645550	PROB	3.067	n/a	n/a	-999	22	[5, 7, 2]	14	FR1	0	R1162N
2242.589	2.65	2648617	PROB	2.65	n/a	n/a	-999	22	[3, 8, 8]	19	FR1	0	R1162N
2245.239	3.451	2651267	PROB	3.451	n/a	n/a	-999	22	[3, 1, 7]	12	FR1	0	R1162N
2248.69	3.751	2654718	PROB	3.751	n/a	n/a	-999	22	[6, 2, 1]	9	FR1	0	R1162N
2252.441	1.799	2658468	PROB	1.799	n/a	n/a	-999	22	[3, 7, 1]	11	FR1	0	R1162N
2254.24	2.867	2660267	PROB	2.867	n/a	n/a	-999	22	[8, 4, 3]	15	FR1	0	R1162N
2257.107	1.801	2663134	PROB	1.801	n/a	n/a	-999	22	[7, 3, 3]	13	FR1	0	R1162N
2258.908	2.139	2664935	PROB	2.139	n/a	n/a	-999	22	[8, 5, 4]	17	FR1	0	R1162N
2261.047	0.012	2667074	STOP	n/a	n/a	n/a	-999	22	[-999, -999, -999]	n/a	FR1	0	R1162N
2261.059	1.166	2667086	DISTRACT_END	n/a	n/a	n/a	-999	22	[0, 0, 0]	n/a	FR1	0	R1162N
2262.225	0.569	2668252	REC_START	n/a	n/a	n/a	-999	22	[0, 0, 0]	n/a	FR1	0	R1162N
2262.794	0.923	2668821	REC_WORD	0.923	n/a	STAR	1	22	[0, 0, 0]	n/a	FR1	0	R1162N
2263.717	28.52	2669744	REC_WORD	28.52	n/a	CLOUD	7	22	[0, 0, 0]	n/a	FR1	0	R1162N
2292.237	2.042	2698263	REC_END	n/a	n/a	n/a	-999	22	[0, 0, 0]	n/a	FR1	0	R1162N
2294.279	0.0	2700304	TRIAL	n/a	n/a	n/a	-999	23	[0, 0, 0]	n/a	FR1	0	R1162N
2294.279	10.428	2700304	COUNTDOWN_START	n/a	n/a	n/a	-999	23	[0, 0, 0]	n/a	FR1	0	R1162N
2304.707	0.008	2710732	COUNTDOWN_END	n/a	n/a	n/a	-999	23	[0, 0, 0]	n/a	FR1	0	R1162N
2304.715	2.449	2710740	ORIENT	n/a	n/a	n/a	-999	23	[0, 0, 0]	n/a	FR1	0	R1162N
2307.164	2.535	2713189	WORD	n/a	wordpools/wordpool_EN.txt	JUICE	1	23	[0, 0, 0]	n/a	FR1	0	R1162N
2309.699	2.466	2715724	WORD	n/a	wordpools/wordpool_EN.txt	DIME	2	23	[0, 0, 0]	n/a	FR1	0	R1162N
2312.165	2.418	2718190	WORD	n/a	wordpools/wordpool_EN.txt	BLUSH	3	23	[0, 0, 0]	n/a	FR1	0	R1162N
2314.583	2.417	2720607	WORD	n/a	wordpools/wordpool_EN.txt	DITCH	4	23	[0, 0, 0]	n/a	FR1	0	R1162N
2317.0	2.483	2723024	WORD	n/a	wordpools/wordpool_EN.txt	HOLE	5	23	[0, 0, 0]	n/a	FR1	0	R1162N
2319.483	2.584	2725507	WORD	n/a	wordpools/wordpool_EN.txt	STOVE	6	23	[0, 0, 0]	n/a	FR1	0	R1162N
2322.067	2.517	2728091	WORD	n/a	wordpools/wordpool_EN.txt	CAKE	7	23	[0, 0, 0]	n/a	FR1	0	R1162N
2324.584	2.6	2730608	WORD	n/a	wordpools/wordpool_EN.txt	BATH	8	23	[0, 0, 0]	n/a	FR1	0	R1162N
2327.184	2.451	2733208	WORD	n/a	wordpools/wordpool_EN.txt	GLOVE	9	23	[0, 0, 0]	n/a	FR1	0	R1162N
2329.635	2.616	2735659	WORD	n/a	wordpools/wordpool_EN.txt	SOAP	10	23	[0, 0, 0]	n/a	FR1	0	R1162N
2332.251	2.401	2738275	WORD	n/a	wordpools/wordpool_EN.txt	SOCK	11	23	[0, 0, 0]	n/a	FR1	0	R1162N
2334.652	1.616	2740675	WORD	n/a	wordpools/wordpool_EN.txt	CHALK	12	23	[0, 0, 0]	n/a	FR1	0	R1162N
2336.268	0.001	2742291	DISTRACT_START	n/a	n/a	n/a	-999	23	[0, 0, 0]	n/a	FR1	0	R1162N
2336.269	0.016	2742292	START	n/a	n/a	n/a	-999	23	[-999, -999, -999]	n/a	FR1	0	R1162N
2336.285	2.418	2742308	PROB	2.418	n/a	n/a	-999	23	[2, 8, 3]	13	FR1	0	R1162N
2338.703	1.884	2744726	PROB	1.884	n/a	n/a	-999	23	[7, 3, 8]	18	FR1	0	R1162N
2340.587	1.499	2746610	PROB	1.499	n/a	n/a	-999	23	[1, 6, 2]	9	FR1	0	R1162N
2342.086	1.768	2748109	PROB	1.768	n/a	n/a	-999	23	[7, 1, 9]	17	FR1	0	R1162N
2343.854	3.517	2749877	PROB	3.517	n/a	n/a	-999	23	[7, 9, 8]	24	FR1	0	R1162N
2347.371	3.667	2753394	PROB	3.667	n/a	n/a	-999	23	[4, 4, 7]	15	FR1	0	R1162N
2351.038	2.133	2757061	PROB	2.133	n/a	n/a	-999	23	[3, 7, 2]	12	FR1	0	R1162N
2353.171	2.451	2759194	PROB	2.451	n/a	n/a	-999	23	[2, 3, 2]	7	FR1	0	R1162N
2355.622	2.702	2761644	PROB	2.702	n/a	n/a	-999	23	[6, 6, 5]	17	FR1	0	R1162N
2358.324	0.014	2764346	STOP	n/a	n/a	n/a	-999	23	[-999, -999, -999]	n/a	FR1	0	R1162N
2358.338	1.035	2764360	DISTRACT_END	n/a	n/a	n/a	-999	23	[0, 0, 0]	n/a	FR1	0	R1162N
2359.373	0.682	2765395	REC_START	n/a	n/a	n/a	-999	23	[0, 0, 0]	n/a	FR1	0	R1162N
2360.055	0.797	2766077	REC_WORD	0.797	n/a	DIME	2	23	[0, 0, 0]	n/a	FR1	0	R1162N
2360.852	0.532	2766874	REC_WORD	0.532	n/a	DITCH	4	23	[0, 0, 0]	n/a	FR1	0	R1162N
2361.384	0.522	2767406	REC_WORD	0.522	n/a	HOLE	5	23	[0, 0, 0]	n/a	FR1	0	R1162N
2361.906	27.478	2767928	REC_WORD	27.478	n/a	SOCK	11	23	[0, 0, 0]	n/a	FR1	0	R1162N
2389.384	1.775	2795405	REC_END	n/a	n/a	n/a	-999	23	[0, 0, 0]	n/a	FR1	0	R1162N
2391.159	0.001	2797180	COUNTDOWN_START	n/a	n/a	n/a	-999	24	[0, 0, 0]	n/a	FR1	0	R1162N
2391.16	10.427	2797181	TRIAL	n/a	n/a	n/a	-999	24	[0, 0, 0]	n/a	FR1	0	R1162N
2401.587	0.008	2807607	COUNTDOWN_END	n/a	n/a	n/a	-999	24	[0, 0, 0]	n/a	FR1	0	R1162N
2401.595	2.433	2807615	ORIENT	n/a	n/a	n/a	-999	24	[0, 0, 0]	n/a	FR1	0	R1162N
2404.028	2.401	2810048	WORD	n/a	wordpools/wordpool_EN.txt	ROAD	1	24	[0, 0, 0]	n/a	FR1	0	R1162N
2406.429	2.434	2812449	WORD	n/a	wordpools/wordpool_EN.txt	ROOF	2	24	[0, 0, 0]	n/a	FR1	0	R1162N
2408.863	2.399	2814883	WORD	n/a	wordpools/wordpool_EN.txt	PARK	3	24	[0, 0, 0]	n/a	FR1	0	R1162N
2411.262	2.535	2817282	WORD	n/a	wordpools/wordpool_EN.txt	KITE	4	24	[0, 0, 0]	n/a	FR1	0	R1162N
2413.797	2.382	2819817	WORD	n/a	wordpools/wordpool_EN.txt	BOX	5	24	[0, 0, 0]	n/a	FR1	0	R1162N
2416.179	2.435	2822198	WORD	n/a	wordpools/wordpool_EN.txt	FOG	6	24	[0, 0, 0]	n/a	FR1	0	R1162N
2418.614	2.466	2824633	WORD	n/a	wordpools/wordpool_EN.txt	SMILE	7	24	[0, 0, 0]	n/a	FR1	0	R1162N
2421.08	2.585	2827099	WORD	n/a	wordpools/wordpool_EN.txt	VAN	8	24	[0, 0, 0]	n/a	FR1	0	R1162N
2423.665	2.599	2829684	WORD	n/a	wordpools/wordpool_EN.txt	CAR	9	24	[0, 0, 0]	n/a	FR1	0	R1162N
2426.264	2.368	2832283	WORD	n/a	wordpools/wordpool_EN.txt	RUG	10	24	[0, 0, 0]	n/a	FR1	0	R1162N
2428.632	2.6	2834651	WORD	n/a	wordpools/wordpool_EN.txt	CLOWN	11	24	[0, 0, 0]	n/a	FR1	0	R1162N
2431.232	1.617	2837251	WORD	n/a	wordpools/wordpool_EN.txt	LAMP	12	24	[0, 0, 0]	n/a	FR1	0	R1162N
2432.849	0.001	2838868	DISTRACT_START	n/a	n/a	n/a	-999	24	[0, 0, 0]	n/a	FR1	0	R1162N
2432.85	0.016	2838869	START	n/a	n/a	n/a	-999	24	[-999, -999, -999]	n/a	FR1	0	R1162N
2432.866	3.651	2838885	PROB	3.651	n/a	n/a	-999	24	[7, 8, 8]	23	FR1	0	R1162N
2436.517	2.85	2842535	PROB	2.85	n/a	n/a	-999	24	[7, 6, 7]	22	FR1	0	R1162N
2439.367	4.501	2845385	PROB	4.501	n/a	n/a	-999	24	[3, 3, 2]	8	FR1	0	R1162N
2443.868	2.282	2849886	PROB	2.282	n/a	n/a	-999	24	[7, 6, 1]	14	FR1	0	R1162N
2446.15	1.768	2852168	PROB	1.768	n/a	n/a	-999	24	[1, 2, 2]	5	FR1	0	R1162N
2447.918	3.651	2853936	PROB	3.651	n/a	n/a	-999	24	[7, 8, 6]	21	FR1	0	R1162N
2451.569	2.41	2857587	PROB	2.41	n/a	n/a	-999	24	[5, 7, 7]	19	FR1	0	R1162N
2453.979	0.007	2859997	STOP	n/a	n/a	n/a	-999	24	[-999, -999, -999]	n/a	FR1	0	R1162N
2453.986	1.133	2860004	DISTRACT_END	n/a	n/a	n/a	-999	24	[0, 0, 0]	n/a	FR1	0	R1162N
2455.119	0.829	2861136	REC_START	n/a	n/a	n/a	-999	24	[0, 0, 0]	n/a	FR1	0	R1162N
2455.948	0.838	2861965	REC_WORD	0.838	n/a	ROAD	1	24	[0, 0, 0]	n/a	FR1	0	R1162N
2456.786	0.717	2862803	REC_WORD	0.717	n/a	BOX	5	24	[0, 0, 0]	n/a	FR1	0	R1162N
2457.503	4.699	2863520	REC_WORD	4.699	n/a	CAR	9	24	[0, 0, 0]	n/a	FR1	0	R1162N
2462.202	2.011	2868219	REC_WORD	2.011	n/a	KITE	4	24	[0, 0, 0]	n/a	FR1	0	R1162N
2464.213	20.918	2870230	REC_WORD	20.918	n/a	SMILE	7	24	[0, 0, 0]	n/a	FR1	0	R1162N
2485.131	1.743	2891147	REC_END	n/a	n/a	n/a	-999	24	[0, 0, 0]	n/a	FR1	0	R1162N
2486.874	0.0	2892890	TRIAL	n/a	n/a	n/a	-999	25	[0, 0, 0]	n/a	FR1	0	R1162N
2486.874	10.428	2892890	COUNTDOWN_START	n/a	n/a	n/a	-999	25	[0, 0, 0]	n/a	FR1	0	R1162N
2497.302	0.006	2903317	COUNTDOWN_END	n/a	n/a	n/a	-999	25	[0, 0, 0]	n/a	FR1	0	R1162N
2497.308	2.584	2903323	ORIENT	n/a	n/a	n/a	-999	25	[0, 0, 0]	n/a	FR1	0	R1162N
2499.892	2.484	2905907	WORD	n/a	wordpools/wordpool_EN.txt	CROW	1	25	[0, 0, 0]	n/a	FR1	0	R1162N
2502.376	2.617	2908391	WORD	n/a	wordpools/wordpool_EN.txt	ROOT	2	25	[0, 0, 0]	n/a	FR1	0	R1162N
2504.993	2.567	2911008	WORD	n/a	wordpools/wordpool_EN.txt	PLANT	3	25	[0, 0, 0]	n/a	FR1	0	R1162N
2507.56	2.583	2913575	WORD	n/a	wordpools/wordpool_EN.txt	CHIEF	4	25	[0, 0, 0]	n/a	FR1	0	R1162N
2510.143	2.468	2916158	WORD	n/a	wordpools/wordpool_EN.txt	TEETH	5	25	[0, 0, 0]	n/a	FR1	0	R1162N
2512.611	2.516	2918626	WORD	n/a	wordpools/wordpool_EN.txt	SHIELD	6	25	[0, 0, 0]	n/a	FR1	0	R1162N
2515.127	2.401	2921142	WORD	n/a	wordpools/wordpool_EN.txt	CAVE	7	25	[0, 0, 0]	n/a	FR1	0	R1162N
2517.528	2.467	2923542	WORD	n/a	wordpools/wordpool_EN.txt	WEED	8	25	[0, 0, 0]	n/a	FR1	0	R1162N
2519.995	2.617	2926009	WORD	n/a	wordpools/wordpool_EN.txt	BRUSH	9	25	[0, 0, 0]	n/a	FR1	0	R1162N
2522.612	2.384	2928626	WORD	n/a	wordpools/wordpool_EN.txt	PASTE	10	25	[0, 0, 0]	n/a	FR1	0	R1162N
2524.996	2.5	2931010	WORD	n/a	wordpools/wordpool_EN.txt	SEAL	11	25	[0, 0, 0]	n/a	FR1	0	R1162N
2527.496	1.616	2933510	WORD	n/a	wordpools/wordpool_EN.txt	FOAM	12	25	[0, 0, 0]	n/a	FR1	0	R1162N
2529.112	0.001	2935126	DISTRACT_START	n/a	n/a	n/a	-999	25	[0, 0, 0]	n/a	FR1	0	R1162N
2529.113	0.016	2935127	START	n/a	n/a	n/a	-999	25	[-999, -999, -999]	n/a	FR1	0	R1162N
2529.129	2.551	2935143	PROB	2.551	n/a	n/a	-999	25	[2, 3, 5]	10	FR1	0	R1162N
2531.68	2.667	2937694	PROB	2.667	n/a	n/a	-999	25	[9, 5, 4]	17	FR1	0	R1162N
2534.347	2.367	2940361	PROB	2.367	n/a	n/a	-999	25	[9, 9, 2]	20	FR1	0	R1162N
2536.714	2.416	2942727	PROB	2.416	n/a	n/a	-999	25	[8, 4, 6]	18	FR1	0	R1162N
2539.13	3.167	2945143	PROB	3.167	n/a	n/a	-999	25	[8, 8, 5]	21	FR1	0	R1162N
2542.297	2.351	2948310	PROB	2.351	n/a	n/a	-999	25	[4, 7, 2]	15	FR1	0	R1162N
2544.648	3.101	2950661	PROB	3.101	n/a	n/a	-999	25	[9, 6, 3]	18	FR1	0	R1162N
2547.749	2.211	2953762	PROB	2.211	n/a	n/a	-999	25	[5, 7, 6]	18	FR1	0	R1162N
2549.96	0.006	2955973	STOP	n/a	n/a	n/a	-999	25	[-999, -999, -999]	n/a	FR1	0	R1162N
2549.966	1.233	2955979	DISTRACT_END	n/a	n/a	n/a	-999	25	[0, 0, 0]	n/a	FR1	0	R1162N
2551.199	0.801	2957212	REC_START	n/a	n/a	n/a	-999	25	[0, 0, 0]	n/a	FR1	0	R1162N
2552.0	0.483	2958013	REC_WORD	0.483	n/a	ROOT	2	25	[0, 0, 0]	n/a	FR1	0	R1162N
2552.483	0.829	2958496	REC_WORD	0.829	n/a	TEETH	5	25	[0, 0, 0]	n/a	FR1	0	R1162N
2553.312	4.982	2959325	REC_WORD	4.982	n/a	PLANT	3	25	[0, 0, 0]	n/a	FR1	0	R1162N
2558.294	22.917	2964306	REC_WORD	22.917	n/a	WEED	8	25	[0, 0, 0]	n/a	FR1	0	R1162N
2581.211	5.66	2987222	REC_END	n/a	n/a	n/a	-999	25	[0, 0, 0]	n/a	FR1	0	R1162N
2586.871	0.0	2992882	SESS_END	n/a	n/a	n/a	-999	25	[0, 0, 0]	n/a	FR1	0	R1162N
