onset	duration	sample	trial_type	response_time	stim_file	item_name	serialpos	list	test	answer	experiment	session	subject
0.0	0.0	7497	INSTRUCT_START	n/a	n/a	n/a	-999	-999	[0, 0, 0]	n/a	FR1	2	R1158T
0.0	10.923	7497	INSTRUCT_END	n/a	n/a	n/a	-999	-999	[0, 0, 0]	n/a	FR1	2	R1158T
10.923	0.0	18420	SESS_START	n/a	n/a	n/a	-999	-999	[0, 0, 0]	n/a	FR1	2	R1158T
10.923	51.0	18420	MIC_TEST	n/a	n/a	n/a	-999	-999	[0, 0, 0]	n/a	FR1	2	R1158T
61.923	4.039	69416	PRACTICE_TRIAL	n/a	n/a	n/a	-999	-1	[0, 0, 0]	n/a	FR1	2	R1158T
65.962	10.428	73455	COUNTDOWN_START	n/a	n/a	n/a	-999	-1	[0, 0, 0]	n/a	FR1	2	R1158T
76.39	0.007	83883	COUNTDOWN_END	n/a	n/a	n/a	-999	-1	[0, 0, 0]	n/a	FR1	2	R1158T
76.397	1.618	83890	PRACTICE_ORIENT	n/a	n/a	n/a	-999	-1	[0, 0, 0]	n/a	FR1	2	R1158T
78.015	1.983	85508	PRACTICE_ORIENT_OFF	n/a	n/a	n/a	-999	-1	[0, 0, 0]	n/a	FR1	2	R1158T
79.998	1.617	87490	PRACTICE_WORD	n/a	n/a	FLOOD	1	-1	[0, 0, 0]	n/a	FR1	2	R1158T
81.615	0.8	89107	PRACTICE_WORD_OFF	n/a	n/a	FLOOD	-999	-1	[0, 0, 0]	n/a	FR1	2	R1158T
82.415	1.618	89907	PRACTICE_WORD	n/a	n/a	CHEST	2	-1	[0, 0, 0]	n/a	FR1	2	R1158T
84.033	0.949	91525	PRACTICE_WORD_OFF	n/a	n/a	CHEST	-999	-1	[0, 0, 0]	n/a	FR1	2	R1158T
84.982	1.617	92474	PRACTICE_WORD	n/a	n/a	IRON	3	-1	[0, 0, 0]	n/a	FR1	2	R1158T
86.599	0.967	94091	PRACTICE_WORD_OFF	n/a	n/a	IRON	-999	-1	[0, 0, 0]	n/a	FR1	2	R1158T
87.566	1.618	95058	PRACTICE_WORD	n/a	n/a	COTTON	4	-1	[0, 0, 0]	n/a	FR1	2	R1158T
89.184	0.799	96676	PRACTICE_WORD_OFF	n/a	n/a	COTTON	-999	-1	[0, 0, 0]	n/a	FR1	2	R1158T
89.983	1.617	97475	PRACTICE_WORD	n/a	n/a	BEAM	5	-1	[0, 0, 0]	n/a	FR1	2	R1158T
91.6	0.85	99092	PRACTICE_WORD_OFF	n/a	n/a	BEAM	-999	-1	[0, 0, 0]	n/a	FR1	2	R1158T
92.45	1.618	99942	PRACTICE_WORD	n/a	n/a	ATTIC	6	-1	[0, 0, 0]	n/a	FR1	2	R1158T
94.068	0.899	101560	PRACTICE_WORD_OFF	n/a	n/a	ATTIC	-999	-1	[0, 0, 0]	n/a	FR1	2	R1158T
94.967	1.617	102458	PRACTICE_WORD	n/a	n/a	TONGUE	7	-1	[0, 0, 0]	n/a	FR1	2	R1158T
96.584	0.817	104075	PRACTICE_WORD_OFF	n/a	n/a	TONGUE	-999	-1	[0, 0, 0]	n/a	FR1	2	R1158T
97.401	1.618	104892	PRACTICE_WORD	n/a	n/a	CAMEL	8	-1	[0, 0, 0]	n/a	FR1	2	R1158T
99.019	0.832	106510	PRACTICE_WORD_OFF	n/a	n/a	CAMEL	-999	-1	[0, 0, 0]	n/a	FR1	2	R1158T
99.851	1.617	107342	PRACTICE_WORD	n/a	n/a	RING	9	-1	[0, 0, 0]	n/a	FR1	2	R1158T
101.468	1.017	108959	PRACTICE_WORD_OFF	n/a	n/a	RING	-999	-1	[0, 0, 0]	n/a	FR1	2	R1158T
102.485	1.618	109976	PRACTICE_WORD	n/a	n/a	WAGON	10	-1	[0, 0, 0]	n/a	FR1	2	R1158T
104.103	0.799	111594	PRACTICE_WORD_OFF	n/a	n/a	WAGON	-999	-1	[0, 0, 0]	n/a	FR1	2	R1158T
104.902	1.617	112393	PRACTICE_WORD	n/a	n/a	WATCH	11	-1	[0, 0, 0]	n/a	FR1	2	R1158T
106.519	0.834	114010	PRACTICE_WORD_OFF	n/a	n/a	WATCH	-999	-1	[0, 0, 0]	n/a	FR1	2	R1158T
107.353	1.617	114844	PRACTICE_WORD	n/a	n/a	RHINO	12	-1	[0, 0, 0]	n/a	FR1	2	R1158T
108.97	0.0	116461	PRACTICE_WORD_OFF	n/a	n/a	RHINO	-999	-1	[0, 0, 0]	n/a	FR1	2	R1158T
108.97	0.0	116461	DISTRACT_START	n/a	n/a	n/a	-999	-1	[0, 0, 0]	n/a	FR1	2	R1158T
108.97	0.016	116461	START	n/a	n/a	n/a	-999	-1	[-999, -999, -999]	n/a	FR1	2	R1158T
108.986	5.618	116477	PROB	5.618	n/a	n/a	-999	-1	[5, 7, 3]	15	FR1	2	R1158T
114.604	3.951	122094	PROB	3.951	n/a	n/a	-999	-1	[3, 9, 2]	14	FR1	2	R1158T
118.555	3.651	126045	PROB	3.651	n/a	n/a	-999	-1	[3, 9, 6]	18	FR1	2	R1158T
122.206	4.7	129696	PROB	4.7	n/a	n/a	-999	-1	[4, 1, 3]	8	FR1	2	R1158T
126.906	3.587	134396	PROB	3.587	n/a	n/a	-999	-1	[4, 5, 9]	18	FR1	2	R1158T
130.493	0.014	137982	STOP	n/a	n/a	n/a	-999	-1	[-999, -999, -999]	n/a	FR1	2	R1158T
130.507	0.651	137996	DISTRACT_END	n/a	n/a	n/a	-999	-1	[0, 0, 0]	n/a	FR1	2	R1158T
131.158	0.517	138647	RETRIEVAL_ORIENT	n/a	n/a	n/a	-999	-1	[0, 0, 0]	n/a	FR1	2	R1158T
131.675	30.012	139164	PRACTICE_REC_START	n/a	n/a	n/a	-999	-1	[0, 0, 0]	n/a	FR1	2	R1158T
161.687	41.75	169175	PRACTICE_REC_END	n/a	n/a	n/a	-999	-1	[0, 0, 0]	n/a	FR1	2	R1158T
203.437	0.5	210922	TRIAL	n/a	n/a	n/a	-999	1	[0, 0, 0]	n/a	FR1	2	R1158T
203.937	10.428	211422	COUNTDOWN_START	n/a	n/a	n/a	-999	1	[0, 0, 0]	n/a	FR1	2	R1158T
214.365	0.007	221849	COUNTDOWN_END	n/a	n/a	n/a	-999	1	[0, 0, 0]	n/a	FR1	2	R1158T
214.372	1.617	221856	ORIENT	n/a	n/a	n/a	-999	1	[0, 0, 0]	n/a	FR1	2	R1158T
215.989	2.052	223473	ORIENT_OFF	n/a	n/a	n/a	-999	1	[0, 0, 0]	n/a	FR1	2	R1158T
218.041	1.616	225525	WORD	n/a	wordpools/wordpool_EN.txt	SKI	1	1	[0, 0, 0]	n/a	FR1	2	R1158T
219.657	0.916	227141	WORD_OFF	n/a	n/a	SKI	1	1	[0, 0, 0]	n/a	FR1	2	R1158T
220.573	1.618	228057	WORD	n/a	wordpools/wordpool_EN.txt	FORT	2	1	[0, 0, 0]	n/a	FR1	2	R1158T
222.191	0.934	229675	WORD_OFF	n/a	n/a	FORT	2	1	[0, 0, 0]	n/a	FR1	2	R1158T
223.125	1.616	230609	WORD	n/a	wordpools/wordpool_EN.txt	CAVE	3	1	[0, 0, 0]	n/a	FR1	2	R1158T
224.741	0.917	232225	WORD_OFF	n/a	n/a	CAVE	3	1	[0, 0, 0]	n/a	FR1	2	R1158T
225.658	1.617	233142	WORD	n/a	wordpools/wordpool_EN.txt	CORN	4	1	[0, 0, 0]	n/a	FR1	2	R1158T
227.275	0.934	234759	WORD_OFF	n/a	n/a	CORN	4	1	[0, 0, 0]	n/a	FR1	2	R1158T
228.209	1.616	235693	WORD	n/a	wordpools/wordpool_EN.txt	SEAL	5	1	[0, 0, 0]	n/a	FR1	2	R1158T
229.825	0.834	237308	WORD_OFF	n/a	n/a	SEAL	5	1	[0, 0, 0]	n/a	FR1	2	R1158T
230.659	1.616	238142	WORD	n/a	wordpools/wordpool_EN.txt	LAND	6	1	[0, 0, 0]	n/a	FR1	2	R1158T
232.275	0.918	239758	WORD_OFF	n/a	n/a	LAND	6	1	[0, 0, 0]	n/a	FR1	2	R1158T
233.193	1.616	240676	WORD	n/a	wordpools/wordpool_EN.txt	WHALE	7	1	[0, 0, 0]	n/a	FR1	2	R1158T
234.809	0.817	242292	WORD_OFF	n/a	n/a	WHALE	7	1	[0, 0, 0]	n/a	FR1	2	R1158T
235.626	1.617	243109	WORD	n/a	wordpools/wordpool_EN.txt	GOLD	8	1	[0, 0, 0]	n/a	FR1	2	R1158T
237.243	0.868	244726	WORD_OFF	n/a	n/a	GOLD	8	1	[0, 0, 0]	n/a	FR1	2	R1158T
238.111	1.616	245594	WORD	n/a	wordpools/wordpool_EN.txt	CLAY	9	1	[0, 0, 0]	n/a	FR1	2	R1158T
239.727	0.933	247210	WORD_OFF	n/a	n/a	CLAY	9	1	[0, 0, 0]	n/a	FR1	2	R1158T
240.66	1.617	248143	WORD	n/a	wordpools/wordpool_EN.txt	JEEP	10	1	[0, 0, 0]	n/a	FR1	2	R1158T
242.277	0.902	249760	WORD_OFF	n/a	n/a	JEEP	10	1	[0, 0, 0]	n/a	FR1	2	R1158T
243.179	1.615	250662	WORD	n/a	wordpools/wordpool_EN.txt	SHIELD	11	1	[0, 0, 0]	n/a	FR1	2	R1158T
244.794	0.867	252277	WORD_OFF	n/a	n/a	SHIELD	11	1	[0, 0, 0]	n/a	FR1	2	R1158T
245.661	1.617	253144	WORD	n/a	wordpools/wordpool_EN.txt	SPEAR	12	1	[0, 0, 0]	n/a	FR1	2	R1158T
247.278	0.0	254760	DISTRACT_START	n/a	n/a	n/a	-999	1	[0, 0, 0]	n/a	FR1	2	R1158T
247.278	0.001	254760	WORD_OFF	n/a	n/a	SPEAR	12	1	[0, 0, 0]	n/a	FR1	2	R1158T
247.279	0.016	254761	START	n/a	n/a	n/a	-999	1	[-999, -999, -999]	n/a	FR1	2	R1158T
247.295	5.001	254777	PROB	5.001	n/a	n/a	-999	1	[8, 3, 1]	12	FR1	2	R1158T
252.296	4.167	259778	PROB	4.167	n/a	n/a	-999	1	[4, 2, 4]	10	FR1	2	R1158T
256.463	4.201	263945	PROB	4.201	n/a	n/a	-999	1	[8, 6, 3]	17	FR1	2	R1158T
260.664	3.734	268146	PROB	3.734	n/a	n/a	-999	1	[4, 9, 7]	20	FR1	2	R1158T
264.398	3.896	271879	PROB	3.896	n/a	n/a	-999	1	[3, 7, 7]	17	FR1	2	R1158T
268.294	0.021	275775	STOP	n/a	n/a	n/a	-999	1	[-999, -999, -999]	n/a	FR1	2	R1158T
268.315	0.617	275796	DISTRACT_END	n/a	n/a	n/a	-999	1	[0, 0, 0]	n/a	FR1	2	R1158T
268.932	0.518	276413	RETRIEVAL_ORIENT	n/a	n/a	n/a	-999	1	[0, 0, 0]	n/a	FR1	2	R1158T
269.45	0.626	276931	REC_START	n/a	n/a	n/a	-999	1	[0, 0, 0]	n/a	FR1	2	R1158T
270.076	0.71	277557	REC_WORD	0.71	n/a	GOLD	-999	1	[0, 0, 0]	n/a	FR1	2	R1158T
270.786	1.072	278267	REC_WORD	1.072	n/a	CLAY	-999	1	[0, 0, 0]	n/a	FR1	2	R1158T
271.858	1.497	279339	REC_WORD	1.497	n/a	JEEP	-999	1	[0, 0, 0]	n/a	FR1	2	R1158T
273.355	23.493	280836	REC_WORD	23.493	n/a	SCORE	-999	1	[0, 0, 0]	n/a	FR1	2	R1158T
296.848	2.612	304327	REC_WORD_VV	2.612	n/a	<>	-999	1	[0, 0, 0]	n/a	FR1	2	R1158T
299.46	42.119	306939	REC_END	n/a	n/a	n/a	-999	1	[0, 0, 0]	n/a	FR1	2	R1158T
341.579	0.5	349056	TRIAL	n/a	n/a	n/a	-999	2	[0, 0, 0]	n/a	FR1	2	R1158T
342.079	10.428	349556	COUNTDOWN_START	n/a	n/a	n/a	-999	2	[0, 0, 0]	n/a	FR1	2	R1158T
352.507	0.007	359983	COUNTDOWN_END	n/a	n/a	n/a	-999	2	[0, 0, 0]	n/a	FR1	2	R1158T
352.514	1.618	359990	ORIENT	n/a	n/a	n/a	-999	2	[0, 0, 0]	n/a	FR1	2	R1158T
354.132	1.816	361608	ORIENT_OFF	n/a	n/a	n/a	-999	2	[0, 0, 0]	n/a	FR1	2	R1158T
355.948	1.617	363424	WORD	n/a	wordpools/wordpool_EN.txt	BRIDGE	1	2	[0, 0, 0]	n/a	FR1	2	R1158T
357.565	0.8	365041	WORD_OFF	n/a	n/a	BRIDGE	1	2	[0, 0, 0]	n/a	FR1	2	R1158T
358.365	1.617	365841	WORD	n/a	wordpools/wordpool_EN.txt	SPARK	2	2	[0, 0, 0]	n/a	FR1	2	R1158T
359.982	0.8	367458	WORD_OFF	n/a	n/a	SPARK	2	2	[0, 0, 0]	n/a	FR1	2	R1158T
360.782	1.617	368258	WORD	n/a	wordpools/wordpool_EN.txt	SMOKE	3	2	[0, 0, 0]	n/a	FR1	2	R1158T
362.399	0.95	369875	WORD_OFF	n/a	n/a	SMOKE	3	2	[0, 0, 0]	n/a	FR1	2	R1158T
363.349	1.617	370824	WORD	n/a	wordpools/wordpool_EN.txt	APE	4	2	[0, 0, 0]	n/a	FR1	2	R1158T
364.966	0.917	372441	WORD_OFF	n/a	n/a	APE	4	2	[0, 0, 0]	n/a	FR1	2	R1158T
365.883	1.617	373358	WORD	n/a	wordpools/wordpool_EN.txt	BOAT	5	2	[0, 0, 0]	n/a	FR1	2	R1158T
367.5	0.95	374975	WORD_OFF	n/a	n/a	BOAT	5	2	[0, 0, 0]	n/a	FR1	2	R1158T
368.45	1.618	375925	WORD	n/a	wordpools/wordpool_EN.txt	DOCK	6	2	[0, 0, 0]	n/a	FR1	2	R1158T
370.068	0.933	377543	WORD_OFF	n/a	n/a	DOCK	6	2	[0, 0, 0]	n/a	FR1	2	R1158T
371.001	1.617	378476	WORD	n/a	wordpools/wordpool_EN.txt	BRUSH	7	2	[0, 0, 0]	n/a	FR1	2	R1158T
372.618	1.0	380093	WORD_OFF	n/a	n/a	BRUSH	7	2	[0, 0, 0]	n/a	FR1	2	R1158T
373.618	1.617	381093	WORD	n/a	wordpools/wordpool_EN.txt	CRANE	8	2	[0, 0, 0]	n/a	FR1	2	R1158T
375.235	0.834	382710	WORD_OFF	n/a	n/a	CRANE	8	2	[0, 0, 0]	n/a	FR1	2	R1158T
376.069	1.616	383544	WORD	n/a	wordpools/wordpool_EN.txt	LOCK	9	2	[0, 0, 0]	n/a	FR1	2	R1158T
377.685	1.001	385160	WORD_OFF	n/a	n/a	LOCK	9	2	[0, 0, 0]	n/a	FR1	2	R1158T
378.686	1.616	386161	WORD	n/a	wordpools/wordpool_EN.txt	STEAM	10	2	[0, 0, 0]	n/a	FR1	2	R1158T
380.302	0.852	387776	WORD_OFF	n/a	n/a	STEAM	10	2	[0, 0, 0]	n/a	FR1	2	R1158T
381.154	1.616	388628	WORD	n/a	wordpools/wordpool_EN.txt	LAKE	11	2	[0, 0, 0]	n/a	FR1	2	R1158T
382.77	0.8	390244	WORD_OFF	n/a	n/a	LAKE	11	2	[0, 0, 0]	n/a	FR1	2	R1158T
383.57	1.618	391044	WORD	n/a	wordpools/wordpool_EN.txt	ROOF	12	2	[0, 0, 0]	n/a	FR1	2	R1158T
385.188	0.0	392662	DISTRACT_START	n/a	n/a	n/a	-999	2	[0, 0, 0]	n/a	FR1	2	R1158T
385.188	0.0	392662	WORD_OFF	n/a	n/a	ROOF	12	2	[0, 0, 0]	n/a	FR1	2	R1158T
385.188	0.016	392662	START	n/a	n/a	n/a	-999	2	[-999, -999, -999]	n/a	FR1	2	R1158T
385.204	4.217	392678	PROB	4.217	n/a	n/a	-999	2	[2, 1, 4]	7	FR1	2	R1158T
389.421	3.4	396895	PROB	3.4	n/a	n/a	-999	2	[4, 5, 5]	14	FR1	2	R1158T
392.821	3.219	400295	PROB	3.219	n/a	n/a	-999	2	[4, 4, 2]	10	FR1	2	R1158T
396.04	3.449	403514	PROB	3.449	n/a	n/a	-999	2	[9, 5, 8]	22	FR1	2	R1158T
399.489	2.984	406962	PROB	2.984	n/a	n/a	-999	2	[1, 5, 6]	12	FR1	2	R1158T
402.473	4.638	409946	PROB	4.638	n/a	n/a	-999	2	[2, 3, 8]	13	FR1	2	R1158T
407.111	0.014	414584	STOP	n/a	n/a	n/a	-999	2	[-999, -999, -999]	n/a	FR1	2	R1158T
407.125	0.566	414598	DISTRACT_END	n/a	n/a	n/a	-999	2	[0, 0, 0]	n/a	FR1	2	R1158T
407.691	0.518	415164	RETRIEVAL_ORIENT	n/a	n/a	n/a	-999	2	[0, 0, 0]	n/a	FR1	2	R1158T
408.209	1.585	415682	REC_START	n/a	n/a	n/a	-999	2	[0, 0, 0]	n/a	FR1	2	R1158T
409.794	1.105	417267	REC_WORD	1.105	n/a	SPARK	-999	2	[0, 0, 0]	n/a	FR1	2	R1158T
410.899	1.096	418372	REC_WORD	1.096	n/a	LOCK	-999	2	[0, 0, 0]	n/a	FR1	2	R1158T
411.995	8.113	419468	REC_WORD	8.113	n/a	DOCK	-999	2	[0, 0, 0]	n/a	FR1	2	R1158T
420.108	2.094	427580	REC_WORD	2.094	n/a	STREET	-999	2	[0, 0, 0]	n/a	FR1	2	R1158T
422.202	6.517	429674	REC_WORD	6.517	n/a	ROCK	-999	2	[0, 0, 0]	n/a	FR1	2	R1158T
428.719	6.8	436191	REC_WORD	6.8	n/a	ATTIC	-999	2	[0, 0, 0]	n/a	FR1	2	R1158T
435.519	2.703	442990	REC_WORD	2.703	n/a	STARK	-999	2	[0, 0, 0]	n/a	FR1	2	R1158T
438.222	4.509	445693	REC_END	n/a	n/a	n/a	-999	2	[0, 0, 0]	n/a	FR1	2	R1158T
442.731	0.5	450202	TRIAL	n/a	n/a	n/a	-999	3	[0, 0, 0]	n/a	FR1	2	R1158T
443.231	10.428	450702	COUNTDOWN_START	n/a	n/a	n/a	-999	3	[0, 0, 0]	n/a	FR1	2	R1158T
453.659	0.007	461129	COUNTDOWN_END	n/a	n/a	n/a	-999	3	[0, 0, 0]	n/a	FR1	2	R1158T
453.666	1.617	461136	ORIENT	n/a	n/a	n/a	-999	3	[0, 0, 0]	n/a	FR1	2	R1158T
455.283	2.267	462753	ORIENT_OFF	n/a	n/a	n/a	-999	3	[0, 0, 0]	n/a	FR1	2	R1158T
457.55	1.601	465020	WORD	n/a	wordpools/wordpool_EN.txt	HOUSE	1	3	[0, 0, 0]	n/a	FR1	2	R1158T
459.151	0.967	466621	WORD_OFF	n/a	n/a	HOUSE	1	3	[0, 0, 0]	n/a	FR1	2	R1158T
460.118	1.616	467588	WORD	n/a	wordpools/wordpool_EN.txt	BLUSH	2	3	[0, 0, 0]	n/a	FR1	2	R1158T
461.734	1.017	469204	WORD_OFF	n/a	n/a	BLUSH	2	3	[0, 0, 0]	n/a	FR1	2	R1158T
462.751	1.617	470221	WORD	n/a	wordpools/wordpool_EN.txt	FLOOR	3	3	[0, 0, 0]	n/a	FR1	2	R1158T
464.368	0.784	471837	WORD_OFF	n/a	n/a	FLOOR	3	3	[0, 0, 0]	n/a	FR1	2	R1158T
465.152	1.616	472621	WORD	n/a	wordpools/wordpool_EN.txt	BRICK	4	3	[0, 0, 0]	n/a	FR1	2	R1158T
466.768	0.867	474237	WORD_OFF	n/a	n/a	BRICK	4	3	[0, 0, 0]	n/a	FR1	2	R1158T
467.635	1.617	475104	WORD	n/a	wordpools/wordpool_EN.txt	TRUCK	5	3	[0, 0, 0]	n/a	FR1	2	R1158T
469.252	0.801	476721	WORD_OFF	n/a	n/a	TRUCK	5	3	[0, 0, 0]	n/a	FR1	2	R1158T
470.053	1.616	477522	WORD	n/a	wordpools/wordpool_EN.txt	STRAW	6	3	[0, 0, 0]	n/a	FR1	2	R1158T
471.669	0.934	479138	WORD_OFF	n/a	n/a	STRAW	6	3	[0, 0, 0]	n/a	FR1	2	R1158T
472.603	1.617	480072	WORD	n/a	wordpools/wordpool_EN.txt	STAIR	7	3	[0, 0, 0]	n/a	FR1	2	R1158T
474.22	0.851	481689	WORD_OFF	n/a	n/a	STAIR	7	3	[0, 0, 0]	n/a	FR1	2	R1158T
475.071	1.616	482540	WORD	n/a	wordpools/wordpool_EN.txt	CART	8	3	[0, 0, 0]	n/a	FR1	2	R1158T
476.687	0.816	484156	WORD_OFF	n/a	n/a	CART	8	3	[0, 0, 0]	n/a	FR1	2	R1158T
477.503	1.618	484972	WORD	n/a	wordpools/wordpool_EN.txt	HAND	9	3	[0, 0, 0]	n/a	FR1	2	R1158T
479.121	0.816	486590	WORD_OFF	n/a	n/a	HAND	9	3	[0, 0, 0]	n/a	FR1	2	R1158T
479.937	1.617	487406	WORD	n/a	wordpools/wordpool_EN.txt	ROPE	10	3	[0, 0, 0]	n/a	FR1	2	R1158T
481.554	0.783	489022	WORD_OFF	n/a	n/a	ROPE	10	3	[0, 0, 0]	n/a	FR1	2	R1158T
482.337	1.618	489805	WORD	n/a	wordpools/wordpool_EN.txt	BAG	11	3	[0, 0, 0]	n/a	FR1	2	R1158T
483.955	0.816	491423	WORD_OFF	n/a	n/a	BAG	11	3	[0, 0, 0]	n/a	FR1	2	R1158T
484.771	1.617	492239	WORD	n/a	wordpools/wordpool_EN.txt	MUD	12	3	[0, 0, 0]	n/a	FR1	2	R1158T
486.388	0.0	493856	DISTRACT_START	n/a	n/a	n/a	-999	3	[0, 0, 0]	n/a	FR1	2	R1158T
486.388	0.001	493856	WORD_OFF	n/a	n/a	MUD	12	3	[0, 0, 0]	n/a	FR1	2	R1158T
486.389	0.016	493857	START	n/a	n/a	n/a	-999	3	[-999, -999, -999]	n/a	FR1	2	R1158T
486.405	4.218	493873	PROB	4.218	n/a	n/a	-999	3	[2, 1, 1]	4	FR1	2	R1158T
490.623	4.25	498091	PROB	4.25	n/a	n/a	-999	3	[3, 2, 8]	13	FR1	2	R1158T
494.873	3.684	502341	PROB	3.684	n/a	n/a	-999	3	[5, 7, 7]	19	FR1	2	R1158T
498.557	3.118	506024	PROB	3.118	n/a	n/a	-999	3	[4, 1, 9]	14	FR1	2	R1158T
501.675	3.385	509142	PROB	3.385	n/a	n/a	-999	3	[8, 9, 1]	18	FR1	2	R1158T
505.06	5.611	512527	PROB	5.611	n/a	n/a	-999	3	[8, 4, 9]	21	FR1	2	R1158T
510.671	0.005	518138	STOP	n/a	n/a	n/a	-999	3	[-999, -999, -999]	n/a	FR1	2	R1158T
510.676	0.683	518143	DISTRACT_END	n/a	n/a	n/a	-999	3	[0, 0, 0]	n/a	FR1	2	R1158T
511.359	0.518	518826	RETRIEVAL_ORIENT	n/a	n/a	n/a	-999	3	[0, 0, 0]	n/a	FR1	2	R1158T
511.877	1.224	519344	REC_START	n/a	n/a	n/a	-999	3	[0, 0, 0]	n/a	FR1	2	R1158T
513.101	0.656	520568	REC_WORD	0.656	n/a	HOUSE	-999	3	[0, 0, 0]	n/a	FR1	2	R1158T
513.757	1.024	521224	REC_WORD	1.024	n/a	FLOOR	-999	3	[0, 0, 0]	n/a	FR1	2	R1158T
514.781	4.842	522247	REC_WORD	4.842	n/a	BRICK	-999	3	[0, 0, 0]	n/a	FR1	2	R1158T
519.623	5.035	527089	REC_WORD	5.035	n/a	CAGE	-999	3	[0, 0, 0]	n/a	FR1	2	R1158T
524.658	1.395	532124	REC_WORD	1.395	n/a	OPEN	-999	3	[0, 0, 0]	n/a	FR1	2	R1158T
526.053	15.835	533519	REC_WORD	15.835	n/a	CLOSE	-999	3	[0, 0, 0]	n/a	FR1	2	R1158T
541.888	4.395	549353	REC_END	n/a	n/a	n/a	-999	3	[0, 0, 0]	n/a	FR1	2	R1158T
546.283	0.5	553748	TRIAL	n/a	n/a	n/a	-999	4	[0, 0, 0]	n/a	FR1	2	R1158T
546.783	10.428	554248	COUNTDOWN_START	n/a	n/a	n/a	-999	4	[0, 0, 0]	n/a	FR1	2	R1158T
557.211	0.007	564675	COUNTDOWN_END	n/a	n/a	n/a	-999	4	[0, 0, 0]	n/a	FR1	2	R1158T
557.218	1.617	564682	ORIENT	n/a	n/a	n/a	-999	4	[0, 0, 0]	n/a	FR1	2	R1158T
558.835	2.05	566299	ORIENT_OFF	n/a	n/a	n/a	-999	4	[0, 0, 0]	n/a	FR1	2	R1158T
560.885	1.617	568349	WORD	n/a	wordpools/wordpool_EN.txt	TIE	1	4	[0, 0, 0]	n/a	FR1	2	R1158T
562.502	0.951	569966	WORD_OFF	n/a	n/a	TIE	1	4	[0, 0, 0]	n/a	FR1	2	R1158T
563.453	1.617	570917	WORD	n/a	wordpools/wordpool_EN.txt	CHIN	2	4	[0, 0, 0]	n/a	FR1	2	R1158T
565.07	0.951	572533	WORD_OFF	n/a	n/a	CHIN	2	4	[0, 0, 0]	n/a	FR1	2	R1158T
566.021	1.616	573484	WORD	n/a	wordpools/wordpool_EN.txt	PLATE	3	4	[0, 0, 0]	n/a	FR1	2	R1158T
567.637	0.9	575100	WORD_OFF	n/a	n/a	PLATE	3	4	[0, 0, 0]	n/a	FR1	2	R1158T
568.537	1.618	576000	WORD	n/a	wordpools/wordpool_EN.txt	PURSE	4	4	[0, 0, 0]	n/a	FR1	2	R1158T
570.155	0.967	577618	WORD_OFF	n/a	n/a	PURSE	4	4	[0, 0, 0]	n/a	FR1	2	R1158T
571.122	1.615	578585	WORD	n/a	wordpools/wordpool_EN.txt	STRING	5	4	[0, 0, 0]	n/a	FR1	2	R1158T
572.737	0.934	580200	WORD_OFF	n/a	n/a	STRING	5	4	[0, 0, 0]	n/a	FR1	2	R1158T
573.671	1.617	581134	WORD	n/a	wordpools/wordpool_EN.txt	OAR	6	4	[0, 0, 0]	n/a	FR1	2	R1158T
575.288	0.884	582751	WORD_OFF	n/a	n/a	OAR	6	4	[0, 0, 0]	n/a	FR1	2	R1158T
576.172	1.616	583635	WORD	n/a	wordpools/wordpool_EN.txt	SHIRT	7	4	[0, 0, 0]	n/a	FR1	2	R1158T
577.788	0.901	585251	WORD_OFF	n/a	n/a	SHIRT	7	4	[0, 0, 0]	n/a	FR1	2	R1158T
578.689	1.617	586152	WORD	n/a	wordpools/wordpool_EN.txt	COUCH	8	4	[0, 0, 0]	n/a	FR1	2	R1158T
580.306	0.983	587769	WORD_OFF	n/a	n/a	COUCH	8	4	[0, 0, 0]	n/a	FR1	2	R1158T
581.289	1.617	588752	WORD	n/a	wordpools/wordpool_EN.txt	TRAY	9	4	[0, 0, 0]	n/a	FR1	2	R1158T
582.906	0.967	590368	WORD_OFF	n/a	n/a	TRAY	9	4	[0, 0, 0]	n/a	FR1	2	R1158T
583.873	1.617	591335	WORD	n/a	wordpools/wordpool_EN.txt	CUP	10	4	[0, 0, 0]	n/a	FR1	2	R1158T
585.49	0.967	592952	WORD_OFF	n/a	n/a	CUP	10	4	[0, 0, 0]	n/a	FR1	2	R1158T
586.457	1.601	593919	WORD	n/a	wordpools/wordpool_EN.txt	LEG	11	4	[0, 0, 0]	n/a	FR1	2	R1158T
588.058	0.899	595520	WORD_OFF	n/a	n/a	LEG	11	4	[0, 0, 0]	n/a	FR1	2	R1158T
588.957	1.617	596419	WORD	n/a	wordpools/wordpool_EN.txt	FORK	12	4	[0, 0, 0]	n/a	FR1	2	R1158T
590.574	0.0	598036	WORD_OFF	n/a	n/a	FORK	12	4	[0, 0, 0]	n/a	FR1	2	R1158T
590.574	0.001	598036	DISTRACT_START	n/a	n/a	n/a	-999	4	[0, 0, 0]	n/a	FR1	2	R1158T
590.575	0.016	598037	START	n/a	n/a	n/a	-999	4	[-999, -999, -999]	n/a	FR1	2	R1158T
590.591	5.351	598053	PROB	5.351	n/a	n/a	-999	4	[7, 7, 1]	15	FR1	2	R1158T
595.942	3.667	603404	PROB	3.667	n/a	n/a	-999	4	[3, 3, 7]	13	FR1	2	R1158T
599.609	3.801	607070	PROB	3.801	n/a	n/a	-999	4	[3, 5, 8]	16	FR1	2	R1158T
603.41	4.685	610871	PROB	4.685	n/a	n/a	-999	4	[8, 4, 3]	15	FR1	2	R1158T
608.095	10.92	615556	PROB	10.92	n/a	n/a	-999	4	[5, 9, 9]	21	FR1	2	R1158T
619.015	0.015	626475	STOP	n/a	n/a	n/a	-999	4	[-999, -999, -999]	n/a	FR1	2	R1158T
619.03	0.583	626490	DISTRACT_END	n/a	n/a	n/a	-999	4	[0, 0, 0]	n/a	FR1	2	R1158T
619.613	0.518	627073	RETRIEVAL_ORIENT	n/a	n/a	n/a	-999	4	[0, 0, 0]	n/a	FR1	2	R1158T
620.131	1.272	627591	REC_START	n/a	n/a	n/a	-999	4	[0, 0, 0]	n/a	FR1	2	R1158T
621.403	0.835	628863	REC_WORD	0.835	n/a	TIE	-999	4	[0, 0, 0]	n/a	FR1	2	R1158T
622.238	0.921	629698	REC_WORD	0.921	n/a	CHIN	-999	4	[0, 0, 0]	n/a	FR1	2	R1158T
623.159	1.088	630619	REC_WORD	1.088	n/a	PLATE	-999	4	[0, 0, 0]	n/a	FR1	2	R1158T
624.247	1.441	631707	REC_WORD	1.441	n/a	PURSE	-999	4	[0, 0, 0]	n/a	FR1	2	R1158T
625.688	1.83	633148	REC_WORD	1.83	n/a	LEG	-999	4	[0, 0, 0]	n/a	FR1	2	R1158T
627.518	22.624	634978	REC_WORD	22.624	n/a	DRINK	-999	4	[0, 0, 0]	n/a	FR1	2	R1158T
650.142	5.411	657600	REC_END	n/a	n/a	n/a	-999	4	[0, 0, 0]	n/a	FR1	2	R1158T
655.553	0.5	663011	TRIAL	n/a	n/a	n/a	-999	5	[0, 0, 0]	n/a	FR1	2	R1158T
656.053	10.428	663511	COUNTDOWN_START	n/a	n/a	n/a	-999	5	[0, 0, 0]	n/a	FR1	2	R1158T
666.481	0.007	673938	COUNTDOWN_END	n/a	n/a	n/a	-999	5	[0, 0, 0]	n/a	FR1	2	R1158T
666.488	1.601	673945	ORIENT	n/a	n/a	n/a	-999	5	[0, 0, 0]	n/a	FR1	2	R1158T
668.089	2.2	675546	ORIENT_OFF	n/a	n/a	n/a	-999	5	[0, 0, 0]	n/a	FR1	2	R1158T
670.289	1.617	677746	WORD	n/a	wordpools/wordpool_EN.txt	BALL	1	5	[0, 0, 0]	n/a	FR1	2	R1158T
671.906	0.967	679363	WORD_OFF	n/a	n/a	BALL	1	5	[0, 0, 0]	n/a	FR1	2	R1158T
672.873	1.616	680330	WORD	n/a	wordpools/wordpool_EN.txt	COIN	2	5	[0, 0, 0]	n/a	FR1	2	R1158T
674.489	0.901	681946	WORD_OFF	n/a	n/a	COIN	2	5	[0, 0, 0]	n/a	FR1	2	R1158T
675.39	1.617	682847	WORD	n/a	wordpools/wordpool_EN.txt	PEA	3	5	[0, 0, 0]	n/a	FR1	2	R1158T
677.007	0.933	684464	WORD_OFF	n/a	n/a	PEA	3	5	[0, 0, 0]	n/a	FR1	2	R1158T
677.94	1.617	685397	WORD	n/a	wordpools/wordpool_EN.txt	KEY	4	5	[0, 0, 0]	n/a	FR1	2	R1158T
679.557	1.0	687014	WORD_OFF	n/a	n/a	KEY	4	5	[0, 0, 0]	n/a	FR1	2	R1158T
680.557	1.601	688014	WORD	n/a	wordpools/wordpool_EN.txt	STORM	5	5	[0, 0, 0]	n/a	FR1	2	R1158T
682.158	0.8	689614	WORD_OFF	n/a	n/a	STORM	5	5	[0, 0, 0]	n/a	FR1	2	R1158T
682.958	1.617	690414	WORD	n/a	wordpools/wordpool_EN.txt	POLE	6	5	[0, 0, 0]	n/a	FR1	2	R1158T
684.575	0.916	692031	WORD_OFF	n/a	n/a	POLE	6	5	[0, 0, 0]	n/a	FR1	2	R1158T
685.491	1.601	692947	WORD	n/a	wordpools/wordpool_EN.txt	NAIL	7	5	[0, 0, 0]	n/a	FR1	2	R1158T
687.092	0.867	694548	WORD_OFF	n/a	n/a	NAIL	7	5	[0, 0, 0]	n/a	FR1	2	R1158T
687.959	1.617	695415	WORD	n/a	wordpools/wordpool_EN.txt	BAT	8	5	[0, 0, 0]	n/a	FR1	2	R1158T
689.576	0.816	697032	WORD_OFF	n/a	n/a	BAT	8	5	[0, 0, 0]	n/a	FR1	2	R1158T
690.392	1.617	697848	WORD	n/a	wordpools/wordpool_EN.txt	MAP	9	5	[0, 0, 0]	n/a	FR1	2	R1158T
692.009	0.85	699465	WORD_OFF	n/a	n/a	MAP	9	5	[0, 0, 0]	n/a	FR1	2	R1158T
692.859	1.617	700315	WORD	n/a	wordpools/wordpool_EN.txt	SAIL	10	5	[0, 0, 0]	n/a	FR1	2	R1158T
694.476	0.917	701932	WORD_OFF	n/a	n/a	SAIL	10	5	[0, 0, 0]	n/a	FR1	2	R1158T
695.393	1.618	702849	WORD	n/a	wordpools/wordpool_EN.txt	EAR	11	5	[0, 0, 0]	n/a	FR1	2	R1158T
697.011	0.849	704467	WORD_OFF	n/a	n/a	EAR	11	5	[0, 0, 0]	n/a	FR1	2	R1158T
697.86	1.617	705316	WORD	n/a	wordpools/wordpool_EN.txt	FUR	12	5	[0, 0, 0]	n/a	FR1	2	R1158T
699.477	0.0	706932	WORD_OFF	n/a	n/a	FUR	12	5	[0, 0, 0]	n/a	FR1	2	R1158T
699.477	0.001	706932	DISTRACT_START	n/a	n/a	n/a	-999	5	[0, 0, 0]	n/a	FR1	2	R1158T
699.478	0.016	706933	START	n/a	n/a	n/a	-999	5	[-999, -999, -999]	n/a	FR1	2	R1158T
699.494	5.451	706949	PROB	5.451	n/a	n/a	-999	5	[8, 4, 3]	15	FR1	2	R1158T
704.945	4.4	712400	PROB	4.4	n/a	n/a	-999	5	[8, 1, 5]	14	FR1	2	R1158T
709.345	6.502	716800	PROB	6.502	n/a	n/a	-999	5	[5, 6, 3]	14	FR1	2	R1158T
715.847	5.023	723301	PROB	5.023	n/a	n/a	-999	5	[3, 5, 6]	14	FR1	2	R1158T
720.87	0.011	728324	STOP	n/a	n/a	n/a	-999	5	[-999, -999, -999]	n/a	FR1	2	R1158T
720.881	0.7	728335	DISTRACT_END	n/a	n/a	n/a	-999	5	[0, 0, 0]	n/a	FR1	2	R1158T
721.581	0.519	729035	RETRIEVAL_ORIENT	n/a	n/a	n/a	-999	5	[0, 0, 0]	n/a	FR1	2	R1158T
722.1	1.308	729554	REC_START	n/a	n/a	n/a	-999	5	[0, 0, 0]	n/a	FR1	2	R1158T
723.408	0.979	730862	REC_WORD	0.979	n/a	COIN	-999	5	[0, 0, 0]	n/a	FR1	2	R1158T
724.387	0.885	731841	REC_WORD	0.885	n/a	PEA	-999	5	[0, 0, 0]	n/a	FR1	2	R1158T
725.272	1.032	732726	REC_WORD	1.032	n/a	KEY	-999	5	[0, 0, 0]	n/a	FR1	2	R1158T
726.304	1.564	733758	REC_WORD	1.564	n/a	NAIL	-999	5	[0, 0, 0]	n/a	FR1	2	R1158T
727.868	6.911	735322	REC_WORD	6.911	n/a	EAR	-999	5	[0, 0, 0]	n/a	FR1	2	R1158T
734.779	17.329	742232	REC_WORD	17.329	n/a	COIN	-999	5	[0, 0, 0]	n/a	FR1	2	R1158T
752.108	5.58	759560	REC_END	n/a	n/a	n/a	-999	5	[0, 0, 0]	n/a	FR1	2	R1158T
757.688	0.5	765140	TRIAL	n/a	n/a	n/a	-999	6	[0, 0, 0]	n/a	FR1	2	R1158T
758.188	10.428	765640	COUNTDOWN_START	n/a	n/a	n/a	-999	6	[0, 0, 0]	n/a	FR1	2	R1158T
768.616	0.007	776067	COUNTDOWN_END	n/a	n/a	n/a	-999	6	[0, 0, 0]	n/a	FR1	2	R1158T
768.623	1.617	776074	ORIENT	n/a	n/a	n/a	-999	6	[0, 0, 0]	n/a	FR1	2	R1158T
770.24	1.968	777691	ORIENT_OFF	n/a	n/a	n/a	-999	6	[0, 0, 0]	n/a	FR1	2	R1158T
772.208	1.616	779659	WORD	n/a	wordpools/wordpool_EN.txt	ROCK	1	6	[0, 0, 0]	n/a	FR1	2	R1158T
773.824	1.017	781275	WORD_OFF	n/a	n/a	ROCK	1	6	[0, 0, 0]	n/a	FR1	2	R1158T
774.841	1.617	782292	WORD	n/a	wordpools/wordpool_EN.txt	CAPE	2	6	[0, 0, 0]	n/a	FR1	2	R1158T
776.458	0.9	783909	WORD_OFF	n/a	n/a	CAPE	2	6	[0, 0, 0]	n/a	FR1	2	R1158T
777.358	1.617	784809	WORD	n/a	wordpools/wordpool_EN.txt	PEAR	3	6	[0, 0, 0]	n/a	FR1	2	R1158T
778.975	0.917	786426	WORD_OFF	n/a	n/a	PEAR	3	6	[0, 0, 0]	n/a	FR1	2	R1158T
779.892	1.617	787343	WORD	n/a	wordpools/wordpool_EN.txt	TEETH	4	6	[0, 0, 0]	n/a	FR1	2	R1158T
781.509	0.933	788960	WORD_OFF	n/a	n/a	TEETH	4	6	[0, 0, 0]	n/a	FR1	2	R1158T
782.442	1.601	789893	WORD	n/a	wordpools/wordpool_EN.txt	TOOL	5	6	[0, 0, 0]	n/a	FR1	2	R1158T
784.043	0.933	791493	WORD_OFF	n/a	n/a	TOOL	5	6	[0, 0, 0]	n/a	FR1	2	R1158T
784.976	1.617	792426	WORD	n/a	wordpools/wordpool_EN.txt	TOY	6	6	[0, 0, 0]	n/a	FR1	2	R1158T
786.593	0.917	794043	WORD_OFF	n/a	n/a	TOY	6	6	[0, 0, 0]	n/a	FR1	2	R1158T
787.51	1.618	794960	WORD	n/a	wordpools/wordpool_EN.txt	PLANE	7	6	[0, 0, 0]	n/a	FR1	2	R1158T
789.128	0.983	796578	WORD_OFF	n/a	n/a	PLANE	7	6	[0, 0, 0]	n/a	FR1	2	R1158T
790.111	1.616	797561	WORD	n/a	wordpools/wordpool_EN.txt	RAT	8	6	[0, 0, 0]	n/a	FR1	2	R1158T
791.727	0.934	799177	WORD_OFF	n/a	n/a	RAT	8	6	[0, 0, 0]	n/a	FR1	2	R1158T
792.661	1.617	800111	WORD	n/a	wordpools/wordpool_EN.txt	SQUARE	9	6	[0, 0, 0]	n/a	FR1	2	R1158T
794.278	0.983	801728	WORD_OFF	n/a	n/a	SQUARE	9	6	[0, 0, 0]	n/a	FR1	2	R1158T
795.261	1.617	802711	WORD	n/a	wordpools/wordpool_EN.txt	CONE	10	6	[0, 0, 0]	n/a	FR1	2	R1158T
796.878	0.867	804328	WORD_OFF	n/a	n/a	CONE	10	6	[0, 0, 0]	n/a	FR1	2	R1158T
797.745	1.617	805195	WORD	n/a	wordpools/wordpool_EN.txt	WORM	11	6	[0, 0, 0]	n/a	FR1	2	R1158T
799.362	0.768	806812	WORD_OFF	n/a	n/a	WORM	11	6	[0, 0, 0]	n/a	FR1	2	R1158T
800.13	1.616	807579	WORD	n/a	wordpools/wordpool_EN.txt	CAT	12	6	[0, 0, 0]	n/a	FR1	2	R1158T
801.746	0.0	809195	WORD_OFF	n/a	n/a	CAT	12	6	[0, 0, 0]	n/a	FR1	2	R1158T
801.746	0.001	809195	DISTRACT_START	n/a	n/a	n/a	-999	6	[0, 0, 0]	n/a	FR1	2	R1158T
801.747	0.016	809196	START	n/a	n/a	n/a	-999	6	[-999, -999, -999]	n/a	FR1	2	R1158T
801.763	5.801	809212	PROB	5.801	n/a	n/a	-999	6	[9, 8, 5]	22	FR1	2	R1158T
807.564	3.384	815013	PROB	3.384	n/a	n/a	-999	6	[8, 2, 8]	18	FR1	2	R1158T
810.948	3.584	818397	PROB	3.584	n/a	n/a	-999	6	[7, 2, 8]	17	FR1	2	R1158T
814.532	3.417	821981	PROB	3.417	n/a	n/a	-999	6	[6, 4, 3]	13	FR1	2	R1158T
817.949	4.129	825397	PROB	4.129	n/a	n/a	-999	6	[4, 7, 2]	13	FR1	2	R1158T
822.078	0.006	829526	STOP	n/a	n/a	n/a	-999	6	[-999, -999, -999]	n/a	FR1	2	R1158T
822.084	0.566	829532	DISTRACT_END	n/a	n/a	n/a	-999	6	[0, 0, 0]	n/a	FR1	2	R1158T
822.65	0.519	830098	RETRIEVAL_ORIENT	n/a	n/a	n/a	-999	6	[0, 0, 0]	n/a	FR1	2	R1158T
823.169	1.375	830617	REC_START	n/a	n/a	n/a	-999	6	[0, 0, 0]	n/a	FR1	2	R1158T
824.544	0.98	831992	REC_WORD	0.98	n/a	ROCK	-999	6	[0, 0, 0]	n/a	FR1	2	R1158T
825.524	0.998	832972	REC_WORD	0.998	n/a	CAPE	-999	6	[0, 0, 0]	n/a	FR1	2	R1158T
826.522	1.234	833970	REC_WORD	1.234	n/a	PEAR	-999	6	[0, 0, 0]	n/a	FR1	2	R1158T
827.756	25.424	835204	REC_WORD	25.424	n/a	TEETH	-999	6	[0, 0, 0]	n/a	FR1	2	R1158T
853.18	9.494	860626	REC_END	n/a	n/a	n/a	-999	6	[0, 0, 0]	n/a	FR1	2	R1158T
862.674	0.5	870120	TRIAL	n/a	n/a	n/a	-999	7	[0, 0, 0]	n/a	FR1	2	R1158T
863.174	10.428	870620	COUNTDOWN_START	n/a	n/a	n/a	-999	7	[0, 0, 0]	n/a	FR1	2	R1158T
873.602	0.007	881047	COUNTDOWN_END	n/a	n/a	n/a	-999	7	[0, 0, 0]	n/a	FR1	2	R1158T
873.609	1.6	881054	ORIENT	n/a	n/a	n/a	-999	7	[0, 0, 0]	n/a	FR1	2	R1158T
875.209	2.167	882654	ORIENT_OFF	n/a	n/a	n/a	-999	7	[0, 0, 0]	n/a	FR1	2	R1158T
877.376	1.617	884821	WORD	n/a	wordpools/wordpool_EN.txt	WHEEL	1	7	[0, 0, 0]	n/a	FR1	2	R1158T
878.993	0.984	886438	WORD_OFF	n/a	n/a	WHEEL	1	7	[0, 0, 0]	n/a	FR1	2	R1158T
879.977	1.617	887422	WORD	n/a	wordpools/wordpool_EN.txt	ROOM	2	7	[0, 0, 0]	n/a	FR1	2	R1158T
881.594	0.983	889039	WORD_OFF	n/a	n/a	ROOM	2	7	[0, 0, 0]	n/a	FR1	2	R1158T
882.577	1.601	890022	WORD	n/a	wordpools/wordpool_EN.txt	VAN	3	7	[0, 0, 0]	n/a	FR1	2	R1158T
884.178	0.867	891622	WORD_OFF	n/a	n/a	VAN	3	7	[0, 0, 0]	n/a	FR1	2	R1158T
885.045	1.616	892489	WORD	n/a	wordpools/wordpool_EN.txt	YARD	4	7	[0, 0, 0]	n/a	FR1	2	R1158T
886.661	0.934	894105	WORD_OFF	n/a	n/a	YARD	4	7	[0, 0, 0]	n/a	FR1	2	R1158T
887.595	1.617	895039	WORD	n/a	wordpools/wordpool_EN.txt	CLOWN	5	7	[0, 0, 0]	n/a	FR1	2	R1158T
889.212	1.017	896656	WORD_OFF	n/a	n/a	CLOWN	5	7	[0, 0, 0]	n/a	FR1	2	R1158T
890.229	1.617	897673	WORD	n/a	wordpools/wordpool_EN.txt	BADGE	6	7	[0, 0, 0]	n/a	FR1	2	R1158T
891.846	0.783	899290	WORD_OFF	n/a	n/a	BADGE	6	7	[0, 0, 0]	n/a	FR1	2	R1158T
892.629	1.617	900073	WORD	n/a	wordpools/wordpool_EN.txt	BAND	7	7	[0, 0, 0]	n/a	FR1	2	R1158T
894.246	0.851	901690	WORD_OFF	n/a	n/a	BAND	7	7	[0, 0, 0]	n/a	FR1	2	R1158T
895.097	1.616	902541	WORD	n/a	wordpools/wordpool_EN.txt	CLOCK	8	7	[0, 0, 0]	n/a	FR1	2	R1158T
896.713	0.917	904157	WORD_OFF	n/a	n/a	CLOCK	8	7	[0, 0, 0]	n/a	FR1	2	R1158T
897.63	1.617	905074	WORD	n/a	wordpools/wordpool_EN.txt	LAMP	9	7	[0, 0, 0]	n/a	FR1	2	R1158T
899.247	0.934	906691	WORD_OFF	n/a	n/a	LAMP	9	7	[0, 0, 0]	n/a	FR1	2	R1158T
900.181	1.616	907624	WORD	n/a	wordpools/wordpool_EN.txt	STREET	10	7	[0, 0, 0]	n/a	FR1	2	R1158T
901.797	0.934	909240	WORD_OFF	n/a	n/a	STREET	10	7	[0, 0, 0]	n/a	FR1	2	R1158T
902.731	1.617	910174	WORD	n/a	wordpools/wordpool_EN.txt	BUSH	11	7	[0, 0, 0]	n/a	FR1	2	R1158T
904.348	1.0	911791	WORD_OFF	n/a	n/a	BUSH	11	7	[0, 0, 0]	n/a	FR1	2	R1158T
905.348	1.617	912791	WORD	n/a	wordpools/wordpool_EN.txt	FLUTE	12	7	[0, 0, 0]	n/a	FR1	2	R1158T
906.965	0.0	914408	DISTRACT_START	n/a	n/a	n/a	-999	7	[0, 0, 0]	n/a	FR1	2	R1158T
906.965	0.001	914408	WORD_OFF	n/a	n/a	FLUTE	12	7	[0, 0, 0]	n/a	FR1	2	R1158T
906.966	0.016	914409	START	n/a	n/a	n/a	-999	7	[-999, -999, -999]	n/a	FR1	2	R1158T
906.982	4.484	914425	PROB	4.484	n/a	n/a	-999	7	[6, 4, 2]	12	FR1	2	R1158T
911.466	2.35	918909	PROB	2.35	n/a	n/a	-999	7	[8, 2, 2]	12	FR1	2	R1158T
913.816	3.302	921259	PROB	3.302	n/a	n/a	-999	7	[2, 4, 3]	9	FR1	2	R1158T
917.118	3.3	924560	PROB	3.3	n/a	n/a	-999	7	[1, 2, 5]	8	FR1	2	R1158T
920.418	2.2	927860	PROB	2.2	n/a	n/a	-999	7	[6, 6, 2]	8	FR1	2	R1158T
922.618	3.568	930060	PROB	3.568	n/a	n/a	-999	7	[1, 2, 9]	12	FR1	2	R1158T
926.186	3.636	933628	PROB	3.636	n/a	n/a	-999	7	[2, 9, 5]	16	FR1	2	R1158T
929.822	0.014	937264	STOP	n/a	n/a	n/a	-999	7	[-999, -999, -999]	n/a	FR1	2	R1158T
929.836	0.533	937278	DISTRACT_END	n/a	n/a	n/a	-999	7	[0, 0, 0]	n/a	FR1	2	R1158T
930.369	0.518	937811	RETRIEVAL_ORIENT	n/a	n/a	n/a	-999	7	[0, 0, 0]	n/a	FR1	2	R1158T
930.887	0.995	938329	REC_START	n/a	n/a	n/a	-999	7	[0, 0, 0]	n/a	FR1	2	R1158T
931.882	0.678	939324	REC_WORD	0.678	n/a	WHEEL	-999	7	[0, 0, 0]	n/a	FR1	2	R1158T
932.56	1.2	940002	REC_WORD	1.2	n/a	ROOM	-999	7	[0, 0, 0]	n/a	FR1	2	R1158T
933.76	1.125	941201	REC_WORD	1.125	n/a	BAND	-999	7	[0, 0, 0]	n/a	FR1	2	R1158T
934.885	13.642	942326	REC_WORD	13.642	n/a	CLOWN	-999	7	[0, 0, 0]	n/a	FR1	2	R1158T
948.527	12.37	955968	REC_WORD	12.37	n/a	WHEEL	-999	7	[0, 0, 0]	n/a	FR1	2	R1158T
960.897	4.812	968337	REC_END	n/a	n/a	n/a	-999	7	[0, 0, 0]	n/a	FR1	2	R1158T
965.709	0.5	973149	TRIAL	n/a	n/a	n/a	-999	8	[0, 0, 0]	n/a	FR1	2	R1158T
966.209	10.428	973649	COUNTDOWN_START	n/a	n/a	n/a	-999	8	[0, 0, 0]	n/a	FR1	2	R1158T
976.637	0.008	984076	COUNTDOWN_END	n/a	n/a	n/a	-999	8	[0, 0, 0]	n/a	FR1	2	R1158T
976.645	1.616	984084	ORIENT	n/a	n/a	n/a	-999	8	[0, 0, 0]	n/a	FR1	2	R1158T
978.261	2.101	985700	ORIENT_OFF	n/a	n/a	n/a	-999	8	[0, 0, 0]	n/a	FR1	2	R1158T
980.362	1.617	987801	WORD	n/a	wordpools/wordpool_EN.txt	PHONE	1	8	[0, 0, 0]	n/a	FR1	2	R1158T
981.979	0.983	989418	WORD_OFF	n/a	n/a	PHONE	1	8	[0, 0, 0]	n/a	FR1	2	R1158T
982.962	1.617	990401	WORD	n/a	wordpools/wordpool_EN.txt	BEAN	2	8	[0, 0, 0]	n/a	FR1	2	R1158T
984.579	0.8	992017	WORD_OFF	n/a	n/a	BEAN	2	8	[0, 0, 0]	n/a	FR1	2	R1158T
985.379	1.617	992817	WORD	n/a	wordpools/wordpool_EN.txt	PLANT	3	8	[0, 0, 0]	n/a	FR1	2	R1158T
986.996	0.951	994434	WORD_OFF	n/a	n/a	PLANT	3	8	[0, 0, 0]	n/a	FR1	2	R1158T
987.947	1.616	995385	WORD	n/a	wordpools/wordpool_EN.txt	SOUP	4	8	[0, 0, 0]	n/a	FR1	2	R1158T
989.563	0.851	997001	WORD_OFF	n/a	n/a	SOUP	4	8	[0, 0, 0]	n/a	FR1	2	R1158T
990.414	1.618	997852	WORD	n/a	wordpools/wordpool_EN.txt	THREAD	5	8	[0, 0, 0]	n/a	FR1	2	R1158T
992.032	0.932	999470	WORD_OFF	n/a	n/a	THREAD	5	8	[0, 0, 0]	n/a	FR1	2	R1158T
992.964	1.617	1000402	WORD	n/a	wordpools/wordpool_EN.txt	STEM	6	8	[0, 0, 0]	n/a	FR1	2	R1158T
994.581	0.884	1002019	WORD_OFF	n/a	n/a	STEM	6	8	[0, 0, 0]	n/a	FR1	2	R1158T
995.465	1.618	1002903	WORD	n/a	wordpools/wordpool_EN.txt	RICE	7	8	[0, 0, 0]	n/a	FR1	2	R1158T
997.083	0.95	1004521	WORD_OFF	n/a	n/a	RICE	7	8	[0, 0, 0]	n/a	FR1	2	R1158T
998.033	1.616	1005471	WORD	n/a	wordpools/wordpool_EN.txt	SHEEP	8	8	[0, 0, 0]	n/a	FR1	2	R1158T
999.649	0.933	1007087	WORD_OFF	n/a	n/a	SHEEP	8	8	[0, 0, 0]	n/a	FR1	2	R1158T
1000.582	1.618	1008020	WORD	n/a	wordpools/wordpool_EN.txt	CUBE	9	8	[0, 0, 0]	n/a	FR1	2	R1158T
1002.2	1.0	1009637	WORD_OFF	n/a	n/a	CUBE	9	8	[0, 0, 0]	n/a	FR1	2	R1158T
1003.2	1.616	1010637	WORD	n/a	wordpools/wordpool_EN.txt	FOOD	10	8	[0, 0, 0]	n/a	FR1	2	R1158T
1004.816	0.917	1012253	WORD_OFF	n/a	n/a	FOOD	10	8	[0, 0, 0]	n/a	FR1	2	R1158T
1005.733	1.617	1013170	WORD	n/a	wordpools/wordpool_EN.txt	STOOL	11	8	[0, 0, 0]	n/a	FR1	2	R1158T
1007.35	0.768	1014787	WORD_OFF	n/a	n/a	STOOL	11	8	[0, 0, 0]	n/a	FR1	2	R1158T
1008.118	1.616	1015555	WORD	n/a	wordpools/wordpool_EN.txt	LEAF	12	8	[0, 0, 0]	n/a	FR1	2	R1158T
1009.734	0.0	1017171	DISTRACT_START	n/a	n/a	n/a	-999	8	[0, 0, 0]	n/a	FR1	2	R1158T
1009.734	0.0	1017171	WORD_OFF	n/a	n/a	LEAF	12	8	[0, 0, 0]	n/a	FR1	2	R1158T
1009.734	0.017	1017171	START	n/a	n/a	n/a	-999	8	[-999, -999, -999]	n/a	FR1	2	R1158T
1009.751	6.251	1017188	PROB	6.251	n/a	n/a	-999	8	[9, 5, 1]	15	FR1	2	R1158T
1016.002	4.667	1023439	PROB	4.667	n/a	n/a	-999	8	[4, 6, 5]	15	FR1	2	R1158T
1020.669	4.634	1028105	PROB	4.634	n/a	n/a	-999	8	[4, 5, 4]	13	FR1	2	R1158T
1025.303	2.785	1032739	PROB	2.785	n/a	n/a	-999	8	[2, 5, 5]	12	FR1	2	R1158T
1028.088	4.445	1035524	PROB	4.445	n/a	n/a	-999	8	[5, 6, 4]	15	FR1	2	R1158T
1032.533	0.022	1039969	STOP	n/a	n/a	n/a	-999	8	[-999, -999, -999]	n/a	FR1	2	R1158T
1032.555	0.534	1039991	DISTRACT_END	n/a	n/a	n/a	-999	8	[0, 0, 0]	n/a	FR1	2	R1158T
1033.089	0.516	1040525	RETRIEVAL_ORIENT	n/a	n/a	n/a	-999	8	[0, 0, 0]	n/a	FR1	2	R1158T
1033.605	1.356	1041041	REC_START	n/a	n/a	n/a	-999	8	[0, 0, 0]	n/a	FR1	2	R1158T
1034.961	1.858	1042396	REC_WORD	1.858	n/a	BONE	-999	8	[0, 0, 0]	n/a	FR1	2	R1158T
1036.819	2.052	1044254	REC_WORD	2.052	n/a	SOUP	-999	8	[0, 0, 0]	n/a	FR1	2	R1158T
1038.871	1.643	1046306	REC_WORD	1.643	n/a	PHONE	-999	8	[0, 0, 0]	n/a	FR1	2	R1158T
1040.514	5.6	1047949	REC_WORD	5.6	n/a	PEN	-999	8	[0, 0, 0]	n/a	FR1	2	R1158T
1046.114	8.65	1053549	REC_WORD	8.65	n/a	CUP	-999	8	[0, 0, 0]	n/a	FR1	2	R1158T
1054.764	8.852	1062198	REC_WORD	8.852	n/a	THREAD	-999	8	[0, 0, 0]	n/a	FR1	2	R1158T
1063.616	4.745	1071050	REC_END	n/a	n/a	n/a	-999	8	[0, 0, 0]	n/a	FR1	2	R1158T
1068.361	0.5	1075794	TRIAL	n/a	n/a	n/a	-999	9	[0, 0, 0]	n/a	FR1	2	R1158T
1068.861	10.428	1076294	COUNTDOWN_START	n/a	n/a	n/a	-999	9	[0, 0, 0]	n/a	FR1	2	R1158T
1079.289	0.008	1086722	COUNTDOWN_END	n/a	n/a	n/a	-999	9	[0, 0, 0]	n/a	FR1	2	R1158T
1079.297	1.617	1086730	ORIENT	n/a	n/a	n/a	-999	9	[0, 0, 0]	n/a	FR1	2	R1158T
1080.914	2.083	1088347	ORIENT_OFF	n/a	n/a	n/a	-999	9	[0, 0, 0]	n/a	FR1	2	R1158T
1082.997	1.617	1090430	WORD	n/a	wordpools/wordpool_EN.txt	ROAD	1	9	[0, 0, 0]	n/a	FR1	2	R1158T
1084.614	0.784	1092046	WORD_OFF	n/a	n/a	ROAD	1	9	[0, 0, 0]	n/a	FR1	2	R1158T
1085.398	1.618	1092830	WORD	n/a	wordpools/wordpool_EN.txt	HORN	2	9	[0, 0, 0]	n/a	FR1	2	R1158T
1087.016	0.865	1094448	WORD_OFF	n/a	n/a	HORN	2	9	[0, 0, 0]	n/a	FR1	2	R1158T
1087.881	1.617	1095313	WORD	n/a	wordpools/wordpool_EN.txt	VEST	3	9	[0, 0, 0]	n/a	FR1	2	R1158T
1089.498	0.817	1096930	WORD_OFF	n/a	n/a	VEST	3	9	[0, 0, 0]	n/a	FR1	2	R1158T
1090.315	1.617	1097747	WORD	n/a	wordpools/wordpool_EN.txt	FLAME	4	9	[0, 0, 0]	n/a	FR1	2	R1158T
1091.932	0.884	1099364	WORD_OFF	n/a	n/a	FLAME	4	9	[0, 0, 0]	n/a	FR1	2	R1158T
1092.816	1.617	1100248	WORD	n/a	wordpools/wordpool_EN.txt	HAT	5	9	[0, 0, 0]	n/a	FR1	2	R1158T
1094.433	0.933	1101865	WORD_OFF	n/a	n/a	HAT	5	9	[0, 0, 0]	n/a	FR1	2	R1158T
1095.366	1.617	1102798	WORD	n/a	wordpools/wordpool_EN.txt	NOSE	6	9	[0, 0, 0]	n/a	FR1	2	R1158T
1096.983	0.85	1104415	WORD_OFF	n/a	n/a	NOSE	6	9	[0, 0, 0]	n/a	FR1	2	R1158T
1097.833	1.617	1105265	WORD	n/a	wordpools/wordpool_EN.txt	FENCE	7	9	[0, 0, 0]	n/a	FR1	2	R1158T
1099.45	0.767	1106882	WORD_OFF	n/a	n/a	FENCE	7	9	[0, 0, 0]	n/a	FR1	2	R1158T
1100.217	1.617	1107649	WORD	n/a	wordpools/wordpool_EN.txt	GUARD	8	9	[0, 0, 0]	n/a	FR1	2	R1158T
1101.834	0.783	1109265	WORD_OFF	n/a	n/a	GUARD	8	9	[0, 0, 0]	n/a	FR1	2	R1158T
1102.617	1.617	1110048	WORD	n/a	wordpools/wordpool_EN.txt	SWORD	9	9	[0, 0, 0]	n/a	FR1	2	R1158T
1104.234	0.952	1111665	WORD_OFF	n/a	n/a	SWORD	9	9	[0, 0, 0]	n/a	FR1	2	R1158T
1105.186	1.616	1112617	WORD	n/a	wordpools/wordpool_EN.txt	RIB	10	9	[0, 0, 0]	n/a	FR1	2	R1158T
1106.802	1.0	1114233	WORD_OFF	n/a	n/a	RIB	10	9	[0, 0, 0]	n/a	FR1	2	R1158T
1107.802	1.617	1115233	WORD	n/a	wordpools/wordpool_EN.txt	HILL	11	9	[0, 0, 0]	n/a	FR1	2	R1158T
1109.419	0.933	1116850	WORD_OFF	n/a	n/a	HILL	11	9	[0, 0, 0]	n/a	FR1	2	R1158T
1110.352	1.617	1117783	WORD	n/a	wordpools/wordpool_EN.txt	MAZE	12	9	[0, 0, 0]	n/a	FR1	2	R1158T
1111.969	0.0	1119400	DISTRACT_START	n/a	n/a	n/a	-999	9	[0, 0, 0]	n/a	FR1	2	R1158T
1111.969	0.001	1119400	WORD_OFF	n/a	n/a	MAZE	12	9	[0, 0, 0]	n/a	FR1	2	R1158T
1111.97	0.016	1119401	START	n/a	n/a	n/a	-999	9	[-999, -999, -999]	n/a	FR1	2	R1158T
1111.986	5.085	1119417	PROB	5.085	n/a	n/a	-999	9	[4, 9, 9]	22	FR1	2	R1158T
1117.071	3.783	1124502	PROB	3.783	n/a	n/a	-999	9	[7, 7, 5]	19	FR1	2	R1158T
1120.854	4.984	1128284	PROB	4.984	n/a	n/a	-999	9	[4, 2, 7]	13	FR1	2	R1158T
1125.838	3.269	1133268	PROB	3.269	n/a	n/a	-999	9	[9, 1, 3]	13	FR1	2	R1158T
1129.107	3.634	1136537	PROB	3.634	n/a	n/a	-999	9	[8, 3, 2]	13	FR1	2	R1158T
1132.741	0.015	1140171	STOP	n/a	n/a	n/a	-999	9	[-999, -999, -999]	n/a	FR1	2	R1158T
1132.756	0.634	1140186	DISTRACT_END	n/a	n/a	n/a	-999	9	[0, 0, 0]	n/a	FR1	2	R1158T
1133.39	0.517	1140820	RETRIEVAL_ORIENT	n/a	n/a	n/a	-999	9	[0, 0, 0]	n/a	FR1	2	R1158T
1133.907	1.583	1141337	REC_START	n/a	n/a	n/a	-999	9	[0, 0, 0]	n/a	FR1	2	R1158T
1135.49	0.78	1142919	REC_WORD	0.78	n/a	GUARD	-999	9	[0, 0, 0]	n/a	FR1	2	R1158T
1136.27	1.841	1143699	REC_WORD	1.841	n/a	FENCE	-999	9	[0, 0, 0]	n/a	FR1	2	R1158T
1138.111	25.805	1145540	REC_WORD	25.805	n/a	HILL	-999	9	[0, 0, 0]	n/a	FR1	2	R1158T
1163.916	7.232	1171344	REC_END	n/a	n/a	n/a	-999	9	[0, 0, 0]	n/a	FR1	2	R1158T
1171.148	0.5	1178575	TRIAL	n/a	n/a	n/a	-999	10	[0, 0, 0]	n/a	FR1	2	R1158T
1171.648	10.428	1179075	COUNTDOWN_START	n/a	n/a	n/a	-999	10	[0, 0, 0]	n/a	FR1	2	R1158T
1182.076	0.007	1189503	COUNTDOWN_END	n/a	n/a	n/a	-999	10	[0, 0, 0]	n/a	FR1	2	R1158T
1182.083	1.616	1189510	ORIENT	n/a	n/a	n/a	-999	10	[0, 0, 0]	n/a	FR1	2	R1158T
1183.699	2.184	1191126	ORIENT_OFF	n/a	n/a	n/a	-999	10	[0, 0, 0]	n/a	FR1	2	R1158T
1185.883	1.617	1193309	WORD	n/a	wordpools/wordpool_EN.txt	EEL	1	10	[0, 0, 0]	n/a	FR1	2	R1158T
1187.5	0.783	1194926	WORD_OFF	n/a	n/a	EEL	1	10	[0, 0, 0]	n/a	FR1	2	R1158T
1188.283	1.617	1195709	WORD	n/a	wordpools/wordpool_EN.txt	FLAG	2	10	[0, 0, 0]	n/a	FR1	2	R1158T
1189.9	0.85	1197326	WORD_OFF	n/a	n/a	FLAG	2	10	[0, 0, 0]	n/a	FR1	2	R1158T
1190.75	1.617	1198176	WORD	n/a	wordpools/wordpool_EN.txt	BANK	3	10	[0, 0, 0]	n/a	FR1	2	R1158T
1192.367	0.967	1199793	WORD_OFF	n/a	n/a	BANK	3	10	[0, 0, 0]	n/a	FR1	2	R1158T
1193.334	1.617	1200760	WORD	n/a	wordpools/wordpool_EN.txt	SHEET	4	10	[0, 0, 0]	n/a	FR1	2	R1158T
1194.951	0.983	1202377	WORD_OFF	n/a	n/a	SHEET	4	10	[0, 0, 0]	n/a	FR1	2	R1158T
1195.934	1.617	1203360	WORD	n/a	wordpools/wordpool_EN.txt	BRANCH	5	10	[0, 0, 0]	n/a	FR1	2	R1158T
1197.551	0.817	1204977	WORD_OFF	n/a	n/a	BRANCH	5	10	[0, 0, 0]	n/a	FR1	2	R1158T
1198.368	1.617	1205794	WORD	n/a	wordpools/wordpool_EN.txt	FILM	6	10	[0, 0, 0]	n/a	FR1	2	R1158T
1199.985	0.8	1207411	WORD_OFF	n/a	n/a	FILM	6	10	[0, 0, 0]	n/a	FR1	2	R1158T
1200.785	1.617	1208211	WORD	n/a	wordpools/wordpool_EN.txt	INK	7	10	[0, 0, 0]	n/a	FR1	2	R1158T
1202.402	0.867	1209827	WORD_OFF	n/a	n/a	INK	7	10	[0, 0, 0]	n/a	FR1	2	R1158T
1203.269	1.617	1210694	WORD	n/a	wordpools/wordpool_EN.txt	CAR	8	10	[0, 0, 0]	n/a	FR1	2	R1158T
1204.886	0.834	1212311	WORD_OFF	n/a	n/a	CAR	8	10	[0, 0, 0]	n/a	FR1	2	R1158T
1205.72	1.617	1213145	WORD	n/a	wordpools/wordpool_EN.txt	JUDGE	9	10	[0, 0, 0]	n/a	FR1	2	R1158T
1207.337	0.95	1214762	WORD_OFF	n/a	n/a	JUDGE	9	10	[0, 0, 0]	n/a	FR1	2	R1158T
1208.287	1.617	1215712	WORD	n/a	wordpools/wordpool_EN.txt	CASH	10	10	[0, 0, 0]	n/a	FR1	2	R1158T
1209.904	0.917	1217329	WORD_OFF	n/a	n/a	CASH	10	10	[0, 0, 0]	n/a	FR1	2	R1158T
1210.821	1.617	1218246	WORD	n/a	wordpools/wordpool_EN.txt	DRUM	11	10	[0, 0, 0]	n/a	FR1	2	R1158T
1212.438	0.783	1219863	WORD_OFF	n/a	n/a	DRUM	11	10	[0, 0, 0]	n/a	FR1	2	R1158T
1213.221	1.617	1220646	WORD	n/a	wordpools/wordpool_EN.txt	FARM	12	10	[0, 0, 0]	n/a	FR1	2	R1158T
1214.838	0.0	1222263	WORD_OFF	n/a	n/a	FARM	12	10	[0, 0, 0]	n/a	FR1	2	R1158T
1214.838	0.0	1222263	DISTRACT_START	n/a	n/a	n/a	-999	10	[0, 0, 0]	n/a	FR1	2	R1158T
1214.838	0.017	1222263	START	n/a	n/a	n/a	-999	10	[-999, -999, -999]	n/a	FR1	2	R1158T
1214.855	4.901	1222280	PROB	4.901	n/a	n/a	-999	10	[7, 8, 7]	22	FR1	2	R1158T
1219.756	3.65	1227180	PROB	3.65	n/a	n/a	-999	10	[6, 9, 7]	22	FR1	2	R1158T
1223.406	7.902	1230830	PROB	7.902	n/a	n/a	-999	10	[7, 9, 4]	20	FR1	2	R1158T
1231.308	4.859	1238732	PROB	4.859	n/a	n/a	-999	10	[7, 8, 8]	23	FR1	2	R1158T
1236.167	0.009	1243590	STOP	n/a	n/a	n/a	-999	10	[-999, -999, -999]	n/a	FR1	2	R1158T
1236.176	0.683	1243599	DISTRACT_END	n/a	n/a	n/a	-999	10	[0, 0, 0]	n/a	FR1	2	R1158T
1236.859	0.517	1244282	RETRIEVAL_ORIENT	n/a	n/a	n/a	-999	10	[0, 0, 0]	n/a	FR1	2	R1158T
1237.376	1.091	1244799	REC_START	n/a	n/a	n/a	-999	10	[0, 0, 0]	n/a	FR1	2	R1158T
1238.467	0.67	1245890	REC_WORD	0.67	n/a	INK	-999	10	[0, 0, 0]	n/a	FR1	2	R1158T
1239.137	0.682	1246560	REC_WORD	0.682	n/a	CAR	-999	10	[0, 0, 0]	n/a	FR1	2	R1158T
1239.819	1.653	1247242	REC_WORD	1.653	n/a	CASH	-999	10	[0, 0, 0]	n/a	FR1	2	R1158T
1241.472	8.489	1248895	REC_WORD	8.489	n/a	DRUM	-999	10	[0, 0, 0]	n/a	FR1	2	R1158T
1249.961	3.736	1257384	REC_WORD	3.736	n/a	BANK	-999	10	[0, 0, 0]	n/a	FR1	2	R1158T
1253.697	13.689	1261119	REC_WORD	13.689	n/a	STEAM	-999	10	[0, 0, 0]	n/a	FR1	2	R1158T
1267.386	4.379	1274808	REC_END	n/a	n/a	n/a	-999	10	[0, 0, 0]	n/a	FR1	2	R1158T
1271.765	0.5	1279186	TRIAL	n/a	n/a	n/a	-999	11	[0, 0, 0]	n/a	FR1	2	R1158T
1272.265	10.428	1279686	COUNTDOWN_START	n/a	n/a	n/a	-999	11	[0, 0, 0]	n/a	FR1	2	R1158T
1282.693	0.007	1290114	COUNTDOWN_END	n/a	n/a	n/a	-999	11	[0, 0, 0]	n/a	FR1	2	R1158T
1282.7	1.617	1290121	ORIENT	n/a	n/a	n/a	-999	11	[0, 0, 0]	n/a	FR1	2	R1158T
1284.317	1.984	1291738	ORIENT_OFF	n/a	n/a	n/a	-999	11	[0, 0, 0]	n/a	FR1	2	R1158T
1286.301	1.617	1293721	WORD	n/a	wordpools/wordpool_EN.txt	HEN	1	11	[0, 0, 0]	n/a	FR1	2	R1158T
1287.918	1.0	1295338	WORD_OFF	n/a	n/a	HEN	1	11	[0, 0, 0]	n/a	FR1	2	R1158T
1288.918	1.617	1296338	WORD	n/a	wordpools/wordpool_EN.txt	ZOO	2	11	[0, 0, 0]	n/a	FR1	2	R1158T
1290.535	0.767	1297955	WORD_OFF	n/a	n/a	ZOO	2	11	[0, 0, 0]	n/a	FR1	2	R1158T
1291.302	1.617	1298722	WORD	n/a	wordpools/wordpool_EN.txt	FLEA	3	11	[0, 0, 0]	n/a	FR1	2	R1158T
1292.919	1.0	1300339	WORD_OFF	n/a	n/a	FLEA	3	11	[0, 0, 0]	n/a	FR1	2	R1158T
1293.919	1.617	1301339	WORD	n/a	wordpools/wordpool_EN.txt	MOOSE	4	11	[0, 0, 0]	n/a	FR1	2	R1158T
1295.536	0.767	1302956	WORD_OFF	n/a	n/a	MOOSE	4	11	[0, 0, 0]	n/a	FR1	2	R1158T
1296.303	1.617	1303723	WORD	n/a	wordpools/wordpool_EN.txt	HAWK	5	11	[0, 0, 0]	n/a	FR1	2	R1158T
1297.92	0.933	1305340	WORD_OFF	n/a	n/a	HAWK	5	11	[0, 0, 0]	n/a	FR1	2	R1158T
1298.853	1.617	1306273	WORD	n/a	wordpools/wordpool_EN.txt	OWL	6	11	[0, 0, 0]	n/a	FR1	2	R1158T
1300.47	0.817	1307890	WORD_OFF	n/a	n/a	OWL	6	11	[0, 0, 0]	n/a	FR1	2	R1158T
1301.287	1.617	1308707	WORD	n/a	wordpools/wordpool_EN.txt	DUCK	7	11	[0, 0, 0]	n/a	FR1	2	R1158T
1302.904	0.883	1310323	WORD_OFF	n/a	n/a	DUCK	7	11	[0, 0, 0]	n/a	FR1	2	R1158T
1303.787	1.617	1311206	WORD	n/a	wordpools/wordpool_EN.txt	POOL	8	11	[0, 0, 0]	n/a	FR1	2	R1158T
1305.404	0.967	1312823	WORD_OFF	n/a	n/a	POOL	8	11	[0, 0, 0]	n/a	FR1	2	R1158T
1306.371	1.617	1313790	WORD	n/a	wordpools/wordpool_EN.txt	DOG	9	11	[0, 0, 0]	n/a	FR1	2	R1158T
1307.988	0.767	1315407	WORD_OFF	n/a	n/a	DOG	9	11	[0, 0, 0]	n/a	FR1	2	R1158T
1308.755	1.617	1316174	WORD	n/a	wordpools/wordpool_EN.txt	PET	10	11	[0, 0, 0]	n/a	FR1	2	R1158T
1310.372	0.95	1317791	WORD_OFF	n/a	n/a	PET	10	11	[0, 0, 0]	n/a	FR1	2	R1158T
1311.322	1.617	1318741	WORD	n/a	wordpools/wordpool_EN.txt	PEN	11	11	[0, 0, 0]	n/a	FR1	2	R1158T
1312.939	0.784	1320358	WORD_OFF	n/a	n/a	PEN	11	11	[0, 0, 0]	n/a	FR1	2	R1158T
1313.723	1.617	1321142	WORD	n/a	wordpools/wordpool_EN.txt	CHALK	12	11	[0, 0, 0]	n/a	FR1	2	R1158T
1315.34	0.0	1322759	WORD_OFF	n/a	n/a	CHALK	12	11	[0, 0, 0]	n/a	FR1	2	R1158T
1315.34	0.0	1322759	DISTRACT_START	n/a	n/a	n/a	-999	11	[0, 0, 0]	n/a	FR1	2	R1158T
1315.34	0.016	1322759	START	n/a	n/a	n/a	-999	11	[-999, -999, -999]	n/a	FR1	2	R1158T
1315.356	5.085	1322775	PROB	5.085	n/a	n/a	-999	11	[9, 1, 5]	15	FR1	2	R1158T
1320.441	4.2	1327859	PROB	4.2	n/a	n/a	-999	11	[9, 5, 7]	21	FR1	2	R1158T
1324.641	2.634	1332059	PROB	2.634	n/a	n/a	-999	11	[1, 1, 1]	3	FR1	2	R1158T
1327.275	3.684	1334693	PROB	3.684	n/a	n/a	-999	11	[2, 3, 2]	7	FR1	2	R1158T
1330.959	4.152	1338377	PROB	4.152	n/a	n/a	-999	11	[4, 5, 6]	15	FR1	2	R1158T
1335.111	4.399	1342529	PROB	4.399	n/a	n/a	-999	11	[4, 5, 7]	16	FR1	2	R1158T
1339.51	0.017	1346927	STOP	n/a	n/a	n/a	-999	11	[-999, -999, -999]	n/a	FR1	2	R1158T
1339.527	0.551	1346944	DISTRACT_END	n/a	n/a	n/a	-999	11	[0, 0, 0]	n/a	FR1	2	R1158T
1340.078	0.517	1347495	RETRIEVAL_ORIENT	n/a	n/a	n/a	-999	11	[0, 0, 0]	n/a	FR1	2	R1158T
1340.595	1.857	1348012	REC_START	n/a	n/a	n/a	-999	11	[0, 0, 0]	n/a	FR1	2	R1158T
1342.452	3.533	1349869	REC_WORD	3.533	n/a	HEN	-999	11	[0, 0, 0]	n/a	FR1	2	R1158T
1345.985	0.909	1353402	REC_WORD	0.909	n/a	PEN	-999	11	[0, 0, 0]	n/a	FR1	2	R1158T
1346.894	1.45	1354311	REC_WORD	1.45	n/a	ZOO	-999	11	[0, 0, 0]	n/a	FR1	2	R1158T
1348.344	1.774	1355761	REC_WORD	1.774	n/a	EEL	-999	11	[0, 0, 0]	n/a	FR1	2	R1158T
1350.118	1.749	1357535	REC_WORD	1.749	n/a	DOG	-999	11	[0, 0, 0]	n/a	FR1	2	R1158T
1351.867	5.482	1359284	REC_WORD	5.482	n/a	CAT	-999	11	[0, 0, 0]	n/a	FR1	2	R1158T
1357.349	13.256	1364765	REC_WORD	13.256	n/a	HAWK	-999	11	[0, 0, 0]	n/a	FR1	2	R1158T
1370.605	4.962	1378020	REC_END	n/a	n/a	n/a	-999	11	[0, 0, 0]	n/a	FR1	2	R1158T
1375.567	0.5	1382982	TRIAL	n/a	n/a	n/a	-999	12	[0, 0, 0]	n/a	FR1	2	R1158T
1376.067	10.428	1383482	COUNTDOWN_START	n/a	n/a	n/a	-999	12	[0, 0, 0]	n/a	FR1	2	R1158T
1386.495	0.008	1393909	COUNTDOWN_END	n/a	n/a	n/a	-999	12	[0, 0, 0]	n/a	FR1	2	R1158T
1386.503	1.618	1393917	ORIENT	n/a	n/a	n/a	-999	12	[0, 0, 0]	n/a	FR1	2	R1158T
1388.121	2.067	1395535	ORIENT_OFF	n/a	n/a	n/a	-999	12	[0, 0, 0]	n/a	FR1	2	R1158T
1390.188	1.616	1397602	WORD	n/a	wordpools/wordpool_EN.txt	CHIEF	1	12	[0, 0, 0]	n/a	FR1	2	R1158T
1391.804	0.9	1399218	WORD_OFF	n/a	n/a	CHIEF	1	12	[0, 0, 0]	n/a	FR1	2	R1158T
1392.704	1.617	1400118	WORD	n/a	wordpools/wordpool_EN.txt	BEE	2	12	[0, 0, 0]	n/a	FR1	2	R1158T
1394.321	0.851	1401735	WORD_OFF	n/a	n/a	BEE	2	12	[0, 0, 0]	n/a	FR1	2	R1158T
1395.172	1.616	1402586	WORD	n/a	wordpools/wordpool_EN.txt	TOAD	3	12	[0, 0, 0]	n/a	FR1	2	R1158T
1396.788	0.95	1404202	WORD_OFF	n/a	n/a	TOAD	3	12	[0, 0, 0]	n/a	FR1	2	R1158T
1397.738	1.617	1405152	WORD	n/a	wordpools/wordpool_EN.txt	BOY	4	12	[0, 0, 0]	n/a	FR1	2	R1158T
1399.355	0.784	1406769	WORD_OFF	n/a	n/a	BOY	4	12	[0, 0, 0]	n/a	FR1	2	R1158T
1400.139	1.616	1407553	WORD	n/a	wordpools/wordpool_EN.txt	MILK	5	12	[0, 0, 0]	n/a	FR1	2	R1158T
1401.755	0.817	1409169	WORD_OFF	n/a	n/a	MILK	5	12	[0, 0, 0]	n/a	FR1	2	R1158T
1402.572	1.601	1409986	WORD	n/a	wordpools/wordpool_EN.txt	SNAKE	6	12	[0, 0, 0]	n/a	FR1	2	R1158T
1404.173	0.851	1411586	WORD_OFF	n/a	n/a	SNAKE	6	12	[0, 0, 0]	n/a	FR1	2	R1158T
1405.024	1.616	1412437	WORD	n/a	wordpools/wordpool_EN.txt	GEESE	7	12	[0, 0, 0]	n/a	FR1	2	R1158T
1406.64	0.783	1414053	WORD_OFF	n/a	n/a	GEESE	7	12	[0, 0, 0]	n/a	FR1	2	R1158T
1407.423	1.618	1414836	WORD	n/a	wordpools/wordpool_EN.txt	MOUSE	8	12	[0, 0, 0]	n/a	FR1	2	R1158T
1409.041	0.966	1416454	WORD_OFF	n/a	n/a	MOUSE	8	12	[0, 0, 0]	n/a	FR1	2	R1158T
1410.007	1.617	1417420	WORD	n/a	wordpools/wordpool_EN.txt	SOAP	9	12	[0, 0, 0]	n/a	FR1	2	R1158T
1411.624	0.983	1419037	WORD_OFF	n/a	n/a	SOAP	9	12	[0, 0, 0]	n/a	FR1	2	R1158T
1412.607	1.601	1420020	WORD	n/a	wordpools/wordpool_EN.txt	WOLF	10	12	[0, 0, 0]	n/a	FR1	2	R1158T
1414.208	0.884	1421621	WORD_OFF	n/a	n/a	WOLF	10	12	[0, 0, 0]	n/a	FR1	2	R1158T
1415.092	1.616	1422505	WORD	n/a	wordpools/wordpool_EN.txt	BIRD	11	12	[0, 0, 0]	n/a	FR1	2	R1158T
1416.708	0.967	1424121	WORD_OFF	n/a	n/a	BIRD	11	12	[0, 0, 0]	n/a	FR1	2	R1158T
1417.675	1.617	1425088	WORD	n/a	wordpools/wordpool_EN.txt	WEED	12	12	[0, 0, 0]	n/a	FR1	2	R1158T
1419.292	0.0	1426705	DISTRACT_START	n/a	n/a	n/a	-999	12	[0, 0, 0]	n/a	FR1	2	R1158T
1419.292	0.0	1426705	WORD_OFF	n/a	n/a	WEED	12	12	[0, 0, 0]	n/a	FR1	2	R1158T
1419.292	0.017	1426705	START	n/a	n/a	n/a	-999	12	[-999, -999, -999]	n/a	FR1	2	R1158T
1419.309	5.134	1426722	PROB	5.134	n/a	n/a	-999	12	[2, 1, 5]	8	FR1	2	R1158T
1424.443	3.668	1431855	PROB	3.668	n/a	n/a	-999	12	[9, 1, 8]	18	FR1	2	R1158T
1428.111	5.084	1435523	PROB	5.084	n/a	n/a	-999	12	[6, 5, 2]	13	FR1	2	R1158T
1433.195	8.626	1440607	PROB	8.626	n/a	n/a	-999	12	[7, 9, 7]	23	FR1	2	R1158T
1441.821	0.008	1449232	STOP	n/a	n/a	n/a	-999	12	[-999, -999, -999]	n/a	FR1	2	R1158T
1441.829	0.684	1449240	DISTRACT_END	n/a	n/a	n/a	-999	12	[0, 0, 0]	n/a	FR1	2	R1158T
1442.513	0.519	1449924	RETRIEVAL_ORIENT	n/a	n/a	n/a	-999	12	[0, 0, 0]	n/a	FR1	2	R1158T
1443.032	1.06	1450443	REC_START	n/a	n/a	n/a	-999	12	[0, 0, 0]	n/a	FR1	2	R1158T
1444.092	0.733	1451503	REC_WORD	0.733	n/a	BEE	-999	12	[0, 0, 0]	n/a	FR1	2	R1158T
1444.825	1.687	1452236	REC_WORD	1.687	n/a	TOAD	-999	12	[0, 0, 0]	n/a	FR1	2	R1158T
1446.512	3.626	1453923	REC_WORD	3.626	n/a	BOY	-999	12	[0, 0, 0]	n/a	FR1	2	R1158T
1450.138	22.902	1457549	REC_WORD	22.902	n/a	WEED	-999	12	[0, 0, 0]	n/a	FR1	2	R1158T
1473.04	4.512	1480449	REC_END	n/a	n/a	n/a	-999	12	[0, 0, 0]	n/a	FR1	2	R1158T
1477.552	0.5	1484961	TRIAL	n/a	n/a	n/a	-999	13	[0, 0, 0]	n/a	FR1	2	R1158T
1478.052	10.428	1485461	COUNTDOWN_START	n/a	n/a	n/a	-999	13	[0, 0, 0]	n/a	FR1	2	R1158T
1488.48	0.008	1495888	COUNTDOWN_END	n/a	n/a	n/a	-999	13	[0, 0, 0]	n/a	FR1	2	R1158T
1488.488	1.618	1495896	ORIENT	n/a	n/a	n/a	-999	13	[0, 0, 0]	n/a	FR1	2	R1158T
1490.106	2.166	1497514	ORIENT_OFF	n/a	n/a	n/a	-999	13	[0, 0, 0]	n/a	FR1	2	R1158T
1492.272	1.617	1499680	WORD	n/a	wordpools/wordpool_EN.txt	WAND	1	13	[0, 0, 0]	n/a	FR1	2	R1158T
1493.889	0.967	1501297	WORD_OFF	n/a	n/a	WAND	1	13	[0, 0, 0]	n/a	FR1	2	R1158T
1494.856	1.617	1502264	WORD	n/a	wordpools/wordpool_EN.txt	JAIL	2	13	[0, 0, 0]	n/a	FR1	2	R1158T
1496.473	1.0	1503881	WORD_OFF	n/a	n/a	JAIL	2	13	[0, 0, 0]	n/a	FR1	2	R1158T
1497.473	1.618	1504881	WORD	n/a	wordpools/wordpool_EN.txt	NET	3	13	[0, 0, 0]	n/a	FR1	2	R1158T
1499.091	1.0	1506499	WORD_OFF	n/a	n/a	NET	3	13	[0, 0, 0]	n/a	FR1	2	R1158T
1500.091	1.616	1507499	WORD	n/a	wordpools/wordpool_EN.txt	HORSE	4	13	[0, 0, 0]	n/a	FR1	2	R1158T
1501.707	0.9	1509115	WORD_OFF	n/a	n/a	HORSE	4	13	[0, 0, 0]	n/a	FR1	2	R1158T
1502.607	1.601	1510015	WORD	n/a	wordpools/wordpool_EN.txt	BOMB	5	13	[0, 0, 0]	n/a	FR1	2	R1158T
1504.208	0.851	1511615	WORD_OFF	n/a	n/a	BOMB	5	13	[0, 0, 0]	n/a	FR1	2	R1158T
1505.059	1.615	1512466	WORD	n/a	wordpools/wordpool_EN.txt	STORE	6	13	[0, 0, 0]	n/a	FR1	2	R1158T
1506.674	1.017	1514081	WORD_OFF	n/a	n/a	STORE	6	13	[0, 0, 0]	n/a	FR1	2	R1158T
1507.691	1.617	1515098	WORD	n/a	wordpools/wordpool_EN.txt	BEAR	7	13	[0, 0, 0]	n/a	FR1	2	R1158T
1509.308	0.801	1516715	WORD_OFF	n/a	n/a	BEAR	7	13	[0, 0, 0]	n/a	FR1	2	R1158T
1510.109	1.616	1517516	WORD	n/a	wordpools/wordpool_EN.txt	WAVE	8	13	[0, 0, 0]	n/a	FR1	2	R1158T
1511.725	0.901	1519132	WORD_OFF	n/a	n/a	WAVE	8	13	[0, 0, 0]	n/a	FR1	2	R1158T
1512.626	1.617	1520033	WORD	n/a	wordpools/wordpool_EN.txt	SEED	9	13	[0, 0, 0]	n/a	FR1	2	R1158T
1514.243	0.966	1521650	WORD_OFF	n/a	n/a	SEED	9	13	[0, 0, 0]	n/a	FR1	2	R1158T
1515.209	1.617	1522616	WORD	n/a	wordpools/wordpool_EN.txt	STAR	10	13	[0, 0, 0]	n/a	FR1	2	R1158T
1516.826	0.917	1524233	WORD_OFF	n/a	n/a	STAR	10	13	[0, 0, 0]	n/a	FR1	2	R1158T
1517.743	1.617	1525150	WORD	n/a	wordpools/wordpool_EN.txt	TRASH	11	13	[0, 0, 0]	n/a	FR1	2	R1158T
1519.36	0.835	1526767	WORD_OFF	n/a	n/a	TRASH	11	13	[0, 0, 0]	n/a	FR1	2	R1158T
1520.195	1.616	1527602	WORD	n/a	wordpools/wordpool_EN.txt	CORD	12	13	[0, 0, 0]	n/a	FR1	2	R1158T
1521.811	0.0	1529217	WORD_OFF	n/a	n/a	CORD	12	13	[0, 0, 0]	n/a	FR1	2	R1158T
1521.811	0.0	1529217	DISTRACT_START	n/a	n/a	n/a	-999	13	[0, 0, 0]	n/a	FR1	2	R1158T
1521.811	0.016	1529217	START	n/a	n/a	n/a	-999	13	[-999, -999, -999]	n/a	FR1	2	R1158T
1521.827	7.001	1529233	PROB	7.001	n/a	n/a	-999	13	[7, 8, 2]	17	FR1	2	R1158T
1528.828	3.535	1536234	PROB	3.535	n/a	n/a	-999	13	[3, 6, 3]	12	FR1	2	R1158T
1532.363	4.084	1539769	PROB	4.084	n/a	n/a	-999	13	[7, 2, 3]	12	FR1	2	R1158T
1536.447	3.25	1543853	PROB	3.25	n/a	n/a	-999	13	[2, 8, 7]	17	FR1	2	R1158T
1539.697	3.613	1547102	PROB	3.613	n/a	n/a	-999	13	[4, 2, 2]	8	FR1	2	R1158T
1543.31	0.021	1550715	STOP	n/a	n/a	n/a	-999	13	[-999, -999, -999]	n/a	FR1	2	R1158T
1543.331	0.667	1550736	DISTRACT_END	n/a	n/a	n/a	-999	13	[0, 0, 0]	n/a	FR1	2	R1158T
1543.998	0.517	1551403	RETRIEVAL_ORIENT	n/a	n/a	n/a	-999	13	[0, 0, 0]	n/a	FR1	2	R1158T
1544.515	1.04	1551920	REC_START	n/a	n/a	n/a	-999	13	[0, 0, 0]	n/a	FR1	2	R1158T
1545.555	0.894	1552960	REC_WORD	0.894	n/a	JAIL	-999	13	[0, 0, 0]	n/a	FR1	2	R1158T
1546.449	1.043	1553854	REC_WORD	1.043	n/a	NET	-999	13	[0, 0, 0]	n/a	FR1	2	R1158T
1547.492	4.812	1554897	REC_WORD	4.812	n/a	COURSE	-999	13	[0, 0, 0]	n/a	FR1	2	R1158T
1552.304	10.31	1559709	REC_WORD	10.31	n/a	TRASH	-999	13	[0, 0, 0]	n/a	FR1	2	R1158T
1562.614	2.959	1570018	REC_WORD	2.959	n/a	CORD	-999	13	[0, 0, 0]	n/a	FR1	2	R1158T
1565.573	8.952	1572977	REC_WORD	8.952	n/a	STRAW	-999	13	[0, 0, 0]	n/a	FR1	2	R1158T
1574.525	5.346	1581928	REC_END	n/a	n/a	n/a	-999	13	[0, 0, 0]	n/a	FR1	2	R1158T
1579.871	0.5	1587274	TRIAL	n/a	n/a	n/a	-999	14	[0, 0, 0]	n/a	FR1	2	R1158T
1580.371	10.428	1587774	COUNTDOWN_START	n/a	n/a	n/a	-999	14	[0, 0, 0]	n/a	FR1	2	R1158T
1590.799	0.007	1598201	COUNTDOWN_END	n/a	n/a	n/a	-999	14	[0, 0, 0]	n/a	FR1	2	R1158T
1590.806	1.617	1598208	ORIENT	n/a	n/a	n/a	-999	14	[0, 0, 0]	n/a	FR1	2	R1158T
1592.423	1.785	1599825	ORIENT_OFF	n/a	n/a	n/a	-999	14	[0, 0, 0]	n/a	FR1	2	R1158T
1594.208	1.616	1601610	WORD	n/a	wordpools/wordpool_EN.txt	LAWN	1	14	[0, 0, 0]	n/a	FR1	2	R1158T
1595.824	0.85	1603226	WORD_OFF	n/a	n/a	LAWN	1	14	[0, 0, 0]	n/a	FR1	2	R1158T
1596.674	1.617	1604076	WORD	n/a	wordpools/wordpool_EN.txt	SMILE	2	14	[0, 0, 0]	n/a	FR1	2	R1158T
1598.291	0.851	1605693	WORD_OFF	n/a	n/a	SMILE	2	14	[0, 0, 0]	n/a	FR1	2	R1158T
1599.142	1.616	1606544	WORD	n/a	wordpools/wordpool_EN.txt	BEAK	3	14	[0, 0, 0]	n/a	FR1	2	R1158T
1600.758	0.95	1608160	WORD_OFF	n/a	n/a	BEAK	3	14	[0, 0, 0]	n/a	FR1	2	R1158T
1601.708	1.617	1609110	WORD	n/a	wordpools/wordpool_EN.txt	BOX	4	14	[0, 0, 0]	n/a	FR1	2	R1158T
1603.325	0.785	1610727	WORD_OFF	n/a	n/a	BOX	4	14	[0, 0, 0]	n/a	FR1	2	R1158T
1604.11	1.616	1611512	WORD	n/a	wordpools/wordpool_EN.txt	DITCH	5	14	[0, 0, 0]	n/a	FR1	2	R1158T
1605.726	1.0	1613127	WORD_OFF	n/a	n/a	DITCH	5	14	[0, 0, 0]	n/a	FR1	2	R1158T
1606.726	1.617	1614127	WORD	n/a	wordpools/wordpool_EN.txt	SIGN	6	14	[0, 0, 0]	n/a	FR1	2	R1158T
1608.343	0.934	1615744	WORD_OFF	n/a	n/a	SIGN	6	14	[0, 0, 0]	n/a	FR1	2	R1158T
1609.277	1.616	1616678	WORD	n/a	wordpools/wordpool_EN.txt	MULE	7	14	[0, 0, 0]	n/a	FR1	2	R1158T
1610.893	0.917	1618294	WORD_OFF	n/a	n/a	MULE	7	14	[0, 0, 0]	n/a	FR1	2	R1158T
1611.81	1.617	1619211	WORD	n/a	wordpools/wordpool_EN.txt	SHOE	8	14	[0, 0, 0]	n/a	FR1	2	R1158T
1613.427	0.8	1620828	WORD_OFF	n/a	n/a	SHOE	8	14	[0, 0, 0]	n/a	FR1	2	R1158T
1614.227	1.617	1621628	WORD	n/a	wordpools/wordpool_EN.txt	PIN	9	14	[0, 0, 0]	n/a	FR1	2	R1158T
1615.844	0.884	1623245	WORD_OFF	n/a	n/a	PIN	9	14	[0, 0, 0]	n/a	FR1	2	R1158T
1616.728	1.617	1624129	WORD	n/a	wordpools/wordpool_EN.txt	STICK	10	14	[0, 0, 0]	n/a	FR1	2	R1158T
1618.345	0.784	1625746	WORD_OFF	n/a	n/a	STICK	10	14	[0, 0, 0]	n/a	FR1	2	R1158T
1619.129	1.616	1626530	WORD	n/a	wordpools/wordpool_EN.txt	DOOR	11	14	[0, 0, 0]	n/a	FR1	2	R1158T
1620.745	0.884	1628146	WORD_OFF	n/a	n/a	DOOR	11	14	[0, 0, 0]	n/a	FR1	2	R1158T
1621.629	1.617	1629029	WORD	n/a	wordpools/wordpool_EN.txt	SEAT	12	14	[0, 0, 0]	n/a	FR1	2	R1158T
1623.246	0.0	1630646	DISTRACT_START	n/a	n/a	n/a	-999	14	[0, 0, 0]	n/a	FR1	2	R1158T
1623.246	0.0	1630646	WORD_OFF	n/a	n/a	SEAT	12	14	[0, 0, 0]	n/a	FR1	2	R1158T
1623.246	0.016	1630646	START	n/a	n/a	n/a	-999	14	[-999, -999, -999]	n/a	FR1	2	R1158T
1623.262	5.285	1630662	PROB	5.285	n/a	n/a	-999	14	[1, 9, 8]	18	FR1	2	R1158T
1628.547	4.684	1635947	PROB	4.684	n/a	n/a	-999	14	[7, 8, 8]	23	FR1	2	R1158T
1633.231	3.217	1640631	PROB	3.217	n/a	n/a	-999	14	[2, 8, 5]	15	FR1	2	R1158T
1636.448	5.384	1643848	PROB	5.384	n/a	n/a	-999	14	[6, 1, 9]	16	FR1	2	R1158T
1641.832	4.773	1649231	PROB	4.773	n/a	n/a	-999	14	[1, 3, 3]	7	FR1	2	R1158T
1646.605	0.012	1654004	STOP	n/a	n/a	n/a	-999	14	[-999, -999, -999]	n/a	FR1	2	R1158T
1646.617	0.584	1654016	DISTRACT_END	n/a	n/a	n/a	-999	14	[0, 0, 0]	n/a	FR1	2	R1158T
1647.201	0.517	1654600	RETRIEVAL_ORIENT	n/a	n/a	n/a	-999	14	[0, 0, 0]	n/a	FR1	2	R1158T
1647.718	1.338	1655117	REC_START	n/a	n/a	n/a	-999	14	[0, 0, 0]	n/a	FR1	2	R1158T
1649.056	1.047	1656455	REC_WORD	1.047	n/a	BEAK	-999	14	[0, 0, 0]	n/a	FR1	2	R1158T
1650.103	1.244	1657502	REC_WORD	1.244	n/a	BOX	-999	14	[0, 0, 0]	n/a	FR1	2	R1158T
1651.347	1.814	1658746	REC_WORD	1.814	n/a	SHOE	-999	14	[0, 0, 0]	n/a	FR1	2	R1158T
1653.161	2.802	1660560	REC_WORD	2.802	n/a	PEN	-999	14	[0, 0, 0]	n/a	FR1	2	R1158T
1655.963	12.004	1663361	REC_WORD	12.004	n/a	SEAT	-999	14	[0, 0, 0]	n/a	FR1	2	R1158T
1667.967	7.803	1675365	REC_WORD	7.803	n/a	POLE	-999	14	[0, 0, 0]	n/a	FR1	2	R1158T
1675.77	1.958	1683167	REC_WORD	1.958	n/a	RULE	-999	14	[0, 0, 0]	n/a	FR1	2	R1158T
1677.728	6.662	1685125	REC_END	n/a	n/a	n/a	-999	14	[0, 0, 0]	n/a	FR1	2	R1158T
1684.39	0.5	1691787	TRIAL	n/a	n/a	n/a	-999	15	[0, 0, 0]	n/a	FR1	2	R1158T
1684.89	10.428	1692287	COUNTDOWN_START	n/a	n/a	n/a	-999	15	[0, 0, 0]	n/a	FR1	2	R1158T
1695.318	0.008	1702714	COUNTDOWN_END	n/a	n/a	n/a	-999	15	[0, 0, 0]	n/a	FR1	2	R1158T
1695.326	1.616	1702722	ORIENT	n/a	n/a	n/a	-999	15	[0, 0, 0]	n/a	FR1	2	R1158T
1696.942	1.984	1704338	ORIENT_OFF	n/a	n/a	n/a	-999	15	[0, 0, 0]	n/a	FR1	2	R1158T
1698.926	1.617	1706322	WORD	n/a	wordpools/wordpool_EN.txt	GLOVE	1	15	[0, 0, 0]	n/a	FR1	2	R1158T
1700.543	0.984	1707939	WORD_OFF	n/a	n/a	GLOVE	1	15	[0, 0, 0]	n/a	FR1	2	R1158T
1701.527	1.618	1708923	WORD	n/a	wordpools/wordpool_EN.txt	RUG	2	15	[0, 0, 0]	n/a	FR1	2	R1158T
1703.145	0.849	1710541	WORD_OFF	n/a	n/a	RUG	2	15	[0, 0, 0]	n/a	FR1	2	R1158T
1703.994	1.617	1711390	WORD	n/a	wordpools/wordpool_EN.txt	FOOT	3	15	[0, 0, 0]	n/a	FR1	2	R1158T
1705.611	0.95	1713006	WORD_OFF	n/a	n/a	FOOT	3	15	[0, 0, 0]	n/a	FR1	2	R1158T
1706.561	1.618	1713956	WORD	n/a	wordpools/wordpool_EN.txt	ROSE	4	15	[0, 0, 0]	n/a	FR1	2	R1158T
1708.179	1.0	1715574	WORD_OFF	n/a	n/a	ROSE	4	15	[0, 0, 0]	n/a	FR1	2	R1158T
1709.179	1.616	1716574	WORD	n/a	wordpools/wordpool_EN.txt	ARM	5	15	[0, 0, 0]	n/a	FR1	2	R1158T
1710.795	0.984	1718190	WORD_OFF	n/a	n/a	ARM	5	15	[0, 0, 0]	n/a	FR1	2	R1158T
1711.779	1.616	1719174	WORD	n/a	wordpools/wordpool_EN.txt	WALL	6	15	[0, 0, 0]	n/a	FR1	2	R1158T
1713.395	0.884	1720790	WORD_OFF	n/a	n/a	WALL	6	15	[0, 0, 0]	n/a	FR1	2	R1158T
1714.279	1.617	1721674	WORD	n/a	wordpools/wordpool_EN.txt	SPOON	7	15	[0, 0, 0]	n/a	FR1	2	R1158T
1715.896	1.0	1723291	WORD_OFF	n/a	n/a	SPOON	7	15	[0, 0, 0]	n/a	FR1	2	R1158T
1716.896	1.617	1724291	WORD	n/a	wordpools/wordpool_EN.txt	MUG	8	15	[0, 0, 0]	n/a	FR1	2	R1158T
1718.513	0.867	1725908	WORD_OFF	n/a	n/a	MUG	8	15	[0, 0, 0]	n/a	FR1	2	R1158T
1719.38	1.617	1726775	WORD	n/a	wordpools/wordpool_EN.txt	PANTS	9	15	[0, 0, 0]	n/a	FR1	2	R1158T
1720.997	0.767	1728392	WORD_OFF	n/a	n/a	PANTS	9	15	[0, 0, 0]	n/a	FR1	2	R1158T
1721.764	1.617	1729159	WORD	n/a	wordpools/wordpool_EN.txt	BOOK	10	15	[0, 0, 0]	n/a	FR1	2	R1158T
1723.381	0.801	1730775	WORD_OFF	n/a	n/a	BOOK	10	15	[0, 0, 0]	n/a	FR1	2	R1158T
1724.182	1.616	1731576	WORD	n/a	wordpools/wordpool_EN.txt	SLUSH	11	15	[0, 0, 0]	n/a	FR1	2	R1158T
1725.798	0.85	1733192	WORD_OFF	n/a	n/a	SLUSH	11	15	[0, 0, 0]	n/a	FR1	2	R1158T
1726.648	1.617	1734042	WORD	n/a	wordpools/wordpool_EN.txt	PARK	12	15	[0, 0, 0]	n/a	FR1	2	R1158T
1728.265	0.0	1735659	DISTRACT_START	n/a	n/a	n/a	-999	15	[0, 0, 0]	n/a	FR1	2	R1158T
1728.265	0.0	1735659	WORD_OFF	n/a	n/a	PARK	12	15	[0, 0, 0]	n/a	FR1	2	R1158T
1728.265	0.016	1735659	START	n/a	n/a	n/a	-999	15	[-999, -999, -999]	n/a	FR1	2	R1158T
1728.281	5.702	1735675	PROB	5.702	n/a	n/a	-999	15	[8, 2, 7]	19	FR1	2	R1158T
1733.983	6.834	1741377	PROB	6.834	n/a	n/a	-999	15	[6, 9, 5]	20	FR1	2	R1158T
1740.817	4.252	1748210	PROB	4.252	n/a	n/a	-999	15	[2, 8, 6]	16	FR1	2	R1158T
1745.069	4.561	1752462	PROB	4.561	n/a	n/a	-999	15	[9, 2, 5]	16	FR1	2	R1158T
1749.63	0.022	1757023	STOP	n/a	n/a	n/a	-999	15	[-999, -999, -999]	n/a	FR1	2	R1158T
1749.652	0.6	1757045	DISTRACT_END	n/a	n/a	n/a	-999	15	[0, 0, 0]	n/a	FR1	2	R1158T
1750.252	0.518	1757645	RETRIEVAL_ORIENT	n/a	n/a	n/a	-999	15	[0, 0, 0]	n/a	FR1	2	R1158T
1750.77	0.999	1758163	REC_START	n/a	n/a	n/a	-999	15	[0, 0, 0]	n/a	FR1	2	R1158T
1751.769	0.897	1759162	REC_WORD	0.897	n/a	FOOT	-999	15	[0, 0, 0]	n/a	FR1	2	R1158T
1752.666	1.068	1760059	REC_WORD	1.068	n/a	ARM	-999	15	[0, 0, 0]	n/a	FR1	2	R1158T
1753.734	27.044	1761127	REC_WORD	27.044	n/a	WALL	-999	15	[0, 0, 0]	n/a	FR1	2	R1158T
1780.778	17.866	1788169	REC_END	n/a	n/a	n/a	-999	15	[0, 0, 0]	n/a	FR1	2	R1158T
1798.644	0.0	1806034	TRIAL	n/a	n/a	n/a	-999	16	[0, 0, 0]	n/a	FR1	2	R1158T
