onset	duration	sample	trial_type	response_time	stim_file	item_name	serialpos	list	test	answer	experiment	session	subject
0.0	18.668	218703	SESS_START	n/a	n/a	n/a	-999	-999	[0, 0, 0]	n/a	FR1	2	R1212P
18.668	10.428	237818	COUNTDOWN_START	n/a	n/a	n/a	-999	-999	[0, 0, 0]	n/a	FR1	2	R1212P
29.096	3.708	248496	COUNTDOWN_END	n/a	n/a	n/a	-999	-999	[0, 0, 0]	n/a	FR1	2	R1212P
32.804	2.484	252293	PRACTICE_WORD	n/a	n/a	ATTIC	1	-1	[0, 0, 0]	n/a	FR1	2	R1212P
35.288	2.501	254837	PRACTICE_WORD	n/a	n/a	WATCH	2	-1	[0, 0, 0]	n/a	FR1	2	R1212P
37.789	2.467	257397	PRACTICE_WORD	n/a	n/a	CAMEL	3	-1	[0, 0, 0]	n/a	FR1	2	R1212P
40.256	2.483	259924	PRACTICE_WORD	n/a	n/a	IRON	4	-1	[0, 0, 0]	n/a	FR1	2	R1212P
42.739	2.584	262466	PRACTICE_WORD	n/a	n/a	CHEST	5	-1	[0, 0, 0]	n/a	FR1	2	R1212P
45.323	2.484	265112	PRACTICE_WORD	n/a	n/a	TONGUE	6	-1	[0, 0, 0]	n/a	FR1	2	R1212P
47.807	2.551	267655	PRACTICE_WORD	n/a	n/a	BEAM	7	-1	[0, 0, 0]	n/a	FR1	2	R1212P
50.358	2.617	270268	PRACTICE_WORD	n/a	n/a	FLOOD	8	-1	[0, 0, 0]	n/a	FR1	2	R1212P
52.975	2.5	272947	PRACTICE_WORD	n/a	n/a	RHINO	9	-1	[0, 0, 0]	n/a	FR1	2	R1212P
55.475	2.467	275507	PRACTICE_WORD	n/a	n/a	COTTON	10	-1	[0, 0, 0]	n/a	FR1	2	R1212P
57.942	2.551	278033	PRACTICE_WORD	n/a	n/a	RING	11	-1	[0, 0, 0]	n/a	FR1	2	R1212P
60.493	1.617	280645	PRACTICE_WORD	n/a	n/a	WAGON	12	-1	[0, 0, 0]	n/a	FR1	2	R1212P
62.11	0.0	282301	PRACTICE_DISTRACT_START	n/a	n/a	n/a	-999	-1	[0, 0, 0]	n/a	FR1	2	R1212P
62.11	0.016	282301	START	n/a	n/a	n/a	-999	-1	[-999, -999, -999]	n/a	FR1	2	R1212P
62.126	6.285	282317	PROB	6.285	n/a	n/a	-999	-1	[8, 5, 4]	15	FR1	2	R1212P
68.411	5.268	288753	PROB	5.268	n/a	n/a	-999	-1	[4, 1, 7]	12	FR1	2	R1212P
73.679	5.134	294147	PROB	5.134	n/a	n/a	-999	-1	[3, 7, 6]	16	FR1	2	R1212P
78.813	3.878	299404	PROB	3.878	n/a	n/a	-999	-1	[6, 5, 3]	14	FR1	2	R1212P
82.691	0.006	303375	STOP	n/a	n/a	n/a	-999	-1	[-999, -999, -999]	n/a	FR1	2	R1212P
82.697	0.702	303381	PRACTICE_DISTRACT_END	n/a	n/a	n/a	-999	-1	[0, 0, 0]	n/a	FR1	2	R1212P
83.399	30.515	304100	PRACTICE_REC_START	n/a	n/a	n/a	-999	-1	[0, 0, 0]	n/a	FR1	2	R1212P
113.914	11.341	335346	PRACTICE_REC_END	n/a	n/a	n/a	-999	-1	[0, 0, 0]	n/a	FR1	2	R1212P
125.255	0.0	346958	TRIAL	n/a	n/a	n/a	-999	1	[0, 0, 0]	n/a	FR1	2	R1212P
125.255	10.428	346958	COUNTDOWN_START	n/a	n/a	n/a	-999	1	[0, 0, 0]	n/a	FR1	2	R1212P
135.683	0.007	357636	COUNTDOWN_END	n/a	n/a	n/a	-999	1	[0, 0, 0]	n/a	FR1	2	R1212P
135.69	2.484	357643	ORIENT	n/a	n/a	n/a	-999	1	[0, 0, 0]	n/a	FR1	2	R1212P
138.174	2.617	360187	WORD	n/a	wordpools/wordpool_EN.txt	SUN	1	1	[0, 0, 0]	n/a	FR1	2	R1212P
140.791	2.534	362867	WORD	n/a	wordpools/wordpool_EN.txt	FILM	2	1	[0, 0, 0]	n/a	FR1	2	R1212P
143.325	2.517	365461	WORD	n/a	wordpools/wordpool_EN.txt	STAR	3	1	[0, 0, 0]	n/a	FR1	2	R1212P
145.842	2.451	368039	WORD	n/a	wordpools/wordpool_EN.txt	GLOVE	4	1	[0, 0, 0]	n/a	FR1	2	R1212P
148.293	2.434	370548	WORD	n/a	wordpools/wordpool_EN.txt	PLATE	5	1	[0, 0, 0]	n/a	FR1	2	R1212P
150.727	2.617	373041	WORD	n/a	wordpools/wordpool_EN.txt	PEACH	6	1	[0, 0, 0]	n/a	FR1	2	R1212P
153.344	2.383	375720	WORD	n/a	wordpools/wordpool_EN.txt	CLOUD	7	1	[0, 0, 0]	n/a	FR1	2	R1212P
155.727	2.384	378160	WORD	n/a	wordpools/wordpool_EN.txt	ARK	8	1	[0, 0, 0]	n/a	FR1	2	R1212P
158.111	2.401	380601	WORD	n/a	wordpools/wordpool_EN.txt	CLAY	9	1	[0, 0, 0]	n/a	FR1	2	R1212P
160.512	2.4	383060	WORD	n/a	wordpools/wordpool_EN.txt	EAR	10	1	[0, 0, 0]	n/a	FR1	2	R1212P
162.912	2.517	385517	WORD	n/a	wordpools/wordpool_EN.txt	WAVE	11	1	[0, 0, 0]	n/a	FR1	2	R1212P
165.429	1.617	388095	WORD	n/a	wordpools/wordpool_EN.txt	MOON	12	1	[0, 0, 0]	n/a	FR1	2	R1212P
167.046	0.001	389750	DISTRACT_START	n/a	n/a	n/a	-999	1	[0, 0, 0]	n/a	FR1	2	R1212P
167.047	0.016	389751	START	n/a	n/a	n/a	-999	1	[-999, -999, -999]	n/a	FR1	2	R1212P
167.063	4.234	389768	PROB	4.234	n/a	n/a	-999	1	[1, 3, 6]	9	FR1	2	R1212P
171.297	7.585	394103	PROB	7.585	n/a	n/a	-999	1	[2, 9, 5]	16	FR1	2	R1212P
178.882	3.15	401870	PROB	3.15	n/a	n/a	-999	1	[4, 9, 4]	17	FR1	2	R1212P
182.032	3.868	405095	PROB	3.868	n/a	n/a	-999	1	[8, 4, 6]	18	FR1	2	R1212P
185.9	4.632	409056	PROB	4.632	n/a	n/a	-999	1	[5, 6, 7]	18	FR1	2	R1212P
190.532	0.018	413799	STOP	n/a	n/a	n/a	-999	1	[-999, -999, -999]	n/a	FR1	2	R1212P
190.55	1.172	413817	DISTRACT_END	n/a	n/a	n/a	-999	1	[0, 0, 0]	n/a	FR1	2	R1212P
191.722	6.45	415017	REC_START	n/a	n/a	n/a	-999	1	[0, 0, 0]	n/a	FR1	2	R1212P
198.172	1.0	421622	REC_WORD_VV	1.0	n/a	<>	-999	1	[0, 0, 0]	n/a	FR1	2	R1212P
199.172	5.796	422646	REC_WORD_VV	5.796	n/a	<>	-999	1	[0, 0, 0]	n/a	FR1	2	R1212P
204.968	1.0	428581	REC_WORD_VV	1.0	n/a	<>	-999	1	[0, 0, 0]	n/a	FR1	2	R1212P
205.968	2.803	429605	REC_WORD_VV	2.803	n/a	<>	-999	1	[0, 0, 0]	n/a	FR1	2	R1212P
208.771	2.272	432475	REC_WORD_VV	2.272	n/a	<>	-999	1	[0, 0, 0]	n/a	FR1	2	R1212P
211.043	1.0	434801	REC_WORD_VV	1.0	n/a	<>	-999	1	[0, 0, 0]	n/a	FR1	2	R1212P
212.043	6.909	435825	REC_WORD_VV	6.909	n/a	<>	-999	1	[0, 0, 0]	n/a	FR1	2	R1212P
218.952	1.0	442900	REC_WORD_VV	1.0	n/a	<>	-999	1	[0, 0, 0]	n/a	FR1	2	R1212P
219.952	1.777	443924	REC_WORD_VV	1.777	n/a	<>	-999	1	[0, 0, 0]	n/a	FR1	2	R1212P
221.729	12.43	445743	REC_END	n/a	n/a	n/a	-999	1	[0, 0, 0]	n/a	FR1	2	R1212P
234.159	0.0	458471	TRIAL	n/a	n/a	n/a	-999	2	[0, 0, 0]	n/a	FR1	2	R1212P
234.159	10.428	458471	COUNTDOWN_START	n/a	n/a	n/a	-999	2	[0, 0, 0]	n/a	FR1	2	R1212P
244.587	0.006	469149	COUNTDOWN_END	n/a	n/a	n/a	-999	2	[0, 0, 0]	n/a	FR1	2	R1212P
244.593	2.468	469155	ORIENT	n/a	n/a	n/a	-999	2	[0, 0, 0]	n/a	FR1	2	R1212P
247.061	2.533	471682	WORD	n/a	wordpools/wordpool_EN.txt	SPONGE	1	2	[0, 0, 0]	n/a	FR1	2	R1212P
249.594	2.485	474276	WORD	n/a	wordpools/wordpool_EN.txt	PIT	2	2	[0, 0, 0]	n/a	FR1	2	R1212P
252.079	2.4	476820	WORD	n/a	wordpools/wordpool_EN.txt	SNAIL	3	2	[0, 0, 0]	n/a	FR1	2	R1212P
254.479	2.551	479278	WORD	n/a	wordpools/wordpool_EN.txt	DEER	4	2	[0, 0, 0]	n/a	FR1	2	R1212P
257.03	2.484	481890	WORD	n/a	wordpools/wordpool_EN.txt	PALM	5	2	[0, 0, 0]	n/a	FR1	2	R1212P
259.514	2.383	484433	WORD	n/a	wordpools/wordpool_EN.txt	MUD	6	2	[0, 0, 0]	n/a	FR1	2	R1212P
261.897	2.484	486873	WORD	n/a	wordpools/wordpool_EN.txt	DART	7	2	[0, 0, 0]	n/a	FR1	2	R1212P
264.381	2.467	489417	WORD	n/a	wordpools/wordpool_EN.txt	TENT	8	2	[0, 0, 0]	n/a	FR1	2	R1212P
266.848	2.584	491943	WORD	n/a	wordpools/wordpool_EN.txt	FISH	9	2	[0, 0, 0]	n/a	FR1	2	R1212P
269.432	2.5	494589	WORD	n/a	wordpools/wordpool_EN.txt	SHRIMP	10	2	[0, 0, 0]	n/a	FR1	2	R1212P
271.932	2.518	497149	WORD	n/a	wordpools/wordpool_EN.txt	SNAKE	11	2	[0, 0, 0]	n/a	FR1	2	R1212P
274.45	1.617	499727	WORD	n/a	wordpools/wordpool_EN.txt	VINE	12	2	[0, 0, 0]	n/a	FR1	2	R1212P
276.067	0.001	501383	DISTRACT_START	n/a	n/a	n/a	-999	2	[0, 0, 0]	n/a	FR1	2	R1212P
276.068	0.015	501384	START	n/a	n/a	n/a	-999	2	[-999, -999, -999]	n/a	FR1	2	R1212P
276.083	4.918	501399	PROB	4.918	n/a	n/a	-999	2	[4, 7, 2]	13	FR1	2	R1212P
281.001	4.284	506435	PROB	4.284	n/a	n/a	-999	2	[5, 7, 2]	14	FR1	2	R1212P
285.285	3.367	510821	PROB	3.367	n/a	n/a	-999	2	[2, 2, 5]	9	FR1	2	R1212P
288.652	2.751	514269	PROB	2.751	n/a	n/a	-999	2	[8, 4, 2]	14	FR1	2	R1212P
291.403	4.183	517086	PROB	4.183	n/a	n/a	-999	2	[7, 6, 6]	19	FR1	2	R1212P
295.586	3.122	521369	PROB	3.122	n/a	n/a	-999	2	[5, 2, 1]	8	FR1	2	R1212P
298.708	0.013	524566	STOP	n/a	n/a	n/a	-999	2	[-999, -999, -999]	n/a	FR1	2	R1212P
298.721	1.218	524579	DISTRACT_END	n/a	n/a	n/a	-999	2	[0, 0, 0]	n/a	FR1	2	R1212P
299.939	4.04	525826	REC_START	n/a	n/a	n/a	-999	2	[0, 0, 0]	n/a	FR1	2	R1212P
303.979	1.148	529963	REC_WORD	1.148	n/a	SNAKE	11	2	[0, 0, 0]	n/a	FR1	2	R1212P
305.127	8.872	531139	REC_WORD	8.872	n/a	PIT	2	2	[0, 0, 0]	n/a	FR1	2	R1212P
313.999	15.949	540223	REC_WORD_VV	15.949	n/a	<>	-999	2	[0, 0, 0]	n/a	FR1	2	R1212P
329.948	4.363	556554	REC_END	n/a	n/a	n/a	-999	2	[0, 0, 0]	n/a	FR1	2	R1212P
334.311	0.0	561022	TRIAL	n/a	n/a	n/a	-999	3	[0, 0, 0]	n/a	FR1	2	R1212P
334.311	10.428	561022	COUNTDOWN_START	n/a	n/a	n/a	-999	3	[0, 0, 0]	n/a	FR1	2	R1212P
344.739	0.007	571700	COUNTDOWN_END	n/a	n/a	n/a	-999	3	[0, 0, 0]	n/a	FR1	2	R1212P
344.746	2.517	571707	ORIENT	n/a	n/a	n/a	-999	3	[0, 0, 0]	n/a	FR1	2	R1212P
347.263	2.567	574284	WORD	n/a	wordpools/wordpool_EN.txt	PANTS	1	3	[0, 0, 0]	n/a	FR1	2	R1212P
349.83	2.601	576912	WORD	n/a	wordpools/wordpool_EN.txt	PEN	2	3	[0, 0, 0]	n/a	FR1	2	R1212P
352.431	2.517	579576	WORD	n/a	wordpools/wordpool_EN.txt	SHEEP	3	3	[0, 0, 0]	n/a	FR1	2	R1212P
354.948	2.6	582153	WORD	n/a	wordpools/wordpool_EN.txt	BATH	4	3	[0, 0, 0]	n/a	FR1	2	R1212P
357.548	2.601	584815	WORD	n/a	wordpools/wordpool_EN.txt	BED	5	3	[0, 0, 0]	n/a	FR1	2	R1212P
360.149	2.6	587479	WORD	n/a	wordpools/wordpool_EN.txt	SMILE	6	3	[0, 0, 0]	n/a	FR1	2	R1212P
362.749	2.584	590141	WORD	n/a	wordpools/wordpool_EN.txt	RIB	7	3	[0, 0, 0]	n/a	FR1	2	R1212P
365.333	2.484	592787	WORD	n/a	wordpools/wordpool_EN.txt	FOAM	8	3	[0, 0, 0]	n/a	FR1	2	R1212P
367.817	2.434	595330	WORD	n/a	wordpools/wordpool_EN.txt	PIG	9	3	[0, 0, 0]	n/a	FR1	2	R1212P
370.251	2.584	597823	WORD	n/a	wordpools/wordpool_EN.txt	CROW	10	3	[0, 0, 0]	n/a	FR1	2	R1212P
372.835	2.417	600468	WORD	n/a	wordpools/wordpool_EN.txt	THREAD	11	3	[0, 0, 0]	n/a	FR1	2	R1212P
375.252	1.617	602943	WORD	n/a	wordpools/wordpool_EN.txt	TRAY	12	3	[0, 0, 0]	n/a	FR1	2	R1212P
376.869	0.001	604599	DISTRACT_START	n/a	n/a	n/a	-999	3	[0, 0, 0]	n/a	FR1	2	R1212P
376.87	0.016	604600	START	n/a	n/a	n/a	-999	3	[-999, -999, -999]	n/a	FR1	2	R1212P
376.886	3.0	604616	PROB	3.0	n/a	n/a	-999	3	[8, 3, 3]	14	FR1	2	R1212P
379.886	2.384	607688	PROB	2.384	n/a	n/a	-999	3	[1, 1, 7]	9	FR1	2	R1212P
382.27	2.667	610129	PROB	2.667	n/a	n/a	-999	3	[1, 7, 4]	12	FR1	2	R1212P
384.937	3.967	612860	PROB	3.967	n/a	n/a	-999	3	[2, 9, 7]	18	FR1	2	R1212P
388.904	4.451	616922	PROB	4.451	n/a	n/a	-999	3	[1, 4, 8]	13	FR1	2	R1212P
393.355	2.501	621480	PROB	2.501	n/a	n/a	-999	3	[2, 7, 1]	10	FR1	2	R1212P
395.856	4.804	624041	PROB	4.804	n/a	n/a	-999	3	[9, 7, 7]	23	FR1	2	R1212P
400.66	0.013	628960	STOP	n/a	n/a	n/a	-999	3	[-999, -999, -999]	n/a	FR1	2	R1212P
400.673	1.201	628973	DISTRACT_END	n/a	n/a	n/a	-999	3	[0, 0, 0]	n/a	FR1	2	R1212P
401.874	1.492	630203	REC_START	n/a	n/a	n/a	-999	3	[0, 0, 0]	n/a	FR1	2	R1212P
403.366	1.302	631731	REC_WORD	1.302	n/a	SHEEP	3	3	[0, 0, 0]	n/a	FR1	2	R1212P
404.668	1.503	633064	REC_WORD	1.503	n/a	PEN	2	3	[0, 0, 0]	n/a	FR1	2	R1212P
406.171	1.905	634603	REC_WORD	1.905	n/a	RIB	7	3	[0, 0, 0]	n/a	FR1	2	R1212P
408.076	7.961	636554	REC_WORD	7.961	n/a	SMILE	6	3	[0, 0, 0]	n/a	FR1	2	R1212P
416.037	2.362	644705	REC_WORD	2.362	n/a	BATH	4	3	[0, 0, 0]	n/a	FR1	2	R1212P
418.399	13.487	647124	REC_WORD	13.487	n/a	BED	5	3	[0, 0, 0]	n/a	FR1	2	R1212P
431.886	3.861	660934	REC_END	n/a	n/a	n/a	-999	3	[0, 0, 0]	n/a	FR1	2	R1212P
435.747	0.0	664887	TRIAL	n/a	n/a	n/a	-999	4	[0, 0, 0]	n/a	FR1	2	R1212P
435.747	10.428	664887	COUNTDOWN_START	n/a	n/a	n/a	-999	4	[0, 0, 0]	n/a	FR1	2	R1212P
446.175	0.007	675565	COUNTDOWN_END	n/a	n/a	n/a	-999	4	[0, 0, 0]	n/a	FR1	2	R1212P
446.182	2.467	675572	ORIENT	n/a	n/a	n/a	-999	4	[0, 0, 0]	n/a	FR1	2	R1212P
448.649	2.567	678098	WORD	n/a	wordpools/wordpool_EN.txt	BEE	1	4	[0, 0, 0]	n/a	FR1	2	R1212P
451.216	2.551	680727	WORD	n/a	wordpools/wordpool_EN.txt	WOOD	2	4	[0, 0, 0]	n/a	FR1	2	R1212P
453.767	2.45	683339	WORD	n/a	wordpools/wordpool_EN.txt	ROOT	3	4	[0, 0, 0]	n/a	FR1	2	R1212P
456.217	2.416	685848	WORD	n/a	wordpools/wordpool_EN.txt	NOSE	4	4	[0, 0, 0]	n/a	FR1	2	R1212P
458.633	2.485	688321	WORD	n/a	wordpools/wordpool_EN.txt	CAT	5	4	[0, 0, 0]	n/a	FR1	2	R1212P
461.118	2.499	690866	WORD	n/a	wordpools/wordpool_EN.txt	SKUNK	6	4	[0, 0, 0]	n/a	FR1	2	R1212P
463.617	2.402	693425	WORD	n/a	wordpools/wordpool_EN.txt	BRANCH	7	4	[0, 0, 0]	n/a	FR1	2	R1212P
466.019	2.533	695884	WORD	n/a	wordpools/wordpool_EN.txt	FROG	8	4	[0, 0, 0]	n/a	FR1	2	R1212P
468.552	2.601	698478	WORD	n/a	wordpools/wordpool_EN.txt	FRUIT	9	4	[0, 0, 0]	n/a	FR1	2	R1212P
471.153	2.567	701141	WORD	n/a	wordpools/wordpool_EN.txt	STREET	10	4	[0, 0, 0]	n/a	FR1	2	R1212P
473.72	2.568	703770	WORD	n/a	wordpools/wordpool_EN.txt	STORE	11	4	[0, 0, 0]	n/a	FR1	2	R1212P
476.288	1.616	706399	WORD	n/a	wordpools/wordpool_EN.txt	CHEEK	12	4	[0, 0, 0]	n/a	FR1	2	R1212P
477.904	0.001	708054	DISTRACT_START	n/a	n/a	n/a	-999	4	[0, 0, 0]	n/a	FR1	2	R1212P
477.905	0.016	708055	START	n/a	n/a	n/a	-999	4	[-999, -999, -999]	n/a	FR1	2	R1212P
477.921	5.351	708071	PROB	5.351	n/a	n/a	-999	4	[7, 8, 8]	23	FR1	2	R1212P
483.272	2.817	713551	PROB	2.817	n/a	n/a	-999	4	[6, 9, 1]	16	FR1	2	R1212P
486.089	4.551	716435	PROB	4.551	n/a	n/a	-999	4	[8, 4, 7]	19	FR1	2	R1212P
490.64	2.601	721095	PROB	2.601	n/a	n/a	-999	4	[4, 6, 4]	16	FR1	2	R1212P
493.241	4.45	723758	PROB	4.45	n/a	n/a	-999	4	[6, 3, 5]	14	FR1	2	R1212P
497.691	3.92	728315	PROB	3.92	n/a	n/a	-999	4	[3, 3, 9]	15	FR1	2	R1212P
501.611	0.014	732329	STOP	n/a	n/a	n/a	-999	4	[-999, -999, -999]	n/a	FR1	2	R1212P
501.625	1.185	732343	DISTRACT_END	n/a	n/a	n/a	-999	4	[0, 0, 0]	n/a	FR1	2	R1212P
502.81	2.574	733557	REC_START	n/a	n/a	n/a	-999	4	[0, 0, 0]	n/a	FR1	2	R1212P
505.384	0.735	736192	REC_WORD_VV	0.735	n/a	<>	-999	4	[0, 0, 0]	n/a	FR1	2	R1212P
506.119	0.907	736945	REC_WORD	0.907	n/a	BEE	1	4	[0, 0, 0]	n/a	FR1	2	R1212P
507.026	2.921	737874	REC_WORD	2.921	n/a	ROOT	3	4	[0, 0, 0]	n/a	FR1	2	R1212P
509.947	11.707	740865	REC_WORD_VV	11.707	n/a	<>	-999	4	[0, 0, 0]	n/a	FR1	2	R1212P
521.654	5.073	752852	REC_WORD	5.073	n/a	STREET	10	4	[0, 0, 0]	n/a	FR1	2	R1212P
526.727	6.093	758046	REC_WORD	6.093	n/a	WOOD	2	4	[0, 0, 0]	n/a	FR1	2	R1212P
532.82	2.529	764285	REC_END	n/a	n/a	n/a	-999	4	[0, 0, 0]	n/a	FR1	2	R1212P
535.349	0.0	766875	TRIAL	n/a	n/a	n/a	-999	5	[0, 0, 0]	n/a	FR1	2	R1212P
535.349	10.428	766875	COUNTDOWN_START	n/a	n/a	n/a	-999	5	[0, 0, 0]	n/a	FR1	2	R1212P
545.777	0.007	777553	COUNTDOWN_END	n/a	n/a	n/a	-999	5	[0, 0, 0]	n/a	FR1	2	R1212P
545.784	2.417	777560	ORIENT	n/a	n/a	n/a	-999	5	[0, 0, 0]	n/a	FR1	2	R1212P
548.201	2.433	780035	WORD	n/a	wordpools/wordpool_EN.txt	PASTE	1	5	[0, 0, 0]	n/a	FR1	2	R1212P
550.634	2.585	782526	WORD	n/a	wordpools/wordpool_EN.txt	SUIT	2	5	[0, 0, 0]	n/a	FR1	2	R1212P
553.219	2.517	785173	WORD	n/a	wordpools/wordpool_EN.txt	THUMB	3	5	[0, 0, 0]	n/a	FR1	2	R1212P
555.736	2.467	787750	WORD	n/a	wordpools/wordpool_EN.txt	CHIEF	4	5	[0, 0, 0]	n/a	FR1	2	R1212P
558.203	2.467	790276	WORD	n/a	wordpools/wordpool_EN.txt	JUDGE	5	5	[0, 0, 0]	n/a	FR1	2	R1212P
560.67	2.484	792802	WORD	n/a	wordpools/wordpool_EN.txt	BANK	6	5	[0, 0, 0]	n/a	FR1	2	R1212P
563.154	2.416	795346	WORD	n/a	wordpools/wordpool_EN.txt	CLIFF	7	5	[0, 0, 0]	n/a	FR1	2	R1212P
565.57	2.518	797820	WORD	n/a	wordpools/wordpool_EN.txt	SPEAR	8	5	[0, 0, 0]	n/a	FR1	2	R1212P
568.088	2.584	800398	WORD	n/a	wordpools/wordpool_EN.txt	COIN	9	5	[0, 0, 0]	n/a	FR1	2	R1212P
570.672	2.417	803044	WORD	n/a	wordpools/wordpool_EN.txt	BEAN	10	5	[0, 0, 0]	n/a	FR1	2	R1212P
573.089	2.584	805519	WORD	n/a	wordpools/wordpool_EN.txt	RICE	11	5	[0, 0, 0]	n/a	FR1	2	R1212P
575.673	1.617	808165	WORD	n/a	wordpools/wordpool_EN.txt	MOOSE	12	5	[0, 0, 0]	n/a	FR1	2	R1212P
577.29	0.001	809821	DISTRACT_START	n/a	n/a	n/a	-999	5	[0, 0, 0]	n/a	FR1	2	R1212P
577.291	0.015	809822	START	n/a	n/a	n/a	-999	5	[-999, -999, -999]	n/a	FR1	2	R1212P
577.306	4.335	809837	PROB	4.335	n/a	n/a	-999	5	[8, 4, 7]	19	FR1	2	R1212P
581.641	3.667	814276	PROB	3.667	n/a	n/a	-999	5	[6, 3, 4]	13	FR1	2	R1212P
585.308	2.817	818031	PROB	2.817	n/a	n/a	-999	5	[7, 1, 6]	14	FR1	2	R1212P
588.125	2.317	820915	PROB	2.317	n/a	n/a	-999	5	[1, 1, 7]	9	FR1	2	R1212P
590.442	2.817	823288	PROB	2.817	n/a	n/a	-999	5	[5, 4, 6]	15	FR1	2	R1212P
593.259	3.634	826172	PROB	3.634	n/a	n/a	-999	5	[1, 5, 1]	7	FR1	2	R1212P
596.893	3.734	829893	PROB	3.734	n/a	n/a	-999	5	[3, 1, 8]	12	FR1	2	R1212P
600.627	0.017	833717	STOP	n/a	n/a	n/a	-999	5	[-999, -999, -999]	n/a	FR1	2	R1212P
600.644	1.151	833734	DISTRACT_END	n/a	n/a	n/a	-999	5	[0, 0, 0]	n/a	FR1	2	R1212P
601.795	11.748	834913	REC_START	n/a	n/a	n/a	-999	5	[0, 0, 0]	n/a	FR1	2	R1212P
613.543	1.726	846942	REC_WORD_VV	1.726	n/a	<>	-999	5	[0, 0, 0]	n/a	FR1	2	R1212P
615.269	16.536	848709	REC_WORD_VV	16.536	n/a	<>	-999	5	[0, 0, 0]	n/a	FR1	2	R1212P
631.805	4.279	865641	REC_END	n/a	n/a	n/a	-999	5	[0, 0, 0]	n/a	FR1	2	R1212P
636.084	0.0	870023	COUNTDOWN_START	n/a	n/a	n/a	-999	6	[0, 0, 0]	n/a	FR1	2	R1212P
636.084	10.428	870023	TRIAL	n/a	n/a	n/a	-999	6	[0, 0, 0]	n/a	FR1	2	R1212P
646.512	0.007	880701	COUNTDOWN_END	n/a	n/a	n/a	-999	6	[0, 0, 0]	n/a	FR1	2	R1212P
646.519	2.418	880708	ORIENT	n/a	n/a	n/a	-999	6	[0, 0, 0]	n/a	FR1	2	R1212P
648.937	2.517	883184	WORD	n/a	wordpools/wordpool_EN.txt	JAR	1	6	[0, 0, 0]	n/a	FR1	2	R1212P
651.454	2.6	885761	WORD	n/a	wordpools/wordpool_EN.txt	STORM	2	6	[0, 0, 0]	n/a	FR1	2	R1212P
654.054	2.55	888423	WORD	n/a	wordpools/wordpool_EN.txt	OAR	3	6	[0, 0, 0]	n/a	FR1	2	R1212P
656.604	2.501	891034	WORD	n/a	wordpools/wordpool_EN.txt	STAIR	4	6	[0, 0, 0]	n/a	FR1	2	R1212P
659.105	2.5	893595	WORD	n/a	wordpools/wordpool_EN.txt	WORM	5	6	[0, 0, 0]	n/a	FR1	2	R1212P
661.605	2.584	896155	WORD	n/a	wordpools/wordpool_EN.txt	MOTH	6	6	[0, 0, 0]	n/a	FR1	2	R1212P
664.189	2.4	898801	WORD	n/a	wordpools/wordpool_EN.txt	SOAP	7	6	[0, 0, 0]	n/a	FR1	2	R1212P
666.589	2.418	901258	WORD	n/a	wordpools/wordpool_EN.txt	CLOTH	8	6	[0, 0, 0]	n/a	FR1	2	R1212P
669.007	2.583	903734	WORD	n/a	wordpools/wordpool_EN.txt	WEB	9	6	[0, 0, 0]	n/a	FR1	2	R1212P
671.59	2.485	906379	WORD	n/a	wordpools/wordpool_EN.txt	DIME	10	6	[0, 0, 0]	n/a	FR1	2	R1212P
674.075	2.617	908924	WORD	n/a	wordpools/wordpool_EN.txt	CRANE	11	6	[0, 0, 0]	n/a	FR1	2	R1212P
676.692	1.617	911603	WORD	n/a	wordpools/wordpool_EN.txt	STRAW	12	6	[0, 0, 0]	n/a	FR1	2	R1212P
678.309	0.001	913259	DISTRACT_START	n/a	n/a	n/a	-999	6	[0, 0, 0]	n/a	FR1	2	R1212P
678.31	0.015	913260	START	n/a	n/a	n/a	-999	6	[-999, -999, -999]	n/a	FR1	2	R1212P
678.325	3.818	913276	PROB	3.818	n/a	n/a	-999	6	[9, 2, 5]	16	FR1	2	R1212P
682.143	3.684	917185	PROB	3.684	n/a	n/a	-999	6	[8, 5, 2]	15	FR1	2	R1212P
685.827	3.934	920957	PROB	3.934	n/a	n/a	-999	6	[5, 3, 8]	16	FR1	2	R1212P
689.761	3.35	924985	PROB	3.35	n/a	n/a	-999	6	[1, 7, 5]	13	FR1	2	R1212P
693.111	3.418	928416	PROB	3.418	n/a	n/a	-999	6	[9, 6, 2]	17	FR1	2	R1212P
696.529	3.979	931916	PROB	3.979	n/a	n/a	-999	6	[9, 1, 6]	16	FR1	2	R1212P
700.508	0.005	935990	STOP	n/a	n/a	n/a	-999	6	[-999, -999, -999]	n/a	FR1	2	R1212P
700.513	1.116	935995	DISTRACT_END	n/a	n/a	n/a	-999	6	[0, 0, 0]	n/a	FR1	2	R1212P
701.629	5.532	937138	REC_START	n/a	n/a	n/a	-999	6	[0, 0, 0]	n/a	FR1	2	R1212P
707.161	1.953	942802	REC_WORD_VV	1.953	n/a	<>	-999	6	[0, 0, 0]	n/a	FR1	2	R1212P
709.114	0.11	944802	REC_WORD_VV	0.11	n/a	<>	-999	6	[0, 0, 0]	n/a	FR1	2	R1212P
709.224	22.42	944915	REC_WORD	22.42	n/a	JAR	1	6	[0, 0, 0]	n/a	FR1	2	R1212P
731.644	1.875	967872	REC_END	n/a	n/a	n/a	-999	6	[0, 0, 0]	n/a	FR1	2	R1212P
733.519	0.0	969792	TRIAL	n/a	n/a	n/a	-999	7	[0, 0, 0]	n/a	FR1	2	R1212P
733.519	10.428	969792	COUNTDOWN_START	n/a	n/a	n/a	-999	7	[0, 0, 0]	n/a	FR1	2	R1212P
743.947	0.007	980469	COUNTDOWN_END	n/a	n/a	n/a	-999	7	[0, 0, 0]	n/a	FR1	2	R1212P
743.954	2.401	980477	ORIENT	n/a	n/a	n/a	-999	7	[0, 0, 0]	n/a	FR1	2	R1212P
746.355	2.534	982935	WORD	n/a	wordpools/wordpool_EN.txt	CHALK	1	7	[0, 0, 0]	n/a	FR1	2	R1212P
748.889	2.467	985530	WORD	n/a	wordpools/wordpool_EN.txt	ICE	2	7	[0, 0, 0]	n/a	FR1	2	R1212P
751.356	2.5	988056	WORD	n/a	wordpools/wordpool_EN.txt	CONE	3	7	[0, 0, 0]	n/a	FR1	2	R1212P
753.856	2.601	990616	WORD	n/a	wordpools/wordpool_EN.txt	WEED	4	7	[0, 0, 0]	n/a	FR1	2	R1212P
756.457	2.5	993279	WORD	n/a	wordpools/wordpool_EN.txt	MULE	5	7	[0, 0, 0]	n/a	FR1	2	R1212P
758.957	2.534	995839	WORD	n/a	wordpools/wordpool_EN.txt	TAIL	6	7	[0, 0, 0]	n/a	FR1	2	R1212P
761.491	2.4	998434	WORD	n/a	wordpools/wordpool_EN.txt	SNOW	7	7	[0, 0, 0]	n/a	FR1	2	R1212P
763.891	2.551	1000891	WORD	n/a	wordpools/wordpool_EN.txt	FOG	8	7	[0, 0, 0]	n/a	FR1	2	R1212P
766.442	2.6	1003503	WORD	n/a	wordpools/wordpool_EN.txt	SHIELD	9	7	[0, 0, 0]	n/a	FR1	2	R1212P
769.042	2.467	1006165	WORD	n/a	wordpools/wordpool_EN.txt	PARK	10	7	[0, 0, 0]	n/a	FR1	2	R1212P
771.509	2.434	1008691	WORD	n/a	wordpools/wordpool_EN.txt	SIGN	11	7	[0, 0, 0]	n/a	FR1	2	R1212P
773.943	1.616	1011184	WORD	n/a	wordpools/wordpool_EN.txt	SHIRT	12	7	[0, 0, 0]	n/a	FR1	2	R1212P
775.559	0.001	1012839	DISTRACT_START	n/a	n/a	n/a	-999	7	[0, 0, 0]	n/a	FR1	2	R1212P
775.56	0.016	1012840	START	n/a	n/a	n/a	-999	7	[-999, -999, -999]	n/a	FR1	2	R1212P
775.576	5.102	1012856	PROB	5.102	n/a	n/a	-999	7	[6, 1, 9]	16	FR1	2	R1212P
780.678	4.284	1018080	PROB	4.284	n/a	n/a	-999	7	[1, 4, 3]	8	FR1	2	R1212P
784.962	3.834	1022467	PROB	3.834	n/a	n/a	-999	7	[4, 1, 1]	6	FR1	2	R1212P
788.796	5.668	1026393	PROB	5.668	n/a	n/a	-999	7	[4, 2, 9]	17	FR1	2	R1212P
794.464	2.652	1032196	PROB	2.652	n/a	n/a	-999	7	[3, 8, 1]	12	FR1	2	R1212P
797.116	0.015	1034912	STOP	n/a	n/a	n/a	-999	7	[-999, -999, -999]	n/a	FR1	2	R1212P
797.131	1.134	1034927	DISTRACT_END	n/a	n/a	n/a	-999	7	[0, 0, 0]	n/a	FR1	2	R1212P
798.265	1.477	1036088	REC_START	n/a	n/a	n/a	-999	7	[0, 0, 0]	n/a	FR1	2	R1212P
799.742	0.962	1037601	REC_WORD	0.962	n/a	SHIELD	9	7	[0, 0, 0]	n/a	FR1	2	R1212P
800.704	0.914	1038586	REC_WORD	0.914	n/a	PARK	10	7	[0, 0, 0]	n/a	FR1	2	R1212P
801.618	0.998	1039522	REC_WORD	0.998	n/a	SIGN	11	7	[0, 0, 0]	n/a	FR1	2	R1212P
802.616	25.658	1040544	REC_WORD	25.658	n/a	SHIRT	12	7	[0, 0, 0]	n/a	FR1	2	R1212P
828.274	1.73	1066816	REC_END	n/a	n/a	n/a	-999	7	[0, 0, 0]	n/a	FR1	2	R1212P
830.004	0.0	1068588	TRIAL	n/a	n/a	n/a	-999	8	[0, 0, 0]	n/a	FR1	2	R1212P
830.004	10.428	1068588	COUNTDOWN_START	n/a	n/a	n/a	-999	8	[0, 0, 0]	n/a	FR1	2	R1212P
840.432	0.007	1079265	COUNTDOWN_END	n/a	n/a	n/a	-999	8	[0, 0, 0]	n/a	FR1	2	R1212P
840.439	2.5	1079273	ORIENT	n/a	n/a	n/a	-999	8	[0, 0, 0]	n/a	FR1	2	R1212P
842.939	2.451	1081832	WORD	n/a	wordpools/wordpool_EN.txt	MAT	1	8	[0, 0, 0]	n/a	FR1	2	R1212P
845.39	2.517	1084342	WORD	n/a	wordpools/wordpool_EN.txt	FUR	2	8	[0, 0, 0]	n/a	FR1	2	R1212P
847.907	2.467	1086919	WORD	n/a	wordpools/wordpool_EN.txt	SINK	3	8	[0, 0, 0]	n/a	FR1	2	R1212P
850.374	2.551	1089445	WORD	n/a	wordpools/wordpool_EN.txt	TIE	4	8	[0, 0, 0]	n/a	FR1	2	R1212P
852.925	2.383	1092058	WORD	n/a	wordpools/wordpool_EN.txt	CANE	5	8	[0, 0, 0]	n/a	FR1	2	R1212P
855.308	2.484	1094498	WORD	n/a	wordpools/wordpool_EN.txt	BRUSH	6	8	[0, 0, 0]	n/a	FR1	2	R1212P
857.792	2.584	1097041	WORD	n/a	wordpools/wordpool_EN.txt	EEL	7	8	[0, 0, 0]	n/a	FR1	2	R1212P
860.376	2.551	1099687	WORD	n/a	wordpools/wordpool_EN.txt	STOOL	8	8	[0, 0, 0]	n/a	FR1	2	R1212P
862.927	2.383	1102299	WORD	n/a	wordpools/wordpool_EN.txt	DOLL	9	8	[0, 0, 0]	n/a	FR1	2	R1212P
865.31	2.618	1104739	WORD	n/a	wordpools/wordpool_EN.txt	BOOT	10	8	[0, 0, 0]	n/a	FR1	2	R1212P
867.928	2.483	1107420	WORD	n/a	wordpools/wordpool_EN.txt	HAT	11	8	[0, 0, 0]	n/a	FR1	2	R1212P
870.411	1.617	1109962	WORD	n/a	wordpools/wordpool_EN.txt	ARM	12	8	[0, 0, 0]	n/a	FR1	2	R1212P
872.028	0.001	1111618	DISTRACT_START	n/a	n/a	n/a	-999	8	[0, 0, 0]	n/a	FR1	2	R1212P
872.029	0.016	1111619	START	n/a	n/a	n/a	-999	8	[-999, -999, -999]	n/a	FR1	2	R1212P
872.045	4.034	1111636	PROB	4.034	n/a	n/a	-999	8	[6, 1, 7]	14	FR1	2	R1212P
876.079	4.668	1115766	PROB	4.668	n/a	n/a	-999	8	[3, 2, 4]	9	FR1	2	R1212P
880.747	3.617	1120546	PROB	3.617	n/a	n/a	-999	8	[8, 1, 8]	17	FR1	2	R1212P
884.364	6.618	1124250	PROB	6.618	n/a	n/a	-999	8	[8, 5, 1]	14	FR1	2	R1212P
890.982	3.454	1131026	PROB	3.454	n/a	n/a	-999	8	[9, 6, 8]	23	FR1	2	R1212P
894.436	0.013	1134563	STOP	n/a	n/a	n/a	-999	8	[-999, -999, -999]	n/a	FR1	2	R1212P
894.449	1.117	1134576	DISTRACT_END	n/a	n/a	n/a	-999	8	[0, 0, 0]	n/a	FR1	2	R1212P
895.566	1.494	1135720	REC_START	n/a	n/a	n/a	-999	8	[0, 0, 0]	n/a	FR1	2	R1212P
897.06	0.554	1137250	REC_WORD	0.554	n/a	TIE	4	8	[0, 0, 0]	n/a	FR1	2	R1212P
897.614	0.799	1137817	REC_WORD	0.799	n/a	CANE	5	8	[0, 0, 0]	n/a	FR1	2	R1212P
898.413	0.549	1138635	REC_WORD	0.549	n/a	BRUSH	6	8	[0, 0, 0]	n/a	FR1	2	R1212P
898.962	1.018	1139197	REC_WORD	1.018	n/a	EEL	7	8	[0, 0, 0]	n/a	FR1	2	R1212P
899.98	0.825	1140240	REC_WORD	0.825	n/a	SINK	3	8	[0, 0, 0]	n/a	FR1	2	R1212P
900.805	1.577	1141084	REC_WORD	1.577	n/a	DOLL	9	8	[0, 0, 0]	n/a	FR1	2	R1212P
902.382	23.194	1142699	REC_WORD_VV	23.194	n/a	<>	-999	8	[0, 0, 0]	n/a	FR1	2	R1212P
925.576	5.263	1166449	REC_END	n/a	n/a	n/a	-999	8	[0, 0, 0]	n/a	FR1	2	R1212P
930.839	0.0	1171838	TRIAL	n/a	n/a	n/a	-999	9	[0, 0, 0]	n/a	FR1	2	R1212P
930.839	10.428	1171838	COUNTDOWN_START	n/a	n/a	n/a	-999	9	[0, 0, 0]	n/a	FR1	2	R1212P
941.267	0.008	1182516	COUNTDOWN_END	n/a	n/a	n/a	-999	9	[0, 0, 0]	n/a	FR1	2	R1212P
941.275	2.383	1182524	ORIENT	n/a	n/a	n/a	-999	9	[0, 0, 0]	n/a	FR1	2	R1212P
943.658	2.401	1184964	WORD	n/a	wordpools/wordpool_EN.txt	SOCK	1	9	[0, 0, 0]	n/a	FR1	2	R1212P
946.059	2.384	1187422	WORD	n/a	wordpools/wordpool_EN.txt	LEG	2	9	[0, 0, 0]	n/a	FR1	2	R1212P
948.443	2.483	1189863	WORD	n/a	wordpools/wordpool_EN.txt	TOY	3	9	[0, 0, 0]	n/a	FR1	2	R1212P
950.926	2.434	1192406	WORD	n/a	wordpools/wordpool_EN.txt	BUSH	4	9	[0, 0, 0]	n/a	FR1	2	R1212P
953.36	2.401	1194898	WORD	n/a	wordpools/wordpool_EN.txt	OAK	5	9	[0, 0, 0]	n/a	FR1	2	R1212P
955.761	2.617	1197357	WORD	n/a	wordpools/wordpool_EN.txt	SHOE	6	9	[0, 0, 0]	n/a	FR1	2	R1212P
958.378	2.55	1200036	WORD	n/a	wordpools/wordpool_EN.txt	ROAD	7	9	[0, 0, 0]	n/a	FR1	2	R1212P
960.928	2.517	1202647	WORD	n/a	wordpools/wordpool_EN.txt	FOX	8	9	[0, 0, 0]	n/a	FR1	2	R1212P
963.445	2.618	1205225	WORD	n/a	wordpools/wordpool_EN.txt	SEAT	9	9	[0, 0, 0]	n/a	FR1	2	R1212P
966.063	2.583	1207905	WORD	n/a	wordpools/wordpool_EN.txt	SWAMP	10	9	[0, 0, 0]	n/a	FR1	2	R1212P
968.646	2.518	1210550	WORD	n/a	wordpools/wordpool_EN.txt	FOOT	11	9	[0, 0, 0]	n/a	FR1	2	R1212P
971.164	1.616	1213129	WORD	n/a	wordpools/wordpool_EN.txt	GRASS	12	9	[0, 0, 0]	n/a	FR1	2	R1212P
972.78	0.001	1214783	DISTRACT_START	n/a	n/a	n/a	-999	9	[0, 0, 0]	n/a	FR1	2	R1212P
972.781	0.016	1214784	START	n/a	n/a	n/a	-999	9	[-999, -999, -999]	n/a	FR1	2	R1212P
972.797	4.767	1214801	PROB	4.767	n/a	n/a	-999	9	[4, 1, 7]	12	FR1	2	R1212P
977.564	6.202	1219682	PROB	6.202	n/a	n/a	-999	9	[9, 3, 3]	15	FR1	2	R1212P
983.766	2.317	1226032	PROB	2.317	n/a	n/a	-999	9	[6, 5, 5]	16	FR1	2	R1212P
986.083	4.617	1228405	PROB	4.617	n/a	n/a	-999	9	[9, 8, 1]	18	FR1	2	R1212P
990.7	3.495	1233133	PROB	3.495	n/a	n/a	-999	9	[5, 9, 3]	17	FR1	2	R1212P
994.195	0.006	1236711	STOP	n/a	n/a	n/a	-999	9	[-999, -999, -999]	n/a	FR1	2	R1212P
994.201	1.051	1236717	DISTRACT_END	n/a	n/a	n/a	-999	9	[0, 0, 0]	n/a	FR1	2	R1212P
995.252	1.345	1237794	REC_START	n/a	n/a	n/a	-999	9	[0, 0, 0]	n/a	FR1	2	R1212P
996.597	2.416	1239171	REC_WORD	2.416	n/a	SOCK	1	9	[0, 0, 0]	n/a	FR1	2	R1212P
999.013	2.164	1241645	REC_WORD	2.164	n/a	BUSH	4	9	[0, 0, 0]	n/a	FR1	2	R1212P
1001.177	24.084	1243861	REC_WORD	24.084	n/a	EEL	-999	9	[0, 0, 0]	n/a	FR1	2	R1212P
1025.261	2.113	1268521	REC_END	n/a	n/a	n/a	-999	9	[0, 0, 0]	n/a	FR1	2	R1212P
1027.374	0.0	1270685	COUNTDOWN_START	n/a	n/a	n/a	-999	10	[0, 0, 0]	n/a	FR1	2	R1212P
1027.374	10.428	1270685	TRIAL	n/a	n/a	n/a	-999	10	[0, 0, 0]	n/a	FR1	2	R1212P
1037.802	0.007	1281363	COUNTDOWN_END	n/a	n/a	n/a	-999	10	[0, 0, 0]	n/a	FR1	2	R1212P
1037.809	2.517	1281370	ORIENT	n/a	n/a	n/a	-999	10	[0, 0, 0]	n/a	FR1	2	R1212P
1040.326	2.534	1283947	WORD	n/a	wordpools/wordpool_EN.txt	LOCK	1	10	[0, 0, 0]	n/a	FR1	2	R1212P
1042.86	2.384	1286542	WORD	n/a	wordpools/wordpool_EN.txt	VEST	2	10	[0, 0, 0]	n/a	FR1	2	R1212P
1045.244	2.551	1288983	WORD	n/a	wordpools/wordpool_EN.txt	HOUSE	3	10	[0, 0, 0]	n/a	FR1	2	R1212P
1047.795	2.433	1291595	WORD	n/a	wordpools/wordpool_EN.txt	ROOM	4	10	[0, 0, 0]	n/a	FR1	2	R1212P
1050.228	2.617	1294086	WORD	n/a	wordpools/wordpool_EN.txt	LAMB	5	10	[0, 0, 0]	n/a	FR1	2	R1212P
1052.845	2.601	1296766	WORD	n/a	wordpools/wordpool_EN.txt	ROSE	6	10	[0, 0, 0]	n/a	FR1	2	R1212P
1055.446	2.6	1299429	WORD	n/a	wordpools/wordpool_EN.txt	SKY	7	10	[0, 0, 0]	n/a	FR1	2	R1212P
1058.046	2.384	1302092	WORD	n/a	wordpools/wordpool_EN.txt	MUG	8	10	[0, 0, 0]	n/a	FR1	2	R1212P
1060.43	2.517	1304533	WORD	n/a	wordpools/wordpool_EN.txt	WALL	9	10	[0, 0, 0]	n/a	FR1	2	R1212P
1062.947	2.6	1307110	WORD	n/a	wordpools/wordpool_EN.txt	TEA	10	10	[0, 0, 0]	n/a	FR1	2	R1212P
1065.547	2.385	1309772	WORD	n/a	wordpools/wordpool_EN.txt	HOOF	11	10	[0, 0, 0]	n/a	FR1	2	R1212P
1067.932	1.616	1312214	WORD	n/a	wordpools/wordpool_EN.txt	BOWL	12	10	[0, 0, 0]	n/a	FR1	2	R1212P
1069.548	0.0	1313869	DISTRACT_START	n/a	n/a	n/a	-999	10	[0, 0, 0]	n/a	FR1	2	R1212P
1069.548	0.016	1313869	START	n/a	n/a	n/a	-999	10	[-999, -999, -999]	n/a	FR1	2	R1212P
1069.564	4.268	1313886	PROB	4.268	n/a	n/a	-999	10	[2, 3, 5]	10	FR1	2	R1212P
1073.832	3.001	1318256	PROB	3.001	n/a	n/a	-999	10	[2, 6, 5]	13	FR1	2	R1212P
1076.833	3.75	1321329	PROB	3.75	n/a	n/a	-999	10	[7, 8, 1]	16	FR1	2	R1212P
1080.583	3.352	1325168	PROB	3.352	n/a	n/a	-999	10	[3, 8, 1]	12	FR1	2	R1212P
1083.935	3.034	1328601	PROB	3.034	n/a	n/a	-999	10	[6, 6, 6]	18	FR1	2	R1212P
1086.969	2.15	1331707	PROB	2.15	n/a	n/a	-999	10	[1, 4, 1]	6	FR1	2	R1212P
1089.119	2.845	1333909	PROB	2.845	n/a	n/a	-999	10	[9, 8, 4]	23	FR1	2	R1212P
1091.964	0.005	1336822	STOP	n/a	n/a	n/a	-999	10	[-999, -999, -999]	n/a	FR1	2	R1212P
1091.969	1.218	1336827	DISTRACT_END	n/a	n/a	n/a	-999	10	[0, 0, 0]	n/a	FR1	2	R1212P
1093.187	1.312	1338074	REC_START	n/a	n/a	n/a	-999	10	[0, 0, 0]	n/a	FR1	2	R1212P
1094.499	0.635	1339418	REC_WORD	0.635	n/a	LOCK	1	10	[0, 0, 0]	n/a	FR1	2	R1212P
1095.134	1.408	1340068	REC_WORD	1.408	n/a	ROOM	4	10	[0, 0, 0]	n/a	FR1	2	R1212P
1096.542	3.972	1341510	REC_WORD	3.972	n/a	HOUSE	3	10	[0, 0, 0]	n/a	FR1	2	R1212P
1100.514	3.291	1345577	REC_WORD	3.291	n/a	SKY	7	10	[0, 0, 0]	n/a	FR1	2	R1212P
1103.805	19.393	1348947	REC_WORD	19.393	n/a	BOWL	12	10	[0, 0, 0]	n/a	FR1	2	R1212P
1123.198	1.778	1368804	REC_END	n/a	n/a	n/a	-999	10	[0, 0, 0]	n/a	FR1	2	R1212P
1124.976	0.0	1370625	TRIAL	n/a	n/a	n/a	-999	11	[0, 0, 0]	n/a	FR1	2	R1212P
1124.976	10.428	1370625	COUNTDOWN_START	n/a	n/a	n/a	-999	11	[0, 0, 0]	n/a	FR1	2	R1212P
1135.404	0.007	1381303	COUNTDOWN_END	n/a	n/a	n/a	-999	11	[0, 0, 0]	n/a	FR1	2	R1212P
1135.411	2.5	1381310	ORIENT	n/a	n/a	n/a	-999	11	[0, 0, 0]	n/a	FR1	2	R1212P
1137.911	2.584	1383870	WORD	n/a	wordpools/wordpool_EN.txt	COW	1	11	[0, 0, 0]	n/a	FR1	2	R1212P
1140.495	2.551	1386515	WORD	n/a	wordpools/wordpool_EN.txt	PHONE	2	11	[0, 0, 0]	n/a	FR1	2	R1212P
1143.046	2.516	1389128	WORD	n/a	wordpools/wordpool_EN.txt	BOY	3	11	[0, 0, 0]	n/a	FR1	2	R1212P
1145.562	2.401	1391704	WORD	n/a	wordpools/wordpool_EN.txt	PIE	4	11	[0, 0, 0]	n/a	FR1	2	R1212P
1147.963	2.484	1394162	WORD	n/a	wordpools/wordpool_EN.txt	BREAD	5	11	[0, 0, 0]	n/a	FR1	2	R1212P
1150.447	2.617	1396706	WORD	n/a	wordpools/wordpool_EN.txt	PURSE	6	11	[0, 0, 0]	n/a	FR1	2	R1212P
1153.064	2.601	1399385	WORD	n/a	wordpools/wordpool_EN.txt	WORLD	7	11	[0, 0, 0]	n/a	FR1	2	R1212P
1155.665	2.383	1402049	WORD	n/a	wordpools/wordpool_EN.txt	CLOCK	8	11	[0, 0, 0]	n/a	FR1	2	R1212P
1158.048	2.434	1404489	WORD	n/a	wordpools/wordpool_EN.txt	DRESS	9	11	[0, 0, 0]	n/a	FR1	2	R1212P
1160.482	2.567	1406981	WORD	n/a	wordpools/wordpool_EN.txt	SCHOOL	10	11	[0, 0, 0]	n/a	FR1	2	R1212P
1163.049	2.533	1409610	WORD	n/a	wordpools/wordpool_EN.txt	CHIN	11	11	[0, 0, 0]	n/a	FR1	2	R1212P
1165.582	1.601	1412203	WORD	n/a	wordpools/wordpool_EN.txt	FLOOR	12	11	[0, 0, 0]	n/a	FR1	2	R1212P
1167.183	0.001	1413843	DISTRACT_START	n/a	n/a	n/a	-999	11	[0, 0, 0]	n/a	FR1	2	R1212P
1167.184	0.016	1413844	START	n/a	n/a	n/a	-999	11	[-999, -999, -999]	n/a	FR1	2	R1212P
1167.2	3.416	1413860	PROB	3.416	n/a	n/a	-999	11	[6, 2, 3]	11	FR1	2	R1212P
1170.616	7.002	1417358	PROB	7.002	n/a	n/a	-999	11	[8, 9, 8]	25	FR1	2	R1212P
1177.618	2.701	1424528	PROB	2.701	n/a	n/a	-999	11	[8, 5, 5]	18	FR1	2	R1212P
1180.319	3.25	1427293	PROB	3.25	n/a	n/a	-999	11	[7, 2, 7]	16	FR1	2	R1212P
1183.569	4.058	1430621	PROB	4.058	n/a	n/a	-999	11	[8, 3, 5]	16	FR1	2	R1212P
1187.627	0.009	1434776	STOP	n/a	n/a	n/a	-999	11	[-999, -999, -999]	n/a	FR1	2	R1212P
1187.636	1.119	1434786	DISTRACT_END	n/a	n/a	n/a	-999	11	[0, 0, 0]	n/a	FR1	2	R1212P
1188.755	1.692	1435931	REC_START	n/a	n/a	n/a	-999	11	[0, 0, 0]	n/a	FR1	2	R1212P
1190.447	0.615	1437664	REC_WORD	0.615	n/a	COW	1	11	[0, 0, 0]	n/a	FR1	2	R1212P
1191.062	1.653	1438294	REC_WORD	1.653	n/a	PHONE	2	11	[0, 0, 0]	n/a	FR1	2	R1212P
1192.715	0.865	1439986	REC_WORD	0.865	n/a	BREAD	5	11	[0, 0, 0]	n/a	FR1	2	R1212P
1193.58	3.451	1440872	REC_WORD	3.451	n/a	PURSE	6	11	[0, 0, 0]	n/a	FR1	2	R1212P
1197.031	11.273	1444406	REC_WORD	11.273	n/a	SCHOOL	10	11	[0, 0, 0]	n/a	FR1	2	R1212P
1208.304	10.462	1455949	REC_WORD	10.462	n/a	PHONE	2	11	[0, 0, 0]	n/a	FR1	2	R1212P
1218.766	2.111	1466661	REC_END	n/a	n/a	n/a	-999	11	[0, 0, 0]	n/a	FR1	2	R1212P
1220.877	0.0	1468823	TRIAL	n/a	n/a	n/a	-999	12	[0, 0, 0]	n/a	FR1	2	R1212P
1220.877	10.428	1468823	COUNTDOWN_START	n/a	n/a	n/a	-999	12	[0, 0, 0]	n/a	FR1	2	R1212P
1231.305	0.007	1479501	COUNTDOWN_END	n/a	n/a	n/a	-999	12	[0, 0, 0]	n/a	FR1	2	R1212P
1231.312	2.584	1479508	ORIENT	n/a	n/a	n/a	-999	12	[0, 0, 0]	n/a	FR1	2	R1212P
1233.896	2.451	1482154	WORD	n/a	wordpools/wordpool_EN.txt	DRUM	1	12	[0, 0, 0]	n/a	FR1	2	R1212P
1236.347	2.6	1484663	WORD	n/a	wordpools/wordpool_EN.txt	HEART	2	12	[0, 0, 0]	n/a	FR1	2	R1212P
1238.947	2.467	1487326	WORD	n/a	wordpools/wordpool_EN.txt	SWORD	3	12	[0, 0, 0]	n/a	FR1	2	R1212P
1241.414	2.617	1489852	WORD	n/a	wordpools/wordpool_EN.txt	BENCH	4	12	[0, 0, 0]	n/a	FR1	2	R1212P
1244.031	2.617	1492531	WORD	n/a	wordpools/wordpool_EN.txt	PIPE	5	12	[0, 0, 0]	n/a	FR1	2	R1212P
1246.648	2.451	1495211	WORD	n/a	wordpools/wordpool_EN.txt	FAN	6	12	[0, 0, 0]	n/a	FR1	2	R1212P
1249.099	2.516	1497721	WORD	n/a	wordpools/wordpool_EN.txt	COUCH	7	12	[0, 0, 0]	n/a	FR1	2	R1212P
1251.615	2.585	1500297	WORD	n/a	wordpools/wordpool_EN.txt	KITE	8	12	[0, 0, 0]	n/a	FR1	2	R1212P
1254.2	2.383	1502944	WORD	n/a	wordpools/wordpool_EN.txt	LIP	9	12	[0, 0, 0]	n/a	FR1	2	R1212P
1256.583	2.418	1505384	WORD	n/a	wordpools/wordpool_EN.txt	LAWN	10	12	[0, 0, 0]	n/a	FR1	2	R1212P
1259.001	2.4	1507860	WORD	n/a	wordpools/wordpool_EN.txt	FORK	11	12	[0, 0, 0]	n/a	FR1	2	R1212P
1261.401	1.617	1510317	WORD	n/a	wordpools/wordpool_EN.txt	AXE	12	12	[0, 0, 0]	n/a	FR1	2	R1212P
1263.018	0.001	1511973	DISTRACT_START	n/a	n/a	n/a	-999	12	[0, 0, 0]	n/a	FR1	2	R1212P
1263.019	0.016	1511974	START	n/a	n/a	n/a	-999	12	[-999, -999, -999]	n/a	FR1	2	R1212P
1263.035	3.267	1511991	PROB	3.267	n/a	n/a	-999	12	[7, 3, 9]	19	FR1	2	R1212P
1266.302	2.484	1515336	PROB	2.484	n/a	n/a	-999	12	[1, 1, 2]	4	FR1	2	R1212P
1268.786	1.867	1517879	PROB	1.867	n/a	n/a	-999	12	[1, 2, 9]	12	FR1	2	R1212P
1270.653	2.701	1519791	PROB	2.701	n/a	n/a	-999	12	[1, 4, 3]	8	FR1	2	R1212P
1273.354	2.717	1522557	PROB	2.717	n/a	n/a	-999	12	[4, 3, 6]	13	FR1	2	R1212P
1276.071	3.417	1525339	PROB	3.417	n/a	n/a	-999	12	[4, 7, 5]	16	FR1	2	R1212P
1279.488	3.167	1528838	PROB	3.167	n/a	n/a	-999	12	[2, 9, 8]	19	FR1	2	R1212P
1282.655	10.269	1532080	PROB	10.269	n/a	n/a	-999	12	[9, 4, 7]	20	FR1	2	R1212P
1292.924	0.017	1542595	STOP	n/a	n/a	n/a	-999	12	[-999, -999, -999]	n/a	FR1	2	R1212P
1292.941	1.167	1542613	DISTRACT_END	n/a	n/a	n/a	-999	12	[0, 0, 0]	n/a	FR1	2	R1212P
1294.108	2.293	1543808	REC_START	n/a	n/a	n/a	-999	12	[0, 0, 0]	n/a	FR1	2	R1212P
1296.401	0.778	1546156	REC_WORD	0.778	n/a	FORK	11	12	[0, 0, 0]	n/a	FR1	2	R1212P
1297.179	1.496	1546952	REC_WORD	1.496	n/a	AXE	12	12	[0, 0, 0]	n/a	FR1	2	R1212P
1298.675	25.443	1548484	REC_WORD	25.443	n/a	DRUM	1	12	[0, 0, 0]	n/a	FR1	2	R1212P
1324.118	4.379	1574537	REC_END	n/a	n/a	n/a	-999	12	[0, 0, 0]	n/a	FR1	2	R1212P
1328.497	0.0	1579020	TRIAL	n/a	n/a	n/a	-999	13	[0, 0, 0]	n/a	FR1	2	R1212P
1328.497	10.428	1579020	COUNTDOWN_START	n/a	n/a	n/a	-999	13	[0, 0, 0]	n/a	FR1	2	R1212P
1338.925	0.007	1589698	COUNTDOWN_END	n/a	n/a	n/a	-999	13	[0, 0, 0]	n/a	FR1	2	R1212P
1338.932	2.601	1589705	ORIENT	n/a	n/a	n/a	-999	13	[0, 0, 0]	n/a	FR1	2	R1212P
1341.533	2.417	1592369	WORD	n/a	wordpools/wordpool_EN.txt	CAPE	1	13	[0, 0, 0]	n/a	FR1	2	R1212P
1343.95	2.5	1594844	WORD	n/a	wordpools/wordpool_EN.txt	ROPE	2	13	[0, 0, 0]	n/a	FR1	2	R1212P
1346.45	2.617	1597403	WORD	n/a	wordpools/wordpool_EN.txt	DOCK	3	13	[0, 0, 0]	n/a	FR1	2	R1212P
1349.067	2.483	1600083	WORD	n/a	wordpools/wordpool_EN.txt	FORT	4	13	[0, 0, 0]	n/a	FR1	2	R1212P
1351.55	2.418	1602626	WORD	n/a	wordpools/wordpool_EN.txt	STEAM	5	13	[0, 0, 0]	n/a	FR1	2	R1212P
1353.968	2.434	1605102	WORD	n/a	wordpools/wordpool_EN.txt	SAIL	6	13	[0, 0, 0]	n/a	FR1	2	R1212P
1356.402	2.567	1607594	WORD	n/a	wordpools/wordpool_EN.txt	SLIME	7	13	[0, 0, 0]	n/a	FR1	2	R1212P
1358.969	2.384	1610222	WORD	n/a	wordpools/wordpool_EN.txt	HOOK	8	13	[0, 0, 0]	n/a	FR1	2	R1212P
1361.353	2.551	1612663	WORD	n/a	wordpools/wordpool_EN.txt	PRINCE	9	13	[0, 0, 0]	n/a	FR1	2	R1212P
1363.904	2.534	1615276	WORD	n/a	wordpools/wordpool_EN.txt	FLAG	10	13	[0, 0, 0]	n/a	FR1	2	R1212P
1366.438	2.517	1617870	WORD	n/a	wordpools/wordpool_EN.txt	SEA	11	13	[0, 0, 0]	n/a	FR1	2	R1212P
1368.955	1.616	1620448	WORD	n/a	wordpools/wordpool_EN.txt	HORN	12	13	[0, 0, 0]	n/a	FR1	2	R1212P
1370.571	0.001	1622102	DISTRACT_START	n/a	n/a	n/a	-999	13	[0, 0, 0]	n/a	FR1	2	R1212P
1370.572	0.015	1622103	START	n/a	n/a	n/a	-999	13	[-999, -999, -999]	n/a	FR1	2	R1212P
1370.587	3.352	1622119	PROB	3.352	n/a	n/a	-999	13	[9, 6, 5]	20	FR1	2	R1212P
1373.939	2.717	1625551	PROB	2.717	n/a	n/a	-999	13	[8, 5, 6]	15	FR1	2	R1212P
1376.656	2.451	1628333	PROB	2.451	n/a	n/a	-999	13	[1, 4, 1]	6	FR1	2	R1212P
1379.107	1.767	1630843	PROB	1.767	n/a	n/a	-999	13	[1, 5, 5]	11	FR1	2	R1212P
1380.874	3.2	1632652	PROB	3.2	n/a	n/a	-999	13	[7, 1, 9]	17	FR1	2	R1212P
1384.074	3.483	1635929	PROB	3.483	n/a	n/a	-999	13	[5, 2, 4]	11	FR1	2	R1212P
1387.557	3.711	1639495	PROB	3.711	n/a	n/a	-999	13	[5, 9, 4]	18	FR1	2	R1212P
1391.268	0.008	1643295	STOP	n/a	n/a	n/a	-999	13	[-999, -999, -999]	n/a	FR1	2	R1212P
1391.276	1.167	1643303	DISTRACT_END	n/a	n/a	n/a	-999	13	[0, 0, 0]	n/a	FR1	2	R1212P
1392.443	2.615	1644498	REC_START	n/a	n/a	n/a	-999	13	[0, 0, 0]	n/a	FR1	2	R1212P
1395.058	1.799	1647176	REC_WORD	1.799	n/a	FORT	4	13	[0, 0, 0]	n/a	FR1	2	R1212P
1396.857	4.843	1649018	REC_WORD	4.843	n/a	LOCK	-999	13	[0, 0, 0]	n/a	FR1	2	R1212P
1401.7	20.753	1653977	REC_WORD	20.753	n/a	SEA	11	13	[0, 0, 0]	n/a	FR1	2	R1212P
1422.453	2.111	1675227	REC_END	n/a	n/a	n/a	-999	13	[0, 0, 0]	n/a	FR1	2	R1212P
1424.564	0.0	1677388	TRIAL	n/a	n/a	n/a	-999	14	[0, 0, 0]	n/a	FR1	2	R1212P
1424.564	10.428	1677388	COUNTDOWN_START	n/a	n/a	n/a	-999	14	[0, 0, 0]	n/a	FR1	2	R1212P
1434.992	0.008	1688066	COUNTDOWN_END	n/a	n/a	n/a	-999	14	[0, 0, 0]	n/a	FR1	2	R1212P
1435.0	2.401	1688074	ORIENT	n/a	n/a	n/a	-999	14	[0, 0, 0]	n/a	FR1	2	R1212P
1437.401	2.6	1690533	WORD	n/a	wordpools/wordpool_EN.txt	SKI	1	14	[0, 0, 0]	n/a	FR1	2	R1212P
1440.001	2.467	1693195	WORD	n/a	wordpools/wordpool_EN.txt	BIRD	2	14	[0, 0, 0]	n/a	FR1	2	R1212P
1442.468	2.567	1695721	WORD	n/a	wordpools/wordpool_EN.txt	DOOR	3	14	[0, 0, 0]	n/a	FR1	2	R1212P
1445.035	2.451	1698350	WORD	n/a	wordpools/wordpool_EN.txt	OWL	4	14	[0, 0, 0]	n/a	FR1	2	R1212P
1447.486	2.384	1700859	WORD	n/a	wordpools/wordpool_EN.txt	SOUP	5	14	[0, 0, 0]	n/a	FR1	2	R1212P
1449.87	2.467	1703301	WORD	n/a	wordpools/wordpool_EN.txt	STONE	6	14	[0, 0, 0]	n/a	FR1	2	R1212P
1452.337	2.617	1705827	WORD	n/a	wordpools/wordpool_EN.txt	MOUSE	7	14	[0, 0, 0]	n/a	FR1	2	R1212P
1454.954	2.467	1708506	WORD	n/a	wordpools/wordpool_EN.txt	CAKE	8	14	[0, 0, 0]	n/a	FR1	2	R1212P
1457.421	2.601	1711032	WORD	n/a	wordpools/wordpool_EN.txt	BROOM	9	14	[0, 0, 0]	n/a	FR1	2	R1212P
1460.022	2.384	1713696	WORD	n/a	wordpools/wordpool_EN.txt	SEED	10	14	[0, 0, 0]	n/a	FR1	2	R1212P
1462.406	2.533	1716137	WORD	n/a	wordpools/wordpool_EN.txt	GATE	11	14	[0, 0, 0]	n/a	FR1	2	R1212P
1464.939	1.616	1718731	WORD	n/a	wordpools/wordpool_EN.txt	WAND	12	14	[0, 0, 0]	n/a	FR1	2	R1212P
1466.555	0.001	1720385	DISTRACT_START	n/a	n/a	n/a	-999	14	[0, 0, 0]	n/a	FR1	2	R1212P
1466.556	0.016	1720386	START	n/a	n/a	n/a	-999	14	[-999, -999, -999]	n/a	FR1	2	R1212P
1466.572	5.469	1720403	PROB	5.469	n/a	n/a	-999	14	[6, 8, 2]	16	FR1	2	R1212P
1472.041	4.2	1726003	PROB	4.2	n/a	n/a	-999	14	[4, 3, 6]	13	FR1	2	R1212P
1476.241	3.735	1730303	PROB	3.735	n/a	n/a	-999	14	[3, 3, 2]	8	FR1	2	R1212P
1479.976	3.566	1734128	PROB	3.566	n/a	n/a	-999	14	[2, 5, 8]	15	FR1	2	R1212P
1483.542	3.174	1737779	PROB	3.174	n/a	n/a	-999	14	[9, 6, 5]	20	FR1	2	R1212P
1486.716	0.011	1741029	STOP	n/a	n/a	n/a	-999	14	[-999, -999, -999]	n/a	FR1	2	R1212P
1486.727	1.217	1741040	DISTRACT_END	n/a	n/a	n/a	-999	14	[0, 0, 0]	n/a	FR1	2	R1212P
1487.944	2.146	1742287	REC_START	n/a	n/a	n/a	-999	14	[0, 0, 0]	n/a	FR1	2	R1212P
1490.09	0.575	1744484	REC_WORD	0.575	n/a	BIRD	2	14	[0, 0, 0]	n/a	FR1	2	R1212P
1490.665	1.509	1745073	REC_WORD	1.509	n/a	OWL	4	14	[0, 0, 0]	n/a	FR1	2	R1212P
1492.174	25.784	1746618	REC_WORD	25.784	n/a	SOUP	5	14	[0, 0, 0]	n/a	FR1	2	R1212P
1517.958	1.892	1773019	REC_END	n/a	n/a	n/a	-999	14	[0, 0, 0]	n/a	FR1	2	R1212P
1519.85	0.0	1774957	TRIAL	n/a	n/a	n/a	-999	15	[0, 0, 0]	n/a	FR1	2	R1212P
1519.85	10.428	1774957	COUNTDOWN_START	n/a	n/a	n/a	-999	15	[0, 0, 0]	n/a	FR1	2	R1212P
1530.278	0.007	1785635	COUNTDOWN_END	n/a	n/a	n/a	-999	15	[0, 0, 0]	n/a	FR1	2	R1212P
1530.285	2.584	1785642	ORIENT	n/a	n/a	n/a	-999	15	[0, 0, 0]	n/a	FR1	2	R1212P
1532.869	2.417	1788288	WORD	n/a	wordpools/wordpool_EN.txt	LEAF	1	15	[0, 0, 0]	n/a	FR1	2	R1212P
1535.286	2.4	1790762	WORD	n/a	wordpools/wordpool_EN.txt	POOL	2	15	[0, 0, 0]	n/a	FR1	2	R1212P
1537.686	2.551	1793220	WORD	n/a	wordpools/wordpool_EN.txt	CART	3	15	[0, 0, 0]	n/a	FR1	2	R1212P
1540.237	2.55	1795832	WORD	n/a	wordpools/wordpool_EN.txt	BARN	4	15	[0, 0, 0]	n/a	FR1	2	R1212P
1542.787	2.601	1798443	WORD	n/a	wordpools/wordpool_EN.txt	STOVE	5	15	[0, 0, 0]	n/a	FR1	2	R1212P
1545.388	2.417	1801106	WORD	n/a	wordpools/wordpool_EN.txt	FENCE	6	15	[0, 0, 0]	n/a	FR1	2	R1212P
1547.805	2.567	1803581	WORD	n/a	wordpools/wordpool_EN.txt	HORSE	7	15	[0, 0, 0]	n/a	FR1	2	R1212P
1550.372	2.5	1806210	WORD	n/a	wordpools/wordpool_EN.txt	POND	8	15	[0, 0, 0]	n/a	FR1	2	R1212P
1552.872	2.451	1808770	WORD	n/a	wordpools/wordpool_EN.txt	HAWK	9	15	[0, 0, 0]	n/a	FR1	2	R1212P
1555.323	2.45	1811279	WORD	n/a	wordpools/wordpool_EN.txt	INK	10	15	[0, 0, 0]	n/a	FR1	2	R1212P
1557.773	2.518	1813788	WORD	n/a	wordpools/wordpool_EN.txt	NEST	11	15	[0, 0, 0]	n/a	FR1	2	R1212P
1560.291	1.616	1816366	WORD	n/a	wordpools/wordpool_EN.txt	FLUTE	12	15	[0, 0, 0]	n/a	FR1	2	R1212P
1561.907	0.001	1818021	DISTRACT_START	n/a	n/a	n/a	-999	15	[0, 0, 0]	n/a	FR1	2	R1212P
1561.908	0.016	1818022	START	n/a	n/a	n/a	-999	15	[-999, -999, -999]	n/a	FR1	2	R1212P
1561.924	5.201	1818039	PROB	5.201	n/a	n/a	-999	15	[7, 7, 6]	20	FR1	2	R1212P
1567.125	3.034	1823364	PROB	3.034	n/a	n/a	-999	15	[6, 5, 1]	1	FR1	2	R1212P
1570.159	1.867	1826471	PROB	1.867	n/a	n/a	-999	15	[2, 2, 8]	12	FR1	2	R1212P
1572.026	2.317	1828382	PROB	2.317	n/a	n/a	-999	15	[5, 3, 1]	9	FR1	2	R1212P
1574.343	3.317	1830755	PROB	3.317	n/a	n/a	-999	15	[6, 1, 5]	12	FR1	2	R1212P
1577.66	2.017	1834151	PROB	2.017	n/a	n/a	-999	15	[2, 7, 3]	12	FR1	2	R1212P
1579.677	2.806	1836217	PROB	2.806	n/a	n/a	-999	15	[4, 8, 8]	20	FR1	2	R1212P
1582.483	0.012	1839090	STOP	n/a	n/a	n/a	-999	15	[-999, -999, -999]	n/a	FR1	2	R1212P
1582.495	1.034	1839102	DISTRACT_END	n/a	n/a	n/a	-999	15	[0, 0, 0]	n/a	FR1	2	R1212P
1583.529	0.0	1840161	REC_WORD_VV	0.0	n/a	<>	-999	15	[0, 0, 0]	n/a	FR1	2	R1212P
1583.529	2.273	1840161	REC_START	n/a	n/a	n/a	-999	15	[0, 0, 0]	n/a	FR1	2	R1212P
1585.802	0.22	1842488	REC_WORD_VV	0.22	n/a	<>	-999	15	[0, 0, 0]	n/a	FR1	2	R1212P
1586.022	1.561	1842714	REC_WORD	1.561	n/a	BARN	4	15	[0, 0, 0]	n/a	FR1	2	R1212P
1587.583	1.481	1844312	REC_WORD	1.481	n/a	CART	3	15	[0, 0, 0]	n/a	FR1	2	R1212P
1589.064	24.474	1845829	REC_WORD	24.474	n/a	POOL	2	15	[0, 0, 0]	n/a	FR1	2	R1212P
1613.538	1.646	1870889	REC_END	n/a	n/a	n/a	-999	15	[0, 0, 0]	n/a	FR1	2	R1212P
1615.184	0.0	1872574	TRIAL	n/a	n/a	n/a	-999	16	[0, 0, 0]	n/a	FR1	2	R1212P
1615.184	10.428	1872574	COUNTDOWN_START	n/a	n/a	n/a	-999	16	[0, 0, 0]	n/a	FR1	2	R1212P
1625.612	0.006	1883252	COUNTDOWN_END	n/a	n/a	n/a	-999	16	[0, 0, 0]	n/a	FR1	2	R1212P
1625.618	2.469	1883258	ORIENT	n/a	n/a	n/a	-999	16	[0, 0, 0]	n/a	FR1	2	R1212P
1628.087	2.499	1885786	WORD	n/a	wordpools/wordpool_EN.txt	STICK	1	16	[0, 0, 0]	n/a	FR1	2	R1212P
1630.586	2.435	1888345	WORD	n/a	wordpools/wordpool_EN.txt	PEARL	2	16	[0, 0, 0]	n/a	FR1	2	R1212P
1633.021	2.417	1890838	WORD	n/a	wordpools/wordpool_EN.txt	NAIL	3	16	[0, 0, 0]	n/a	FR1	2	R1212P
1635.438	2.484	1893313	WORD	n/a	wordpools/wordpool_EN.txt	BEAK	4	16	[0, 0, 0]	n/a	FR1	2	R1212P
1637.922	2.434	1895857	WORD	n/a	wordpools/wordpool_EN.txt	SEAL	5	16	[0, 0, 0]	n/a	FR1	2	R1212P
1640.356	2.45	1898349	WORD	n/a	wordpools/wordpool_EN.txt	PIN	6	16	[0, 0, 0]	n/a	FR1	2	R1212P
1642.806	2.534	1900858	WORD	n/a	wordpools/wordpool_EN.txt	WOLF	7	16	[0, 0, 0]	n/a	FR1	2	R1212P
1645.34	2.617	1903452	WORD	n/a	wordpools/wordpool_EN.txt	HAND	8	16	[0, 0, 0]	n/a	FR1	2	R1212P
1647.957	2.5	1906132	WORD	n/a	wordpools/wordpool_EN.txt	BOX	9	16	[0, 0, 0]	n/a	FR1	2	R1212P
1650.457	2.501	1908692	WORD	n/a	wordpools/wordpool_EN.txt	CAVE	10	16	[0, 0, 0]	n/a	FR1	2	R1212P
1652.958	2.484	1911253	WORD	n/a	wordpools/wordpool_EN.txt	ZOO	11	16	[0, 0, 0]	n/a	FR1	2	R1212P
1655.442	1.617	1913796	WORD	n/a	wordpools/wordpool_EN.txt	CALF	12	16	[0, 0, 0]	n/a	FR1	2	R1212P
1657.059	0.001	1915452	DISTRACT_START	n/a	n/a	n/a	-999	16	[0, 0, 0]	n/a	FR1	2	R1212P
1657.06	0.015	1915453	START	n/a	n/a	n/a	-999	16	[-999, -999, -999]	n/a	FR1	2	R1212P
1657.075	4.585	1915469	PROB	4.585	n/a	n/a	-999	16	[1, 6, 7]	14	FR1	2	R1212P
1661.66	3.834	1920163	PROB	3.834	n/a	n/a	-999	16	[1, 8, 9]	18	FR1	2	R1212P
1665.494	4.2	1924089	PROB	4.2	n/a	n/a	-999	16	[1, 2, 4]	7	FR1	2	R1212P
1669.694	3.384	1928390	PROB	3.384	n/a	n/a	-999	16	[3, 7, 4]	14	FR1	2	R1212P
1673.078	3.301	1931855	PROB	3.301	n/a	n/a	-999	16	[5, 3, 5]	13	FR1	2	R1212P
1676.379	3.232	1935235	PROB	3.232	n/a	n/a	-999	16	[3, 5, 3]	11	FR1	2	R1212P
1679.611	0.018	1938544	STOP	n/a	n/a	n/a	-999	16	[-999, -999, -999]	n/a	FR1	2	R1212P
1679.629	1.118	1938563	DISTRACT_END	n/a	n/a	n/a	-999	16	[0, 0, 0]	n/a	FR1	2	R1212P
1680.747	29.994	1939708	REC_START	n/a	n/a	n/a	-999	16	[0, 0, 0]	n/a	FR1	2	R1212P
1710.741	0.016	1970420	REC_WORD_VV	0.016	n/a	<>	-999	16	[0, 0, 0]	n/a	FR1	2	R1212P
1710.757	6.346	1970436	REC_END	n/a	n/a	n/a	-999	16	[0, 0, 0]	n/a	FR1	2	R1212P
1717.103	0.0	1976934	TRIAL	n/a	n/a	n/a	-999	17	[0, 0, 0]	n/a	FR1	2	R1212P
1717.103	10.428	1976934	COUNTDOWN_START	n/a	n/a	n/a	-999	17	[0, 0, 0]	n/a	FR1	2	R1212P
1727.531	0.006	1987612	COUNTDOWN_END	n/a	n/a	n/a	-999	17	[0, 0, 0]	n/a	FR1	2	R1212P
1727.537	2.419	1987618	ORIENT	n/a	n/a	n/a	-999	17	[0, 0, 0]	n/a	FR1	2	R1212P
1729.956	2.616	1990095	WORD	n/a	wordpools/wordpool_EN.txt	RAKE	1	17	[0, 0, 0]	n/a	FR1	2	R1212P
1732.572	2.485	1992774	WORD	n/a	wordpools/wordpool_EN.txt	CROWN	2	17	[0, 0, 0]	n/a	FR1	2	R1212P
1735.057	2.416	1995318	WORD	n/a	wordpools/wordpool_EN.txt	TOOTH	3	17	[0, 0, 0]	n/a	FR1	2	R1212P
1737.473	2.418	1997792	WORD	n/a	wordpools/wordpool_EN.txt	TOE	4	17	[0, 0, 0]	n/a	FR1	2	R1212P
1739.891	2.584	2000268	WORD	n/a	wordpools/wordpool_EN.txt	CORN	5	17	[0, 0, 0]	n/a	FR1	2	R1212P
1742.475	2.467	2002914	WORD	n/a	wordpools/wordpool_EN.txt	GUARD	6	17	[0, 0, 0]	n/a	FR1	2	R1212P
1744.942	2.517	2005440	WORD	n/a	wordpools/wordpool_EN.txt	DESK	7	17	[0, 0, 0]	n/a	FR1	2	R1212P
1747.459	2.45	2008017	WORD	n/a	wordpools/wordpool_EN.txt	TEETH	8	17	[0, 0, 0]	n/a	FR1	2	R1212P
1749.909	2.551	2010526	WORD	n/a	wordpools/wordpool_EN.txt	TOOL	9	17	[0, 0, 0]	n/a	FR1	2	R1212P
1752.46	2.484	2013138	WORD	n/a	wordpools/wordpool_EN.txt	BRIDGE	10	17	[0, 0, 0]	n/a	FR1	2	R1212P
1754.944	2.567	2015682	WORD	n/a	wordpools/wordpool_EN.txt	WHEEL	11	17	[0, 0, 0]	n/a	FR1	2	R1212P
1757.511	1.617	2018310	WORD	n/a	wordpools/wordpool_EN.txt	CUBE	12	17	[0, 0, 0]	n/a	FR1	2	R1212P
1759.128	0.001	2019966	DISTRACT_START	n/a	n/a	n/a	-999	17	[0, 0, 0]	n/a	FR1	2	R1212P
1759.129	0.015	2019967	START	n/a	n/a	n/a	-999	17	[-999, -999, -999]	n/a	FR1	2	R1212P
1759.144	3.801	2019982	PROB	3.801	n/a	n/a	-999	17	[1, 2, 9]	12	FR1	2	R1212P
1762.945	6.235	2023874	PROB	6.235	n/a	n/a	-999	17	[4, 9, 7]	20	FR1	2	R1212P
1769.18	2.233	2030259	PROB	2.233	n/a	n/a	-999	17	[2, 6, 5]	13	FR1	2	R1212P
1771.413	2.051	2032545	PROB	2.051	n/a	n/a	-999	17	[7, 7, 8]	22	FR1	2	R1212P
1773.464	7.78	2034645	PROB	7.78	n/a	n/a	-999	17	[6, 9, 2]	17	FR1	2	R1212P
1781.244	0.005	2042612	STOP	n/a	n/a	n/a	-999	17	[-999, -999, -999]	n/a	FR1	2	R1212P
1781.249	1.151	2042617	DISTRACT_END	n/a	n/a	n/a	-999	17	[0, 0, 0]	n/a	FR1	2	R1212P
1782.4	7.78	2043795	REC_START	n/a	n/a	n/a	-999	17	[0, 0, 0]	n/a	FR1	2	R1212P
1790.18	22.23	2051762	REC_WORD	22.23	n/a	WHEEL	11	17	[0, 0, 0]	n/a	FR1	2	R1212P
1812.41	2.295	2074524	REC_END	n/a	n/a	n/a	-999	17	[0, 0, 0]	n/a	FR1	2	R1212P
1814.705	0.0	2076874	COUNTDOWN_START	n/a	n/a	n/a	-999	18	[0, 0, 0]	n/a	FR1	2	R1212P
1814.705	10.428	2076874	TRIAL	n/a	n/a	n/a	-999	18	[0, 0, 0]	n/a	FR1	2	R1212P
1825.133	0.007	2087552	COUNTDOWN_END	n/a	n/a	n/a	-999	18	[0, 0, 0]	n/a	FR1	2	R1212P
1825.14	2.483	2087559	ORIENT	n/a	n/a	n/a	-999	18	[0, 0, 0]	n/a	FR1	2	R1212P
1827.623	2.535	2090102	WORD	n/a	wordpools/wordpool_EN.txt	MAZE	1	18	[0, 0, 0]	n/a	FR1	2	R1212P
1830.158	2.5	2092697	WORD	n/a	wordpools/wordpool_EN.txt	FACE	2	18	[0, 0, 0]	n/a	FR1	2	R1212P
1832.658	2.517	2095257	WORD	n/a	wordpools/wordpool_EN.txt	VASE	3	18	[0, 0, 0]	n/a	FR1	2	R1212P
1835.175	2.383	2097834	WORD	n/a	wordpools/wordpool_EN.txt	DITCH	4	18	[0, 0, 0]	n/a	FR1	2	R1212P
1837.558	2.551	2100274	WORD	n/a	wordpools/wordpool_EN.txt	BAND	5	18	[0, 0, 0]	n/a	FR1	2	R1212P
1840.109	2.534	2102887	WORD	n/a	wordpools/wordpool_EN.txt	BALL	6	18	[0, 0, 0]	n/a	FR1	2	R1212P
1842.643	2.568	2105481	WORD	n/a	wordpools/wordpool_EN.txt	SQUARE	7	18	[0, 0, 0]	n/a	FR1	2	R1212P
1845.211	2.55	2108111	WORD	n/a	wordpools/wordpool_EN.txt	CHAIR	8	18	[0, 0, 0]	n/a	FR1	2	R1212P
1847.761	2.601	2110722	WORD	n/a	wordpools/wordpool_EN.txt	STRING	9	18	[0, 0, 0]	n/a	FR1	2	R1212P
1850.362	2.483	2113385	WORD	n/a	wordpools/wordpool_EN.txt	BOARD	10	18	[0, 0, 0]	n/a	FR1	2	R1212P
1852.845	2.534	2115928	WORD	n/a	wordpools/wordpool_EN.txt	SLUSH	11	18	[0, 0, 0]	n/a	FR1	2	R1212P
1855.379	1.617	2118522	WORD	n/a	wordpools/wordpool_EN.txt	BAT	12	18	[0, 0, 0]	n/a	FR1	2	R1212P
1856.996	0.001	2120178	DISTRACT_START	n/a	n/a	n/a	-999	18	[0, 0, 0]	n/a	FR1	2	R1212P
1856.997	0.016	2120179	START	n/a	n/a	n/a	-999	18	[-999, -999, -999]	n/a	FR1	2	R1212P
1857.013	3.167	2120195	PROB	3.167	n/a	n/a	-999	18	[3, 1, 8]	12	FR1	2	R1212P
1860.18	2.2	2123438	PROB	2.2	n/a	n/a	-999	18	[4, 5, 5]	14	FR1	2	R1212P
1862.38	2.284	2125691	PROB	2.284	n/a	n/a	-999	18	[1, 8, 9]	18	FR1	2	R1212P
1864.664	5.368	2128030	PROB	5.368	n/a	n/a	-999	18	[2, 7, 6]	15	FR1	2	R1212P
1870.032	3.533	2133526	PROB	3.533	n/a	n/a	-999	18	[9, 7, 4]	20	FR1	2	R1212P
1873.565	5.743	2137144	PROB	5.743	n/a	n/a	-999	18	[2, 4, 9]	15	FR1	2	R1212P
1879.308	0.009	2143024	STOP	n/a	n/a	n/a	-999	18	[-999, -999, -999]	n/a	FR1	2	R1212P
1879.317	1.117	2143034	DISTRACT_END	n/a	n/a	n/a	-999	18	[0, 0, 0]	n/a	FR1	2	R1212P
1880.434	0.989	2144177	REC_START	n/a	n/a	n/a	-999	18	[0, 0, 0]	n/a	FR1	2	R1212P
1881.423	1.493	2145190	REC_WORD	1.493	n/a	MAZE	1	18	[0, 0, 0]	n/a	FR1	2	R1212P
1882.916	2.377	2146719	REC_WORD	2.377	n/a	FACE	2	18	[0, 0, 0]	n/a	FR1	2	R1212P
1885.293	1.12	2149153	REC_WORD	1.12	n/a	DITCH	4	18	[0, 0, 0]	n/a	FR1	2	R1212P
1886.413	1.887	2150300	REC_WORD	1.887	n/a	STRING	9	18	[0, 0, 0]	n/a	FR1	2	R1212P
1888.3	22.149	2152232	REC_WORD	22.149	n/a	BAND	5	18	[0, 0, 0]	n/a	FR1	2	R1212P
1910.449	1.791	2174911	REC_END	n/a	n/a	n/a	-999	18	[0, 0, 0]	n/a	FR1	2	R1212P
1912.24	0.0	2176745	TRIAL	n/a	n/a	n/a	-999	19	[0, 0, 0]	n/a	FR1	2	R1212P
1912.24	10.428	2176745	COUNTDOWN_START	n/a	n/a	n/a	-999	19	[0, 0, 0]	n/a	FR1	2	R1212P
1922.668	0.007	2187423	COUNTDOWN_END	n/a	n/a	n/a	-999	19	[0, 0, 0]	n/a	FR1	2	R1212P
1922.675	2.401	2187430	ORIENT	n/a	n/a	n/a	-999	19	[0, 0, 0]	n/a	FR1	2	R1212P
1925.076	2.499	2189889	WORD	n/a	wordpools/wordpool_EN.txt	DOG	1	19	[0, 0, 0]	n/a	FR1	2	R1212P
1927.575	2.385	2192448	WORD	n/a	wordpools/wordpool_EN.txt	GOAT	2	19	[0, 0, 0]	n/a	FR1	2	R1212P
1929.96	2.434	2194890	WORD	n/a	wordpools/wordpool_EN.txt	HEN	3	19	[0, 0, 0]	n/a	FR1	2	R1212P
1932.394	2.433	2197382	WORD	n/a	wordpools/wordpool_EN.txt	DUCK	4	19	[0, 0, 0]	n/a	FR1	2	R1212P
1934.827	2.601	2199873	WORD	n/a	wordpools/wordpool_EN.txt	PET	5	19	[0, 0, 0]	n/a	FR1	2	R1212P
1937.428	2.484	2202537	WORD	n/a	wordpools/wordpool_EN.txt	SPOON	6	19	[0, 0, 0]	n/a	FR1	2	R1212P
1939.912	2.567	2205080	WORD	n/a	wordpools/wordpool_EN.txt	BLUSH	7	19	[0, 0, 0]	n/a	FR1	2	R1212P
1942.479	2.467	2207709	WORD	n/a	wordpools/wordpool_EN.txt	TRUCK	8	19	[0, 0, 0]	n/a	FR1	2	R1212P
1944.946	2.599	2210235	WORD	n/a	wordpools/wordpool_EN.txt	FLEA	9	19	[0, 0, 0]	n/a	FR1	2	R1212P
1947.545	2.385	2212896	WORD	n/a	wordpools/wordpool_EN.txt	JEEP	10	19	[0, 0, 0]	n/a	FR1	2	R1212P
1949.93	2.434	2215338	WORD	n/a	wordpools/wordpool_EN.txt	TOAST	11	19	[0, 0, 0]	n/a	FR1	2	R1212P
1952.364	1.617	2217830	WORD	n/a	wordpools/wordpool_EN.txt	RAT	12	19	[0, 0, 0]	n/a	FR1	2	R1212P
1953.981	0.001	2219486	DISTRACT_START	n/a	n/a	n/a	-999	19	[0, 0, 0]	n/a	FR1	2	R1212P
1953.982	0.016	2219487	START	n/a	n/a	n/a	-999	19	[-999, -999, -999]	n/a	FR1	2	R1212P
1953.998	5.001	2219503	PROB	5.001	n/a	n/a	-999	19	[5, 8, 3]	16	FR1	2	R1212P
1958.999	3.017	2224624	PROB	3.017	n/a	n/a	-999	19	[5, 1, 2]	8	FR1	2	R1212P
1962.016	1.95	2227713	PROB	1.95	n/a	n/a	-999	19	[6, 3, 3]	12	FR1	2	R1212P
1963.966	2.051	2229710	PROB	2.051	n/a	n/a	-999	19	[9, 7, 5]	21	FR1	2	R1212P
1966.017	2.767	2231810	PROB	2.767	n/a	n/a	-999	19	[5, 6, 1]	12	FR1	2	R1212P
1968.784	3.45	2234644	PROB	3.45	n/a	n/a	-999	19	[5, 8, 1]	13	FR1	2	R1212P
1972.234	1.97	2238176	PROB	1.97	n/a	n/a	-999	19	[3, 3, 3]	9	FR1	2	R1212P
1974.204	0.014	2240193	STOP	n/a	n/a	n/a	-999	19	[-999, -999, -999]	n/a	FR1	2	R1212P
1974.218	1.051	2240208	DISTRACT_END	n/a	n/a	n/a	-999	19	[0, 0, 0]	n/a	FR1	2	R1212P
1975.269	1.631	2241284	REC_START	n/a	n/a	n/a	-999	19	[0, 0, 0]	n/a	FR1	2	R1212P
1976.9	0.812	2242954	REC_WORD	0.812	n/a	DOG	1	19	[0, 0, 0]	n/a	FR1	2	R1212P
1977.712	0.701	2243785	REC_WORD	0.701	n/a	GOAT	2	19	[0, 0, 0]	n/a	FR1	2	R1212P
1978.413	1.736	2244503	REC_WORD	1.736	n/a	HEN	3	19	[0, 0, 0]	n/a	FR1	2	R1212P
1980.149	0.799	2246281	REC_WORD	0.799	n/a	BLUSH	7	19	[0, 0, 0]	n/a	FR1	2	R1212P
1980.948	5.831	2247099	REC_WORD	5.831	n/a	SPOON	6	19	[0, 0, 0]	n/a	FR1	2	R1212P
1986.779	18.5	2253070	REC_WORD	18.5	n/a	JEEP	10	19	[0, 0, 0]	n/a	FR1	2	R1212P
2005.279	2.311	2272013	REC_END	n/a	n/a	n/a	-999	19	[0, 0, 0]	n/a	FR1	2	R1212P
2007.59	0.0	2274379	TRIAL	n/a	n/a	n/a	-999	20	[0, 0, 0]	n/a	FR1	2	R1212P
2007.59	10.428	2274379	COUNTDOWN_START	n/a	n/a	n/a	-999	20	[0, 0, 0]	n/a	FR1	2	R1212P
2018.018	0.008	2285057	COUNTDOWN_END	n/a	n/a	n/a	-999	20	[0, 0, 0]	n/a	FR1	2	R1212P
2018.026	2.516	2285065	ORIENT	n/a	n/a	n/a	-999	20	[0, 0, 0]	n/a	FR1	2	R1212P
2020.542	2.419	2287641	WORD	n/a	wordpools/wordpool_EN.txt	TANK	1	20	[0, 0, 0]	n/a	FR1	2	R1212P
2022.961	2.417	2290118	WORD	n/a	wordpools/wordpool_EN.txt	PLANT	2	20	[0, 0, 0]	n/a	FR1	2	R1212P
2025.378	2.467	2292593	WORD	n/a	wordpools/wordpool_EN.txt	JET	3	20	[0, 0, 0]	n/a	FR1	2	R1212P
2027.845	2.534	2295119	WORD	n/a	wordpools/wordpool_EN.txt	BEACH	4	20	[0, 0, 0]	n/a	FR1	2	R1212P
2030.379	2.483	2297714	WORD	n/a	wordpools/wordpool_EN.txt	VAN	5	20	[0, 0, 0]	n/a	FR1	2	R1212P
2032.862	2.417	2300256	WORD	n/a	wordpools/wordpool_EN.txt	WING	6	20	[0, 0, 0]	n/a	FR1	2	R1212P
2035.279	2.551	2302731	WORD	n/a	wordpools/wordpool_EN.txt	BOAT	7	20	[0, 0, 0]	n/a	FR1	2	R1212P
2037.83	2.6	2305343	WORD	n/a	wordpools/wordpool_EN.txt	SHARK	8	20	[0, 0, 0]	n/a	FR1	2	R1212P
2040.43	2.468	2308006	WORD	n/a	wordpools/wordpool_EN.txt	LAMP	9	20	[0, 0, 0]	n/a	FR1	2	R1212P
2042.898	2.517	2310533	WORD	n/a	wordpools/wordpool_EN.txt	CUP	10	20	[0, 0, 0]	n/a	FR1	2	R1212P
2045.415	2.517	2313110	WORD	n/a	wordpools/wordpool_EN.txt	FLAME	11	20	[0, 0, 0]	n/a	FR1	2	R1212P
2047.932	1.616	2315687	WORD	n/a	wordpools/wordpool_EN.txt	GLASS	12	20	[0, 0, 0]	n/a	FR1	2	R1212P
2049.548	0.001	2317342	DISTRACT_START	n/a	n/a	n/a	-999	20	[0, 0, 0]	n/a	FR1	2	R1212P
2049.549	0.016	2317343	START	n/a	n/a	n/a	-999	20	[-999, -999, -999]	n/a	FR1	2	R1212P
2049.565	3.134	2317359	PROB	3.134	n/a	n/a	-999	20	[1, 4, 4]	9	FR1	2	R1212P
2052.699	2.301	2320569	PROB	2.301	n/a	n/a	-999	20	[3, 6, 1]	10	FR1	2	R1212P
2055.0	2.633	2322925	PROB	2.633	n/a	n/a	-999	20	[2, 9, 3]	14	FR1	2	R1212P
2057.633	4.118	2325621	PROB	4.118	n/a	n/a	-999	20	[4, 8, 6]	18	FR1	2	R1212P
2061.751	3.001	2329837	PROB	3.001	n/a	n/a	-999	20	[9, 7, 5]	2	FR1	2	R1212P
2064.752	3.1	2332910	PROB	3.1	n/a	n/a	-999	20	[9, 1, 3]	3	FR1	2	R1212P
2067.852	3.463	2336084	PROB	3.463	n/a	n/a	-999	20	[8, 2, 9]	19	FR1	2	R1212P
2071.315	0.004	2339630	STOP	n/a	n/a	n/a	-999	20	[-999, -999, -999]	n/a	FR1	2	R1212P
2071.319	1.068	2339635	DISTRACT_END	n/a	n/a	n/a	-999	20	[0, 0, 0]	n/a	FR1	2	R1212P
2072.387	1.634	2340728	REC_START	n/a	n/a	n/a	-999	20	[0, 0, 0]	n/a	FR1	2	R1212P
2074.021	0.853	2342401	REC_WORD	0.853	n/a	TANK	1	20	[0, 0, 0]	n/a	FR1	2	R1212P
2074.874	1.027	2343275	REC_WORD	1.027	n/a	JET	3	20	[0, 0, 0]	n/a	FR1	2	R1212P
2075.901	0.584	2344326	REC_WORD	0.584	n/a	BOAT	7	20	[0, 0, 0]	n/a	FR1	2	R1212P
2076.485	2.094	2344924	REC_WORD	2.094	n/a	WING	6	20	[0, 0, 0]	n/a	FR1	2	R1212P
2078.579	1.617	2347068	REC_WORD	1.617	n/a	VAN	5	20	[0, 0, 0]	n/a	FR1	2	R1212P
2080.196	22.201	2348724	REC_WORD	22.201	n/a	BEACH	4	20	[0, 0, 0]	n/a	FR1	2	R1212P
2102.397	1.912	2371457	REC_END	n/a	n/a	n/a	-999	20	[0, 0, 0]	n/a	FR1	2	R1212P
2104.309	0.0	2373415	TRIAL	n/a	n/a	n/a	-999	21	[0, 0, 0]	n/a	FR1	2	R1212P
2104.309	10.428	2373415	COUNTDOWN_START	n/a	n/a	n/a	-999	21	[0, 0, 0]	n/a	FR1	2	R1212P
2114.737	0.007	2384092	COUNTDOWN_END	n/a	n/a	n/a	-999	21	[0, 0, 0]	n/a	FR1	2	R1212P
2114.744	2.618	2384100	ORIENT	n/a	n/a	n/a	-999	21	[0, 0, 0]	n/a	FR1	2	R1212P
2117.362	2.433	2386780	WORD	n/a	wordpools/wordpool_EN.txt	BRICK	1	21	[0, 0, 0]	n/a	FR1	2	R1212P
2119.795	2.417	2389272	WORD	n/a	wordpools/wordpool_EN.txt	CORD	2	21	[0, 0, 0]	n/a	FR1	2	R1212P
2122.212	2.468	2391747	WORD	n/a	wordpools/wordpool_EN.txt	BADGE	3	21	[0, 0, 0]	n/a	FR1	2	R1212P
2124.68	2.533	2394274	WORD	n/a	wordpools/wordpool_EN.txt	CASH	4	21	[0, 0, 0]	n/a	FR1	2	R1212P
2127.213	2.568	2396867	WORD	n/a	wordpools/wordpool_EN.txt	STEM	5	21	[0, 0, 0]	n/a	FR1	2	R1212P
2129.781	2.467	2399497	WORD	n/a	wordpools/wordpool_EN.txt	BEAR	6	21	[0, 0, 0]	n/a	FR1	2	R1212P
2132.248	2.6	2402023	WORD	n/a	wordpools/wordpool_EN.txt	BOMB	7	21	[0, 0, 0]	n/a	FR1	2	R1212P
2134.848	2.401	2404685	WORD	n/a	wordpools/wordpool_EN.txt	CLOWN	8	21	[0, 0, 0]	n/a	FR1	2	R1212P
2137.249	2.583	2407144	WORD	n/a	wordpools/wordpool_EN.txt	SPARK	9	21	[0, 0, 0]	n/a	FR1	2	R1212P
2139.832	2.434	2409789	WORD	n/a	wordpools/wordpool_EN.txt	GOLD	10	21	[0, 0, 0]	n/a	FR1	2	R1212P
2142.266	2.417	2412281	WORD	n/a	wordpools/wordpool_EN.txt	FUDGE	11	21	[0, 0, 0]	n/a	FR1	2	R1212P
2144.683	1.617	2414756	WORD	n/a	wordpools/wordpool_EN.txt	ROCK	12	21	[0, 0, 0]	n/a	FR1	2	R1212P
2146.3	0.001	2416411	DISTRACT_START	n/a	n/a	n/a	-999	21	[0, 0, 0]	n/a	FR1	2	R1212P
2146.301	0.016	2416412	START	n/a	n/a	n/a	-999	21	[-999, -999, -999]	n/a	FR1	2	R1212P
2146.317	4.351	2416429	PROB	4.351	n/a	n/a	-999	21	[7, 3, 4]	14	FR1	2	R1212P
2150.668	2.55	2420884	PROB	2.55	n/a	n/a	-999	21	[8, 6, 8]	22	FR1	2	R1212P
2153.218	2.634	2423495	PROB	2.634	n/a	n/a	-999	21	[5, 4, 3]	12	FR1	2	R1212P
2155.852	3.351	2426192	PROB	3.351	n/a	n/a	-999	21	[5, 7, 6]	18	FR1	2	R1212P
2159.203	2.75	2429624	PROB	2.75	n/a	n/a	-999	21	[1, 8, 9]	18	FR1	2	R1212P
2161.953	2.051	2432439	PROB	2.051	n/a	n/a	-999	21	[3, 3, 5]	12	FR1	2	R1212P
2164.004	4.151	2434540	PROB	4.151	n/a	n/a	-999	21	[2, 3, 5]	9	FR1	2	R1212P
2168.155	0.016	2438790	STOP	n/a	n/a	n/a	-999	21	[-999, -999, -999]	n/a	FR1	2	R1212P
2168.171	1.067	2438806	DISTRACT_END	n/a	n/a	n/a	-999	21	[0, 0, 0]	n/a	FR1	2	R1212P
2169.238	1.348	2439899	REC_START	n/a	n/a	n/a	-999	21	[0, 0, 0]	n/a	FR1	2	R1212P
2170.586	0.546	2441279	REC_WORD_VV	0.546	n/a	<>	-999	21	[0, 0, 0]	n/a	FR1	2	R1212P
2171.132	0.579	2441838	REC_WORD	0.579	n/a	BRICK	1	21	[0, 0, 0]	n/a	FR1	2	R1212P
2171.711	1.827	2442431	REC_WORD	1.827	n/a	CORD	2	21	[0, 0, 0]	n/a	FR1	2	R1212P
2173.538	25.713	2444302	REC_WORD	25.713	n/a	CLOWN	8	21	[0, 0, 0]	n/a	FR1	2	R1212P
2199.251	2.843	2470631	REC_END	n/a	n/a	n/a	-999	21	[0, 0, 0]	n/a	FR1	2	R1212P
2202.094	0.0	2473542	TRIAL	n/a	n/a	n/a	-999	22	[0, 0, 0]	n/a	FR1	2	R1212P
2202.094	10.428	2473542	COUNTDOWN_START	n/a	n/a	n/a	-999	22	[0, 0, 0]	n/a	FR1	2	R1212P
2212.522	0.007	2484220	COUNTDOWN_END	n/a	n/a	n/a	-999	22	[0, 0, 0]	n/a	FR1	2	R1212P
2212.529	2.534	2484227	ORIENT	n/a	n/a	n/a	-999	22	[0, 0, 0]	n/a	FR1	2	R1212P
2215.063	2.384	2486821	WORD	n/a	wordpools/wordpool_EN.txt	STEAK	1	22	[0, 0, 0]	n/a	FR1	2	R1212P
2217.447	2.567	2489263	WORD	n/a	wordpools/wordpool_EN.txt	EGG	2	22	[0, 0, 0]	n/a	FR1	2	R1212P
2220.014	2.616	2491891	WORD	n/a	wordpools/wordpool_EN.txt	BLOOM	3	22	[0, 0, 0]	n/a	FR1	2	R1212P
2222.63	2.518	2494570	WORD	n/a	wordpools/wordpool_EN.txt	PEAR	4	22	[0, 0, 0]	n/a	FR1	2	R1212P
2225.148	2.518	2497148	WORD	n/a	wordpools/wordpool_EN.txt	FOOD	5	22	[0, 0, 0]	n/a	FR1	2	R1212P
2227.666	2.617	2499726	WORD	n/a	wordpools/wordpool_EN.txt	SLEEVE	6	22	[0, 0, 0]	n/a	FR1	2	R1212P
2230.283	2.417	2502406	WORD	n/a	wordpools/wordpool_EN.txt	ELF	7	22	[0, 0, 0]	n/a	FR1	2	R1212P
2232.7	2.6	2504881	WORD	n/a	wordpools/wordpool_EN.txt	GEESE	8	22	[0, 0, 0]	n/a	FR1	2	R1212P
2235.3	2.617	2507543	WORD	n/a	wordpools/wordpool_EN.txt	BAG	9	22	[0, 0, 0]	n/a	FR1	2	R1212P
2237.917	2.484	2510223	WORD	n/a	wordpools/wordpool_EN.txt	SPRING	10	22	[0, 0, 0]	n/a	FR1	2	R1212P
2240.401	2.517	2512766	WORD	n/a	wordpools/wordpool_EN.txt	MILK	11	22	[0, 0, 0]	n/a	FR1	2	R1212P
2242.918	1.616	2515344	WORD	n/a	wordpools/wordpool_EN.txt	FARM	12	22	[0, 0, 0]	n/a	FR1	2	R1212P
2244.534	0.001	2516998	DISTRACT_START	n/a	n/a	n/a	-999	22	[0, 0, 0]	n/a	FR1	2	R1212P
2244.535	0.016	2516999	START	n/a	n/a	n/a	-999	22	[-999, -999, -999]	n/a	FR1	2	R1212P
2244.551	3.984	2517016	PROB	3.984	n/a	n/a	-999	22	[6, 8, 3]	17	FR1	2	R1212P
2248.535	2.485	2521095	PROB	2.485	n/a	n/a	-999	22	[4, 4, 9]	17	FR1	2	R1212P
2251.02	5.101	2523640	PROB	5.101	n/a	n/a	-999	22	[8, 7, 8]	23	FR1	2	R1212P
2256.121	5.5	2528863	PROB	5.5	n/a	n/a	-999	22	[7, 5, 6]	19	FR1	2	R1212P
2261.621	2.085	2534495	PROB	2.085	n/a	n/a	-999	22	[2, 8, 2]	12	FR1	2	R1212P
2263.706	4.066	2536630	PROB	4.066	n/a	n/a	-999	22	[5, 6, 4]	15	FR1	2	R1212P
2267.772	0.018	2540793	STOP	n/a	n/a	n/a	-999	22	[-999, -999, -999]	n/a	FR1	2	R1212P
2267.79	1.101	2540811	DISTRACT_END	n/a	n/a	n/a	-999	22	[0, 0, 0]	n/a	FR1	2	R1212P
2268.891	1.794	2541939	REC_START	n/a	n/a	n/a	-999	22	[0, 0, 0]	n/a	FR1	2	R1212P
2270.685	1.003	2543776	REC_WORD	1.003	n/a	STEAK	1	22	[0, 0, 0]	n/a	FR1	2	R1212P
2271.688	1.463	2544803	REC_WORD	1.463	n/a	EGG	2	22	[0, 0, 0]	n/a	FR1	2	R1212P
2273.151	1.113	2546301	REC_WORD	1.113	n/a	BLOOM	3	22	[0, 0, 0]	n/a	FR1	2	R1212P
2274.264	21.043	2547440	REC_WORD	21.043	n/a	FOOD	5	22	[0, 0, 0]	n/a	FR1	2	R1212P
2295.307	3.596	2568987	REC_WORD	3.596	n/a	FARM	12	22	[0, 0, 0]	n/a	FR1	2	R1212P
2298.903	1.943	2572670	REC_END	n/a	n/a	n/a	-999	22	[0, 0, 0]	n/a	FR1	2	R1212P
2300.846	0.0	2574659	COUNTDOWN_START	n/a	n/a	n/a	-999	23	[0, 0, 0]	n/a	FR1	2	R1212P
2300.846	10.428	2574659	TRIAL	n/a	n/a	n/a	-999	23	[0, 0, 0]	n/a	FR1	2	R1212P
2311.274	0.007	2585337	COUNTDOWN_END	n/a	n/a	n/a	-999	23	[0, 0, 0]	n/a	FR1	2	R1212P
2311.281	2.467	2585344	ORIENT	n/a	n/a	n/a	-999	23	[0, 0, 0]	n/a	FR1	2	R1212P
2313.748	2.468	2587870	WORD	n/a	wordpools/wordpool_EN.txt	JUICE	1	23	[0, 0, 0]	n/a	FR1	2	R1212P
2316.216	2.382	2590397	WORD	n/a	wordpools/wordpool_EN.txt	LAKE	2	23	[0, 0, 0]	n/a	FR1	2	R1212P
2318.598	2.535	2592836	WORD	n/a	wordpools/wordpool_EN.txt	SALT	3	23	[0, 0, 0]	n/a	FR1	2	R1212P
2321.133	2.5	2595432	WORD	n/a	wordpools/wordpool_EN.txt	MAIL	4	23	[0, 0, 0]	n/a	FR1	2	R1212P
2323.633	2.501	2597992	WORD	n/a	wordpools/wordpool_EN.txt	LAND	5	23	[0, 0, 0]	n/a	FR1	2	R1212P
2326.134	2.466	2600553	WORD	n/a	wordpools/wordpool_EN.txt	PLANE	6	23	[0, 0, 0]	n/a	FR1	2	R1212P
2328.6	2.602	2603078	WORD	n/a	wordpools/wordpool_EN.txt	SHIP	7	23	[0, 0, 0]	n/a	FR1	2	R1212P
2331.202	2.517	2605742	WORD	n/a	wordpools/wordpool_EN.txt	TRASH	8	23	[0, 0, 0]	n/a	FR1	2	R1212P
2333.719	2.384	2608320	WORD	n/a	wordpools/wordpool_EN.txt	NET	9	23	[0, 0, 0]	n/a	FR1	2	R1212P
2336.103	2.516	2610761	WORD	n/a	wordpools/wordpool_EN.txt	SMOKE	10	23	[0, 0, 0]	n/a	FR1	2	R1212P
2338.619	2.401	2613337	WORD	n/a	wordpools/wordpool_EN.txt	SHEET	11	23	[0, 0, 0]	n/a	FR1	2	R1212P
2341.02	1.616	2615795	WORD	n/a	wordpools/wordpool_EN.txt	APE	12	23	[0, 0, 0]	n/a	FR1	2	R1212P
2342.636	0.002	2617450	DISTRACT_START	n/a	n/a	n/a	-999	23	[0, 0, 0]	n/a	FR1	2	R1212P
2342.638	0.016	2617452	START	n/a	n/a	n/a	-999	23	[-999, -999, -999]	n/a	FR1	2	R1212P
2342.654	5.067	2617469	PROB	5.067	n/a	n/a	-999	23	[1, 9, 3]	1	FR1	2	R1212P
2347.721	3.634	2622657	PROB	3.634	n/a	n/a	-999	23	[6, 1, 9]	16	FR1	2	R1212P
2351.355	3.668	2626378	PROB	3.668	n/a	n/a	-999	23	[4, 6, 8]	18	FR1	2	R1212P
2355.023	1.65	2630134	PROB	1.65	n/a	n/a	-999	23	[2, 5, 5]	12	FR1	2	R1212P
2356.673	2.117	2631823	PROB	2.117	n/a	n/a	-999	23	[8, 9, 1]	18	FR1	2	R1212P
2358.79	4.069	2633991	PROB	4.069	n/a	n/a	-999	23	[1, 6, 3]	10	FR1	2	R1212P
2362.859	0.015	2638157	STOP	n/a	n/a	n/a	-999	23	[-999, -999, -999]	n/a	FR1	2	R1212P
2362.874	1.084	2638173	DISTRACT_END	n/a	n/a	n/a	-999	23	[0, 0, 0]	n/a	FR1	2	R1212P
2363.958	1.341	2639283	REC_START	n/a	n/a	n/a	-999	23	[0, 0, 0]	n/a	FR1	2	R1212P
2365.299	1.191	2640656	REC_WORD	1.191	n/a	SALT	3	23	[0, 0, 0]	n/a	FR1	2	R1212P
2366.49	1.411	2641875	REC_WORD	1.411	n/a	MAIL	4	23	[0, 0, 0]	n/a	FR1	2	R1212P
2367.901	0.948	2643320	REC_WORD	0.948	n/a	JUICE	1	23	[0, 0, 0]	n/a	FR1	2	R1212P
2368.849	17.133	2644291	REC_WORD	17.133	n/a	SHIP	7	23	[0, 0, 0]	n/a	FR1	2	R1212P
2385.982	7.989	2661834	REC_WORD	7.989	n/a	LAND	5	23	[0, 0, 0]	n/a	FR1	2	R1212P
2393.971	1.492	2670015	REC_END	n/a	n/a	n/a	-999	23	[0, 0, 0]	n/a	FR1	2	R1212P
2395.463	0.001	2671542	COUNTDOWN_START	n/a	n/a	n/a	-999	24	[0, 0, 0]	n/a	FR1	2	R1212P
2395.464	10.427	2671543	TRIAL	n/a	n/a	n/a	-999	24	[0, 0, 0]	n/a	FR1	2	R1212P
2405.891	0.008	2682220	COUNTDOWN_END	n/a	n/a	n/a	-999	24	[0, 0, 0]	n/a	FR1	2	R1212P
2405.899	2.584	2682228	ORIENT	n/a	n/a	n/a	-999	24	[0, 0, 0]	n/a	FR1	2	R1212P
2408.483	2.5	2684874	WORD	n/a	wordpools/wordpool_EN.txt	MAP	1	24	[0, 0, 0]	n/a	FR1	2	R1212P
2410.983	2.384	2687434	WORD	n/a	wordpools/wordpool_EN.txt	GRAPE	2	24	[0, 0, 0]	n/a	FR1	2	R1212P
2413.367	2.6	2689875	WORD	n/a	wordpools/wordpool_EN.txt	HOSE	3	24	[0, 0, 0]	n/a	FR1	2	R1212P
2415.967	2.534	2692538	WORD	n/a	wordpools/wordpool_EN.txt	TRAIN	4	24	[0, 0, 0]	n/a	FR1	2	R1212P
2418.501	2.584	2695132	WORD	n/a	wordpools/wordpool_EN.txt	BOOK	5	24	[0, 0, 0]	n/a	FR1	2	R1212P
2421.085	2.55	2697778	WORD	n/a	wordpools/wordpool_EN.txt	TREE	6	24	[0, 0, 0]	n/a	FR1	2	R1212P
2423.635	2.418	2700389	WORD	n/a	wordpools/wordpool_EN.txt	RAIN	7	24	[0, 0, 0]	n/a	FR1	2	R1212P
2426.053	2.4	2702865	WORD	n/a	wordpools/wordpool_EN.txt	CAR	8	24	[0, 0, 0]	n/a	FR1	2	R1212P
2428.453	2.601	2705323	WORD	n/a	wordpools/wordpool_EN.txt	POLE	9	24	[0, 0, 0]	n/a	FR1	2	R1212P
2431.054	2.549	2707986	WORD	n/a	wordpools/wordpool_EN.txt	KEY	10	24	[0, 0, 0]	n/a	FR1	2	R1212P
2433.603	2.485	2710596	WORD	n/a	wordpools/wordpool_EN.txt	PEA	11	24	[0, 0, 0]	n/a	FR1	2	R1212P
2436.088	1.617	2713140	WORD	n/a	wordpools/wordpool_EN.txt	JAIL	12	24	[0, 0, 0]	n/a	FR1	2	R1212P
2437.705	0.001	2714796	DISTRACT_START	n/a	n/a	n/a	-999	24	[0, 0, 0]	n/a	FR1	2	R1212P
2437.706	0.016	2714797	START	n/a	n/a	n/a	-999	24	[-999, -999, -999]	n/a	FR1	2	R1212P
2437.722	3.816	2714814	PROB	3.816	n/a	n/a	-999	24	[7, 3, 7]	17	FR1	2	R1212P
2441.538	2.718	2718721	PROB	2.718	n/a	n/a	-999	24	[3, 7, 5]	15	FR1	2	R1212P
2444.256	2.184	2721504	PROB	2.184	n/a	n/a	-999	24	[8, 4, 1]	13	FR1	2	R1212P
2446.44	5.183	2723740	PROB	5.183	n/a	n/a	-999	24	[8, 8, 9]	25	FR1	2	R1212P
2451.623	1.702	2729048	PROB	1.702	n/a	n/a	-999	24	[9, 1, 1]	11	FR1	2	R1212P
2453.325	4.71	2730790	PROB	4.71	n/a	n/a	-999	24	[8, 3, 7]	18	FR1	2	R1212P
2458.035	0.007	2735613	STOP	n/a	n/a	n/a	-999	24	[-999, -999, -999]	n/a	FR1	2	R1212P
2458.042	1.184	2735620	DISTRACT_END	n/a	n/a	n/a	-999	24	[0, 0, 0]	n/a	FR1	2	R1212P
2459.226	30.011	2736833	REC_START	n/a	n/a	n/a	-999	24	[0, 0, 0]	n/a	FR1	2	R1212P
2489.237	0.006	2767562	REC_WORD_VV	0.006	n/a	<>	-999	24	[0, 0, 0]	n/a	FR1	2	R1212P
2489.243	2.489	2767569	REC_END	n/a	n/a	n/a	-999	24	[0, 0, 0]	n/a	FR1	2	R1212P
2491.732	0.0	2770117	TRIAL	n/a	n/a	n/a	-999	25	[0, 0, 0]	n/a	FR1	2	R1212P
2491.732	10.428	2770117	COUNTDOWN_START	n/a	n/a	n/a	-999	25	[0, 0, 0]	n/a	FR1	2	R1212P
2502.16	0.007	2780795	COUNTDOWN_END	n/a	n/a	n/a	-999	25	[0, 0, 0]	n/a	FR1	2	R1212P
2502.167	2.4	2780802	ORIENT	n/a	n/a	n/a	-999	25	[0, 0, 0]	n/a	FR1	2	R1212P
2504.567	2.568	2783260	WORD	n/a	wordpools/wordpool_EN.txt	RUG	1	25	[0, 0, 0]	n/a	FR1	2	R1212P
2507.135	2.499	2785889	WORD	n/a	wordpools/wordpool_EN.txt	YARD	2	25	[0, 0, 0]	n/a	FR1	2	R1212P
2509.634	2.385	2788448	WORD	n/a	wordpools/wordpool_EN.txt	HOLE	3	25	[0, 0, 0]	n/a	FR1	2	R1212P
2512.019	2.467	2790890	WORD	n/a	wordpools/wordpool_EN.txt	WHALE	4	25	[0, 0, 0]	n/a	FR1	2	R1212P
2514.486	2.5	2793416	WORD	n/a	wordpools/wordpool_EN.txt	HILL	5	25	[0, 0, 0]	n/a	FR1	2	R1212P
2516.986	2.518	2795976	WORD	n/a	wordpools/wordpool_EN.txt	ROOF	6	25	[0, 0, 0]	n/a	FR1	2	R1212P
2519.504	2.583	2798554	WORD	n/a	wordpools/wordpool_EN.txt	ANT	7	25	[0, 0, 0]	n/a	FR1	2	R1212P
2522.087	2.45	2801199	WORD	n/a	wordpools/wordpool_EN.txt	CAGE	8	25	[0, 0, 0]	n/a	FR1	2	R1212P
2524.537	2.418	2803708	WORD	n/a	wordpools/wordpool_EN.txt	TOAD	9	25	[0, 0, 0]	n/a	FR1	2	R1212P
2526.955	2.517	2806184	WORD	n/a	wordpools/wordpool_EN.txt	MOUTH	10	25	[0, 0, 0]	n/a	FR1	2	R1212P
2529.472	2.484	2808761	WORD	n/a	wordpools/wordpool_EN.txt	MOLE	11	25	[0, 0, 0]	n/a	FR1	2	R1212P
2531.956	1.616	2811305	WORD	n/a	wordpools/wordpool_EN.txt	SHELL	12	25	[0, 0, 0]	n/a	FR1	2	R1212P
2533.572	0.001	2812959	DISTRACT_START	n/a	n/a	n/a	-999	25	[0, 0, 0]	n/a	FR1	2	R1212P
2533.573	0.016	2812960	START	n/a	n/a	n/a	-999	25	[-999, -999, -999]	n/a	FR1	2	R1212P
2533.589	4.385	2812977	PROB	4.385	n/a	n/a	-999	25	[4, 8, 2]	14	FR1	2	R1212P
2537.974	3.484	2817467	PROB	3.484	n/a	n/a	-999	25	[1, 2, 6]	9	FR1	2	R1212P
2541.458	6.434	2821034	PROB	6.434	n/a	n/a	-999	25	[9, 7, 9]	25	FR1	2	R1212P
2547.892	3.884	2827622	PROB	3.884	n/a	n/a	-999	25	[6, 5, 8]	19	FR1	2	R1212P
2551.776	4.115	2831599	PROB	4.115	n/a	n/a	-999	25	[4, 8, 7]	19	FR1	2	R1212P
2555.891	0.019	2835813	STOP	n/a	n/a	n/a	-999	25	[-999, -999, -999]	n/a	FR1	2	R1212P
2555.91	1.135	2835832	DISTRACT_END	n/a	n/a	n/a	-999	25	[0, 0, 0]	n/a	FR1	2	R1212P
2557.045	1.848	2836995	REC_START	n/a	n/a	n/a	-999	25	[0, 0, 0]	n/a	FR1	2	R1212P
2558.893	1.185	2838887	REC_WORD	1.185	n/a	RUG	1	25	[0, 0, 0]	n/a	FR1	2	R1212P
2560.078	1.332	2840100	REC_WORD	1.332	n/a	HILL	5	25	[0, 0, 0]	n/a	FR1	2	R1212P
2561.41	3.789	2841464	REC_WORD	3.789	n/a	HOLE	3	25	[0, 0, 0]	n/a	FR1	2	R1212P
2565.199	21.858	2845344	REC_WORD	21.858	n/a	MOLE	11	25	[0, 0, 0]	n/a	FR1	2	R1212P
2587.057	88.259	2867725	REC_END	n/a	n/a	n/a	-999	25	[0, 0, 0]	n/a	FR1	2	R1212P
2675.316	0.0	2958098	SESS_END	n/a	n/a	n/a	-999	25	[0, 0, 0]	n/a	FR1	2	R1212P
