onset	duration	sample	trial_type	response_time	stim_file	item_name	serialpos	list	test	answer	experiment	session	subject
0.0	0.0	13633	INSTRUCT_START	n/a	n/a	n/a	-999	-999	[0, 0, 0]	n/a	FR1	1	R1145J
0.0	11.079	13633	INSTRUCT_END	n/a	n/a	n/a	-999	-999	[0, 0, 0]	n/a	FR1	1	R1145J
11.079	0.0	24712	SESS_START	n/a	n/a	n/a	-999	-999	[0, 0, 0]	n/a	FR1	1	R1145J
11.079	14.502	24712	MIC_TEST	n/a	n/a	n/a	-999	-999	[0, 0, 0]	n/a	FR1	1	R1145J
25.581	25.876	39214	PRACTICE_TRIAL	n/a	n/a	n/a	-999	-1	[0, 0, 0]	n/a	FR1	1	R1145J
51.457	10.428	65090	COUNTDOWN_START	n/a	n/a	n/a	-999	-1	[0, 0, 0]	n/a	FR1	1	R1145J
61.885	0.007	75518	COUNTDOWN_END	n/a	n/a	n/a	-999	-1	[0, 0, 0]	n/a	FR1	1	R1145J
61.892	1.617	75525	PRACTICE_ORIENT	n/a	n/a	n/a	-999	-1	[0, 0, 0]	n/a	FR1	1	R1145J
63.509	2.015	77142	PRACTICE_ORIENT_OFF	n/a	n/a	n/a	-999	-1	[0, 0, 0]	n/a	FR1	1	R1145J
65.524	1.601	79156	PRACTICE_WORD	n/a	n/a	ATTIC	1	-1	[0, 0, 0]	n/a	FR1	1	R1145J
67.125	0.917	80757	PRACTICE_WORD_OFF	n/a	n/a	ATTIC	-999	-1	[0, 0, 0]	n/a	FR1	1	R1145J
68.042	1.616	81674	PRACTICE_WORD	n/a	n/a	BEAM	2	-1	[0, 0, 0]	n/a	FR1	1	R1145J
69.658	0.9	83290	PRACTICE_WORD_OFF	n/a	n/a	BEAM	-999	-1	[0, 0, 0]	n/a	FR1	1	R1145J
70.558	1.601	84190	PRACTICE_WORD	n/a	n/a	CHEST	3	-1	[0, 0, 0]	n/a	FR1	1	R1145J
72.159	0.784	85791	PRACTICE_WORD_OFF	n/a	n/a	CHEST	-999	-1	[0, 0, 0]	n/a	FR1	1	R1145J
72.943	1.616	86575	PRACTICE_WORD	n/a	n/a	WATCH	4	-1	[0, 0, 0]	n/a	FR1	1	R1145J
74.559	0.901	88191	PRACTICE_WORD_OFF	n/a	n/a	WATCH	-999	-1	[0, 0, 0]	n/a	FR1	1	R1145J
75.46	1.617	89092	PRACTICE_WORD	n/a	n/a	TONGUE	5	-1	[0, 0, 0]	n/a	FR1	1	R1145J
77.077	0.883	90709	PRACTICE_WORD_OFF	n/a	n/a	TONGUE	-999	-1	[0, 0, 0]	n/a	FR1	1	R1145J
77.96	1.616	91592	PRACTICE_WORD	n/a	n/a	WAGON	6	-1	[0, 0, 0]	n/a	FR1	1	R1145J
79.576	0.818	93208	PRACTICE_WORD_OFF	n/a	n/a	WAGON	-999	-1	[0, 0, 0]	n/a	FR1	1	R1145J
80.394	1.617	94026	PRACTICE_WORD	n/a	n/a	FLOOD	7	-1	[0, 0, 0]	n/a	FR1	1	R1145J
82.011	0.799	95643	PRACTICE_WORD_OFF	n/a	n/a	FLOOD	-999	-1	[0, 0, 0]	n/a	FR1	1	R1145J
82.81	1.618	96442	PRACTICE_WORD	n/a	n/a	CAMEL	8	-1	[0, 0, 0]	n/a	FR1	1	R1145J
84.428	0.967	98060	PRACTICE_WORD_OFF	n/a	n/a	CAMEL	-999	-1	[0, 0, 0]	n/a	FR1	1	R1145J
85.395	1.617	99027	PRACTICE_WORD	n/a	n/a	IRON	9	-1	[0, 0, 0]	n/a	FR1	1	R1145J
87.012	1.0	100644	PRACTICE_WORD_OFF	n/a	n/a	IRON	-999	-1	[0, 0, 0]	n/a	FR1	1	R1145J
88.012	1.616	101644	PRACTICE_WORD	n/a	n/a	RHINO	10	-1	[0, 0, 0]	n/a	FR1	1	R1145J
89.628	0.867	103260	PRACTICE_WORD_OFF	n/a	n/a	RHINO	-999	-1	[0, 0, 0]	n/a	FR1	1	R1145J
90.495	1.617	104127	PRACTICE_WORD	n/a	n/a	RING	11	-1	[0, 0, 0]	n/a	FR1	1	R1145J
92.112	0.934	105744	PRACTICE_WORD_OFF	n/a	n/a	RING	-999	-1	[0, 0, 0]	n/a	FR1	1	R1145J
93.046	1.616	106678	PRACTICE_WORD	n/a	n/a	COTTON	12	-1	[0, 0, 0]	n/a	FR1	1	R1145J
94.662	0.0	108294	PRACTICE_WORD_OFF	n/a	n/a	COTTON	-999	-1	[0, 0, 0]	n/a	FR1	1	R1145J
94.662	0.0	108294	DISTRACT_START	n/a	n/a	n/a	-999	-1	[0, 0, 0]	n/a	FR1	1	R1145J
94.662	0.016	108294	START	n/a	n/a	n/a	-999	-1	[-999, -999, -999]	n/a	FR1	1	R1145J
94.678	22.395	108310	PROB	22.395	n/a	n/a	-999	-1	[6, 7, 9]	22	FR1	1	R1145J
117.073	0.009	130705	STOP	n/a	n/a	n/a	-999	-1	[-999, -999, -999]	n/a	FR1	1	R1145J
117.082	0.566	130714	DISTRACT_END	n/a	n/a	n/a	-999	-1	[0, 0, 0]	n/a	FR1	1	R1145J
117.648	0.523	131280	RETRIEVAL_ORIENT	n/a	n/a	n/a	-999	-1	[0, 0, 0]	n/a	FR1	1	R1145J
118.171	30.006	131803	PRACTICE_REC_START	n/a	n/a	n/a	-999	-1	[0, 0, 0]	n/a	FR1	1	R1145J
148.177	66.401	161808	PRACTICE_REC_END	n/a	n/a	n/a	-999	-1	[0, 0, 0]	n/a	FR1	1	R1145J
214.578	0.5	228208	TRIAL	n/a	n/a	n/a	-999	1	[0, 0, 0]	n/a	FR1	1	R1145J
215.078	10.428	228708	COUNTDOWN_START	n/a	n/a	n/a	-999	1	[0, 0, 0]	n/a	FR1	1	R1145J
225.506	0.008	239136	COUNTDOWN_END	n/a	n/a	n/a	-999	1	[0, 0, 0]	n/a	FR1	1	R1145J
225.514	1.616	239144	ORIENT	n/a	n/a	n/a	-999	1	[0, 0, 0]	n/a	FR1	1	R1145J
227.13	2.017	240760	ORIENT_OFF	n/a	n/a	n/a	-999	1	[0, 0, 0]	n/a	FR1	1	R1145J
229.147	1.616	242777	WORD	n/a	wordpools/wordpool_EN.txt	DOG	1	1	[0, 0, 0]	n/a	FR1	1	R1145J
230.763	0.967	244393	WORD_OFF	n/a	n/a	DOG	1	1	[0, 0, 0]	n/a	FR1	1	R1145J
231.73	1.601	245360	WORD	n/a	wordpools/wordpool_EN.txt	CORN	2	1	[0, 0, 0]	n/a	FR1	1	R1145J
233.331	1.0	246961	WORD_OFF	n/a	n/a	CORN	2	1	[0, 0, 0]	n/a	FR1	1	R1145J
234.331	1.617	247961	WORD	n/a	wordpools/wordpool_EN.txt	TAIL	3	1	[0, 0, 0]	n/a	FR1	1	R1145J
235.948	0.799	249578	WORD_OFF	n/a	n/a	TAIL	3	1	[0, 0, 0]	n/a	FR1	1	R1145J
236.747	1.618	250377	WORD	n/a	wordpools/wordpool_EN.txt	FUR	4	1	[0, 0, 0]	n/a	FR1	1	R1145J
238.365	0.834	251995	WORD_OFF	n/a	n/a	FUR	4	1	[0, 0, 0]	n/a	FR1	1	R1145J
239.199	1.616	252829	WORD	n/a	wordpools/wordpool_EN.txt	GOAT	5	1	[0, 0, 0]	n/a	FR1	1	R1145J
240.815	0.966	254445	WORD_OFF	n/a	n/a	GOAT	5	1	[0, 0, 0]	n/a	FR1	1	R1145J
241.781	1.602	255411	WORD	n/a	wordpools/wordpool_EN.txt	STRAW	6	1	[0, 0, 0]	n/a	FR1	1	R1145J
243.383	0.933	257013	WORD_OFF	n/a	n/a	STRAW	6	1	[0, 0, 0]	n/a	FR1	1	R1145J
244.316	1.617	257946	WORD	n/a	wordpools/wordpool_EN.txt	WEED	7	1	[0, 0, 0]	n/a	FR1	1	R1145J
245.933	0.967	259563	WORD_OFF	n/a	n/a	WEED	7	1	[0, 0, 0]	n/a	FR1	1	R1145J
246.9	1.616	260530	WORD	n/a	wordpools/wordpool_EN.txt	COW	8	1	[0, 0, 0]	n/a	FR1	1	R1145J
248.516	0.867	262146	WORD_OFF	n/a	n/a	COW	8	1	[0, 0, 0]	n/a	FR1	1	R1145J
249.383	1.617	263013	WORD	n/a	wordpools/wordpool_EN.txt	CAVE	9	1	[0, 0, 0]	n/a	FR1	1	R1145J
251.0	0.799	264630	WORD_OFF	n/a	n/a	CAVE	9	1	[0, 0, 0]	n/a	FR1	1	R1145J
251.799	1.618	265429	WORD	n/a	wordpools/wordpool_EN.txt	LAMB	10	1	[0, 0, 0]	n/a	FR1	1	R1145J
253.417	0.85	267047	WORD_OFF	n/a	n/a	LAMB	10	1	[0, 0, 0]	n/a	FR1	1	R1145J
254.267	1.617	267897	WORD	n/a	wordpools/wordpool_EN.txt	CLIFF	11	1	[0, 0, 0]	n/a	FR1	1	R1145J
255.884	0.916	269514	WORD_OFF	n/a	n/a	CLIFF	11	1	[0, 0, 0]	n/a	FR1	1	R1145J
256.8	1.618	270430	WORD	n/a	wordpools/wordpool_EN.txt	MUD	12	1	[0, 0, 0]	n/a	FR1	1	R1145J
258.418	0.0	272048	WORD_OFF	n/a	n/a	MUD	12	1	[0, 0, 0]	n/a	FR1	1	R1145J
258.418	0.001	272048	DISTRACT_START	n/a	n/a	n/a	-999	1	[0, 0, 0]	n/a	FR1	1	R1145J
258.419	0.015	272049	START	n/a	n/a	n/a	-999	1	[-999, -999, -999]	n/a	FR1	1	R1145J
258.434	80.527	272064	PROB	80.527	n/a	n/a	-999	1	[8, 5, 7]	20	FR1	1	R1145J
338.961	0.018	352589	STOP	n/a	n/a	n/a	-999	1	[-999, -999, -999]	n/a	FR1	1	R1145J
338.979	0.682	352607	DISTRACT_END	n/a	n/a	n/a	-999	1	[0, 0, 0]	n/a	FR1	1	R1145J
339.661	0.519	353289	RETRIEVAL_ORIENT	n/a	n/a	n/a	-999	1	[0, 0, 0]	n/a	FR1	1	R1145J
340.18	2.919	353808	REC_START	n/a	n/a	n/a	-999	1	[0, 0, 0]	n/a	FR1	1	R1145J
343.099	0.898	356727	REC_WORD	0.898	n/a	DOG	1	1	[0, 0, 0]	n/a	FR1	1	R1145J
343.997	1.717	357625	REC_WORD	1.717	n/a	WEED	7	1	[0, 0, 0]	n/a	FR1	1	R1145J
345.714	0.756	359342	REC_WORD	0.756	n/a	DOG	1	1	[0, 0, 0]	n/a	FR1	1	R1145J
346.47	0.588	360098	REC_WORD	0.588	n/a	WEED	7	1	[0, 0, 0]	n/a	FR1	1	R1145J
347.058	1.453	360686	REC_WORD	1.453	n/a	LAMB	10	1	[0, 0, 0]	n/a	FR1	1	R1145J
348.511	0.588	362139	REC_WORD	0.588	n/a	COAT	-999	1	[0, 0, 0]	n/a	FR1	1	R1145J
349.099	21.092	362727	REC_WORD	21.092	n/a	COLD	-999	1	[0, 0, 0]	n/a	FR1	1	R1145J
370.191	6.142	383819	REC_END	n/a	n/a	n/a	-999	1	[0, 0, 0]	n/a	FR1	1	R1145J
376.333	0.5	389961	TRIAL	n/a	n/a	n/a	-999	2	[0, 0, 0]	n/a	FR1	1	R1145J
376.833	10.428	390461	COUNTDOWN_START	n/a	n/a	n/a	-999	2	[0, 0, 0]	n/a	FR1	1	R1145J
387.261	0.008	400889	COUNTDOWN_END	n/a	n/a	n/a	-999	2	[0, 0, 0]	n/a	FR1	1	R1145J
387.269	1.617	400897	ORIENT	n/a	n/a	n/a	-999	2	[0, 0, 0]	n/a	FR1	1	R1145J
388.886	2.2	402514	ORIENT_OFF	n/a	n/a	n/a	-999	2	[0, 0, 0]	n/a	FR1	1	R1145J
391.086	1.616	404713	WORD	n/a	wordpools/wordpool_EN.txt	WING	1	2	[0, 0, 0]	n/a	FR1	1	R1145J
392.702	0.883	406329	WORD_OFF	n/a	n/a	WING	1	2	[0, 0, 0]	n/a	FR1	1	R1145J
393.585	1.618	407212	WORD	n/a	wordpools/wordpool_EN.txt	TOOTH	2	2	[0, 0, 0]	n/a	FR1	1	R1145J
395.203	0.883	408830	WORD_OFF	n/a	n/a	TOOTH	2	2	[0, 0, 0]	n/a	FR1	1	R1145J
396.086	1.616	409713	WORD	n/a	wordpools/wordpool_EN.txt	MILK	3	2	[0, 0, 0]	n/a	FR1	1	R1145J
397.702	1.001	411329	WORD_OFF	n/a	n/a	MILK	3	2	[0, 0, 0]	n/a	FR1	1	R1145J
398.703	1.617	412330	WORD	n/a	wordpools/wordpool_EN.txt	TEETH	4	2	[0, 0, 0]	n/a	FR1	1	R1145J
400.32	0.834	413947	WORD_OFF	n/a	n/a	TEETH	4	2	[0, 0, 0]	n/a	FR1	1	R1145J
401.154	1.616	414781	WORD	n/a	wordpools/wordpool_EN.txt	SEA	5	2	[0, 0, 0]	n/a	FR1	1	R1145J
402.77	0.95	416397	WORD_OFF	n/a	n/a	SEA	5	2	[0, 0, 0]	n/a	FR1	1	R1145J
403.72	1.618	417347	WORD	n/a	wordpools/wordpool_EN.txt	TANK	6	2	[0, 0, 0]	n/a	FR1	1	R1145J
405.338	0.816	418965	WORD_OFF	n/a	n/a	TANK	6	2	[0, 0, 0]	n/a	FR1	1	R1145J
406.154	1.616	419781	WORD	n/a	wordpools/wordpool_EN.txt	MOUTH	7	2	[0, 0, 0]	n/a	FR1	1	R1145J
407.77	0.834	421397	WORD_OFF	n/a	n/a	MOUTH	7	2	[0, 0, 0]	n/a	FR1	1	R1145J
408.604	1.618	422231	WORD	n/a	wordpools/wordpool_EN.txt	BRANCH	8	2	[0, 0, 0]	n/a	FR1	1	R1145J
410.222	0.8	423849	WORD_OFF	n/a	n/a	BRANCH	8	2	[0, 0, 0]	n/a	FR1	1	R1145J
411.022	1.616	424649	WORD	n/a	wordpools/wordpool_EN.txt	ROOT	9	2	[0, 0, 0]	n/a	FR1	1	R1145J
412.638	0.834	426265	WORD_OFF	n/a	n/a	ROOT	9	2	[0, 0, 0]	n/a	FR1	1	R1145J
413.472	1.617	427099	WORD	n/a	wordpools/wordpool_EN.txt	APE	10	2	[0, 0, 0]	n/a	FR1	1	R1145J
415.089	0.95	428716	WORD_OFF	n/a	n/a	APE	10	2	[0, 0, 0]	n/a	FR1	1	R1145J
416.039	1.616	429666	WORD	n/a	wordpools/wordpool_EN.txt	STEM	11	2	[0, 0, 0]	n/a	FR1	1	R1145J
417.655	0.817	431282	WORD_OFF	n/a	n/a	STEM	11	2	[0, 0, 0]	n/a	FR1	1	R1145J
418.472	1.618	432099	WORD	n/a	wordpools/wordpool_EN.txt	BLOOM	12	2	[0, 0, 0]	n/a	FR1	1	R1145J
420.09	0.0	433717	WORD_OFF	n/a	n/a	BLOOM	12	2	[0, 0, 0]	n/a	FR1	1	R1145J
420.09	0.0	433717	DISTRACT_START	n/a	n/a	n/a	-999	2	[0, 0, 0]	n/a	FR1	1	R1145J
420.09	0.016	433717	START	n/a	n/a	n/a	-999	2	[-999, -999, -999]	n/a	FR1	1	R1145J
420.106	18.786	433733	PROB	18.786	n/a	n/a	-999	2	[5, 3, 9]	17	FR1	1	R1145J
438.892	21.864	452519	PROB	21.864	n/a	n/a	-999	2	[7, 7, 4]	18	FR1	1	R1145J
460.756	0.022	474382	STOP	n/a	n/a	n/a	-999	2	[-999, -999, -999]	n/a	FR1	1	R1145J
460.778	0.617	474404	DISTRACT_END	n/a	n/a	n/a	-999	2	[0, 0, 0]	n/a	FR1	1	R1145J
461.395	0.518	475021	RETRIEVAL_ORIENT	n/a	n/a	n/a	-999	2	[0, 0, 0]	n/a	FR1	1	R1145J
461.913	2.362	475539	REC_START	n/a	n/a	n/a	-999	2	[0, 0, 0]	n/a	FR1	1	R1145J
464.275	1.0	477901	REC_WORD_VV	1.0	n/a	<>	-999	2	[0, 0, 0]	n/a	FR1	1	R1145J
465.275	1.607	478901	REC_WORD_VV	1.607	n/a	<>	-999	2	[0, 0, 0]	n/a	FR1	1	R1145J
466.882	2.632	480508	REC_WORD_VV	2.632	n/a	<>	-999	2	[0, 0, 0]	n/a	FR1	1	R1145J
469.514	2.041	483140	REC_WORD_VV	2.041	n/a	<>	-999	2	[0, 0, 0]	n/a	FR1	1	R1145J
471.555	0.78	485181	REC_WORD	0.78	n/a	BRANCH	8	2	[0, 0, 0]	n/a	FR1	1	R1145J
472.335	0.751	485961	REC_WORD	0.751	n/a	ROOT	9	2	[0, 0, 0]	n/a	FR1	1	R1145J
473.086	18.839	486712	REC_WORD	18.839	n/a	APE	10	2	[0, 0, 0]	n/a	FR1	1	R1145J
491.925	3.907	505551	REC_END	n/a	n/a	n/a	-999	2	[0, 0, 0]	n/a	FR1	1	R1145J
495.832	0.5	509458	TRIAL	n/a	n/a	n/a	-999	3	[0, 0, 0]	n/a	FR1	1	R1145J
496.332	10.428	509958	COUNTDOWN_START	n/a	n/a	n/a	-999	3	[0, 0, 0]	n/a	FR1	1	R1145J
506.76	0.007	520386	COUNTDOWN_END	n/a	n/a	n/a	-999	3	[0, 0, 0]	n/a	FR1	1	R1145J
506.767	1.618	520393	ORIENT	n/a	n/a	n/a	-999	3	[0, 0, 0]	n/a	FR1	1	R1145J
508.385	1.967	522011	ORIENT_OFF	n/a	n/a	n/a	-999	3	[0, 0, 0]	n/a	FR1	1	R1145J
510.352	1.617	523978	WORD	n/a	wordpools/wordpool_EN.txt	WORM	1	3	[0, 0, 0]	n/a	FR1	1	R1145J
511.969	0.766	525595	WORD_OFF	n/a	n/a	WORM	1	3	[0, 0, 0]	n/a	FR1	1	R1145J
512.735	1.618	526361	WORD	n/a	wordpools/wordpool_EN.txt	EGG	2	3	[0, 0, 0]	n/a	FR1	1	R1145J
514.353	0.799	527979	WORD_OFF	n/a	n/a	EGG	2	3	[0, 0, 0]	n/a	FR1	1	R1145J
515.152	1.616	528778	WORD	n/a	wordpools/wordpool_EN.txt	FLUTE	3	3	[0, 0, 0]	n/a	FR1	1	R1145J
516.768	0.917	530394	WORD_OFF	n/a	n/a	FLUTE	3	3	[0, 0, 0]	n/a	FR1	1	R1145J
517.685	1.618	531311	WORD	n/a	wordpools/wordpool_EN.txt	GLOVE	4	3	[0, 0, 0]	n/a	FR1	1	R1145J
519.303	0.884	532929	WORD_OFF	n/a	n/a	GLOVE	4	3	[0, 0, 0]	n/a	FR1	1	R1145J
520.187	1.615	533813	WORD	n/a	wordpools/wordpool_EN.txt	WEB	5	3	[0, 0, 0]	n/a	FR1	1	R1145J
521.802	0.801	535427	WORD_OFF	n/a	n/a	WEB	5	3	[0, 0, 0]	n/a	FR1	1	R1145J
522.603	1.617	536228	WORD	n/a	wordpools/wordpool_EN.txt	CORD	6	3	[0, 0, 0]	n/a	FR1	1	R1145J
524.22	0.95	537845	WORD_OFF	n/a	n/a	CORD	6	3	[0, 0, 0]	n/a	FR1	1	R1145J
525.17	1.616	538795	WORD	n/a	wordpools/wordpool_EN.txt	BEE	7	3	[0, 0, 0]	n/a	FR1	1	R1145J
526.786	0.767	540411	WORD_OFF	n/a	n/a	BEE	7	3	[0, 0, 0]	n/a	FR1	1	R1145J
527.553	1.618	541178	WORD	n/a	wordpools/wordpool_EN.txt	TOOL	8	3	[0, 0, 0]	n/a	FR1	1	R1145J
529.171	0.767	542796	WORD_OFF	n/a	n/a	TOOL	8	3	[0, 0, 0]	n/a	FR1	1	R1145J
529.938	1.616	543563	WORD	n/a	wordpools/wordpool_EN.txt	CAT	9	3	[0, 0, 0]	n/a	FR1	1	R1145J
531.554	0.851	545179	WORD_OFF	n/a	n/a	CAT	9	3	[0, 0, 0]	n/a	FR1	1	R1145J
532.405	1.617	546030	WORD	n/a	wordpools/wordpool_EN.txt	MOTH	10	3	[0, 0, 0]	n/a	FR1	1	R1145J
534.022	0.816	547647	WORD_OFF	n/a	n/a	MOTH	10	3	[0, 0, 0]	n/a	FR1	1	R1145J
534.838	1.617	548463	WORD	n/a	wordpools/wordpool_EN.txt	TRASH	11	3	[0, 0, 0]	n/a	FR1	1	R1145J
536.455	0.934	550080	WORD_OFF	n/a	n/a	TRASH	11	3	[0, 0, 0]	n/a	FR1	1	R1145J
537.389	1.616	551014	WORD	n/a	wordpools/wordpool_EN.txt	SEED	12	3	[0, 0, 0]	n/a	FR1	1	R1145J
539.005	0.0	552630	WORD_OFF	n/a	n/a	SEED	12	3	[0, 0, 0]	n/a	FR1	1	R1145J
539.005	0.001	552630	DISTRACT_START	n/a	n/a	n/a	-999	3	[0, 0, 0]	n/a	FR1	1	R1145J
539.006	0.016	552631	START	n/a	n/a	n/a	-999	3	[-999, -999, -999]	n/a	FR1	1	R1145J
539.022	48.491	552647	PROB	48.491	n/a	n/a	-999	3	[2, 2, 9]	13	FR1	1	R1145J
587.513	0.015	601137	STOP	n/a	n/a	n/a	-999	3	[-999, -999, -999]	n/a	FR1	1	R1145J
587.528	0.667	601152	DISTRACT_END	n/a	n/a	n/a	-999	3	[0, 0, 0]	n/a	FR1	1	R1145J
588.195	0.517	601819	RETRIEVAL_ORIENT	n/a	n/a	n/a	-999	3	[0, 0, 0]	n/a	FR1	1	R1145J
588.712	4.321	602336	REC_START	n/a	n/a	n/a	-999	3	[0, 0, 0]	n/a	FR1	1	R1145J
593.033	0.789	606657	REC_WORD	0.789	n/a	WORM	1	3	[0, 0, 0]	n/a	FR1	1	R1145J
593.822	0.696	607446	REC_WORD	0.696	n/a	EGG	2	3	[0, 0, 0]	n/a	FR1	1	R1145J
594.518	3.152	608142	REC_WORD	3.152	n/a	TREE	-999	3	[0, 0, 0]	n/a	FR1	1	R1145J
597.67	10.923	611294	REC_WORD_VV	10.923	n/a	<>	-999	3	[0, 0, 0]	n/a	FR1	1	R1145J
608.593	0.759	622217	REC_WORD_VV	0.759	n/a	<>	-999	3	[0, 0, 0]	n/a	FR1	1	R1145J
609.352	6.11	622976	REC_WORD_VV	6.11	n/a	<>	-999	3	[0, 0, 0]	n/a	FR1	1	R1145J
615.462	3.262	629086	REC_WORD_VV	3.262	n/a	<>	-999	3	[0, 0, 0]	n/a	FR1	1	R1145J
618.724	5.209	632348	REC_END	n/a	n/a	n/a	-999	3	[0, 0, 0]	n/a	FR1	1	R1145J
623.933	0.5	637557	TRIAL	n/a	n/a	n/a	-999	4	[0, 0, 0]	n/a	FR1	1	R1145J
624.433	10.428	638057	COUNTDOWN_START	n/a	n/a	n/a	-999	4	[0, 0, 0]	n/a	FR1	1	R1145J
634.861	0.007	648485	COUNTDOWN_END	n/a	n/a	n/a	-999	4	[0, 0, 0]	n/a	FR1	1	R1145J
634.868	1.617	648492	ORIENT	n/a	n/a	n/a	-999	4	[0, 0, 0]	n/a	FR1	1	R1145J
636.485	2.017	650109	ORIENT_OFF	n/a	n/a	n/a	-999	4	[0, 0, 0]	n/a	FR1	1	R1145J
638.502	1.617	652126	WORD	n/a	wordpools/wordpool_EN.txt	FENCE	1	4	[0, 0, 0]	n/a	FR1	1	R1145J
640.119	0.884	653743	WORD_OFF	n/a	n/a	FENCE	1	4	[0, 0, 0]	n/a	FR1	1	R1145J
641.003	1.616	654627	WORD	n/a	wordpools/wordpool_EN.txt	PURSE	2	4	[0, 0, 0]	n/a	FR1	1	R1145J
642.619	0.917	656243	WORD_OFF	n/a	n/a	PURSE	2	4	[0, 0, 0]	n/a	FR1	1	R1145J
643.536	1.617	657160	WORD	n/a	wordpools/wordpool_EN.txt	TOE	3	4	[0, 0, 0]	n/a	FR1	1	R1145J
645.153	0.834	658777	WORD_OFF	n/a	n/a	TOE	3	4	[0, 0, 0]	n/a	FR1	1	R1145J
645.987	1.616	659611	WORD	n/a	wordpools/wordpool_EN.txt	OAR	4	4	[0, 0, 0]	n/a	FR1	1	R1145J
647.603	1.0	661227	WORD_OFF	n/a	n/a	OAR	4	4	[0, 0, 0]	n/a	FR1	1	R1145J
648.603	1.618	662227	WORD	n/a	wordpools/wordpool_EN.txt	SUIT	5	4	[0, 0, 0]	n/a	FR1	1	R1145J
650.221	0.783	663845	WORD_OFF	n/a	n/a	SUIT	5	4	[0, 0, 0]	n/a	FR1	1	R1145J
651.004	1.616	664628	WORD	n/a	wordpools/wordpool_EN.txt	SLEEVE	6	4	[0, 0, 0]	n/a	FR1	1	R1145J
652.62	0.917	666243	WORD_OFF	n/a	n/a	SLEEVE	6	4	[0, 0, 0]	n/a	FR1	1	R1145J
653.537	1.617	667160	WORD	n/a	wordpools/wordpool_EN.txt	NOSE	7	4	[0, 0, 0]	n/a	FR1	1	R1145J
655.154	0.9	668777	WORD_OFF	n/a	n/a	NOSE	7	4	[0, 0, 0]	n/a	FR1	1	R1145J
656.054	1.616	669677	WORD	n/a	wordpools/wordpool_EN.txt	ARM	8	4	[0, 0, 0]	n/a	FR1	1	R1145J
657.67	0.884	671293	WORD_OFF	n/a	n/a	ARM	8	4	[0, 0, 0]	n/a	FR1	1	R1145J
658.554	1.618	672177	WORD	n/a	wordpools/wordpool_EN.txt	TIE	9	4	[0, 0, 0]	n/a	FR1	1	R1145J
660.172	0.883	673795	WORD_OFF	n/a	n/a	TIE	9	4	[0, 0, 0]	n/a	FR1	1	R1145J
661.055	1.616	674678	WORD	n/a	wordpools/wordpool_EN.txt	FOAM	10	4	[0, 0, 0]	n/a	FR1	1	R1145J
662.671	0.867	676294	WORD_OFF	n/a	n/a	FOAM	10	4	[0, 0, 0]	n/a	FR1	1	R1145J
663.538	1.618	677161	WORD	n/a	wordpools/wordpool_EN.txt	BAND	11	4	[0, 0, 0]	n/a	FR1	1	R1145J
665.156	0.783	678779	WORD_OFF	n/a	n/a	BAND	11	4	[0, 0, 0]	n/a	FR1	1	R1145J
665.939	1.616	679562	WORD	n/a	wordpools/wordpool_EN.txt	LIP	12	4	[0, 0, 0]	n/a	FR1	1	R1145J
667.555	0.0	681178	WORD_OFF	n/a	n/a	LIP	12	4	[0, 0, 0]	n/a	FR1	1	R1145J
667.555	0.001	681178	DISTRACT_START	n/a	n/a	n/a	-999	4	[0, 0, 0]	n/a	FR1	1	R1145J
667.556	0.016	681179	START	n/a	n/a	n/a	-999	4	[-999, -999, -999]	n/a	FR1	1	R1145J
667.572	27.418	681195	PROB	27.418	n/a	n/a	-999	4	[7, 2, 4]	13	FR1	1	R1145J
694.99	0.02	708613	STOP	n/a	n/a	n/a	-999	4	[-999, -999, -999]	n/a	FR1	1	R1145J
695.01	0.682	708633	DISTRACT_END	n/a	n/a	n/a	-999	4	[0, 0, 0]	n/a	FR1	1	R1145J
695.692	0.519	709315	RETRIEVAL_ORIENT	n/a	n/a	n/a	-999	4	[0, 0, 0]	n/a	FR1	1	R1145J
696.211	0.702	709834	REC_START	n/a	n/a	n/a	-999	4	[0, 0, 0]	n/a	FR1	1	R1145J
696.913	1.609	710536	REC_WORD	1.609	n/a	FENCE	1	4	[0, 0, 0]	n/a	FR1	1	R1145J
698.522	5.994	712145	REC_WORD	5.994	n/a	ARM	8	4	[0, 0, 0]	n/a	FR1	1	R1145J
704.516	1.043	718139	REC_WORD	1.043	n/a	OAR	4	4	[0, 0, 0]	n/a	FR1	1	R1145J
705.559	2.839	719182	REC_WORD	2.839	n/a	PURSE	2	4	[0, 0, 0]	n/a	FR1	1	R1145J
708.398	17.824	722021	REC_WORD	17.824	n/a	TOSS	-999	4	[0, 0, 0]	n/a	FR1	1	R1145J
726.222	3.876	739844	REC_END	n/a	n/a	n/a	-999	4	[0, 0, 0]	n/a	FR1	1	R1145J
730.098	0.5	743720	TRIAL	n/a	n/a	n/a	-999	5	[0, 0, 0]	n/a	FR1	1	R1145J
730.598	10.428	744220	COUNTDOWN_START	n/a	n/a	n/a	-999	5	[0, 0, 0]	n/a	FR1	1	R1145J
741.026	0.007	754648	COUNTDOWN_END	n/a	n/a	n/a	-999	5	[0, 0, 0]	n/a	FR1	1	R1145J
741.033	1.616	754655	ORIENT	n/a	n/a	n/a	-999	5	[0, 0, 0]	n/a	FR1	1	R1145J
742.649	2.201	756271	ORIENT_OFF	n/a	n/a	n/a	-999	5	[0, 0, 0]	n/a	FR1	1	R1145J
744.85	1.617	758472	WORD	n/a	wordpools/wordpool_EN.txt	PIT	1	5	[0, 0, 0]	n/a	FR1	1	R1145J
746.467	0.983	760089	WORD_OFF	n/a	n/a	PIT	1	5	[0, 0, 0]	n/a	FR1	1	R1145J
747.45	1.617	761072	WORD	n/a	wordpools/wordpool_EN.txt	RICE	2	5	[0, 0, 0]	n/a	FR1	1	R1145J
749.067	0.917	762689	WORD_OFF	n/a	n/a	RICE	2	5	[0, 0, 0]	n/a	FR1	1	R1145J
749.984	1.616	763606	WORD	n/a	wordpools/wordpool_EN.txt	CANE	3	5	[0, 0, 0]	n/a	FR1	1	R1145J
751.6	0.834	765222	WORD_OFF	n/a	n/a	CANE	3	5	[0, 0, 0]	n/a	FR1	1	R1145J
752.434	1.617	766056	WORD	n/a	wordpools/wordpool_EN.txt	LEAF	4	5	[0, 0, 0]	n/a	FR1	1	R1145J
754.051	1.017	767673	WORD_OFF	n/a	n/a	LEAF	4	5	[0, 0, 0]	n/a	FR1	1	R1145J
755.068	1.616	768690	WORD	n/a	wordpools/wordpool_EN.txt	SNAKE	5	5	[0, 0, 0]	n/a	FR1	1	R1145J
756.684	0.867	770306	WORD_OFF	n/a	n/a	SNAKE	5	5	[0, 0, 0]	n/a	FR1	1	R1145J
757.551	1.618	771173	WORD	n/a	wordpools/wordpool_EN.txt	FISH	6	5	[0, 0, 0]	n/a	FR1	1	R1145J
759.169	1.016	772791	WORD_OFF	n/a	n/a	FISH	6	5	[0, 0, 0]	n/a	FR1	1	R1145J
760.185	1.616	773807	WORD	n/a	wordpools/wordpool_EN.txt	GRASS	7	5	[0, 0, 0]	n/a	FR1	1	R1145J
761.801	0.9	775423	WORD_OFF	n/a	n/a	GRASS	7	5	[0, 0, 0]	n/a	FR1	1	R1145J
762.701	1.602	776323	WORD	n/a	wordpools/wordpool_EN.txt	FRUIT	8	5	[0, 0, 0]	n/a	FR1	1	R1145J
764.303	0.816	777925	WORD_OFF	n/a	n/a	FRUIT	8	5	[0, 0, 0]	n/a	FR1	1	R1145J
765.119	1.616	778741	WORD	n/a	wordpools/wordpool_EN.txt	BIRD	9	5	[0, 0, 0]	n/a	FR1	1	R1145J
766.735	0.9	780357	WORD_OFF	n/a	n/a	BIRD	9	5	[0, 0, 0]	n/a	FR1	1	R1145J
767.635	1.618	781257	WORD	n/a	wordpools/wordpool_EN.txt	TREE	10	5	[0, 0, 0]	n/a	FR1	1	R1145J
769.253	0.767	782875	WORD_OFF	n/a	n/a	TREE	10	5	[0, 0, 0]	n/a	FR1	1	R1145J
770.02	1.616	783642	WORD	n/a	wordpools/wordpool_EN.txt	WORLD	11	5	[0, 0, 0]	n/a	FR1	1	R1145J
771.636	0.818	785258	WORD_OFF	n/a	n/a	WORLD	11	5	[0, 0, 0]	n/a	FR1	1	R1145J
772.454	1.617	786076	WORD	n/a	wordpools/wordpool_EN.txt	BEAN	12	5	[0, 0, 0]	n/a	FR1	1	R1145J
774.071	0.0	787693	WORD_OFF	n/a	n/a	BEAN	12	5	[0, 0, 0]	n/a	FR1	1	R1145J
774.071	0.0	787693	DISTRACT_START	n/a	n/a	n/a	-999	5	[0, 0, 0]	n/a	FR1	1	R1145J
774.071	0.016	787693	START	n/a	n/a	n/a	-999	5	[-999, -999, -999]	n/a	FR1	1	R1145J
774.087	17.219	787709	PROB	17.219	n/a	n/a	-999	5	[3, 3, 9]	15	FR1	1	R1145J
791.306	10.759	804927	PROB	10.759	n/a	n/a	-999	5	[6, 1, 9]	16	FR1	1	R1145J
802.065	0.009	815686	STOP	n/a	n/a	n/a	-999	5	[-999, -999, -999]	n/a	FR1	1	R1145J
802.074	0.666	815695	DISTRACT_END	n/a	n/a	n/a	-999	5	[0, 0, 0]	n/a	FR1	1	R1145J
802.74	0.519	816361	RETRIEVAL_ORIENT	n/a	n/a	n/a	-999	5	[0, 0, 0]	n/a	FR1	1	R1145J
803.259	1.507	816880	REC_START	n/a	n/a	n/a	-999	5	[0, 0, 0]	n/a	FR1	1	R1145J
804.766	1.076	818387	REC_WORD	1.076	n/a	ROCK	-999	5	[0, 0, 0]	n/a	FR1	1	R1145J
805.842	0.947	819463	REC_WORD	0.947	n/a	LEAF	4	5	[0, 0, 0]	n/a	FR1	1	R1145J
806.789	3.574	820410	REC_WORD	3.574	n/a	BREAD	-999	5	[0, 0, 0]	n/a	FR1	1	R1145J
810.363	10.682	823984	REC_WORD	10.682	n/a	GLASS	-999	5	[0, 0, 0]	n/a	FR1	1	R1145J
821.045	12.223	834666	REC_WORD	12.223	n/a	TOSS	-999	5	[0, 0, 0]	n/a	FR1	1	R1145J
833.268	4.427	846889	REC_END	n/a	n/a	n/a	-999	5	[0, 0, 0]	n/a	FR1	1	R1145J
837.695	0.5	851316	TRIAL	n/a	n/a	n/a	-999	6	[0, 0, 0]	n/a	FR1	1	R1145J
838.195	10.428	851816	COUNTDOWN_START	n/a	n/a	n/a	-999	6	[0, 0, 0]	n/a	FR1	1	R1145J
848.623	0.007	862243	COUNTDOWN_END	n/a	n/a	n/a	-999	6	[0, 0, 0]	n/a	FR1	1	R1145J
848.63	1.617	862250	ORIENT	n/a	n/a	n/a	-999	6	[0, 0, 0]	n/a	FR1	1	R1145J
850.247	2.134	863867	ORIENT_OFF	n/a	n/a	n/a	-999	6	[0, 0, 0]	n/a	FR1	1	R1145J
852.381	1.617	866001	WORD	n/a	wordpools/wordpool_EN.txt	PHONE	1	6	[0, 0, 0]	n/a	FR1	1	R1145J
853.998	0.917	867618	WORD_OFF	n/a	n/a	PHONE	1	6	[0, 0, 0]	n/a	FR1	1	R1145J
854.915	1.615	868535	WORD	n/a	wordpools/wordpool_EN.txt	WHEEL	2	6	[0, 0, 0]	n/a	FR1	1	R1145J
856.53	0.985	870150	WORD_OFF	n/a	n/a	WHEEL	2	6	[0, 0, 0]	n/a	FR1	1	R1145J
857.515	1.617	871135	WORD	n/a	wordpools/wordpool_EN.txt	CAR	3	6	[0, 0, 0]	n/a	FR1	1	R1145J
859.132	1.017	872752	WORD_OFF	n/a	n/a	CAR	3	6	[0, 0, 0]	n/a	FR1	1	R1145J
860.149	1.616	873769	WORD	n/a	wordpools/wordpool_EN.txt	BOWL	4	6	[0, 0, 0]	n/a	FR1	1	R1145J
861.765	0.783	875385	WORD_OFF	n/a	n/a	BOWL	4	6	[0, 0, 0]	n/a	FR1	1	R1145J
862.548	1.618	876168	WORD	n/a	wordpools/wordpool_EN.txt	FOOD	5	6	[0, 0, 0]	n/a	FR1	1	R1145J
864.166	0.983	877786	WORD_OFF	n/a	n/a	FOOD	5	6	[0, 0, 0]	n/a	FR1	1	R1145J
865.149	1.616	878769	WORD	n/a	wordpools/wordpool_EN.txt	ROAD	6	6	[0, 0, 0]	n/a	FR1	1	R1145J
866.765	0.934	880385	WORD_OFF	n/a	n/a	ROAD	6	6	[0, 0, 0]	n/a	FR1	1	R1145J
867.699	1.601	881319	WORD	n/a	wordpools/wordpool_EN.txt	CLAY	7	6	[0, 0, 0]	n/a	FR1	1	R1145J
869.3	0.867	882920	WORD_OFF	n/a	n/a	CLAY	7	6	[0, 0, 0]	n/a	FR1	1	R1145J
870.167	1.616	883787	WORD	n/a	wordpools/wordpool_EN.txt	FLEA	8	6	[0, 0, 0]	n/a	FR1	1	R1145J
871.783	0.8	885403	WORD_OFF	n/a	n/a	FLEA	8	6	[0, 0, 0]	n/a	FR1	1	R1145J
872.583	1.618	886203	WORD	n/a	wordpools/wordpool_EN.txt	SQUARE	9	6	[0, 0, 0]	n/a	FR1	1	R1145J
874.201	0.916	887821	WORD_OFF	n/a	n/a	SQUARE	9	6	[0, 0, 0]	n/a	FR1	1	R1145J
875.117	1.616	888737	WORD	n/a	wordpools/wordpool_EN.txt	BREAD	10	6	[0, 0, 0]	n/a	FR1	1	R1145J
876.733	0.951	890353	WORD_OFF	n/a	n/a	BREAD	10	6	[0, 0, 0]	n/a	FR1	1	R1145J
877.684	1.617	891304	WORD	n/a	wordpools/wordpool_EN.txt	FUDGE	11	6	[0, 0, 0]	n/a	FR1	1	R1145J
879.301	1.001	892921	WORD_OFF	n/a	n/a	FUDGE	11	6	[0, 0, 0]	n/a	FR1	1	R1145J
880.302	1.617	893922	WORD	n/a	wordpools/wordpool_EN.txt	KEY	12	6	[0, 0, 0]	n/a	FR1	1	R1145J
881.919	0.0	895539	WORD_OFF	n/a	n/a	KEY	12	6	[0, 0, 0]	n/a	FR1	1	R1145J
881.919	0.0	895539	DISTRACT_START	n/a	n/a	n/a	-999	6	[0, 0, 0]	n/a	FR1	1	R1145J
881.919	0.016	895539	START	n/a	n/a	n/a	-999	6	[-999, -999, -999]	n/a	FR1	1	R1145J
881.935	10.418	895555	PROB	10.418	n/a	n/a	-999	6	[7, 2, 7]	16	FR1	1	R1145J
892.353	19.029	905973	PROB	19.029	n/a	n/a	-999	6	[8, 4, 7]	19	FR1	1	R1145J
911.382	0.007	925002	STOP	n/a	n/a	n/a	-999	6	[-999, -999, -999]	n/a	FR1	1	R1145J
911.389	0.617	925009	DISTRACT_END	n/a	n/a	n/a	-999	6	[0, 0, 0]	n/a	FR1	1	R1145J
912.006	0.517	925626	RETRIEVAL_ORIENT	n/a	n/a	n/a	-999	6	[0, 0, 0]	n/a	FR1	1	R1145J
912.523	4.489	926143	REC_START	n/a	n/a	n/a	-999	6	[0, 0, 0]	n/a	FR1	1	R1145J
917.012	0.825	930631	REC_WORD	0.825	n/a	WHEEL	2	6	[0, 0, 0]	n/a	FR1	1	R1145J
917.837	1.027	931456	REC_WORD	1.027	n/a	CAR	3	6	[0, 0, 0]	n/a	FR1	1	R1145J
918.864	1.942	932483	REC_WORD_VV	1.942	n/a	<>	-999	6	[0, 0, 0]	n/a	FR1	1	R1145J
920.806	0.514	934425	REC_WORD_VV	0.514	n/a	<>	-999	6	[0, 0, 0]	n/a	FR1	1	R1145J
921.32	0.865	934939	REC_WORD	0.865	n/a	BOWL	4	6	[0, 0, 0]	n/a	FR1	1	R1145J
922.185	0.783	935804	REC_WORD	0.783	n/a	FOOD	5	6	[0, 0, 0]	n/a	FR1	1	R1145J
922.968	3.1	936587	REC_WORD	3.1	n/a	CLAY	7	6	[0, 0, 0]	n/a	FR1	1	R1145J
926.068	16.465	939687	REC_WORD	16.465	n/a	FISH	-999	6	[0, 0, 0]	n/a	FR1	1	R1145J
942.533	7.861	956152	REC_END	n/a	n/a	n/a	-999	6	[0, 0, 0]	n/a	FR1	1	R1145J
950.394	0.5	964013	TRIAL	n/a	n/a	n/a	-999	7	[0, 0, 0]	n/a	FR1	1	R1145J
950.894	10.428	964513	COUNTDOWN_START	n/a	n/a	n/a	-999	7	[0, 0, 0]	n/a	FR1	1	R1145J
961.322	0.007	974941	COUNTDOWN_END	n/a	n/a	n/a	-999	7	[0, 0, 0]	n/a	FR1	1	R1145J
961.329	1.617	974948	ORIENT	n/a	n/a	n/a	-999	7	[0, 0, 0]	n/a	FR1	1	R1145J
962.946	2.067	976565	ORIENT_OFF	n/a	n/a	n/a	-999	7	[0, 0, 0]	n/a	FR1	1	R1145J
965.013	1.615	978632	WORD	n/a	wordpools/wordpool_EN.txt	AXE	1	7	[0, 0, 0]	n/a	FR1	1	R1145J
966.628	0.917	980247	WORD_OFF	n/a	n/a	AXE	1	7	[0, 0, 0]	n/a	FR1	1	R1145J
967.545	1.601	981164	WORD	n/a	wordpools/wordpool_EN.txt	BEAK	2	7	[0, 0, 0]	n/a	FR1	1	R1145J
969.146	0.901	982765	WORD_OFF	n/a	n/a	BEAK	2	7	[0, 0, 0]	n/a	FR1	1	R1145J
970.047	1.616	983666	WORD	n/a	wordpools/wordpool_EN.txt	GRAPE	3	7	[0, 0, 0]	n/a	FR1	1	R1145J
971.663	0.95	985282	WORD_OFF	n/a	n/a	GRAPE	3	7	[0, 0, 0]	n/a	FR1	1	R1145J
972.613	1.618	986232	WORD	n/a	wordpools/wordpool_EN.txt	JUICE	4	7	[0, 0, 0]	n/a	FR1	1	R1145J
974.231	0.983	987850	WORD_OFF	n/a	n/a	JUICE	4	7	[0, 0, 0]	n/a	FR1	1	R1145J
975.214	1.616	988833	WORD	n/a	wordpools/wordpool_EN.txt	VASE	5	7	[0, 0, 0]	n/a	FR1	1	R1145J
976.83	1.0	990449	WORD_OFF	n/a	n/a	VASE	5	7	[0, 0, 0]	n/a	FR1	1	R1145J
977.83	1.618	991449	WORD	n/a	wordpools/wordpool_EN.txt	CLOWN	6	7	[0, 0, 0]	n/a	FR1	1	R1145J
979.448	0.967	993066	WORD_OFF	n/a	n/a	CLOWN	6	7	[0, 0, 0]	n/a	FR1	1	R1145J
980.415	1.617	994033	WORD	n/a	wordpools/wordpool_EN.txt	SOCK	7	7	[0, 0, 0]	n/a	FR1	1	R1145J
982.032	0.883	995650	WORD_OFF	n/a	n/a	SOCK	7	7	[0, 0, 0]	n/a	FR1	1	R1145J
982.915	1.616	996533	WORD	n/a	wordpools/wordpool_EN.txt	SPOON	8	7	[0, 0, 0]	n/a	FR1	1	R1145J
984.531	0.885	998149	WORD_OFF	n/a	n/a	SPOON	8	7	[0, 0, 0]	n/a	FR1	1	R1145J
985.416	1.617	999034	WORD	n/a	wordpools/wordpool_EN.txt	THUMB	9	7	[0, 0, 0]	n/a	FR1	1	R1145J
987.033	0.933	1000651	WORD_OFF	n/a	n/a	THUMB	9	7	[0, 0, 0]	n/a	FR1	1	R1145J
987.966	1.616	1001584	WORD	n/a	wordpools/wordpool_EN.txt	RUG	10	7	[0, 0, 0]	n/a	FR1	1	R1145J
989.582	0.901	1003200	WORD_OFF	n/a	n/a	RUG	10	7	[0, 0, 0]	n/a	FR1	1	R1145J
990.483	1.617	1004101	WORD	n/a	wordpools/wordpool_EN.txt	JAR	11	7	[0, 0, 0]	n/a	FR1	1	R1145J
992.1	0.867	1005718	WORD_OFF	n/a	n/a	JAR	11	7	[0, 0, 0]	n/a	FR1	1	R1145J
992.967	1.616	1006585	WORD	n/a	wordpools/wordpool_EN.txt	NAIL	12	7	[0, 0, 0]	n/a	FR1	1	R1145J
994.583	0.0	1008201	WORD_OFF	n/a	n/a	NAIL	12	7	[0, 0, 0]	n/a	FR1	1	R1145J
994.583	0.001	1008201	DISTRACT_START	n/a	n/a	n/a	-999	7	[0, 0, 0]	n/a	FR1	1	R1145J
994.584	0.015	1008202	START	n/a	n/a	n/a	-999	7	[-999, -999, -999]	n/a	FR1	1	R1145J
994.599	23.971	1008217	PROB	23.971	n/a	n/a	-999	7	[5, 7, 3]	15	FR1	1	R1145J
1018.57	0.016	1032188	STOP	n/a	n/a	n/a	-999	7	[-999, -999, -999]	n/a	FR1	1	R1145J
1018.586	0.584	1032204	DISTRACT_END	n/a	n/a	n/a	-999	7	[0, 0, 0]	n/a	FR1	1	R1145J
1019.17	0.516	1032788	RETRIEVAL_ORIENT	n/a	n/a	n/a	-999	7	[0, 0, 0]	n/a	FR1	1	R1145J
1019.686	6.512	1033304	REC_START	n/a	n/a	n/a	-999	7	[0, 0, 0]	n/a	FR1	1	R1145J
1026.198	1.216	1039816	REC_WORD	1.216	n/a	NAP	-999	7	[0, 0, 0]	n/a	FR1	1	R1145J
1027.414	7.226	1041032	REC_WORD	7.226	n/a	JUG	-999	7	[0, 0, 0]	n/a	FR1	1	R1145J
1034.64	15.058	1048258	REC_WORD	15.058	n/a	CAR	-999	7	[0, 0, 0]	n/a	FR1	1	R1145J
1049.698	4.311	1063315	REC_END	n/a	n/a	n/a	-999	7	[0, 0, 0]	n/a	FR1	1	R1145J
1054.009	0.5	1067626	TRIAL	n/a	n/a	n/a	-999	8	[0, 0, 0]	n/a	FR1	1	R1145J
1054.509	10.428	1068126	COUNTDOWN_START	n/a	n/a	n/a	-999	8	[0, 0, 0]	n/a	FR1	1	R1145J
1064.937	0.006	1078554	COUNTDOWN_END	n/a	n/a	n/a	-999	8	[0, 0, 0]	n/a	FR1	1	R1145J
1064.943	1.616	1078560	ORIENT	n/a	n/a	n/a	-999	8	[0, 0, 0]	n/a	FR1	1	R1145J
1066.559	2.233	1080176	ORIENT_OFF	n/a	n/a	n/a	-999	8	[0, 0, 0]	n/a	FR1	1	R1145J
1068.792	1.602	1082409	WORD	n/a	wordpools/wordpool_EN.txt	ANT	1	8	[0, 0, 0]	n/a	FR1	1	R1145J
1070.394	0.883	1084011	WORD_OFF	n/a	n/a	ANT	1	8	[0, 0, 0]	n/a	FR1	1	R1145J
1071.277	1.617	1084894	WORD	n/a	wordpools/wordpool_EN.txt	ROOM	2	8	[0, 0, 0]	n/a	FR1	1	R1145J
1072.894	0.783	1086511	WORD_OFF	n/a	n/a	ROOM	2	8	[0, 0, 0]	n/a	FR1	1	R1145J
1073.677	1.617	1087294	WORD	n/a	wordpools/wordpool_EN.txt	HEN	3	8	[0, 0, 0]	n/a	FR1	1	R1145J
1075.294	0.85	1088911	WORD_OFF	n/a	n/a	HEN	3	8	[0, 0, 0]	n/a	FR1	1	R1145J
1076.144	1.616	1089761	WORD	n/a	wordpools/wordpool_EN.txt	ROOF	4	8	[0, 0, 0]	n/a	FR1	1	R1145J
1077.76	1.0	1091377	WORD_OFF	n/a	n/a	ROOF	4	8	[0, 0, 0]	n/a	FR1	1	R1145J
1078.76	1.618	1092377	WORD	n/a	wordpools/wordpool_EN.txt	DART	5	8	[0, 0, 0]	n/a	FR1	1	R1145J
1080.378	0.934	1093995	WORD_OFF	n/a	n/a	DART	5	8	[0, 0, 0]	n/a	FR1	1	R1145J
1081.312	1.617	1094929	WORD	n/a	wordpools/wordpool_EN.txt	LAWN	6	8	[0, 0, 0]	n/a	FR1	1	R1145J
1082.929	0.832	1096546	WORD_OFF	n/a	n/a	LAWN	6	8	[0, 0, 0]	n/a	FR1	1	R1145J
1083.761	1.618	1097378	WORD	n/a	wordpools/wordpool_EN.txt	NEST	7	8	[0, 0, 0]	n/a	FR1	1	R1145J
1085.379	0.816	1098996	WORD_OFF	n/a	n/a	NEST	7	8	[0, 0, 0]	n/a	FR1	1	R1145J
1086.195	1.617	1099812	WORD	n/a	wordpools/wordpool_EN.txt	TOAST	8	8	[0, 0, 0]	n/a	FR1	1	R1145J
1087.812	0.816	1101429	WORD_OFF	n/a	n/a	TOAST	8	8	[0, 0, 0]	n/a	FR1	1	R1145J
1088.628	1.601	1102245	WORD	n/a	wordpools/wordpool_EN.txt	CROW	9	8	[0, 0, 0]	n/a	FR1	1	R1145J
1090.229	0.967	1103846	WORD_OFF	n/a	n/a	CROW	9	8	[0, 0, 0]	n/a	FR1	1	R1145J
1091.196	1.616	1104813	WORD	n/a	wordpools/wordpool_EN.txt	CRANE	10	8	[0, 0, 0]	n/a	FR1	1	R1145J
1092.812	0.884	1106429	WORD_OFF	n/a	n/a	CRANE	10	8	[0, 0, 0]	n/a	FR1	1	R1145J
1093.696	1.617	1107313	WORD	n/a	wordpools/wordpool_EN.txt	BATH	11	8	[0, 0, 0]	n/a	FR1	1	R1145J
1095.313	0.817	1108930	WORD_OFF	n/a	n/a	BATH	11	8	[0, 0, 0]	n/a	FR1	1	R1145J
1096.13	1.616	1109747	WORD	n/a	wordpools/wordpool_EN.txt	TEA	12	8	[0, 0, 0]	n/a	FR1	1	R1145J
1097.746	0.0	1111363	WORD_OFF	n/a	n/a	TEA	12	8	[0, 0, 0]	n/a	FR1	1	R1145J
1097.746	0.001	1111363	DISTRACT_START	n/a	n/a	n/a	-999	8	[0, 0, 0]	n/a	FR1	1	R1145J
1097.747	0.016	1111364	START	n/a	n/a	n/a	-999	8	[-999, -999, -999]	n/a	FR1	1	R1145J
1097.763	22.89	1111380	PROB	22.89	n/a	n/a	-999	8	[6, 2, 7]	15	FR1	1	R1145J
1120.653	0.013	1134269	STOP	n/a	n/a	n/a	-999	8	[-999, -999, -999]	n/a	FR1	1	R1145J
1120.666	0.684	1134282	DISTRACT_END	n/a	n/a	n/a	-999	8	[0, 0, 0]	n/a	FR1	1	R1145J
1121.35	0.518	1134966	RETRIEVAL_ORIENT	n/a	n/a	n/a	-999	8	[0, 0, 0]	n/a	FR1	1	R1145J
1121.868	23.309	1135484	REC_START	n/a	n/a	n/a	-999	8	[0, 0, 0]	n/a	FR1	1	R1145J
1145.177	1.0	1158793	REC_WORD_VV	1.0	n/a	<>	-999	8	[0, 0, 0]	n/a	FR1	1	R1145J
1146.177	1.559	1159793	REC_WORD_VV	1.559	n/a	<>	-999	8	[0, 0, 0]	n/a	FR1	1	R1145J
1147.736	1.115	1161352	REC_WORD	1.115	n/a	TEA	12	8	[0, 0, 0]	n/a	FR1	1	R1145J
1148.851	3.029	1162467	REC_WORD_VV	3.029	n/a	<>	-999	8	[0, 0, 0]	n/a	FR1	1	R1145J
1151.88	9.758	1165496	REC_END	n/a	n/a	n/a	-999	8	[0, 0, 0]	n/a	FR1	1	R1145J
1161.638	0.5	1175254	TRIAL	n/a	n/a	n/a	-999	9	[0, 0, 0]	n/a	FR1	1	R1145J
1162.138	10.428	1175754	COUNTDOWN_START	n/a	n/a	n/a	-999	9	[0, 0, 0]	n/a	FR1	1	R1145J
1172.566	0.007	1186182	COUNTDOWN_END	n/a	n/a	n/a	-999	9	[0, 0, 0]	n/a	FR1	1	R1145J
1172.573	1.618	1186189	ORIENT	n/a	n/a	n/a	-999	9	[0, 0, 0]	n/a	FR1	1	R1145J
1174.191	2.034	1187807	ORIENT_OFF	n/a	n/a	n/a	-999	9	[0, 0, 0]	n/a	FR1	1	R1145J
1176.225	1.617	1189840	WORD	n/a	wordpools/wordpool_EN.txt	STAR	1	9	[0, 0, 0]	n/a	FR1	1	R1145J
1177.842	0.949	1191457	WORD_OFF	n/a	n/a	STAR	1	9	[0, 0, 0]	n/a	FR1	1	R1145J
1178.791	1.618	1192406	WORD	n/a	wordpools/wordpool_EN.txt	SWAMP	2	9	[0, 0, 0]	n/a	FR1	1	R1145J
1180.409	0.833	1194024	WORD_OFF	n/a	n/a	SWAMP	2	9	[0, 0, 0]	n/a	FR1	1	R1145J
1181.242	1.617	1194857	WORD	n/a	wordpools/wordpool_EN.txt	LAKE	3	9	[0, 0, 0]	n/a	FR1	1	R1145J
1182.859	0.949	1196474	WORD_OFF	n/a	n/a	LAKE	3	9	[0, 0, 0]	n/a	FR1	1	R1145J
1183.808	1.618	1197423	WORD	n/a	wordpools/wordpool_EN.txt	BOARD	4	9	[0, 0, 0]	n/a	FR1	1	R1145J
1185.426	0.916	1199041	WORD_OFF	n/a	n/a	BOARD	4	9	[0, 0, 0]	n/a	FR1	1	R1145J
1186.342	1.617	1199957	WORD	n/a	wordpools/wordpool_EN.txt	PEARL	5	9	[0, 0, 0]	n/a	FR1	1	R1145J
1187.959	0.766	1201574	WORD_OFF	n/a	n/a	PEARL	5	9	[0, 0, 0]	n/a	FR1	1	R1145J
1188.725	1.601	1202340	WORD	n/a	wordpools/wordpool_EN.txt	BOMB	6	9	[0, 0, 0]	n/a	FR1	1	R1145J
1190.326	0.784	1203941	WORD_OFF	n/a	n/a	BOMB	6	9	[0, 0, 0]	n/a	FR1	1	R1145J
1191.11	1.616	1204725	WORD	n/a	wordpools/wordpool_EN.txt	SHRIMP	7	9	[0, 0, 0]	n/a	FR1	1	R1145J
1192.726	0.883	1206341	WORD_OFF	n/a	n/a	SHRIMP	7	9	[0, 0, 0]	n/a	FR1	1	R1145J
1193.609	1.601	1207224	WORD	n/a	wordpools/wordpool_EN.txt	KITE	8	9	[0, 0, 0]	n/a	FR1	1	R1145J
1195.21	0.884	1208825	WORD_OFF	n/a	n/a	KITE	8	9	[0, 0, 0]	n/a	FR1	1	R1145J
1196.094	1.616	1209709	WORD	n/a	wordpools/wordpool_EN.txt	BOAT	9	9	[0, 0, 0]	n/a	FR1	1	R1145J
1197.71	0.933	1211325	WORD_OFF	n/a	n/a	BOAT	9	9	[0, 0, 0]	n/a	FR1	1	R1145J
1198.643	1.602	1212258	WORD	n/a	wordpools/wordpool_EN.txt	CLOUD	10	9	[0, 0, 0]	n/a	FR1	1	R1145J
1200.245	0.95	1213860	WORD_OFF	n/a	n/a	CLOUD	10	9	[0, 0, 0]	n/a	FR1	1	R1145J
1201.195	1.616	1214810	WORD	n/a	wordpools/wordpool_EN.txt	SPONGE	11	9	[0, 0, 0]	n/a	FR1	1	R1145J
1202.811	0.866	1216426	WORD_OFF	n/a	n/a	SPONGE	11	9	[0, 0, 0]	n/a	FR1	1	R1145J
1203.677	1.601	1217292	WORD	n/a	wordpools/wordpool_EN.txt	SOUP	12	9	[0, 0, 0]	n/a	FR1	1	R1145J
1205.278	0.0	1218893	WORD_OFF	n/a	n/a	SOUP	12	9	[0, 0, 0]	n/a	FR1	1	R1145J
1205.278	0.001	1218893	DISTRACT_START	n/a	n/a	n/a	-999	9	[0, 0, 0]	n/a	FR1	1	R1145J
1205.279	0.016	1218894	START	n/a	n/a	n/a	-999	9	[-999, -999, -999]	n/a	FR1	1	R1145J
1205.295	8.802	1218910	PROB	8.802	n/a	n/a	-999	9	[1, 7, 7]	15	FR1	1	R1145J
1214.097	11.21	1227712	PROB	11.21	n/a	n/a	-999	9	[4, 8, 5]	17	FR1	1	R1145J
1225.307	0.008	1238922	STOP	n/a	n/a	n/a	-999	9	[-999, -999, -999]	n/a	FR1	1	R1145J
1225.315	0.6	1238930	DISTRACT_END	n/a	n/a	n/a	-999	9	[0, 0, 0]	n/a	FR1	1	R1145J
1225.915	0.517	1239530	RETRIEVAL_ORIENT	n/a	n/a	n/a	-999	9	[0, 0, 0]	n/a	FR1	1	R1145J
1226.432	1.323	1240047	REC_START	n/a	n/a	n/a	-999	9	[0, 0, 0]	n/a	FR1	1	R1145J
1227.755	0.756	1241370	REC_WORD	0.756	n/a	STAR	1	9	[0, 0, 0]	n/a	FR1	1	R1145J
1228.511	1.128	1242126	REC_WORD	1.128	n/a	SWAMP	2	9	[0, 0, 0]	n/a	FR1	1	R1145J
1229.639	3.547	1243254	REC_WORD	3.547	n/a	LAKE	3	9	[0, 0, 0]	n/a	FR1	1	R1145J
1233.186	0.382	1246801	REC_WORD_VV	0.382	n/a	<>	-999	9	[0, 0, 0]	n/a	FR1	1	R1145J
1233.568	1.55	1247183	REC_WORD	1.55	n/a	BOARD	4	9	[0, 0, 0]	n/a	FR1	1	R1145J
1235.118	4.637	1248733	REC_WORD	4.637	n/a	SQUIRREL	-999	9	[0, 0, 0]	n/a	FR1	1	R1145J
1239.755	0.814	1253370	REC_WORD	0.814	n/a	KITE	8	9	[0, 0, 0]	n/a	FR1	1	R1145J
1240.569	4.252	1254183	REC_WORD	4.252	n/a	CLOUD	10	9	[0, 0, 0]	n/a	FR1	1	R1145J
1244.821	11.623	1258435	REC_WORD	11.623	n/a	BOAT	9	9	[0, 0, 0]	n/a	FR1	1	R1145J
1256.444	4.975	1270058	REC_END	n/a	n/a	n/a	-999	9	[0, 0, 0]	n/a	FR1	1	R1145J
1261.419	0.5	1275033	TRIAL	n/a	n/a	n/a	-999	10	[0, 0, 0]	n/a	FR1	1	R1145J
1261.919	10.428	1275533	COUNTDOWN_START	n/a	n/a	n/a	-999	10	[0, 0, 0]	n/a	FR1	1	R1145J
1272.347	0.007	1285961	COUNTDOWN_END	n/a	n/a	n/a	-999	10	[0, 0, 0]	n/a	FR1	1	R1145J
1272.354	1.617	1285968	ORIENT	n/a	n/a	n/a	-999	10	[0, 0, 0]	n/a	FR1	1	R1145J
1273.971	1.933	1287585	ORIENT_OFF	n/a	n/a	n/a	-999	10	[0, 0, 0]	n/a	FR1	1	R1145J
1275.904	1.617	1289518	WORD	n/a	wordpools/wordpool_EN.txt	DEER	1	10	[0, 0, 0]	n/a	FR1	1	R1145J
1277.521	0.867	1291135	WORD_OFF	n/a	n/a	DEER	1	10	[0, 0, 0]	n/a	FR1	1	R1145J
1278.388	1.617	1292002	WORD	n/a	wordpools/wordpool_EN.txt	BADGE	2	10	[0, 0, 0]	n/a	FR1	1	R1145J
1280.005	0.799	1293619	WORD_OFF	n/a	n/a	BADGE	2	10	[0, 0, 0]	n/a	FR1	1	R1145J
1280.804	1.618	1294418	WORD	n/a	wordpools/wordpool_EN.txt	OWL	3	10	[0, 0, 0]	n/a	FR1	1	R1145J
1282.422	0.917	1296036	WORD_OFF	n/a	n/a	OWL	3	10	[0, 0, 0]	n/a	FR1	1	R1145J
1283.339	1.617	1296953	WORD	n/a	wordpools/wordpool_EN.txt	SKI	4	10	[0, 0, 0]	n/a	FR1	1	R1145J
1284.956	0.967	1298570	WORD_OFF	n/a	n/a	SKI	4	10	[0, 0, 0]	n/a	FR1	1	R1145J
1285.923	1.616	1299537	WORD	n/a	wordpools/wordpool_EN.txt	WOLF	5	10	[0, 0, 0]	n/a	FR1	1	R1145J
1287.539	0.768	1301153	WORD_OFF	n/a	n/a	WOLF	5	10	[0, 0, 0]	n/a	FR1	1	R1145J
1288.307	1.616	1301921	WORD	n/a	wordpools/wordpool_EN.txt	ZOO	6	10	[0, 0, 0]	n/a	FR1	1	R1145J
1289.923	0.984	1303537	WORD_OFF	n/a	n/a	ZOO	6	10	[0, 0, 0]	n/a	FR1	1	R1145J
1290.907	1.616	1304521	WORD	n/a	wordpools/wordpool_EN.txt	POND	7	10	[0, 0, 0]	n/a	FR1	1	R1145J
1292.523	0.901	1306137	WORD_OFF	n/a	n/a	POND	7	10	[0, 0, 0]	n/a	FR1	1	R1145J
1293.424	1.617	1307038	WORD	n/a	wordpools/wordpool_EN.txt	DUCK	8	10	[0, 0, 0]	n/a	FR1	1	R1145J
1295.041	0.85	1308655	WORD_OFF	n/a	n/a	DUCK	8	10	[0, 0, 0]	n/a	FR1	1	R1145J
1295.891	1.617	1309505	WORD	n/a	wordpools/wordpool_EN.txt	PARK	9	10	[0, 0, 0]	n/a	FR1	1	R1145J
1297.508	0.967	1311122	WORD_OFF	n/a	n/a	PARK	9	10	[0, 0, 0]	n/a	FR1	1	R1145J
1298.475	1.616	1312089	WORD	n/a	wordpools/wordpool_EN.txt	CHALK	10	10	[0, 0, 0]	n/a	FR1	1	R1145J
1300.091	0.867	1313705	WORD_OFF	n/a	n/a	CHALK	10	10	[0, 0, 0]	n/a	FR1	1	R1145J
1300.958	1.616	1314572	WORD	n/a	wordpools/wordpool_EN.txt	WHALE	11	10	[0, 0, 0]	n/a	FR1	1	R1145J
1302.574	0.835	1316188	WORD_OFF	n/a	n/a	WHALE	11	10	[0, 0, 0]	n/a	FR1	1	R1145J
1303.409	1.616	1317023	WORD	n/a	wordpools/wordpool_EN.txt	HORN	12	10	[0, 0, 0]	n/a	FR1	1	R1145J
1305.025	0.0	1318639	WORD_OFF	n/a	n/a	HORN	12	10	[0, 0, 0]	n/a	FR1	1	R1145J
1305.025	0.001	1318639	DISTRACT_START	n/a	n/a	n/a	-999	10	[0, 0, 0]	n/a	FR1	1	R1145J
1305.026	0.016	1318640	START	n/a	n/a	n/a	-999	10	[-999, -999, -999]	n/a	FR1	1	R1145J
1305.042	10.235	1318656	PROB	10.235	n/a	n/a	-999	10	[5, 5, 3]	2	FR1	1	R1145J
1315.277	20.264	1328890	PROB	20.264	n/a	n/a	-999	10	[7, 2, 2]	11	FR1	1	R1145J
1335.541	0.02	1349154	STOP	n/a	n/a	n/a	-999	10	[-999, -999, -999]	n/a	FR1	1	R1145J
1335.561	0.702	1349174	DISTRACT_END	n/a	n/a	n/a	-999	10	[0, 0, 0]	n/a	FR1	1	R1145J
1336.263	0.516	1349876	RETRIEVAL_ORIENT	n/a	n/a	n/a	-999	10	[0, 0, 0]	n/a	FR1	1	R1145J
1336.779	0.774	1350392	REC_START	n/a	n/a	n/a	-999	10	[0, 0, 0]	n/a	FR1	1	R1145J
1337.553	0.705	1351166	REC_WORD	0.705	n/a	DEER	1	10	[0, 0, 0]	n/a	FR1	1	R1145J
1338.258	2.003	1351871	REC_WORD	2.003	n/a	BADGE	2	10	[0, 0, 0]	n/a	FR1	1	R1145J
1340.261	1.131	1353874	REC_WORD	1.131	n/a	DUCK	8	10	[0, 0, 0]	n/a	FR1	1	R1145J
1341.392	2.246	1355005	REC_WORD	2.246	n/a	ZOO	6	10	[0, 0, 0]	n/a	FR1	1	R1145J
1343.638	23.153	1357251	REC_WORD	23.153	n/a	POND	7	10	[0, 0, 0]	n/a	FR1	1	R1145J
1366.791	5.26	1380404	REC_END	n/a	n/a	n/a	-999	10	[0, 0, 0]	n/a	FR1	1	R1145J
1372.051	0.5	1385663	TRIAL	n/a	n/a	n/a	-999	11	[0, 0, 0]	n/a	FR1	1	R1145J
1372.551	10.428	1386163	COUNTDOWN_START	n/a	n/a	n/a	-999	11	[0, 0, 0]	n/a	FR1	1	R1145J
1382.979	0.007	1396591	COUNTDOWN_END	n/a	n/a	n/a	-999	11	[0, 0, 0]	n/a	FR1	1	R1145J
1382.986	1.616	1396598	ORIENT	n/a	n/a	n/a	-999	11	[0, 0, 0]	n/a	FR1	1	R1145J
1384.602	1.983	1398214	ORIENT_OFF	n/a	n/a	n/a	-999	11	[0, 0, 0]	n/a	FR1	1	R1145J
1386.585	1.618	1400197	WORD	n/a	wordpools/wordpool_EN.txt	CHEEK	1	11	[0, 0, 0]	n/a	FR1	1	R1145J
1388.203	0.767	1401815	WORD_OFF	n/a	n/a	CHEEK	1	11	[0, 0, 0]	n/a	FR1	1	R1145J
1388.97	1.616	1402582	WORD	n/a	wordpools/wordpool_EN.txt	ROSE	2	11	[0, 0, 0]	n/a	FR1	1	R1145J
1390.586	0.884	1404198	WORD_OFF	n/a	n/a	ROSE	2	11	[0, 0, 0]	n/a	FR1	1	R1145J
1391.47	1.617	1405082	WORD	n/a	wordpools/wordpool_EN.txt	YARD	3	11	[0, 0, 0]	n/a	FR1	1	R1145J
1393.087	0.834	1406699	WORD_OFF	n/a	n/a	YARD	3	11	[0, 0, 0]	n/a	FR1	1	R1145J
1393.921	1.615	1407533	WORD	n/a	wordpools/wordpool_EN.txt	PIPE	4	11	[0, 0, 0]	n/a	FR1	1	R1145J
1395.536	0.985	1409148	WORD_OFF	n/a	n/a	PIPE	4	11	[0, 0, 0]	n/a	FR1	1	R1145J
1396.521	1.617	1410133	WORD	n/a	wordpools/wordpool_EN.txt	TRAY	5	11	[0, 0, 0]	n/a	FR1	1	R1145J
1398.138	0.967	1411750	WORD_OFF	n/a	n/a	TRAY	5	11	[0, 0, 0]	n/a	FR1	1	R1145J
1399.105	1.616	1412717	WORD	n/a	wordpools/wordpool_EN.txt	POOL	6	11	[0, 0, 0]	n/a	FR1	1	R1145J
1400.721	0.933	1414333	WORD_OFF	n/a	n/a	POOL	6	11	[0, 0, 0]	n/a	FR1	1	R1145J
1401.654	1.618	1415266	WORD	n/a	wordpools/wordpool_EN.txt	GATE	7	11	[0, 0, 0]	n/a	FR1	1	R1145J
1403.272	0.883	1416884	WORD_OFF	n/a	n/a	GATE	7	11	[0, 0, 0]	n/a	FR1	1	R1145J
1404.155	1.616	1417767	WORD	n/a	wordpools/wordpool_EN.txt	DOOR	8	11	[0, 0, 0]	n/a	FR1	1	R1145J
1405.771	0.867	1419383	WORD_OFF	n/a	n/a	DOOR	8	11	[0, 0, 0]	n/a	FR1	1	R1145J
1406.638	1.601	1420250	WORD	n/a	wordpools/wordpool_EN.txt	STICK	9	11	[0, 0, 0]	n/a	FR1	1	R1145J
1408.239	0.934	1421851	WORD_OFF	n/a	n/a	STICK	9	11	[0, 0, 0]	n/a	FR1	1	R1145J
1409.173	1.616	1422785	WORD	n/a	wordpools/wordpool_EN.txt	TOY	10	11	[0, 0, 0]	n/a	FR1	1	R1145J
1410.789	0.883	1424401	WORD_OFF	n/a	n/a	TOY	10	11	[0, 0, 0]	n/a	FR1	1	R1145J
1411.672	1.618	1425284	WORD	n/a	wordpools/wordpool_EN.txt	CUP	11	11	[0, 0, 0]	n/a	FR1	1	R1145J
1413.29	0.817	1426902	WORD_OFF	n/a	n/a	CUP	11	11	[0, 0, 0]	n/a	FR1	1	R1145J
1414.107	1.616	1427719	WORD	n/a	wordpools/wordpool_EN.txt	LEG	12	11	[0, 0, 0]	n/a	FR1	1	R1145J
1415.723	0.0	1429335	WORD_OFF	n/a	n/a	LEG	12	11	[0, 0, 0]	n/a	FR1	1	R1145J
1415.723	0.0	1429335	DISTRACT_START	n/a	n/a	n/a	-999	11	[0, 0, 0]	n/a	FR1	1	R1145J
1415.723	0.016	1429335	START	n/a	n/a	n/a	-999	11	[-999, -999, -999]	n/a	FR1	1	R1145J
1415.739	12.453	1429351	PROB	12.453	n/a	n/a	-999	11	[6, 4, 4]	14	FR1	1	R1145J
1428.192	4.184	1441804	PROB	4.184	n/a	n/a	-999	11	[2, 8, 1]	11	FR1	1	R1145J
1432.376	5.499	1445988	PROB	5.499	n/a	n/a	-999	11	[4, 9, 1]	14	FR1	1	R1145J
1437.875	0.018	1451486	STOP	n/a	n/a	n/a	-999	11	[-999, -999, -999]	n/a	FR1	1	R1145J
1437.893	0.567	1451504	DISTRACT_END	n/a	n/a	n/a	-999	11	[0, 0, 0]	n/a	FR1	1	R1145J
1438.46	0.517	1452071	RETRIEVAL_ORIENT	n/a	n/a	n/a	-999	11	[0, 0, 0]	n/a	FR1	1	R1145J
1438.977	1.4	1452588	REC_START	n/a	n/a	n/a	-999	11	[0, 0, 0]	n/a	FR1	1	R1145J
1440.377	1.138	1453988	REC_WORD	1.138	n/a	CHEEK	1	11	[0, 0, 0]	n/a	FR1	1	R1145J
1441.515	2.883	1455126	REC_WORD	2.883	n/a	ROSE	2	11	[0, 0, 0]	n/a	FR1	1	R1145J
1444.398	1.515	1458009	REC_WORD	1.515	n/a	YARD	3	11	[0, 0, 0]	n/a	FR1	1	R1145J
1445.913	3.78	1459524	REC_WORD	3.78	n/a	PIPE	4	11	[0, 0, 0]	n/a	FR1	1	R1145J
1449.693	4.207	1463304	REC_WORD	4.207	n/a	TRAY	5	11	[0, 0, 0]	n/a	FR1	1	R1145J
1453.9	1.0	1467511	REC_WORD_VV	1.0	n/a	<>	-999	11	[0, 0, 0]	n/a	FR1	1	R1145J
1454.9	1.0	1468511	REC_WORD_VV	1.0	n/a	<>	-999	11	[0, 0, 0]	n/a	FR1	1	R1145J
1455.9	13.088	1469511	REC_WORD_VV	13.088	n/a	<>	-999	11	[0, 0, 0]	n/a	FR1	1	R1145J
1468.988	7.743	1482599	REC_END	n/a	n/a	n/a	-999	11	[0, 0, 0]	n/a	FR1	1	R1145J
1476.731	0.5	1490342	TRIAL	n/a	n/a	n/a	-999	12	[0, 0, 0]	n/a	FR1	1	R1145J
1477.231	10.428	1490842	COUNTDOWN_START	n/a	n/a	n/a	-999	12	[0, 0, 0]	n/a	FR1	1	R1145J
1487.659	0.007	1501270	COUNTDOWN_END	n/a	n/a	n/a	-999	12	[0, 0, 0]	n/a	FR1	1	R1145J
1487.666	1.618	1501277	ORIENT	n/a	n/a	n/a	-999	12	[0, 0, 0]	n/a	FR1	1	R1145J
1489.284	2.117	1502895	ORIENT_OFF	n/a	n/a	n/a	-999	12	[0, 0, 0]	n/a	FR1	1	R1145J
1491.401	1.616	1505012	WORD	n/a	wordpools/wordpool_EN.txt	RAKE	1	12	[0, 0, 0]	n/a	FR1	1	R1145J
1493.017	0.8	1506628	WORD_OFF	n/a	n/a	RAKE	1	12	[0, 0, 0]	n/a	FR1	1	R1145J
1493.817	1.617	1507428	WORD	n/a	wordpools/wordpool_EN.txt	BANK	2	12	[0, 0, 0]	n/a	FR1	1	R1145J
1495.434	0.767	1509045	WORD_OFF	n/a	n/a	BANK	2	12	[0, 0, 0]	n/a	FR1	1	R1145J
1496.201	1.616	1509812	WORD	n/a	wordpools/wordpool_EN.txt	JUDGE	3	12	[0, 0, 0]	n/a	FR1	1	R1145J
1497.817	0.967	1511428	WORD_OFF	n/a	n/a	JUDGE	3	12	[0, 0, 0]	n/a	FR1	1	R1145J
1498.784	1.618	1512395	WORD	n/a	wordpools/wordpool_EN.txt	STORE	4	12	[0, 0, 0]	n/a	FR1	1	R1145J
1500.402	0.783	1514013	WORD_OFF	n/a	n/a	STORE	4	12	[0, 0, 0]	n/a	FR1	1	R1145J
1501.185	1.616	1514796	WORD	n/a	wordpools/wordpool_EN.txt	SHEET	5	12	[0, 0, 0]	n/a	FR1	1	R1145J
1502.801	0.8	1516411	WORD_OFF	n/a	n/a	SHEET	5	12	[0, 0, 0]	n/a	FR1	1	R1145J
1503.601	1.618	1517211	WORD	n/a	wordpools/wordpool_EN.txt	HORSE	6	12	[0, 0, 0]	n/a	FR1	1	R1145J
1505.219	0.783	1518829	WORD_OFF	n/a	n/a	HORSE	6	12	[0, 0, 0]	n/a	FR1	1	R1145J
1506.002	1.616	1519612	WORD	n/a	wordpools/wordpool_EN.txt	INK	7	12	[0, 0, 0]	n/a	FR1	1	R1145J
1507.618	0.818	1521228	WORD_OFF	n/a	n/a	INK	7	12	[0, 0, 0]	n/a	FR1	1	R1145J
1508.436	1.617	1522046	WORD	n/a	wordpools/wordpool_EN.txt	BOOK	8	12	[0, 0, 0]	n/a	FR1	1	R1145J
1510.053	0.783	1523663	WORD_OFF	n/a	n/a	BOOK	8	12	[0, 0, 0]	n/a	FR1	1	R1145J
1510.836	1.617	1524446	WORD	n/a	wordpools/wordpool_EN.txt	COIN	9	12	[0, 0, 0]	n/a	FR1	1	R1145J
1512.453	0.934	1526063	WORD_OFF	n/a	n/a	COIN	9	12	[0, 0, 0]	n/a	FR1	1	R1145J
1513.387	1.616	1526997	WORD	n/a	wordpools/wordpool_EN.txt	ELF	10	12	[0, 0, 0]	n/a	FR1	1	R1145J
1515.003	0.782	1528613	WORD_OFF	n/a	n/a	ELF	10	12	[0, 0, 0]	n/a	FR1	1	R1145J
1515.785	1.602	1529395	WORD	n/a	wordpools/wordpool_EN.txt	MAIL	11	12	[0, 0, 0]	n/a	FR1	1	R1145J
1517.387	0.817	1530997	WORD_OFF	n/a	n/a	MAIL	11	12	[0, 0, 0]	n/a	FR1	1	R1145J
1518.204	1.616	1531814	WORD	n/a	wordpools/wordpool_EN.txt	JAIL	12	12	[0, 0, 0]	n/a	FR1	1	R1145J
1519.82	0.0	1533430	WORD_OFF	n/a	n/a	JAIL	12	12	[0, 0, 0]	n/a	FR1	1	R1145J
1519.82	0.001	1533430	DISTRACT_START	n/a	n/a	n/a	-999	12	[0, 0, 0]	n/a	FR1	1	R1145J
1519.821	0.016	1533431	START	n/a	n/a	n/a	-999	12	[-999, -999, -999]	n/a	FR1	1	R1145J
1519.837	8.951	1533447	PROB	8.951	n/a	n/a	-999	12	[2, 3, 6]	11	FR1	1	R1145J
1528.788	7.202	1542398	PROB	7.202	n/a	n/a	-999	12	[6, 1, 6]	13	FR1	1	R1145J
1535.99	9.106	1549600	PROB	9.106	n/a	n/a	-999	12	[4, 6, 4]	14	FR1	1	R1145J
1545.096	0.012	1558706	STOP	n/a	n/a	n/a	-999	12	[-999, -999, -999]	n/a	FR1	1	R1145J
1545.108	0.599	1558718	DISTRACT_END	n/a	n/a	n/a	-999	12	[0, 0, 0]	n/a	FR1	1	R1145J
1545.707	0.519	1559317	RETRIEVAL_ORIENT	n/a	n/a	n/a	-999	12	[0, 0, 0]	n/a	FR1	1	R1145J
1546.226	1.562	1559836	REC_START	n/a	n/a	n/a	-999	12	[0, 0, 0]	n/a	FR1	1	R1145J
1547.788	0.922	1561398	REC_WORD	0.922	n/a	RAKE	1	12	[0, 0, 0]	n/a	FR1	1	R1145J
1548.71	0.925	1562320	REC_WORD	0.925	n/a	STORE	4	12	[0, 0, 0]	n/a	FR1	1	R1145J
1549.635	2.881	1563245	REC_WORD	2.881	n/a	ELF	10	12	[0, 0, 0]	n/a	FR1	1	R1145J
1552.516	15.599	1566126	REC_WORD	15.599	n/a	MAIL	11	12	[0, 0, 0]	n/a	FR1	1	R1145J
1568.115	1.651	1581724	REC_WORD_VV	1.651	n/a	<>	-999	12	[0, 0, 0]	n/a	FR1	1	R1145J
1569.766	6.47	1583375	REC_WORD_VV	6.47	n/a	<>	-999	12	[0, 0, 0]	n/a	FR1	1	R1145J
1576.236	18.612	1589845	REC_END	n/a	n/a	n/a	-999	12	[0, 0, 0]	n/a	FR1	1	R1145J
1594.848	0.5	1608457	TRIAL	n/a	n/a	n/a	-999	13	[0, 0, 0]	n/a	FR1	1	R1145J
1595.348	10.428	1608957	COUNTDOWN_START	n/a	n/a	n/a	-999	13	[0, 0, 0]	n/a	FR1	1	R1145J
1605.776	0.005	1619385	COUNTDOWN_END	n/a	n/a	n/a	-999	13	[0, 0, 0]	n/a	FR1	1	R1145J
1605.781	1.601	1619390	ORIENT	n/a	n/a	n/a	-999	13	[0, 0, 0]	n/a	FR1	1	R1145J
1607.382	1.951	1620991	ORIENT_OFF	n/a	n/a	n/a	-999	13	[0, 0, 0]	n/a	FR1	1	R1145J
1609.333	1.617	1622942	WORD	n/a	wordpools/wordpool_EN.txt	STORM	1	13	[0, 0, 0]	n/a	FR1	1	R1145J
1610.95	0.984	1624559	WORD_OFF	n/a	n/a	STORM	1	13	[0, 0, 0]	n/a	FR1	1	R1145J
1611.934	1.615	1625543	WORD	n/a	wordpools/wordpool_EN.txt	FLAG	2	13	[0, 0, 0]	n/a	FR1	1	R1145J
1613.549	0.885	1627158	WORD_OFF	n/a	n/a	FLAG	2	13	[0, 0, 0]	n/a	FR1	1	R1145J
1614.434	1.616	1628043	WORD	n/a	wordpools/wordpool_EN.txt	LAND	3	13	[0, 0, 0]	n/a	FR1	1	R1145J
1616.05	0.951	1629659	WORD_OFF	n/a	n/a	LAND	3	13	[0, 0, 0]	n/a	FR1	1	R1145J
1617.001	1.616	1630610	WORD	n/a	wordpools/wordpool_EN.txt	MOON	4	13	[0, 0, 0]	n/a	FR1	1	R1145J
1618.617	0.851	1632226	WORD_OFF	n/a	n/a	MOON	4	13	[0, 0, 0]	n/a	FR1	1	R1145J
1619.468	1.617	1633077	WORD	n/a	wordpools/wordpool_EN.txt	SHIELD	5	13	[0, 0, 0]	n/a	FR1	1	R1145J
1621.085	0.883	1634694	WORD_OFF	n/a	n/a	SHIELD	5	13	[0, 0, 0]	n/a	FR1	1	R1145J
1621.968	1.616	1635577	WORD	n/a	wordpools/wordpool_EN.txt	SAIL	6	13	[0, 0, 0]	n/a	FR1	1	R1145J
1623.584	0.868	1637193	WORD_OFF	n/a	n/a	SAIL	6	13	[0, 0, 0]	n/a	FR1	1	R1145J
1624.452	1.616	1638061	WORD	n/a	wordpools/wordpool_EN.txt	RAIN	7	13	[0, 0, 0]	n/a	FR1	1	R1145J
1626.068	0.901	1639677	WORD_OFF	n/a	n/a	RAIN	7	13	[0, 0, 0]	n/a	FR1	1	R1145J
1626.969	1.615	1640578	WORD	n/a	wordpools/wordpool_EN.txt	POLE	8	13	[0, 0, 0]	n/a	FR1	1	R1145J
1628.584	0.918	1642193	WORD_OFF	n/a	n/a	POLE	8	13	[0, 0, 0]	n/a	FR1	1	R1145J
1629.502	1.617	1643111	WORD	n/a	wordpools/wordpool_EN.txt	CUBE	9	13	[0, 0, 0]	n/a	FR1	1	R1145J
1631.119	0.917	1644728	WORD_OFF	n/a	n/a	CUBE	9	13	[0, 0, 0]	n/a	FR1	1	R1145J
1632.036	1.616	1645645	WORD	n/a	wordpools/wordpool_EN.txt	CAPE	10	13	[0, 0, 0]	n/a	FR1	1	R1145J
1633.652	0.868	1647260	WORD_OFF	n/a	n/a	CAPE	10	13	[0, 0, 0]	n/a	FR1	1	R1145J
1634.52	1.616	1648128	WORD	n/a	wordpools/wordpool_EN.txt	CROWN	11	13	[0, 0, 0]	n/a	FR1	1	R1145J
1636.136	1.001	1649744	WORD_OFF	n/a	n/a	CROWN	11	13	[0, 0, 0]	n/a	FR1	1	R1145J
1637.137	1.616	1650745	WORD	n/a	wordpools/wordpool_EN.txt	OAK	12	13	[0, 0, 0]	n/a	FR1	1	R1145J
1638.753	0.0	1652361	WORD_OFF	n/a	n/a	OAK	12	13	[0, 0, 0]	n/a	FR1	1	R1145J
1638.753	0.0	1652361	DISTRACT_START	n/a	n/a	n/a	-999	13	[0, 0, 0]	n/a	FR1	1	R1145J
1638.753	0.016	1652361	START	n/a	n/a	n/a	-999	13	[-999, -999, -999]	n/a	FR1	1	R1145J
1638.769	7.469	1652377	PROB	7.469	n/a	n/a	-999	13	[5, 5, 2]	12	FR1	1	R1145J
1646.238	9.051	1659846	PROB	9.051	n/a	n/a	-999	13	[5, 5, 7]	17	FR1	1	R1145J
1655.289	6.123	1668897	PROB	6.123	n/a	n/a	-999	13	[3, 1, 7]	11	FR1	1	R1145J
1661.412	0.012	1675020	STOP	n/a	n/a	n/a	-999	13	[-999, -999, -999]	n/a	FR1	1	R1145J
1661.424	0.599	1675032	DISTRACT_END	n/a	n/a	n/a	-999	13	[0, 0, 0]	n/a	FR1	1	R1145J
1662.023	0.517	1675631	RETRIEVAL_ORIENT	n/a	n/a	n/a	-999	13	[0, 0, 0]	n/a	FR1	1	R1145J
1662.54	3.083	1676148	REC_START	n/a	n/a	n/a	-999	13	[0, 0, 0]	n/a	FR1	1	R1145J
1665.623	1.375	1679231	REC_WORD	1.375	n/a	RAKE	-999	13	[0, 0, 0]	n/a	FR1	1	R1145J
1666.998	4.304	1680606	REC_WORD	4.304	n/a	ROLL	-999	13	[0, 0, 0]	n/a	FR1	1	R1145J
1671.302	1.294	1684910	REC_WORD	1.294	n/a	CROWN	11	13	[0, 0, 0]	n/a	FR1	1	R1145J
1672.596	1.647	1686204	REC_WORD	1.647	n/a	CROWN	11	13	[0, 0, 0]	n/a	FR1	1	R1145J
1674.243	18.306	1687851	REC_WORD	18.306	n/a	OAK	12	13	[0, 0, 0]	n/a	FR1	1	R1145J
1692.549	9.43	1706157	REC_END	n/a	n/a	n/a	-999	13	[0, 0, 0]	n/a	FR1	1	R1145J
1701.979	0.5	1715586	TRIAL	n/a	n/a	n/a	-999	14	[0, 0, 0]	n/a	FR1	1	R1145J
1702.479	10.428	1716086	COUNTDOWN_START	n/a	n/a	n/a	-999	14	[0, 0, 0]	n/a	FR1	1	R1145J
1712.907	0.007	1726514	COUNTDOWN_END	n/a	n/a	n/a	-999	14	[0, 0, 0]	n/a	FR1	1	R1145J
1712.914	1.616	1726521	ORIENT	n/a	n/a	n/a	-999	14	[0, 0, 0]	n/a	FR1	1	R1145J
1714.53	2.217	1728137	ORIENT_OFF	n/a	n/a	n/a	-999	14	[0, 0, 0]	n/a	FR1	1	R1145J
1716.747	1.617	1730354	WORD	n/a	wordpools/wordpool_EN.txt	SKY	1	14	[0, 0, 0]	n/a	FR1	1	R1145J
1718.364	0.934	1731971	WORD_OFF	n/a	n/a	SKY	1	14	[0, 0, 0]	n/a	FR1	1	R1145J
1719.298	1.617	1732905	WORD	n/a	wordpools/wordpool_EN.txt	CART	2	14	[0, 0, 0]	n/a	FR1	1	R1145J
1720.915	1.017	1734522	WORD_OFF	n/a	n/a	CART	2	14	[0, 0, 0]	n/a	FR1	1	R1145J
1721.932	1.616	1735539	WORD	n/a	wordpools/wordpool_EN.txt	SNOW	3	14	[0, 0, 0]	n/a	FR1	1	R1145J
1723.548	0.884	1737155	WORD_OFF	n/a	n/a	SNOW	3	14	[0, 0, 0]	n/a	FR1	1	R1145J
1724.432	1.617	1738039	WORD	n/a	wordpools/wordpool_EN.txt	MULE	4	14	[0, 0, 0]	n/a	FR1	1	R1145J
1726.049	1.0	1739656	WORD_OFF	n/a	n/a	MULE	4	14	[0, 0, 0]	n/a	FR1	1	R1145J
1727.049	1.616	1740656	WORD	n/a	wordpools/wordpool_EN.txt	RIB	5	14	[0, 0, 0]	n/a	FR1	1	R1145J
1728.665	0.851	1742272	WORD_OFF	n/a	n/a	RIB	5	14	[0, 0, 0]	n/a	FR1	1	R1145J
1729.516	1.617	1743123	WORD	n/a	wordpools/wordpool_EN.txt	SHIRT	6	14	[0, 0, 0]	n/a	FR1	1	R1145J
1731.133	0.767	1744740	WORD_OFF	n/a	n/a	SHIRT	6	14	[0, 0, 0]	n/a	FR1	1	R1145J
1731.9	1.617	1745507	WORD	n/a	wordpools/wordpool_EN.txt	BOY	7	14	[0, 0, 0]	n/a	FR1	1	R1145J
1733.517	0.983	1747124	WORD_OFF	n/a	n/a	BOY	7	14	[0, 0, 0]	n/a	FR1	1	R1145J
1734.5	1.617	1748107	WORD	n/a	wordpools/wordpool_EN.txt	JEEP	8	14	[0, 0, 0]	n/a	FR1	1	R1145J
1736.117	1.0	1749724	WORD_OFF	n/a	n/a	JEEP	8	14	[0, 0, 0]	n/a	FR1	1	R1145J
1737.117	1.616	1750724	WORD	n/a	wordpools/wordpool_EN.txt	BARN	9	14	[0, 0, 0]	n/a	FR1	1	R1145J
1738.733	0.833	1752340	WORD_OFF	n/a	n/a	BARN	9	14	[0, 0, 0]	n/a	FR1	1	R1145J
1739.566	1.618	1753173	WORD	n/a	wordpools/wordpool_EN.txt	CHIN	10	14	[0, 0, 0]	n/a	FR1	1	R1145J
1741.184	0.784	1754791	WORD_OFF	n/a	n/a	CHIN	10	14	[0, 0, 0]	n/a	FR1	1	R1145J
1741.968	1.616	1755575	WORD	n/a	wordpools/wordpool_EN.txt	FOG	11	14	[0, 0, 0]	n/a	FR1	1	R1145J
1743.584	0.95	1757191	WORD_OFF	n/a	n/a	FOG	11	14	[0, 0, 0]	n/a	FR1	1	R1145J
1744.534	1.617	1758141	WORD	n/a	wordpools/wordpool_EN.txt	BOOT	12	14	[0, 0, 0]	n/a	FR1	1	R1145J
1746.151	0.0	1759758	WORD_OFF	n/a	n/a	BOOT	12	14	[0, 0, 0]	n/a	FR1	1	R1145J
1746.151	0.001	1759758	DISTRACT_START	n/a	n/a	n/a	-999	14	[0, 0, 0]	n/a	FR1	1	R1145J
1746.152	0.016	1759759	START	n/a	n/a	n/a	-999	14	[-999, -999, -999]	n/a	FR1	1	R1145J
1746.168	7.735	1759775	PROB	7.735	n/a	n/a	-999	14	[9, 4, 6]	19	FR1	1	R1145J
1753.903	7.749	1767510	PROB	7.749	n/a	n/a	-999	14	[8, 8, 8]	24	FR1	1	R1145J
1761.652	6.485	1775259	PROB	6.485	n/a	n/a	-999	14	[6, 3, 1]	10	FR1	1	R1145J
1768.137	0.018	1781743	STOP	n/a	n/a	n/a	-999	14	[-999, -999, -999]	n/a	FR1	1	R1145J
1768.155	0.632	1781761	DISTRACT_END	n/a	n/a	n/a	-999	14	[0, 0, 0]	n/a	FR1	1	R1145J
1768.787	0.519	1782393	RETRIEVAL_ORIENT	n/a	n/a	n/a	-999	14	[0, 0, 0]	n/a	FR1	1	R1145J
1769.306	8.575	1782912	REC_START	n/a	n/a	n/a	-999	14	[0, 0, 0]	n/a	FR1	1	R1145J
1777.881	21.437	1791487	REC_WORD	21.437	n/a	BOOM	-999	14	[0, 0, 0]	n/a	FR1	1	R1145J
1799.318	6.941	1812924	REC_END	n/a	n/a	n/a	-999	14	[0, 0, 0]	n/a	FR1	1	R1145J
1806.259	0.5	1819865	TRIAL	n/a	n/a	n/a	-999	15	[0, 0, 0]	n/a	FR1	1	R1145J
1806.759	10.428	1820365	COUNTDOWN_START	n/a	n/a	n/a	-999	15	[0, 0, 0]	n/a	FR1	1	R1145J
1817.187	0.007	1830793	COUNTDOWN_END	n/a	n/a	n/a	-999	15	[0, 0, 0]	n/a	FR1	1	R1145J
1817.194	1.616	1830800	ORIENT	n/a	n/a	n/a	-999	15	[0, 0, 0]	n/a	FR1	1	R1145J
1818.81	2.118	1832416	ORIENT_OFF	n/a	n/a	n/a	-999	15	[0, 0, 0]	n/a	FR1	1	R1145J
1820.928	1.616	1834534	WORD	n/a	wordpools/wordpool_EN.txt	SEAT	1	15	[0, 0, 0]	n/a	FR1	1	R1145J
1822.544	0.801	1836150	WORD_OFF	n/a	n/a	SEAT	1	15	[0, 0, 0]	n/a	FR1	1	R1145J
1823.345	1.617	1836951	WORD	n/a	wordpools/wordpool_EN.txt	STOOL	2	15	[0, 0, 0]	n/a	FR1	1	R1145J
1824.962	0.833	1838568	WORD_OFF	n/a	n/a	STOOL	2	15	[0, 0, 0]	n/a	FR1	1	R1145J
1825.795	1.617	1839401	WORD	n/a	wordpools/wordpool_EN.txt	BENCH	3	15	[0, 0, 0]	n/a	FR1	1	R1145J
1827.412	0.767	1841018	WORD_OFF	n/a	n/a	BENCH	3	15	[0, 0, 0]	n/a	FR1	1	R1145J
1828.179	1.616	1841785	WORD	n/a	wordpools/wordpool_EN.txt	STREET	4	15	[0, 0, 0]	n/a	FR1	1	R1145J
1829.795	0.9	1843400	WORD_OFF	n/a	n/a	STREET	4	15	[0, 0, 0]	n/a	FR1	1	R1145J
1830.695	1.618	1844300	WORD	n/a	wordpools/wordpool_EN.txt	SHOE	5	15	[0, 0, 0]	n/a	FR1	1	R1145J
1832.313	0.817	1845918	WORD_OFF	n/a	n/a	SHOE	5	15	[0, 0, 0]	n/a	FR1	1	R1145J
1833.13	1.616	1846735	WORD	n/a	wordpools/wordpool_EN.txt	GEESE	6	15	[0, 0, 0]	n/a	FR1	1	R1145J
1834.746	0.983	1848351	WORD_OFF	n/a	n/a	GEESE	6	15	[0, 0, 0]	n/a	FR1	1	R1145J
1835.729	1.601	1849334	WORD	n/a	wordpools/wordpool_EN.txt	HAT	7	15	[0, 0, 0]	n/a	FR1	1	R1145J
1837.33	0.767	1850935	WORD_OFF	n/a	n/a	HAT	7	15	[0, 0, 0]	n/a	FR1	1	R1145J
1838.097	1.616	1851702	WORD	n/a	wordpools/wordpool_EN.txt	THREAD	8	15	[0, 0, 0]	n/a	FR1	1	R1145J
1839.713	1.0	1853318	WORD_OFF	n/a	n/a	THREAD	8	15	[0, 0, 0]	n/a	FR1	1	R1145J
1840.713	1.618	1854318	WORD	n/a	wordpools/wordpool_EN.txt	DESK	9	15	[0, 0, 0]	n/a	FR1	1	R1145J
1842.331	0.984	1855936	WORD_OFF	n/a	n/a	DESK	9	15	[0, 0, 0]	n/a	FR1	1	R1145J
1843.315	1.616	1856920	WORD	n/a	wordpools/wordpool_EN.txt	GOLD	10	15	[0, 0, 0]	n/a	FR1	1	R1145J
1844.931	0.799	1858536	WORD_OFF	n/a	n/a	GOLD	10	15	[0, 0, 0]	n/a	FR1	1	R1145J
1845.73	1.618	1859335	WORD	n/a	wordpools/wordpool_EN.txt	DOLL	11	15	[0, 0, 0]	n/a	FR1	1	R1145J
1847.348	1.001	1860953	WORD_OFF	n/a	n/a	DOLL	11	15	[0, 0, 0]	n/a	FR1	1	R1145J
1848.349	1.617	1861954	WORD	n/a	wordpools/wordpool_EN.txt	SLIME	12	15	[0, 0, 0]	n/a	FR1	1	R1145J
1849.966	0.0	1863571	WORD_OFF	n/a	n/a	SLIME	12	15	[0, 0, 0]	n/a	FR1	1	R1145J
1849.966	0.0	1863571	DISTRACT_START	n/a	n/a	n/a	-999	15	[0, 0, 0]	n/a	FR1	1	R1145J
1849.966	0.016	1863571	START	n/a	n/a	n/a	-999	15	[-999, -999, -999]	n/a	FR1	1	R1145J
1849.982	11.935	1863587	PROB	11.935	n/a	n/a	-999	15	[2, 7, 2]	11	FR1	1	R1145J
1861.917	7.584	1875522	PROB	7.584	n/a	n/a	-999	15	[9, 9, 9]	36	FR1	1	R1145J
1869.501	11.255	1883106	PROB	11.255	n/a	n/a	-999	15	[8, 9, 1]	18	FR1	1	R1145J
1880.756	0.013	1894361	STOP	n/a	n/a	n/a	-999	15	[-999, -999, -999]	n/a	FR1	1	R1145J
1880.769	0.701	1894374	DISTRACT_END	n/a	n/a	n/a	-999	15	[0, 0, 0]	n/a	FR1	1	R1145J
1881.47	0.517	1895075	RETRIEVAL_ORIENT	n/a	n/a	n/a	-999	15	[0, 0, 0]	n/a	FR1	1	R1145J
1881.987	3.109	1895592	REC_START	n/a	n/a	n/a	-999	15	[0, 0, 0]	n/a	FR1	1	R1145J
1885.096	1.445	1898701	REC_WORD	1.445	n/a	STREET	4	15	[0, 0, 0]	n/a	FR1	1	R1145J
1886.541	1.643	1900146	REC_WORD	1.643	n/a	SEAT	1	15	[0, 0, 0]	n/a	FR1	1	R1145J
1888.184	23.814	1901789	REC_WORD	23.814	n/a	GEESE	6	15	[0, 0, 0]	n/a	FR1	1	R1145J
1911.998	6.11	1925602	REC_END	n/a	n/a	n/a	-999	15	[0, 0, 0]	n/a	FR1	1	R1145J
1918.108	0.5	1931712	TRIAL	n/a	n/a	n/a	-999	16	[0, 0, 0]	n/a	FR1	1	R1145J
1918.608	10.428	1932212	COUNTDOWN_START	n/a	n/a	n/a	-999	16	[0, 0, 0]	n/a	FR1	1	R1145J
1929.036	0.006	1942640	COUNTDOWN_END	n/a	n/a	n/a	-999	16	[0, 0, 0]	n/a	FR1	1	R1145J
1929.042	1.617	1942646	ORIENT	n/a	n/a	n/a	-999	16	[0, 0, 0]	n/a	FR1	1	R1145J
1930.659	1.917	1944263	ORIENT_OFF	n/a	n/a	n/a	-999	16	[0, 0, 0]	n/a	FR1	1	R1145J
1932.576	1.618	1946180	WORD	n/a	wordpools/wordpool_EN.txt	STAIR	1	16	[0, 0, 0]	n/a	FR1	1	R1145J
1934.194	0.983	1947798	WORD_OFF	n/a	n/a	STAIR	1	16	[0, 0, 0]	n/a	FR1	1	R1145J
1935.177	1.616	1948781	WORD	n/a	wordpools/wordpool_EN.txt	HOSE	2	16	[0, 0, 0]	n/a	FR1	1	R1145J
1936.793	0.833	1950397	WORD_OFF	n/a	n/a	HOSE	2	16	[0, 0, 0]	n/a	FR1	1	R1145J
1937.626	1.601	1951230	WORD	n/a	wordpools/wordpool_EN.txt	FLAME	3	16	[0, 0, 0]	n/a	FR1	1	R1145J
1939.227	0.984	1952831	WORD_OFF	n/a	n/a	FLAME	3	16	[0, 0, 0]	n/a	FR1	1	R1145J
1940.211	1.616	1953815	WORD	n/a	wordpools/wordpool_EN.txt	LAMP	4	16	[0, 0, 0]	n/a	FR1	1	R1145J
1941.827	0.783	1955431	WORD_OFF	n/a	n/a	LAMP	4	16	[0, 0, 0]	n/a	FR1	1	R1145J
1942.61	1.618	1956214	WORD	n/a	wordpools/wordpool_EN.txt	CHAIR	5	16	[0, 0, 0]	n/a	FR1	1	R1145J
1944.228	0.817	1957832	WORD_OFF	n/a	n/a	CHAIR	5	16	[0, 0, 0]	n/a	FR1	1	R1145J
1945.045	1.616	1958649	WORD	n/a	wordpools/wordpool_EN.txt	VEST	6	16	[0, 0, 0]	n/a	FR1	1	R1145J
1946.661	0.883	1960265	WORD_OFF	n/a	n/a	VEST	6	16	[0, 0, 0]	n/a	FR1	1	R1145J
1947.544	1.618	1961148	WORD	n/a	wordpools/wordpool_EN.txt	SOAP	7	16	[0, 0, 0]	n/a	FR1	1	R1145J
1949.162	1.017	1962766	WORD_OFF	n/a	n/a	SOAP	7	16	[0, 0, 0]	n/a	FR1	1	R1145J
1950.179	1.616	1963783	WORD	n/a	wordpools/wordpool_EN.txt	ROPE	8	16	[0, 0, 0]	n/a	FR1	1	R1145J
1951.795	0.9	1965399	WORD_OFF	n/a	n/a	ROPE	8	16	[0, 0, 0]	n/a	FR1	1	R1145J
1952.695	1.618	1966299	WORD	n/a	wordpools/wordpool_EN.txt	SLUSH	9	16	[0, 0, 0]	n/a	FR1	1	R1145J
1954.313	0.883	1967917	WORD_OFF	n/a	n/a	SLUSH	9	16	[0, 0, 0]	n/a	FR1	1	R1145J
1955.196	1.616	1968800	WORD	n/a	wordpools/wordpool_EN.txt	SINK	10	16	[0, 0, 0]	n/a	FR1	1	R1145J
1956.812	0.917	1970416	WORD_OFF	n/a	n/a	SINK	10	16	[0, 0, 0]	n/a	FR1	1	R1145J
1957.729	1.618	1971333	WORD	n/a	wordpools/wordpool_EN.txt	CLOTH	11	16	[0, 0, 0]	n/a	FR1	1	R1145J
1959.347	0.817	1972951	WORD_OFF	n/a	n/a	CLOTH	11	16	[0, 0, 0]	n/a	FR1	1	R1145J
1960.164	1.616	1973767	WORD	n/a	wordpools/wordpool_EN.txt	STOVE	12	16	[0, 0, 0]	n/a	FR1	1	R1145J
1961.78	0.0	1975383	WORD_OFF	n/a	n/a	STOVE	12	16	[0, 0, 0]	n/a	FR1	1	R1145J
1961.78	0.0	1975383	DISTRACT_START	n/a	n/a	n/a	-999	16	[0, 0, 0]	n/a	FR1	1	R1145J
1961.78	0.016	1975383	START	n/a	n/a	n/a	-999	16	[-999, -999, -999]	n/a	FR1	1	R1145J
1961.796	8.669	1975399	PROB	8.669	n/a	n/a	-999	16	[3, 9, 9]	21	FR1	1	R1145J
1970.465	7.001	1984068	PROB	7.001	n/a	n/a	-999	16	[6, 1, 4]	11	FR1	1	R1145J
1977.466	26.092	1991069	PROB	26.092	n/a	n/a	-999	16	[2, 4, 3]	9	FR1	1	R1145J
2003.558	0.011	2017161	STOP	n/a	n/a	n/a	-999	16	[-999, -999, -999]	n/a	FR1	1	R1145J
2003.569	0.517	2017172	DISTRACT_END	n/a	n/a	n/a	-999	16	[0, 0, 0]	n/a	FR1	1	R1145J
2004.086	0.517	2017689	RETRIEVAL_ORIENT	n/a	n/a	n/a	-999	16	[0, 0, 0]	n/a	FR1	1	R1145J
2004.603	1.336	2018206	REC_START	n/a	n/a	n/a	-999	16	[0, 0, 0]	n/a	FR1	1	R1145J
2005.939	1.059	2019542	REC_WORD	1.059	n/a	SLUSH	9	16	[0, 0, 0]	n/a	FR1	1	R1145J
2006.998	1.064	2020601	REC_WORD	1.064	n/a	SINK	10	16	[0, 0, 0]	n/a	FR1	1	R1145J
2008.062	0.751	2021665	REC_WORD_VV	0.751	n/a	<>	-999	16	[0, 0, 0]	n/a	FR1	1	R1145J
2008.813	2.919	2022416	REC_WORD	2.919	n/a	CLOTH	11	16	[0, 0, 0]	n/a	FR1	1	R1145J
2011.732	0.633	2025335	REC_WORD	0.633	n/a	SLUSH	9	16	[0, 0, 0]	n/a	FR1	1	R1145J
2012.365	0.677	2025968	REC_WORD	0.677	n/a	SINK	10	16	[0, 0, 0]	n/a	FR1	1	R1145J
2013.042	3.299	2026645	REC_WORD	3.299	n/a	CLOTH	11	16	[0, 0, 0]	n/a	FR1	1	R1145J
2016.341	1.0	2029944	REC_WORD_VV	1.0	n/a	<>	-999	16	[0, 0, 0]	n/a	FR1	1	R1145J
2017.341	17.274	2030944	REC_WORD_VV	17.274	n/a	<>	-999	16	[0, 0, 0]	n/a	FR1	1	R1145J
2034.615	5.376	2048217	REC_END	n/a	n/a	n/a	-999	16	[0, 0, 0]	n/a	FR1	1	R1145J
2039.991	0.5	2053593	TRIAL	n/a	n/a	n/a	-999	17	[0, 0, 0]	n/a	FR1	1	R1145J
2040.491	10.428	2054093	COUNTDOWN_START	n/a	n/a	n/a	-999	17	[0, 0, 0]	n/a	FR1	1	R1145J
2050.919	0.007	2064521	COUNTDOWN_END	n/a	n/a	n/a	-999	17	[0, 0, 0]	n/a	FR1	1	R1145J
2050.926	1.616	2064528	ORIENT	n/a	n/a	n/a	-999	17	[0, 0, 0]	n/a	FR1	1	R1145J
2052.542	2.133	2066144	ORIENT_OFF	n/a	n/a	n/a	-999	17	[0, 0, 0]	n/a	FR1	1	R1145J
2054.675	1.618	2068277	WORD	n/a	wordpools/wordpool_EN.txt	BOX	1	17	[0, 0, 0]	n/a	FR1	1	R1145J
2056.293	0.867	2069895	WORD_OFF	n/a	n/a	BOX	1	17	[0, 0, 0]	n/a	FR1	1	R1145J
2057.16	1.616	2070762	WORD	n/a	wordpools/wordpool_EN.txt	PEN	2	17	[0, 0, 0]	n/a	FR1	1	R1145J
2058.776	0.983	2072378	WORD_OFF	n/a	n/a	PEN	2	17	[0, 0, 0]	n/a	FR1	1	R1145J
2059.759	1.601	2073361	WORD	n/a	wordpools/wordpool_EN.txt	SKUNK	3	17	[0, 0, 0]	n/a	FR1	1	R1145J
2061.36	0.884	2074962	WORD_OFF	n/a	n/a	SKUNK	3	17	[0, 0, 0]	n/a	FR1	1	R1145J
2062.244	1.617	2075846	WORD	n/a	wordpools/wordpool_EN.txt	HOOF	4	17	[0, 0, 0]	n/a	FR1	1	R1145J
2063.861	0.766	2077463	WORD_OFF	n/a	n/a	HOOF	4	17	[0, 0, 0]	n/a	FR1	1	R1145J
2064.627	1.618	2078229	WORD	n/a	wordpools/wordpool_EN.txt	STEAK	5	17	[0, 0, 0]	n/a	FR1	1	R1145J
2066.245	0.967	2079847	WORD_OFF	n/a	n/a	STEAK	5	17	[0, 0, 0]	n/a	FR1	1	R1145J
2067.212	1.615	2080814	WORD	n/a	wordpools/wordpool_EN.txt	WOOD	6	17	[0, 0, 0]	n/a	FR1	1	R1145J
2068.827	0.801	2082429	WORD_OFF	n/a	n/a	WOOD	6	17	[0, 0, 0]	n/a	FR1	1	R1145J
2069.628	1.618	2083230	WORD	n/a	wordpools/wordpool_EN.txt	PLATE	7	17	[0, 0, 0]	n/a	FR1	1	R1145J
2071.246	0.816	2084848	WORD_OFF	n/a	n/a	PLATE	7	17	[0, 0, 0]	n/a	FR1	1	R1145J
2072.062	1.616	2085664	WORD	n/a	wordpools/wordpool_EN.txt	PASTE	8	17	[0, 0, 0]	n/a	FR1	1	R1145J
2073.678	0.85	2087280	WORD_OFF	n/a	n/a	PASTE	8	17	[0, 0, 0]	n/a	FR1	1	R1145J
2074.528	1.618	2088130	WORD	n/a	wordpools/wordpool_EN.txt	MAT	9	17	[0, 0, 0]	n/a	FR1	1	R1145J
2076.146	0.9	2089748	WORD_OFF	n/a	n/a	MAT	9	17	[0, 0, 0]	n/a	FR1	1	R1145J
2077.046	1.616	2090648	WORD	n/a	wordpools/wordpool_EN.txt	PEACH	10	17	[0, 0, 0]	n/a	FR1	1	R1145J
2078.662	0.9	2092264	WORD_OFF	n/a	n/a	PEACH	10	17	[0, 0, 0]	n/a	FR1	1	R1145J
2079.562	1.618	2093164	WORD	n/a	wordpools/wordpool_EN.txt	VAN	11	17	[0, 0, 0]	n/a	FR1	1	R1145J
2081.18	0.984	2094782	WORD_OFF	n/a	n/a	VAN	11	17	[0, 0, 0]	n/a	FR1	1	R1145J
2082.164	1.616	2095766	WORD	n/a	wordpools/wordpool_EN.txt	PEAR	12	17	[0, 0, 0]	n/a	FR1	1	R1145J
2083.78	0.0	2097382	WORD_OFF	n/a	n/a	PEAR	12	17	[0, 0, 0]	n/a	FR1	1	R1145J
2083.78	0.0	2097382	DISTRACT_START	n/a	n/a	n/a	-999	17	[0, 0, 0]	n/a	FR1	1	R1145J
2083.78	0.016	2097382	START	n/a	n/a	n/a	-999	17	[-999, -999, -999]	n/a	FR1	1	R1145J
2083.796	10.802	2097398	PROB	10.802	n/a	n/a	-999	17	[6, 1, 1]	8	FR1	1	R1145J
2094.598	8.835	2108199	PROB	8.835	n/a	n/a	-999	17	[8, 2, 4]	14	FR1	1	R1145J
2103.433	15.427	2117034	PROB	15.427	n/a	n/a	-999	17	[5, 7, 2]	14	FR1	1	R1145J
2118.86	0.008	2132461	STOP	n/a	n/a	n/a	-999	17	[-999, -999, -999]	n/a	FR1	1	R1145J
2118.868	0.6	2132469	DISTRACT_END	n/a	n/a	n/a	-999	17	[0, 0, 0]	n/a	FR1	1	R1145J
2119.468	0.518	2133069	RETRIEVAL_ORIENT	n/a	n/a	n/a	-999	17	[0, 0, 0]	n/a	FR1	1	R1145J
2119.986	1.374	2133587	REC_START	n/a	n/a	n/a	-999	17	[0, 0, 0]	n/a	FR1	1	R1145J
2121.36	0.886	2134961	REC_WORD	0.886	n/a	PLACE	-999	17	[0, 0, 0]	n/a	FR1	1	R1145J
2122.246	0.879	2135847	REC_WORD	0.879	n/a	PASTE	8	17	[0, 0, 0]	n/a	FR1	1	R1145J
2123.125	2.298	2136726	REC_WORD	2.298	n/a	MAT	9	17	[0, 0, 0]	n/a	FR1	1	R1145J
2125.423	4.309	2139024	REC_WORD	4.309	n/a	VAN	11	17	[0, 0, 0]	n/a	FR1	1	R1145J
2129.732	0.564	2143333	REC_WORD	0.564	n/a	PLACE	-999	17	[0, 0, 0]	n/a	FR1	1	R1145J
2130.296	0.6	2143897	REC_WORD	0.6	n/a	PASTE	8	17	[0, 0, 0]	n/a	FR1	1	R1145J
2130.896	0.436	2144497	REC_WORD	0.436	n/a	MAT	9	17	[0, 0, 0]	n/a	FR1	1	R1145J
2131.332	0.551	2144933	REC_WORD_VV	0.551	n/a	<>	-999	17	[0, 0, 0]	n/a	FR1	1	R1145J
2131.883	0.857	2145484	REC_WORD	0.857	n/a	PLACE	-999	17	[0, 0, 0]	n/a	FR1	1	R1145J
2132.74	0.61	2146341	REC_WORD	0.61	n/a	PASTE	8	17	[0, 0, 0]	n/a	FR1	1	R1145J
2133.35	0.59	2146951	REC_WORD	0.59	n/a	MAT	9	17	[0, 0, 0]	n/a	FR1	1	R1145J
2133.94	16.057	2147541	REC_WORD	16.057	n/a	VAN	11	17	[0, 0, 0]	n/a	FR1	1	R1145J
2149.997	4.725	2163598	REC_END	n/a	n/a	n/a	-999	17	[0, 0, 0]	n/a	FR1	1	R1145J
2154.722	0.5	2168323	TRIAL	n/a	n/a	n/a	-999	18	[0, 0, 0]	n/a	FR1	1	R1145J
2155.222	10.428	2168823	COUNTDOWN_START	n/a	n/a	n/a	-999	18	[0, 0, 0]	n/a	FR1	1	R1145J
2165.65	0.007	2179250	COUNTDOWN_END	n/a	n/a	n/a	-999	18	[0, 0, 0]	n/a	FR1	1	R1145J
2165.657	1.618	2179257	ORIENT	n/a	n/a	n/a	-999	18	[0, 0, 0]	n/a	FR1	1	R1145J
2167.275	2.033	2180875	ORIENT_OFF	n/a	n/a	n/a	-999	18	[0, 0, 0]	n/a	FR1	1	R1145J
2169.308	1.617	2182908	WORD	n/a	wordpools/wordpool_EN.txt	COUCH	1	18	[0, 0, 0]	n/a	FR1	1	R1145J
2170.925	0.849	2184525	WORD_OFF	n/a	n/a	COUCH	1	18	[0, 0, 0]	n/a	FR1	1	R1145J
2171.774	1.619	2185374	WORD	n/a	wordpools/wordpool_EN.txt	CAKE	2	18	[0, 0, 0]	n/a	FR1	1	R1145J
2173.393	0.833	2186993	WORD_OFF	n/a	n/a	CAKE	2	18	[0, 0, 0]	n/a	FR1	1	R1145J
2174.226	1.617	2187826	WORD	n/a	wordpools/wordpool_EN.txt	LOCK	3	18	[0, 0, 0]	n/a	FR1	1	R1145J
2175.843	0.915	2189443	WORD_OFF	n/a	n/a	LOCK	3	18	[0, 0, 0]	n/a	FR1	1	R1145J
2176.758	1.601	2190358	WORD	n/a	wordpools/wordpool_EN.txt	BAG	4	18	[0, 0, 0]	n/a	FR1	1	R1145J
2178.359	0.784	2191959	WORD_OFF	n/a	n/a	BAG	4	18	[0, 0, 0]	n/a	FR1	1	R1145J
2179.143	1.616	2192743	WORD	n/a	wordpools/wordpool_EN.txt	FAN	5	18	[0, 0, 0]	n/a	FR1	1	R1145J
2180.759	0.934	2194359	WORD_OFF	n/a	n/a	FAN	5	18	[0, 0, 0]	n/a	FR1	1	R1145J
2181.693	1.617	2195293	WORD	n/a	wordpools/wordpool_EN.txt	HAND	6	18	[0, 0, 0]	n/a	FR1	1	R1145J
2183.31	0.851	2196910	WORD_OFF	n/a	n/a	HAND	6	18	[0, 0, 0]	n/a	FR1	1	R1145J
2184.161	1.616	2197761	WORD	n/a	wordpools/wordpool_EN.txt	BROOM	7	18	[0, 0, 0]	n/a	FR1	1	R1145J
2185.777	0.816	2199377	WORD_OFF	n/a	n/a	BROOM	7	18	[0, 0, 0]	n/a	FR1	1	R1145J
2186.593	1.618	2200193	WORD	n/a	wordpools/wordpool_EN.txt	ARK	8	18	[0, 0, 0]	n/a	FR1	1	R1145J
2188.211	0.967	2201811	WORD_OFF	n/a	n/a	ARK	8	18	[0, 0, 0]	n/a	FR1	1	R1145J
2189.178	1.616	2202778	WORD	n/a	wordpools/wordpool_EN.txt	PIE	9	18	[0, 0, 0]	n/a	FR1	1	R1145J
2190.794	0.767	2204394	WORD_OFF	n/a	n/a	PIE	9	18	[0, 0, 0]	n/a	FR1	1	R1145J
2191.561	1.601	2205161	WORD	n/a	wordpools/wordpool_EN.txt	BED	10	18	[0, 0, 0]	n/a	FR1	1	R1145J
2193.162	1.017	2206762	WORD_OFF	n/a	n/a	BED	10	18	[0, 0, 0]	n/a	FR1	1	R1145J
2194.179	1.615	2207779	WORD	n/a	wordpools/wordpool_EN.txt	FLOOR	11	18	[0, 0, 0]	n/a	FR1	1	R1145J
2195.794	0.8	2209394	WORD_OFF	n/a	n/a	FLOOR	11	18	[0, 0, 0]	n/a	FR1	1	R1145J
2196.594	1.602	2210194	WORD	n/a	wordpools/wordpool_EN.txt	CAGE	12	18	[0, 0, 0]	n/a	FR1	1	R1145J
2198.196	0.0	2211796	WORD_OFF	n/a	n/a	CAGE	12	18	[0, 0, 0]	n/a	FR1	1	R1145J
2198.196	0.0	2211796	DISTRACT_START	n/a	n/a	n/a	-999	18	[0, 0, 0]	n/a	FR1	1	R1145J
2198.196	0.017	2211796	START	n/a	n/a	n/a	-999	18	[-999, -999, -999]	n/a	FR1	1	R1145J
2198.213	10.001	2211813	PROB	10.001	n/a	n/a	-999	18	[4, 8, 2]	14	FR1	1	R1145J
2208.214	7.067	2221814	PROB	7.067	n/a	n/a	-999	18	[1, 6, 8]	15	FR1	1	R1145J
2215.281	9.414	2228881	PROB	9.414	n/a	n/a	-999	18	[2, 9, 4]	15	FR1	1	R1145J
2224.695	0.02	2238294	STOP	n/a	n/a	n/a	-999	18	[-999, -999, -999]	n/a	FR1	1	R1145J
2224.715	0.651	2238314	DISTRACT_END	n/a	n/a	n/a	-999	18	[0, 0, 0]	n/a	FR1	1	R1145J
2225.366	0.517	2238965	RETRIEVAL_ORIENT	n/a	n/a	n/a	-999	18	[0, 0, 0]	n/a	FR1	1	R1145J
2225.883	1.482	2239482	REC_START	n/a	n/a	n/a	-999	18	[0, 0, 0]	n/a	FR1	1	R1145J
2227.365	0.529	2240964	REC_WORD	0.529	n/a	PIE	9	18	[0, 0, 0]	n/a	FR1	1	R1145J
2227.894	0.789	2241493	REC_WORD	0.789	n/a	BED	10	18	[0, 0, 0]	n/a	FR1	1	R1145J
2228.683	0.906	2242282	REC_WORD	0.906	n/a	FLOOR	11	18	[0, 0, 0]	n/a	FR1	1	R1145J
2229.589	13.348	2243188	REC_WORD	13.348	n/a	CAGE	12	18	[0, 0, 0]	n/a	FR1	1	R1145J
2242.937	12.959	2256536	REC_WORD	12.959	n/a	COUCH	1	18	[0, 0, 0]	n/a	FR1	1	R1145J
2255.896	10.891	2269495	REC_END	n/a	n/a	n/a	-999	18	[0, 0, 0]	n/a	FR1	1	R1145J
2266.787	0.5	2280386	TRIAL	n/a	n/a	n/a	-999	19	[0, 0, 0]	n/a	FR1	1	R1145J
2267.287	10.428	2280886	COUNTDOWN_START	n/a	n/a	n/a	-999	19	[0, 0, 0]	n/a	FR1	1	R1145J
2277.715	0.007	2291314	COUNTDOWN_END	n/a	n/a	n/a	-999	19	[0, 0, 0]	n/a	FR1	1	R1145J
2277.722	1.618	2291321	ORIENT	n/a	n/a	n/a	-999	19	[0, 0, 0]	n/a	FR1	1	R1145J
2279.34	2.1	2292939	ORIENT_OFF	n/a	n/a	n/a	-999	19	[0, 0, 0]	n/a	FR1	1	R1145J
2281.44	1.617	2295039	WORD	n/a	wordpools/wordpool_EN.txt	MOUSE	1	19	[0, 0, 0]	n/a	FR1	1	R1145J
2283.057	0.766	2296656	WORD_OFF	n/a	n/a	MOUSE	1	19	[0, 0, 0]	n/a	FR1	1	R1145J
2283.823	1.618	2297422	WORD	n/a	wordpools/wordpool_EN.txt	MAZE	2	19	[0, 0, 0]	n/a	FR1	1	R1145J
2285.441	0.767	2299040	WORD_OFF	n/a	n/a	MAZE	2	19	[0, 0, 0]	n/a	FR1	1	R1145J
2286.208	1.615	2299807	WORD	n/a	wordpools/wordpool_EN.txt	DOCK	3	19	[0, 0, 0]	n/a	FR1	1	R1145J
2287.823	0.8	2301421	WORD_OFF	n/a	n/a	DOCK	3	19	[0, 0, 0]	n/a	FR1	1	R1145J
2288.623	1.618	2302221	WORD	n/a	wordpools/wordpool_EN.txt	NET	4	19	[0, 0, 0]	n/a	FR1	1	R1145J
2290.241	0.934	2303839	WORD_OFF	n/a	n/a	NET	4	19	[0, 0, 0]	n/a	FR1	1	R1145J
2291.175	1.616	2304773	WORD	n/a	wordpools/wordpool_EN.txt	EEL	5	19	[0, 0, 0]	n/a	FR1	1	R1145J
2292.791	0.85	2306389	WORD_OFF	n/a	n/a	EEL	5	19	[0, 0, 0]	n/a	FR1	1	R1145J
2293.641	1.618	2307239	WORD	n/a	wordpools/wordpool_EN.txt	SWORD	6	19	[0, 0, 0]	n/a	FR1	1	R1145J
2295.259	0.966	2308857	WORD_OFF	n/a	n/a	SWORD	6	19	[0, 0, 0]	n/a	FR1	1	R1145J
2296.225	1.617	2309823	WORD	n/a	wordpools/wordpool_EN.txt	BALL	7	19	[0, 0, 0]	n/a	FR1	1	R1145J
2297.842	0.766	2311440	WORD_OFF	n/a	n/a	BALL	7	19	[0, 0, 0]	n/a	FR1	1	R1145J
2298.608	1.601	2312206	WORD	n/a	wordpools/wordpool_EN.txt	RAT	8	19	[0, 0, 0]	n/a	FR1	1	R1145J
2300.209	0.834	2313807	WORD_OFF	n/a	n/a	RAT	8	19	[0, 0, 0]	n/a	FR1	1	R1145J
2301.043	1.616	2314641	WORD	n/a	wordpools/wordpool_EN.txt	PET	9	19	[0, 0, 0]	n/a	FR1	1	R1145J
2302.659	0.851	2316257	WORD_OFF	n/a	n/a	PET	9	19	[0, 0, 0]	n/a	FR1	1	R1145J
2303.51	1.617	2317108	WORD	n/a	wordpools/wordpool_EN.txt	BAT	10	19	[0, 0, 0]	n/a	FR1	1	R1145J
2305.127	0.783	2318725	WORD_OFF	n/a	n/a	BAT	10	19	[0, 0, 0]	n/a	FR1	1	R1145J
2305.91	1.616	2319508	WORD	n/a	wordpools/wordpool_EN.txt	WALL	11	19	[0, 0, 0]	n/a	FR1	1	R1145J
2307.526	0.835	2321124	WORD_OFF	n/a	n/a	WALL	11	19	[0, 0, 0]	n/a	FR1	1	R1145J
2308.361	1.617	2321959	WORD	n/a	wordpools/wordpool_EN.txt	SHIP	12	19	[0, 0, 0]	n/a	FR1	1	R1145J
2309.978	0.0	2323576	WORD_OFF	n/a	n/a	SHIP	12	19	[0, 0, 0]	n/a	FR1	1	R1145J
2309.978	0.001	2323576	DISTRACT_START	n/a	n/a	n/a	-999	19	[0, 0, 0]	n/a	FR1	1	R1145J
2309.979	0.015	2323577	START	n/a	n/a	n/a	-999	19	[-999, -999, -999]	n/a	FR1	1	R1145J
2309.994	8.634	2323592	PROB	8.634	n/a	n/a	-999	19	[9, 8, 5]	22	FR1	1	R1145J
2318.628	10.935	2332226	PROB	10.935	n/a	n/a	-999	19	[5, 8, 6]	19	FR1	1	R1145J
2329.563	12.905	2343161	PROB	12.905	n/a	n/a	-999	19	[4, 6, 7]	17	FR1	1	R1145J
2342.468	0.014	2356066	STOP	n/a	n/a	n/a	-999	19	[-999, -999, -999]	n/a	FR1	1	R1145J
2342.482	0.617	2356080	DISTRACT_END	n/a	n/a	n/a	-999	19	[0, 0, 0]	n/a	FR1	1	R1145J
2343.099	0.516	2356697	RETRIEVAL_ORIENT	n/a	n/a	n/a	-999	19	[0, 0, 0]	n/a	FR1	1	R1145J
2343.615	3.263	2357213	REC_START	n/a	n/a	n/a	-999	19	[0, 0, 0]	n/a	FR1	1	R1145J
2346.878	2.225	2360476	REC_WORD	2.225	n/a	MOUSE	1	19	[0, 0, 0]	n/a	FR1	1	R1145J
2349.103	1.115	2362701	REC_WORD	1.115	n/a	MAZE	2	19	[0, 0, 0]	n/a	FR1	1	R1145J
2350.218	2.287	2363816	REC_WORD	2.287	n/a	EEL	5	19	[0, 0, 0]	n/a	FR1	1	R1145J
2352.505	1.083	2366102	REC_WORD	1.083	n/a	RAT	8	19	[0, 0, 0]	n/a	FR1	1	R1145J
2353.588	4.491	2367185	REC_WORD	4.491	n/a	WALL	11	19	[0, 0, 0]	n/a	FR1	1	R1145J
2358.079	15.549	2371676	REC_WORD	15.549	n/a	DECK	-999	19	[0, 0, 0]	n/a	FR1	1	R1145J
2373.628	5.242	2387225	REC_END	n/a	n/a	n/a	-999	19	[0, 0, 0]	n/a	FR1	1	R1145J
2378.87	0.5	2392467	TRIAL	n/a	n/a	n/a	-999	20	[0, 0, 0]	n/a	FR1	1	R1145J
2379.37	10.428	2392967	COUNTDOWN_START	n/a	n/a	n/a	-999	20	[0, 0, 0]	n/a	FR1	1	R1145J
2389.798	0.006	2403395	COUNTDOWN_END	n/a	n/a	n/a	-999	20	[0, 0, 0]	n/a	FR1	1	R1145J
2389.804	1.618	2403401	ORIENT	n/a	n/a	n/a	-999	20	[0, 0, 0]	n/a	FR1	1	R1145J
2391.422	2.183	2405019	ORIENT_OFF	n/a	n/a	n/a	-999	20	[0, 0, 0]	n/a	FR1	1	R1145J
2393.605	1.617	2407202	WORD	n/a	wordpools/wordpool_EN.txt	VINE	1	20	[0, 0, 0]	n/a	FR1	1	R1145J
2395.222	0.817	2408819	WORD_OFF	n/a	n/a	VINE	1	20	[0, 0, 0]	n/a	FR1	1	R1145J
2396.039	1.616	2409636	WORD	n/a	wordpools/wordpool_EN.txt	PIN	2	20	[0, 0, 0]	n/a	FR1	1	R1145J
2397.655	0.801	2411252	WORD_OFF	n/a	n/a	PIN	2	20	[0, 0, 0]	n/a	FR1	1	R1145J
2398.456	1.617	2412053	WORD	n/a	wordpools/wordpool_EN.txt	HOOK	3	20	[0, 0, 0]	n/a	FR1	1	R1145J
2400.073	0.867	2413670	WORD_OFF	n/a	n/a	HOOK	3	20	[0, 0, 0]	n/a	FR1	1	R1145J
2400.94	1.616	2414537	WORD	n/a	wordpools/wordpool_EN.txt	PALM	4	20	[0, 0, 0]	n/a	FR1	1	R1145J
2402.556	0.951	2416153	WORD_OFF	n/a	n/a	PALM	4	20	[0, 0, 0]	n/a	FR1	1	R1145J
2403.507	1.616	2417104	WORD	n/a	wordpools/wordpool_EN.txt	HILL	5	20	[0, 0, 0]	n/a	FR1	1	R1145J
2405.123	0.851	2418720	WORD_OFF	n/a	n/a	HILL	5	20	[0, 0, 0]	n/a	FR1	1	R1145J
2405.974	1.616	2419571	WORD	n/a	wordpools/wordpool_EN.txt	BRUSH	6	20	[0, 0, 0]	n/a	FR1	1	R1145J
2407.59	0.767	2421187	WORD_OFF	n/a	n/a	BRUSH	6	20	[0, 0, 0]	n/a	FR1	1	R1145J
2408.357	1.617	2421954	WORD	n/a	wordpools/wordpool_EN.txt	PEA	7	20	[0, 0, 0]	n/a	FR1	1	R1145J
2409.974	1.0	2423571	WORD_OFF	n/a	n/a	PEA	7	20	[0, 0, 0]	n/a	FR1	1	R1145J
2410.974	1.616	2424571	WORD	n/a	wordpools/wordpool_EN.txt	DITCH	8	20	[0, 0, 0]	n/a	FR1	1	R1145J
2412.59	0.918	2426187	WORD_OFF	n/a	n/a	DITCH	8	20	[0, 0, 0]	n/a	FR1	1	R1145J
2413.508	1.617	2427105	WORD	n/a	wordpools/wordpool_EN.txt	HOLE	9	20	[0, 0, 0]	n/a	FR1	1	R1145J
2415.125	0.933	2428722	WORD_OFF	n/a	n/a	HOLE	9	20	[0, 0, 0]	n/a	FR1	1	R1145J
2416.058	1.616	2429655	WORD	n/a	wordpools/wordpool_EN.txt	FOX	10	20	[0, 0, 0]	n/a	FR1	1	R1145J
2417.674	0.95	2431270	WORD_OFF	n/a	n/a	FOX	10	20	[0, 0, 0]	n/a	FR1	1	R1145J
2418.624	1.618	2432220	WORD	n/a	wordpools/wordpool_EN.txt	SUN	11	20	[0, 0, 0]	n/a	FR1	1	R1145J
2420.242	0.784	2433838	WORD_OFF	n/a	n/a	SUN	11	20	[0, 0, 0]	n/a	FR1	1	R1145J
2421.026	1.616	2434622	WORD	n/a	wordpools/wordpool_EN.txt	CALF	12	20	[0, 0, 0]	n/a	FR1	1	R1145J
2422.642	0.0	2436238	DISTRACT_START	n/a	n/a	n/a	-999	20	[0, 0, 0]	n/a	FR1	1	R1145J
2422.642	0.0	2436238	WORD_OFF	n/a	n/a	CALF	12	20	[0, 0, 0]	n/a	FR1	1	R1145J
2422.642	0.016	2436238	START	n/a	n/a	n/a	-999	20	[-999, -999, -999]	n/a	FR1	1	R1145J
2422.658	21.552	2436254	PROB	21.552	n/a	n/a	-999	20	[7, 1, 9]	17	FR1	1	R1145J
2444.21	0.019	2457806	STOP	n/a	n/a	n/a	-999	20	[-999, -999, -999]	n/a	FR1	1	R1145J
2444.229	0.516	2457825	DISTRACT_END	n/a	n/a	n/a	-999	20	[0, 0, 0]	n/a	FR1	1	R1145J
2444.745	0.519	2458341	RETRIEVAL_ORIENT	n/a	n/a	n/a	-999	20	[0, 0, 0]	n/a	FR1	1	R1145J
2445.264	5.614	2458860	REC_START	n/a	n/a	n/a	-999	20	[0, 0, 0]	n/a	FR1	1	R1145J
2450.878	0.897	2464474	REC_WORD	0.897	n/a	MOUSE	-999	20	[0, 0, 0]	n/a	FR1	1	R1145J
2451.775	5.685	2465371	REC_WORD	5.685	n/a	PIN	2	20	[0, 0, 0]	n/a	FR1	1	R1145J
2457.46	17.814	2471056	REC_WORD	17.814	n/a	BEAM	-999	20	[0, 0, 0]	n/a	FR1	1	R1145J
2475.274	4.61	2488870	REC_END	n/a	n/a	n/a	-999	20	[0, 0, 0]	n/a	FR1	1	R1145J
2479.884	0.5	2493480	TRIAL	n/a	n/a	n/a	-999	21	[0, 0, 0]	n/a	FR1	1	R1145J
2480.384	10.428	2493980	COUNTDOWN_START	n/a	n/a	n/a	-999	21	[0, 0, 0]	n/a	FR1	1	R1145J
2490.812	0.006	2504407	COUNTDOWN_END	n/a	n/a	n/a	-999	21	[0, 0, 0]	n/a	FR1	1	R1145J
2490.818	1.618	2504413	ORIENT	n/a	n/a	n/a	-999	21	[0, 0, 0]	n/a	FR1	1	R1145J
2492.436	2.132	2506031	ORIENT_OFF	n/a	n/a	n/a	-999	21	[0, 0, 0]	n/a	FR1	1	R1145J
2494.568	1.618	2508163	WORD	n/a	wordpools/wordpool_EN.txt	SEAL	1	21	[0, 0, 0]	n/a	FR1	1	R1145J
2496.186	0.884	2509781	WORD_OFF	n/a	n/a	SEAL	1	21	[0, 0, 0]	n/a	FR1	1	R1145J
2497.07	1.615	2510665	WORD	n/a	wordpools/wordpool_EN.txt	DRESS	2	21	[0, 0, 0]	n/a	FR1	1	R1145J
2498.685	0.884	2512280	WORD_OFF	n/a	n/a	DRESS	2	21	[0, 0, 0]	n/a	FR1	1	R1145J
2499.569	1.601	2513164	WORD	n/a	wordpools/wordpool_EN.txt	SIGN	3	21	[0, 0, 0]	n/a	FR1	1	R1145J
2501.17	0.767	2514765	WORD_OFF	n/a	n/a	SIGN	3	21	[0, 0, 0]	n/a	FR1	1	R1145J
2501.937	1.616	2515532	WORD	n/a	wordpools/wordpool_EN.txt	PANTS	4	21	[0, 0, 0]	n/a	FR1	1	R1145J
2503.553	0.801	2517148	WORD_OFF	n/a	n/a	PANTS	4	21	[0, 0, 0]	n/a	FR1	1	R1145J
2504.354	1.617	2517949	WORD	n/a	wordpools/wordpool_EN.txt	BEACH	5	21	[0, 0, 0]	n/a	FR1	1	R1145J
2505.971	0.983	2519566	WORD_OFF	n/a	n/a	BEACH	5	21	[0, 0, 0]	n/a	FR1	1	R1145J
2506.954	1.616	2520549	WORD	n/a	wordpools/wordpool_EN.txt	ROCK	6	21	[0, 0, 0]	n/a	FR1	1	R1145J
2508.57	0.818	2522165	WORD_OFF	n/a	n/a	ROCK	6	21	[0, 0, 0]	n/a	FR1	1	R1145J
2509.388	1.617	2522983	WORD	n/a	wordpools/wordpool_EN.txt	WAVE	7	21	[0, 0, 0]	n/a	FR1	1	R1145J
2511.005	1.017	2524600	WORD_OFF	n/a	n/a	WAVE	7	21	[0, 0, 0]	n/a	FR1	1	R1145J
2512.022	1.616	2525617	WORD	n/a	wordpools/wordpool_EN.txt	FORK	8	21	[0, 0, 0]	n/a	FR1	1	R1145J
2513.638	0.983	2527233	WORD_OFF	n/a	n/a	FORK	8	21	[0, 0, 0]	n/a	FR1	1	R1145J
2514.621	1.618	2528216	WORD	n/a	wordpools/wordpool_EN.txt	SNAIL	9	21	[0, 0, 0]	n/a	FR1	1	R1145J
2516.239	0.966	2529834	WORD_OFF	n/a	n/a	SNAIL	9	21	[0, 0, 0]	n/a	FR1	1	R1145J
2517.205	1.616	2530800	WORD	n/a	wordpools/wordpool_EN.txt	CLOCK	10	21	[0, 0, 0]	n/a	FR1	1	R1145J
2518.821	0.834	2532416	WORD_OFF	n/a	n/a	CLOCK	10	21	[0, 0, 0]	n/a	FR1	1	R1145J
2519.655	1.618	2533250	WORD	n/a	wordpools/wordpool_EN.txt	GLASS	11	21	[0, 0, 0]	n/a	FR1	1	R1145J
2521.273	0.95	2534868	WORD_OFF	n/a	n/a	GLASS	11	21	[0, 0, 0]	n/a	FR1	1	R1145J
2522.223	1.617	2535818	WORD	n/a	wordpools/wordpool_EN.txt	SHARK	12	21	[0, 0, 0]	n/a	FR1	1	R1145J
2523.84	0.0	2537435	WORD_OFF	n/a	n/a	SHARK	12	21	[0, 0, 0]	n/a	FR1	1	R1145J
2523.84	0.001	2537435	DISTRACT_START	n/a	n/a	n/a	-999	21	[0, 0, 0]	n/a	FR1	1	R1145J
2523.841	0.016	2537436	START	n/a	n/a	n/a	-999	21	[-999, -999, -999]	n/a	FR1	1	R1145J
2523.857	19.369	2537452	PROB	19.369	n/a	n/a	-999	21	[8, 6, 5]	19	FR1	1	R1145J
2543.226	16.482	2556821	PROB	16.482	n/a	n/a	-999	21	[6, 6, 9]	21	FR1	1	R1145J
2559.708	0.019	2573302	STOP	n/a	n/a	n/a	-999	21	[-999, -999, -999]	n/a	FR1	1	R1145J
2559.727	0.551	2573321	DISTRACT_END	n/a	n/a	n/a	-999	21	[0, 0, 0]	n/a	FR1	1	R1145J
2560.278	0.517	2573872	RETRIEVAL_ORIENT	n/a	n/a	n/a	-999	21	[0, 0, 0]	n/a	FR1	1	R1145J
2560.795	7.614	2574389	REC_START	n/a	n/a	n/a	-999	21	[0, 0, 0]	n/a	FR1	1	R1145J
2568.409	1.839	2582003	REC_WORD	1.839	n/a	SEAL	1	21	[0, 0, 0]	n/a	FR1	1	R1145J
2570.248	1.766	2583842	REC_WORD	1.766	n/a	SAIL	-999	21	[0, 0, 0]	n/a	FR1	1	R1145J
2572.014	2.746	2585608	REC_WORD	2.746	n/a	SNAIL	9	21	[0, 0, 0]	n/a	FR1	1	R1145J
2574.76	16.046	2588354	REC_WORD	16.046	n/a	DRESS	2	21	[0, 0, 0]	n/a	FR1	1	R1145J
2590.806	4.36	2604400	REC_END	n/a	n/a	n/a	-999	21	[0, 0, 0]	n/a	FR1	1	R1145J
2595.166	0.5	2608760	TRIAL	n/a	n/a	n/a	-999	22	[0, 0, 0]	n/a	FR1	1	R1145J
2595.666	10.428	2609260	COUNTDOWN_START	n/a	n/a	n/a	-999	22	[0, 0, 0]	n/a	FR1	1	R1145J
2606.094	0.007	2619688	COUNTDOWN_END	n/a	n/a	n/a	-999	22	[0, 0, 0]	n/a	FR1	1	R1145J
2606.101	1.616	2619695	ORIENT	n/a	n/a	n/a	-999	22	[0, 0, 0]	n/a	FR1	1	R1145J
2607.717	2.1	2621311	ORIENT_OFF	n/a	n/a	n/a	-999	22	[0, 0, 0]	n/a	FR1	1	R1145J
2609.817	1.618	2623411	WORD	n/a	wordpools/wordpool_EN.txt	MUG	1	22	[0, 0, 0]	n/a	FR1	1	R1145J
2611.435	0.834	2625029	WORD_OFF	n/a	n/a	MUG	1	22	[0, 0, 0]	n/a	FR1	1	R1145J
2612.269	1.616	2625863	WORD	n/a	wordpools/wordpool_EN.txt	HOUSE	2	22	[0, 0, 0]	n/a	FR1	1	R1145J
2613.885	0.766	2627478	WORD_OFF	n/a	n/a	HOUSE	2	22	[0, 0, 0]	n/a	FR1	1	R1145J
2614.651	1.618	2628244	WORD	n/a	wordpools/wordpool_EN.txt	STRING	3	22	[0, 0, 0]	n/a	FR1	1	R1145J
2616.269	0.95	2629862	WORD_OFF	n/a	n/a	STRING	3	22	[0, 0, 0]	n/a	FR1	1	R1145J
2617.219	1.617	2630812	WORD	n/a	wordpools/wordpool_EN.txt	DRUM	4	22	[0, 0, 0]	n/a	FR1	1	R1145J
2618.836	0.816	2632429	WORD_OFF	n/a	n/a	DRUM	4	22	[0, 0, 0]	n/a	FR1	1	R1145J
2619.652	1.618	2633245	WORD	n/a	wordpools/wordpool_EN.txt	HAWK	5	22	[0, 0, 0]	n/a	FR1	1	R1145J
2621.27	0.85	2634863	WORD_OFF	n/a	n/a	HAWK	5	22	[0, 0, 0]	n/a	FR1	1	R1145J
2622.12	1.616	2635713	WORD	n/a	wordpools/wordpool_EN.txt	EAR	6	22	[0, 0, 0]	n/a	FR1	1	R1145J
2623.736	0.983	2637329	WORD_OFF	n/a	n/a	EAR	6	22	[0, 0, 0]	n/a	FR1	1	R1145J
2624.719	1.618	2638312	WORD	n/a	wordpools/wordpool_EN.txt	SMILE	7	22	[0, 0, 0]	n/a	FR1	1	R1145J
2626.337	0.817	2639930	WORD_OFF	n/a	n/a	SMILE	7	22	[0, 0, 0]	n/a	FR1	1	R1145J
2627.154	1.616	2640747	WORD	n/a	wordpools/wordpool_EN.txt	WAND	8	22	[0, 0, 0]	n/a	FR1	1	R1145J
2628.77	0.983	2642363	WORD_OFF	n/a	n/a	WAND	8	22	[0, 0, 0]	n/a	FR1	1	R1145J
2629.753	1.618	2643346	WORD	n/a	wordpools/wordpool_EN.txt	PIG	9	22	[0, 0, 0]	n/a	FR1	1	R1145J
2631.371	0.917	2644964	WORD_OFF	n/a	n/a	PIG	9	22	[0, 0, 0]	n/a	FR1	1	R1145J
2632.288	1.617	2645881	WORD	n/a	wordpools/wordpool_EN.txt	TOAD	10	22	[0, 0, 0]	n/a	FR1	1	R1145J
2633.905	0.782	2647498	WORD_OFF	n/a	n/a	TOAD	10	22	[0, 0, 0]	n/a	FR1	1	R1145J
2634.687	1.618	2648280	WORD	n/a	wordpools/wordpool_EN.txt	BUSH	11	22	[0, 0, 0]	n/a	FR1	1	R1145J
2636.305	0.783	2649898	WORD_OFF	n/a	n/a	BUSH	11	22	[0, 0, 0]	n/a	FR1	1	R1145J
2637.088	1.616	2650681	WORD	n/a	wordpools/wordpool_EN.txt	MOLE	12	22	[0, 0, 0]	n/a	FR1	1	R1145J
2638.704	0.0	2652297	WORD_OFF	n/a	n/a	MOLE	12	22	[0, 0, 0]	n/a	FR1	1	R1145J
2638.704	0.001	2652297	DISTRACT_START	n/a	n/a	n/a	-999	22	[0, 0, 0]	n/a	FR1	1	R1145J
2638.705	0.016	2652298	START	n/a	n/a	n/a	-999	22	[-999, -999, -999]	n/a	FR1	1	R1145J
2638.721	33.144	2652314	PROB	33.144	n/a	n/a	-999	22	[3, 7, 1]	11	FR1	1	R1145J
2671.865	0.012	2685458	STOP	n/a	n/a	n/a	-999	22	[-999, -999, -999]	n/a	FR1	1	R1145J
2671.877	0.583	2685470	DISTRACT_END	n/a	n/a	n/a	-999	22	[0, 0, 0]	n/a	FR1	1	R1145J
2672.46	0.518	2686053	RETRIEVAL_ORIENT	n/a	n/a	n/a	-999	22	[0, 0, 0]	n/a	FR1	1	R1145J
2672.978	1.628	2686571	REC_START	n/a	n/a	n/a	-999	22	[0, 0, 0]	n/a	FR1	1	R1145J
2674.606	0.838	2688199	REC_WORD	0.838	n/a	MOUSE	-999	22	[0, 0, 0]	n/a	FR1	1	R1145J
2675.444	0.189	2689037	REC_WORD_VV	0.189	n/a	<>	-999	22	[0, 0, 0]	n/a	FR1	1	R1145J
2675.633	0.923	2689226	REC_WORD	0.923	n/a	STRING	3	22	[0, 0, 0]	n/a	FR1	1	R1145J
2676.556	1.743	2690149	REC_WORD	1.743	n/a	WAND	8	22	[0, 0, 0]	n/a	FR1	1	R1145J
2678.299	1.14	2691892	REC_WORD	1.14	n/a	TOAD	10	22	[0, 0, 0]	n/a	FR1	1	R1145J
2679.439	13.144	2693031	REC_WORD	13.144	n/a	MOLE	12	22	[0, 0, 0]	n/a	FR1	1	R1145J
2692.583	10.404	2706175	REC_WORD_VV	10.404	n/a	<>	-999	22	[0, 0, 0]	n/a	FR1	1	R1145J
2702.987	5.71	2716579	REC_END	n/a	n/a	n/a	-999	22	[0, 0, 0]	n/a	FR1	1	R1145J
2708.697	0.5	2722289	TRIAL	n/a	n/a	n/a	-999	23	[0, 0, 0]	n/a	FR1	1	R1145J
2709.197	10.428	2722789	COUNTDOWN_START	n/a	n/a	n/a	-999	23	[0, 0, 0]	n/a	FR1	1	R1145J
2719.625	0.007	2733217	COUNTDOWN_END	n/a	n/a	n/a	-999	23	[0, 0, 0]	n/a	FR1	1	R1145J
2719.632	1.618	2733224	ORIENT	n/a	n/a	n/a	-999	23	[0, 0, 0]	n/a	FR1	1	R1145J
2721.25	2.183	2734842	ORIENT_OFF	n/a	n/a	n/a	-999	23	[0, 0, 0]	n/a	FR1	1	R1145J
2723.433	1.617	2737025	WORD	n/a	wordpools/wordpool_EN.txt	SALT	1	23	[0, 0, 0]	n/a	FR1	1	R1145J
2725.05	0.933	2738642	WORD_OFF	n/a	n/a	SALT	1	23	[0, 0, 0]	n/a	FR1	1	R1145J
2725.983	1.617	2739575	WORD	n/a	wordpools/wordpool_EN.txt	STONE	2	23	[0, 0, 0]	n/a	FR1	1	R1145J
2727.6	0.901	2741192	WORD_OFF	n/a	n/a	STONE	2	23	[0, 0, 0]	n/a	FR1	1	R1145J
2728.501	1.617	2742093	WORD	n/a	wordpools/wordpool_EN.txt	ICE	3	23	[0, 0, 0]	n/a	FR1	1	R1145J
2730.118	0.9	2743710	WORD_OFF	n/a	n/a	ICE	3	23	[0, 0, 0]	n/a	FR1	1	R1145J
2731.018	1.616	2744610	WORD	n/a	wordpools/wordpool_EN.txt	SPARK	4	23	[0, 0, 0]	n/a	FR1	1	R1145J
2732.634	0.868	2746226	WORD_OFF	n/a	n/a	SPARK	4	23	[0, 0, 0]	n/a	FR1	1	R1145J
2733.502	1.616	2747094	WORD	n/a	wordpools/wordpool_EN.txt	FORT	5	23	[0, 0, 0]	n/a	FR1	1	R1145J
2735.118	0.95	2748710	WORD_OFF	n/a	n/a	FORT	5	23	[0, 0, 0]	n/a	FR1	1	R1145J
2736.068	1.616	2749660	WORD	n/a	wordpools/wordpool_EN.txt	FROG	6	23	[0, 0, 0]	n/a	FR1	1	R1145J
2737.684	0.785	2751276	WORD_OFF	n/a	n/a	FROG	6	23	[0, 0, 0]	n/a	FR1	1	R1145J
2738.469	1.617	2752061	WORD	n/a	wordpools/wordpool_EN.txt	BRICK	7	23	[0, 0, 0]	n/a	FR1	1	R1145J
2740.086	0.9	2753678	WORD_OFF	n/a	n/a	BRICK	7	23	[0, 0, 0]	n/a	FR1	1	R1145J
2740.986	1.616	2754578	WORD	n/a	wordpools/wordpool_EN.txt	DIME	8	23	[0, 0, 0]	n/a	FR1	1	R1145J
2742.602	0.983	2756194	WORD_OFF	n/a	n/a	DIME	8	23	[0, 0, 0]	n/a	FR1	1	R1145J
2743.585	1.618	2757177	WORD	n/a	wordpools/wordpool_EN.txt	STEAM	9	23	[0, 0, 0]	n/a	FR1	1	R1145J
2745.203	0.95	2758794	WORD_OFF	n/a	n/a	STEAM	9	23	[0, 0, 0]	n/a	FR1	1	R1145J
2746.153	1.616	2759744	WORD	n/a	wordpools/wordpool_EN.txt	CONE	10	23	[0, 0, 0]	n/a	FR1	1	R1145J
2747.769	1.0	2761360	WORD_OFF	n/a	n/a	CONE	10	23	[0, 0, 0]	n/a	FR1	1	R1145J
2748.769	1.618	2762360	WORD	n/a	wordpools/wordpool_EN.txt	SHELL	11	23	[0, 0, 0]	n/a	FR1	1	R1145J
2750.387	0.817	2763978	WORD_OFF	n/a	n/a	SHELL	11	23	[0, 0, 0]	n/a	FR1	1	R1145J
2751.204	1.616	2764795	WORD	n/a	wordpools/wordpool_EN.txt	CHIEF	12	23	[0, 0, 0]	n/a	FR1	1	R1145J
2752.82	0.0	2766411	WORD_OFF	n/a	n/a	CHIEF	12	23	[0, 0, 0]	n/a	FR1	1	R1145J
2752.82	0.001	2766411	DISTRACT_START	n/a	n/a	n/a	-999	23	[0, 0, 0]	n/a	FR1	1	R1145J
2752.821	0.016	2766412	START	n/a	n/a	n/a	-999	23	[-999, -999, -999]	n/a	FR1	1	R1145J
2752.837	20.545	2766428	PROB	20.545	n/a	n/a	-999	23	[6, 2, 3]	11	FR1	1	R1145J
2773.382	0.008	2786973	STOP	n/a	n/a	n/a	-999	23	[-999, -999, -999]	n/a	FR1	1	R1145J
2773.39	0.55	2786981	DISTRACT_END	n/a	n/a	n/a	-999	23	[0, 0, 0]	n/a	FR1	1	R1145J
2773.94	0.518	2787531	RETRIEVAL_ORIENT	n/a	n/a	n/a	-999	23	[0, 0, 0]	n/a	FR1	1	R1145J
2774.458	3.097	2788049	REC_START	n/a	n/a	n/a	-999	23	[0, 0, 0]	n/a	FR1	1	R1145J
2777.555	1.554	2791146	REC_WORD	1.554	n/a	STONE	2	23	[0, 0, 0]	n/a	FR1	1	R1145J
2779.109	1.529	2792700	REC_WORD	1.529	n/a	ICE	3	23	[0, 0, 0]	n/a	FR1	1	R1145J
2780.638	4.061	2794229	REC_WORD	4.061	n/a	BRICK	7	23	[0, 0, 0]	n/a	FR1	1	R1145J
2784.699	6.404	2798290	REC_WORD	6.404	n/a	STEAM	9	23	[0, 0, 0]	n/a	FR1	1	R1145J
2791.103	5.799	2804694	REC_WORD_VV	5.799	n/a	<>	-999	23	[0, 0, 0]	n/a	FR1	1	R1145J
2796.902	1.0	2810493	REC_WORD_VV	1.0	n/a	<>	-999	23	[0, 0, 0]	n/a	FR1	1	R1145J
2797.902	6.567	2811493	REC_WORD_VV	6.567	n/a	<>	-999	23	[0, 0, 0]	n/a	FR1	1	R1145J
2804.469	6.96	2818060	REC_END	n/a	n/a	n/a	-999	23	[0, 0, 0]	n/a	FR1	1	R1145J
2811.429	0.5	2825019	TRIAL	n/a	n/a	n/a	-999	24	[0, 0, 0]	n/a	FR1	1	R1145J
2811.929	10.428	2825519	COUNTDOWN_START	n/a	n/a	n/a	-999	24	[0, 0, 0]	n/a	FR1	1	R1145J
2822.357	0.006	2835947	COUNTDOWN_END	n/a	n/a	n/a	-999	24	[0, 0, 0]	n/a	FR1	1	R1145J
2822.363	1.617	2835953	ORIENT	n/a	n/a	n/a	-999	24	[0, 0, 0]	n/a	FR1	1	R1145J
2823.98	2.05	2837570	ORIENT_OFF	n/a	n/a	n/a	-999	24	[0, 0, 0]	n/a	FR1	1	R1145J
2826.03	1.616	2839620	WORD	n/a	wordpools/wordpool_EN.txt	JET	1	24	[0, 0, 0]	n/a	FR1	1	R1145J
2827.646	0.9	2841236	WORD_OFF	n/a	n/a	JET	1	24	[0, 0, 0]	n/a	FR1	1	R1145J
2828.546	1.618	2842136	WORD	n/a	wordpools/wordpool_EN.txt	FILM	2	24	[0, 0, 0]	n/a	FR1	1	R1145J
2830.164	0.917	2843754	WORD_OFF	n/a	n/a	FILM	2	24	[0, 0, 0]	n/a	FR1	1	R1145J
2831.081	1.616	2844671	WORD	n/a	wordpools/wordpool_EN.txt	BRIDGE	3	24	[0, 0, 0]	n/a	FR1	1	R1145J
2832.697	0.867	2846287	WORD_OFF	n/a	n/a	BRIDGE	3	24	[0, 0, 0]	n/a	FR1	1	R1145J
2833.564	1.617	2847154	WORD	n/a	wordpools/wordpool_EN.txt	PRINCE	4	24	[0, 0, 0]	n/a	FR1	1	R1145J
2835.181	0.901	2848771	WORD_OFF	n/a	n/a	PRINCE	4	24	[0, 0, 0]	n/a	FR1	1	R1145J
2836.082	1.615	2849672	WORD	n/a	wordpools/wordpool_EN.txt	MAP	5	24	[0, 0, 0]	n/a	FR1	1	R1145J
2837.697	0.951	2851287	WORD_OFF	n/a	n/a	MAP	5	24	[0, 0, 0]	n/a	FR1	1	R1145J
2838.648	1.618	2852238	WORD	n/a	wordpools/wordpool_EN.txt	HEART	6	24	[0, 0, 0]	n/a	FR1	1	R1145J
2840.266	0.866	2853856	WORD_OFF	n/a	n/a	HEART	6	24	[0, 0, 0]	n/a	FR1	1	R1145J
2841.132	1.616	2854722	WORD	n/a	wordpools/wordpool_EN.txt	PLANE	7	24	[0, 0, 0]	n/a	FR1	1	R1145J
2842.748	0.917	2856338	WORD_OFF	n/a	n/a	PLANE	7	24	[0, 0, 0]	n/a	FR1	1	R1145J
2843.665	1.618	2857255	WORD	n/a	wordpools/wordpool_EN.txt	SMOKE	8	24	[0, 0, 0]	n/a	FR1	1	R1145J
2845.283	0.967	2858873	WORD_OFF	n/a	n/a	SMOKE	8	24	[0, 0, 0]	n/a	FR1	1	R1145J
2846.25	1.617	2859840	WORD	n/a	wordpools/wordpool_EN.txt	CASH	9	24	[0, 0, 0]	n/a	FR1	1	R1145J
2847.867	0.983	2861457	WORD_OFF	n/a	n/a	CASH	9	24	[0, 0, 0]	n/a	FR1	1	R1145J
2848.85	1.617	2862440	WORD	n/a	wordpools/wordpool_EN.txt	BEAR	10	24	[0, 0, 0]	n/a	FR1	1	R1145J
2850.467	1.001	2864057	WORD_OFF	n/a	n/a	BEAR	10	24	[0, 0, 0]	n/a	FR1	1	R1145J
2851.468	1.616	2865058	WORD	n/a	wordpools/wordpool_EN.txt	BLUSH	11	24	[0, 0, 0]	n/a	FR1	1	R1145J
2853.084	0.767	2866674	WORD_OFF	n/a	n/a	BLUSH	11	24	[0, 0, 0]	n/a	FR1	1	R1145J
2853.851	1.617	2867441	WORD	n/a	wordpools/wordpool_EN.txt	SCHOOL	12	24	[0, 0, 0]	n/a	FR1	1	R1145J
2855.468	0.0	2869058	WORD_OFF	n/a	n/a	SCHOOL	12	24	[0, 0, 0]	n/a	FR1	1	R1145J
2855.468	0.001	2869058	DISTRACT_START	n/a	n/a	n/a	-999	24	[0, 0, 0]	n/a	FR1	1	R1145J
2855.469	0.015	2869059	START	n/a	n/a	n/a	-999	24	[-999, -999, -999]	n/a	FR1	1	R1145J
2855.484	6.184	2869074	PROB	6.184	n/a	n/a	-999	24	[2, 3, 7]	12	FR1	1	R1145J
2861.668	7.185	2875258	PROB	7.185	n/a	n/a	-999	24	[4, 3, 9]	16	FR1	1	R1145J
2868.853	6.117	2882443	PROB	6.117	n/a	n/a	-999	24	[3, 7, 7]	17	FR1	1	R1145J
2874.97	6.935	2888559	PROB	6.935	n/a	n/a	-999	24	[2, 6, 7]	15	FR1	1	R1145J
2881.905	0.016	2895494	STOP	n/a	n/a	n/a	-999	24	[-999, -999, -999]	n/a	FR1	1	R1145J
2881.921	0.616	2895510	DISTRACT_END	n/a	n/a	n/a	-999	24	[0, 0, 0]	n/a	FR1	1	R1145J
2882.537	0.519	2896126	RETRIEVAL_ORIENT	n/a	n/a	n/a	-999	24	[0, 0, 0]	n/a	FR1	1	R1145J
2883.056	1.117	2896645	REC_START	n/a	n/a	n/a	-999	24	[0, 0, 0]	n/a	FR1	1	R1145J
2884.173	0.553	2897762	REC_WORD	0.553	n/a	PRINCE	4	24	[0, 0, 0]	n/a	FR1	1	R1145J
2884.726	0.655	2898315	REC_WORD	0.655	n/a	HEART	6	24	[0, 0, 0]	n/a	FR1	1	R1145J
2885.381	0.49	2898970	REC_WORD	0.49	n/a	CLEAN	-999	24	[0, 0, 0]	n/a	FR1	1	R1145J
2885.871	1.253	2899460	REC_WORD	1.253	n/a	SMOKE	8	24	[0, 0, 0]	n/a	FR1	1	R1145J
2887.124	1.192	2900713	REC_WORD	1.192	n/a	CASH	9	24	[0, 0, 0]	n/a	FR1	1	R1145J
2888.316	16.106	2901905	REC_WORD	16.106	n/a	SCHOOL	12	24	[0, 0, 0]	n/a	FR1	1	R1145J
2904.422	1.0	2918011	REC_WORD_VV	1.0	n/a	<>	-999	24	[0, 0, 0]	n/a	FR1	1	R1145J
2905.422	1.0	2919011	REC_WORD_VV	1.0	n/a	<>	-999	24	[0, 0, 0]	n/a	FR1	1	R1145J
2906.422	6.645	2920011	REC_WORD_VV	6.645	n/a	<>	-999	24	[0, 0, 0]	n/a	FR1	1	R1145J
2913.067	15.676	2926656	REC_END	n/a	n/a	n/a	-999	24	[0, 0, 0]	n/a	FR1	1	R1145J
2928.743	0.5	2942332	TRIAL	n/a	n/a	n/a	-999	25	[0, 0, 0]	n/a	FR1	1	R1145J
2929.243	10.428	2942832	COUNTDOWN_START	n/a	n/a	n/a	-999	25	[0, 0, 0]	n/a	FR1	1	R1145J
2939.671	0.007	2953260	COUNTDOWN_END	n/a	n/a	n/a	-999	25	[0, 0, 0]	n/a	FR1	1	R1145J
2939.678	1.618	2953267	ORIENT	n/a	n/a	n/a	-999	25	[0, 0, 0]	n/a	FR1	1	R1145J
2941.296	2.134	2954884	ORIENT_OFF	n/a	n/a	n/a	-999	25	[0, 0, 0]	n/a	FR1	1	R1145J
2943.43	1.616	2957018	WORD	n/a	wordpools/wordpool_EN.txt	FOOT	1	25	[0, 0, 0]	n/a	FR1	1	R1145J
2945.046	0.934	2958634	WORD_OFF	n/a	n/a	FOOT	1	25	[0, 0, 0]	n/a	FR1	1	R1145J
2945.98	1.616	2959568	WORD	n/a	wordpools/wordpool_EN.txt	FARM	2	25	[0, 0, 0]	n/a	FR1	1	R1145J
2947.596	0.95	2961184	WORD_OFF	n/a	n/a	FARM	2	25	[0, 0, 0]	n/a	FR1	1	R1145J
2948.546	1.618	2962134	WORD	n/a	wordpools/wordpool_EN.txt	TRUCK	3	25	[0, 0, 0]	n/a	FR1	1	R1145J
2950.164	0.883	2963752	WORD_OFF	n/a	n/a	TRUCK	3	25	[0, 0, 0]	n/a	FR1	1	R1145J
2951.047	1.616	2964635	WORD	n/a	wordpools/wordpool_EN.txt	MOOSE	4	25	[0, 0, 0]	n/a	FR1	1	R1145J
2952.663	0.884	2966251	WORD_OFF	n/a	n/a	MOOSE	4	25	[0, 0, 0]	n/a	FR1	1	R1145J
2953.547	1.617	2967135	WORD	n/a	wordpools/wordpool_EN.txt	TENT	5	25	[0, 0, 0]	n/a	FR1	1	R1145J
2955.164	0.8	2968752	WORD_OFF	n/a	n/a	TENT	5	25	[0, 0, 0]	n/a	FR1	1	R1145J
2955.964	1.616	2969552	WORD	n/a	wordpools/wordpool_EN.txt	SHEEP	6	25	[0, 0, 0]	n/a	FR1	1	R1145J
2957.58	0.918	2971168	WORD_OFF	n/a	n/a	SHEEP	6	25	[0, 0, 0]	n/a	FR1	1	R1145J
2958.498	1.617	2972086	WORD	n/a	wordpools/wordpool_EN.txt	TRAIN	7	25	[0, 0, 0]	n/a	FR1	1	R1145J
2960.115	0.834	2973703	WORD_OFF	n/a	n/a	TRAIN	7	25	[0, 0, 0]	n/a	FR1	1	R1145J
2960.949	1.616	2974537	WORD	n/a	wordpools/wordpool_EN.txt	SPRING	8	25	[0, 0, 0]	n/a	FR1	1	R1145J
2962.565	0.934	2976153	WORD_OFF	n/a	n/a	SPRING	8	25	[0, 0, 0]	n/a	FR1	1	R1145J
2963.499	1.617	2977087	WORD	n/a	wordpools/wordpool_EN.txt	PLANT	9	25	[0, 0, 0]	n/a	FR1	1	R1145J
2965.116	0.933	2978704	WORD_OFF	n/a	n/a	PLANT	9	25	[0, 0, 0]	n/a	FR1	1	R1145J
2966.049	1.616	2979637	WORD	n/a	wordpools/wordpool_EN.txt	GUARD	10	25	[0, 0, 0]	n/a	FR1	1	R1145J
2967.665	0.967	2981253	WORD_OFF	n/a	n/a	GUARD	10	25	[0, 0, 0]	n/a	FR1	1	R1145J
2968.632	1.618	2982220	WORD	n/a	wordpools/wordpool_EN.txt	FACE	11	25	[0, 0, 0]	n/a	FR1	1	R1145J
2970.25	0.95	2983838	WORD_OFF	n/a	n/a	FACE	11	25	[0, 0, 0]	n/a	FR1	1	R1145J
2971.2	1.616	2984788	WORD	n/a	wordpools/wordpool_EN.txt	SPEAR	12	25	[0, 0, 0]	n/a	FR1	1	R1145J
2972.816	0.0	2986404	WORD_OFF	n/a	n/a	SPEAR	12	25	[0, 0, 0]	n/a	FR1	1	R1145J
2972.816	0.001	2986404	DISTRACT_START	n/a	n/a	n/a	-999	25	[0, 0, 0]	n/a	FR1	1	R1145J
2972.817	0.017	2986405	START	n/a	n/a	n/a	-999	25	[-999, -999, -999]	n/a	FR1	1	R1145J
2972.834	7.684	2986422	PROB	7.684	n/a	n/a	-999	25	[5, 3, 7]	15	FR1	1	R1145J
2980.518	4.667	2994106	PROB	4.667	n/a	n/a	-999	25	[1, 5, 4]	10	FR1	1	R1145J
2985.185	4.5	2998773	PROB	4.5	n/a	n/a	-999	25	[8, 6, 7]	21	FR1	1	R1145J
2989.685	6.401	3003273	PROB	6.401	n/a	n/a	-999	25	[5, 8, 4]	17	FR1	1	R1145J
2996.086	0.017	3009674	STOP	n/a	n/a	n/a	-999	25	[-999, -999, -999]	n/a	FR1	1	R1145J
2996.103	0.616	3009691	DISTRACT_END	n/a	n/a	n/a	-999	25	[0, 0, 0]	n/a	FR1	1	R1145J
2996.719	0.518	3010307	RETRIEVAL_ORIENT	n/a	n/a	n/a	-999	25	[0, 0, 0]	n/a	FR1	1	R1145J
2997.237	2.039	3010825	REC_START	n/a	n/a	n/a	-999	25	[0, 0, 0]	n/a	FR1	1	R1145J
2999.276	1.503	3012864	REC_WORD	1.503	n/a	FOOT	1	25	[0, 0, 0]	n/a	FR1	1	R1145J
3000.779	1.109	3014367	REC_WORD	1.109	n/a	FARM	2	25	[0, 0, 0]	n/a	FR1	1	R1145J
3001.888	0.89	3015476	REC_WORD	0.89	n/a	TRUCK	3	25	[0, 0, 0]	n/a	FR1	1	R1145J
3002.778	1.161	3016366	REC_WORD	1.161	n/a	FOCUS	-999	25	[0, 0, 0]	n/a	FR1	1	R1145J
3003.939	23.312	3017527	REC_WORD_VV	23.312	n/a	<>	-999	25	[0, 0, 0]	n/a	FR1	1	R1145J
3027.251	31.927	3040838	REC_END	n/a	n/a	n/a	-999	25	[0, 0, 0]	n/a	FR1	1	R1145J
3059.178	0.0	3072765	SESS_END	n/a	n/a	n/a	-999	25	[0, 0, 0]	n/a	FR1	1	R1145J
