onset	duration	sample	trial_type	response_time	stim_file	item_name	serialpos	list	test	answer	experiment	session	subject
0.0	0.0	34338	INSTRUCT_START	n/a	n/a	n/a	-999	-999	[0, 0, 0]	n/a	FR1	1	R1217T
0.0	11.024	34338	INSTRUCT_END	n/a	n/a	n/a	-999	-999	[0, 0, 0]	n/a	FR1	1	R1217T
11.024	0.0	45361	SESS_START	n/a	n/a	n/a	-999	-999	[0, 0, 0]	n/a	FR1	1	R1217T
11.024	14.001	45361	MIC_TEST	n/a	n/a	n/a	-999	-999	[0, 0, 0]	n/a	FR1	1	R1217T
25.025	8.982	59361	PRACTICE_TRIAL	n/a	n/a	n/a	-999	-1	[0, 0, 0]	n/a	FR1	1	R1217T
34.007	10.428	68343	COUNTDOWN_START	n/a	n/a	n/a	-999	-1	[0, 0, 0]	n/a	FR1	1	R1217T
44.435	0.008	78770	COUNTDOWN_END	n/a	n/a	n/a	-999	-1	[0, 0, 0]	n/a	FR1	1	R1217T
44.443	1.617	78778	PRACTICE_ORIENT	n/a	n/a	n/a	-999	-1	[0, 0, 0]	n/a	FR1	1	R1217T
46.06	2.05	80395	PRACTICE_ORIENT_OFF	n/a	n/a	n/a	-999	-1	[0, 0, 0]	n/a	FR1	1	R1217T
48.11	1.617	82445	PRACTICE_WORD	n/a	n/a	IRON	1	-1	[0, 0, 0]	n/a	FR1	1	R1217T
49.727	0.8	84062	PRACTICE_WORD_OFF	n/a	n/a	IRON	-999	-1	[0, 0, 0]	n/a	FR1	1	R1217T
50.527	1.617	84862	PRACTICE_WORD	n/a	n/a	RHINO	2	-1	[0, 0, 0]	n/a	FR1	1	R1217T
52.144	1.0	86478	PRACTICE_WORD_OFF	n/a	n/a	RHINO	-999	-1	[0, 0, 0]	n/a	FR1	1	R1217T
53.144	1.617	87478	PRACTICE_WORD	n/a	n/a	TONGUE	3	-1	[0, 0, 0]	n/a	FR1	1	R1217T
54.761	0.984	89095	PRACTICE_WORD_OFF	n/a	n/a	TONGUE	-999	-1	[0, 0, 0]	n/a	FR1	1	R1217T
55.745	1.617	90079	PRACTICE_WORD	n/a	n/a	BEAM	4	-1	[0, 0, 0]	n/a	FR1	1	R1217T
57.362	0.817	91696	PRACTICE_WORD_OFF	n/a	n/a	BEAM	-999	-1	[0, 0, 0]	n/a	FR1	1	R1217T
58.179	1.617	92513	PRACTICE_WORD	n/a	n/a	ATTIC	5	-1	[0, 0, 0]	n/a	FR1	1	R1217T
59.796	0.833	94130	PRACTICE_WORD_OFF	n/a	n/a	ATTIC	-999	-1	[0, 0, 0]	n/a	FR1	1	R1217T
60.629	1.617	94963	PRACTICE_WORD	n/a	n/a	COTTON	6	-1	[0, 0, 0]	n/a	FR1	1	R1217T
62.246	0.766	96580	PRACTICE_WORD_OFF	n/a	n/a	COTTON	-999	-1	[0, 0, 0]	n/a	FR1	1	R1217T
63.012	1.618	97346	PRACTICE_WORD	n/a	n/a	CAMEL	7	-1	[0, 0, 0]	n/a	FR1	1	R1217T
64.63	0.967	98964	PRACTICE_WORD_OFF	n/a	n/a	CAMEL	-999	-1	[0, 0, 0]	n/a	FR1	1	R1217T
65.597	1.617	99931	PRACTICE_WORD	n/a	n/a	WAGON	8	-1	[0, 0, 0]	n/a	FR1	1	R1217T
67.214	0.966	101548	PRACTICE_WORD_OFF	n/a	n/a	WAGON	-999	-1	[0, 0, 0]	n/a	FR1	1	R1217T
68.18	1.617	102513	PRACTICE_WORD	n/a	n/a	WATCH	9	-1	[0, 0, 0]	n/a	FR1	1	R1217T
69.797	0.851	104130	PRACTICE_WORD_OFF	n/a	n/a	WATCH	-999	-1	[0, 0, 0]	n/a	FR1	1	R1217T
70.648	1.616	104981	PRACTICE_WORD	n/a	n/a	RING	10	-1	[0, 0, 0]	n/a	FR1	1	R1217T
72.264	1.001	106597	PRACTICE_WORD_OFF	n/a	n/a	RING	-999	-1	[0, 0, 0]	n/a	FR1	1	R1217T
73.265	1.617	107598	PRACTICE_WORD	n/a	n/a	FLOOD	11	-1	[0, 0, 0]	n/a	FR1	1	R1217T
74.882	0.783	109215	PRACTICE_WORD_OFF	n/a	n/a	FLOOD	-999	-1	[0, 0, 0]	n/a	FR1	1	R1217T
75.665	1.617	109998	PRACTICE_WORD	n/a	n/a	CHEST	12	-1	[0, 0, 0]	n/a	FR1	1	R1217T
77.282	0.0	111615	PRACTICE_WORD_OFF	n/a	n/a	CHEST	-999	-1	[0, 0, 0]	n/a	FR1	1	R1217T
77.282	0.001	111615	DISTRACT_START	n/a	n/a	n/a	-999	-1	[0, 0, 0]	n/a	FR1	1	R1217T
77.283	0.016	111616	START	n/a	n/a	n/a	-999	-1	[-999, -999, -999]	n/a	FR1	1	R1217T
77.299	8.068	111632	PROB	8.068	n/a	n/a	-999	-1	[2, 6, 9]	17	FR1	1	R1217T
85.367	4.201	119699	PROB	4.201	n/a	n/a	-999	-1	[9, 4, 3]	16	FR1	1	R1217T
89.568	2.833	123900	PROB	2.833	n/a	n/a	-999	-1	[2, 2, 2]	6	FR1	1	R1217T
92.401	9.177	126733	PROB	9.177	n/a	n/a	-999	-1	[3, 3, 2]	8	FR1	1	R1217T
101.578	0.009	135909	STOP	n/a	n/a	n/a	-999	-1	[-999, -999, -999]	n/a	FR1	1	R1217T
101.587	0.65	135918	DISTRACT_END	n/a	n/a	n/a	-999	-1	[0, 0, 0]	n/a	FR1	1	R1217T
102.237	0.52	136568	RETRIEVAL_ORIENT	n/a	n/a	n/a	-999	-1	[0, 0, 0]	n/a	FR1	1	R1217T
102.757	30.008	137088	PRACTICE_REC_START	n/a	n/a	n/a	-999	-1	[0, 0, 0]	n/a	FR1	1	R1217T
132.765	13.88	167095	PRACTICE_REC_END	n/a	n/a	n/a	-999	-1	[0, 0, 0]	n/a	FR1	1	R1217T
146.645	0.5	180974	TRIAL	n/a	n/a	n/a	-999	1	[0, 0, 0]	n/a	FR1	1	R1217T
147.145	10.428	181474	COUNTDOWN_START	n/a	n/a	n/a	-999	1	[0, 0, 0]	n/a	FR1	1	R1217T
157.573	0.007	191901	COUNTDOWN_END	n/a	n/a	n/a	-999	1	[0, 0, 0]	n/a	FR1	1	R1217T
157.58	1.617	191908	ORIENT	n/a	n/a	n/a	-999	1	[0, 0, 0]	n/a	FR1	1	R1217T
159.197	2.1	193525	ORIENT_OFF	n/a	n/a	n/a	-999	1	[0, 0, 0]	n/a	FR1	1	R1217T
161.297	1.617	195625	WORD	n/a	wordpools/wordpool_EN.txt	STEAK	1	1	[0, 0, 0]	n/a	FR1	1	R1217T
162.914	0.817	197242	WORD_OFF	n/a	n/a	STEAK	1	1	[0, 0, 0]	n/a	FR1	1	R1217T
163.731	1.617	198059	WORD	n/a	wordpools/wordpool_EN.txt	STAIR	2	1	[0, 0, 0]	n/a	FR1	1	R1217T
165.348	0.9	199676	WORD_OFF	n/a	n/a	STAIR	2	1	[0, 0, 0]	n/a	FR1	1	R1217T
166.248	1.617	200576	WORD	n/a	wordpools/wordpool_EN.txt	SOAP	3	1	[0, 0, 0]	n/a	FR1	1	R1217T
167.865	0.95	202192	WORD_OFF	n/a	n/a	SOAP	3	1	[0, 0, 0]	n/a	FR1	1	R1217T
168.815	1.617	203142	WORD	n/a	wordpools/wordpool_EN.txt	BATH	4	1	[0, 0, 0]	n/a	FR1	1	R1217T
170.432	0.784	204759	WORD_OFF	n/a	n/a	BATH	4	1	[0, 0, 0]	n/a	FR1	1	R1217T
171.216	1.617	205543	WORD	n/a	wordpools/wordpool_EN.txt	WORM	5	1	[0, 0, 0]	n/a	FR1	1	R1217T
172.833	0.95	207160	WORD_OFF	n/a	n/a	WORM	5	1	[0, 0, 0]	n/a	FR1	1	R1217T
173.783	1.617	208110	WORD	n/a	wordpools/wordpool_EN.txt	SHOE	6	1	[0, 0, 0]	n/a	FR1	1	R1217T
175.4	0.933	209727	WORD_OFF	n/a	n/a	SHOE	6	1	[0, 0, 0]	n/a	FR1	1	R1217T
176.333	1.617	210660	WORD	n/a	wordpools/wordpool_EN.txt	FLUTE	7	1	[0, 0, 0]	n/a	FR1	1	R1217T
177.95	0.984	212277	WORD_OFF	n/a	n/a	FLUTE	7	1	[0, 0, 0]	n/a	FR1	1	R1217T
178.934	1.617	213261	WORD	n/a	wordpools/wordpool_EN.txt	SPRING	8	1	[0, 0, 0]	n/a	FR1	1	R1217T
180.551	0.95	214878	WORD_OFF	n/a	n/a	SPRING	8	1	[0, 0, 0]	n/a	FR1	1	R1217T
181.501	1.617	215828	WORD	n/a	wordpools/wordpool_EN.txt	FOOT	9	1	[0, 0, 0]	n/a	FR1	1	R1217T
183.118	0.899	217445	WORD_OFF	n/a	n/a	FOOT	9	1	[0, 0, 0]	n/a	FR1	1	R1217T
184.017	1.601	218344	WORD	n/a	wordpools/wordpool_EN.txt	TRUCK	10	1	[0, 0, 0]	n/a	FR1	1	R1217T
185.618	0.984	219944	WORD_OFF	n/a	n/a	TRUCK	10	1	[0, 0, 0]	n/a	FR1	1	R1217T
186.602	1.617	220928	WORD	n/a	wordpools/wordpool_EN.txt	MOLE	11	1	[0, 0, 0]	n/a	FR1	1	R1217T
188.219	0.95	222545	WORD_OFF	n/a	n/a	MOLE	11	1	[0, 0, 0]	n/a	FR1	1	R1217T
189.169	1.617	223495	WORD	n/a	wordpools/wordpool_EN.txt	ROOM	12	1	[0, 0, 0]	n/a	FR1	1	R1217T
190.786	0.0	225112	WORD_OFF	n/a	n/a	ROOM	12	1	[0, 0, 0]	n/a	FR1	1	R1217T
190.786	0.001	225112	DISTRACT_START	n/a	n/a	n/a	-999	1	[0, 0, 0]	n/a	FR1	1	R1217T
190.787	0.016	225113	START	n/a	n/a	n/a	-999	1	[-999, -999, -999]	n/a	FR1	1	R1217T
190.803	9.585	225129	PROB	9.585	n/a	n/a	-999	1	[2, 2, 3]	7	FR1	1	R1217T
200.388	3.851	234714	PROB	3.851	n/a	n/a	-999	1	[8, 9, 2]	19	FR1	1	R1217T
204.239	3.617	238564	PROB	3.617	n/a	n/a	-999	1	[9, 5, 1]	15	FR1	1	R1217T
207.856	3.729	242181	PROB	3.729	n/a	n/a	-999	1	[3, 5, 8]	16	FR1	1	R1217T
211.585	0.021	245910	STOP	n/a	n/a	n/a	-999	1	[-999, -999, -999]	n/a	FR1	1	R1217T
211.606	0.667	245931	DISTRACT_END	n/a	n/a	n/a	-999	1	[0, 0, 0]	n/a	FR1	1	R1217T
212.273	0.518	246598	RETRIEVAL_ORIENT	n/a	n/a	n/a	-999	1	[0, 0, 0]	n/a	FR1	1	R1217T
212.791	23.826	247116	REC_START	n/a	n/a	n/a	-999	1	[0, 0, 0]	n/a	FR1	1	R1217T
236.617	0.831	270940	REC_WORD	0.831	n/a	SHOE	6	1	[0, 0, 0]	n/a	FR1	1	R1217T
237.448	5.355	271771	REC_WORD	5.355	n/a	SOAP	3	1	[0, 0, 0]	n/a	FR1	1	R1217T
242.803	6.094	277126	REC_END	n/a	n/a	n/a	-999	1	[0, 0, 0]	n/a	FR1	1	R1217T
248.897	0.5	283220	TRIAL	n/a	n/a	n/a	-999	2	[0, 0, 0]	n/a	FR1	1	R1217T
249.397	10.428	283720	COUNTDOWN_START	n/a	n/a	n/a	-999	2	[0, 0, 0]	n/a	FR1	1	R1217T
259.825	0.007	294147	COUNTDOWN_END	n/a	n/a	n/a	-999	2	[0, 0, 0]	n/a	FR1	1	R1217T
259.832	1.617	294154	ORIENT	n/a	n/a	n/a	-999	2	[0, 0, 0]	n/a	FR1	1	R1217T
261.449	2.134	295771	ORIENT_OFF	n/a	n/a	n/a	-999	2	[0, 0, 0]	n/a	FR1	1	R1217T
263.583	1.616	297905	WORD	n/a	wordpools/wordpool_EN.txt	KEY	1	2	[0, 0, 0]	n/a	FR1	1	R1217T
265.199	0.984	299521	WORD_OFF	n/a	n/a	KEY	1	2	[0, 0, 0]	n/a	FR1	1	R1217T
266.183	1.617	300505	WORD	n/a	wordpools/wordpool_EN.txt	LOCK	2	2	[0, 0, 0]	n/a	FR1	1	R1217T
267.8	0.917	302121	WORD_OFF	n/a	n/a	LOCK	2	2	[0, 0, 0]	n/a	FR1	1	R1217T
268.717	1.617	303038	WORD	n/a	wordpools/wordpool_EN.txt	ZOO	3	2	[0, 0, 0]	n/a	FR1	1	R1217T
270.334	0.833	304655	WORD_OFF	n/a	n/a	ZOO	3	2	[0, 0, 0]	n/a	FR1	1	R1217T
271.167	1.617	305488	WORD	n/a	wordpools/wordpool_EN.txt	BOMB	4	2	[0, 0, 0]	n/a	FR1	1	R1217T
272.784	0.884	307105	WORD_OFF	n/a	n/a	BOMB	4	2	[0, 0, 0]	n/a	FR1	1	R1217T
273.668	1.617	307989	WORD	n/a	wordpools/wordpool_EN.txt	STEM	5	2	[0, 0, 0]	n/a	FR1	1	R1217T
275.285	0.866	309606	WORD_OFF	n/a	n/a	STEM	5	2	[0, 0, 0]	n/a	FR1	1	R1217T
276.151	1.617	310472	WORD	n/a	wordpools/wordpool_EN.txt	BREAD	6	2	[0, 0, 0]	n/a	FR1	1	R1217T
277.768	0.834	312089	WORD_OFF	n/a	n/a	BREAD	6	2	[0, 0, 0]	n/a	FR1	1	R1217T
278.602	1.617	312923	WORD	n/a	wordpools/wordpool_EN.txt	EEL	7	2	[0, 0, 0]	n/a	FR1	1	R1217T
280.219	0.9	314540	WORD_OFF	n/a	n/a	EEL	7	2	[0, 0, 0]	n/a	FR1	1	R1217T
281.119	1.617	315440	WORD	n/a	wordpools/wordpool_EN.txt	STRAW	8	2	[0, 0, 0]	n/a	FR1	1	R1217T
282.736	0.884	317057	WORD_OFF	n/a	n/a	STRAW	8	2	[0, 0, 0]	n/a	FR1	1	R1217T
283.62	1.616	317941	WORD	n/a	wordpools/wordpool_EN.txt	POLE	9	2	[0, 0, 0]	n/a	FR1	1	R1217T
285.236	0.934	319556	WORD_OFF	n/a	n/a	POLE	9	2	[0, 0, 0]	n/a	FR1	1	R1217T
286.17	1.617	320490	WORD	n/a	wordpools/wordpool_EN.txt	JAR	10	2	[0, 0, 0]	n/a	FR1	1	R1217T
287.787	0.883	322107	WORD_OFF	n/a	n/a	JAR	10	2	[0, 0, 0]	n/a	FR1	1	R1217T
288.67	1.617	322990	WORD	n/a	wordpools/wordpool_EN.txt	FOG	11	2	[0, 0, 0]	n/a	FR1	1	R1217T
290.287	0.784	324607	WORD_OFF	n/a	n/a	FOG	11	2	[0, 0, 0]	n/a	FR1	1	R1217T
291.071	1.617	325391	WORD	n/a	wordpools/wordpool_EN.txt	BEAR	12	2	[0, 0, 0]	n/a	FR1	1	R1217T
292.688	0.0	327008	WORD_OFF	n/a	n/a	BEAR	12	2	[0, 0, 0]	n/a	FR1	1	R1217T
292.688	0.0	327008	DISTRACT_START	n/a	n/a	n/a	-999	2	[0, 0, 0]	n/a	FR1	1	R1217T
292.688	0.017	327008	START	n/a	n/a	n/a	-999	2	[-999, -999, -999]	n/a	FR1	1	R1217T
292.705	5.851	327025	PROB	5.851	n/a	n/a	-999	2	[7, 3, 7]	17	FR1	1	R1217T
298.556	4.367	332876	PROB	4.367	n/a	n/a	-999	2	[2, 4, 4]	10	FR1	1	R1217T
302.923	4.734	337242	PROB	4.734	n/a	n/a	-999	2	[9, 5, 2]	16	FR1	1	R1217T
307.657	3.451	341976	PROB	3.451	n/a	n/a	-999	2	[3, 4, 9]	16	FR1	1	R1217T
311.108	2.614	345427	PROB	2.614	n/a	n/a	-999	2	[1, 6, 4]	11	FR1	1	R1217T
313.722	0.02	348041	STOP	n/a	n/a	n/a	-999	2	[-999, -999, -999]	n/a	FR1	1	R1217T
313.742	0.6	348061	DISTRACT_END	n/a	n/a	n/a	-999	2	[0, 0, 0]	n/a	FR1	1	R1217T
314.342	0.517	348661	RETRIEVAL_ORIENT	n/a	n/a	n/a	-999	2	[0, 0, 0]	n/a	FR1	1	R1217T
314.859	1.532	349178	REC_START	n/a	n/a	n/a	-999	2	[0, 0, 0]	n/a	FR1	1	R1217T
316.391	0.663	350710	REC_WORD	0.663	n/a	KEY	1	2	[0, 0, 0]	n/a	FR1	1	R1217T
317.054	0.945	351373	REC_WORD	0.945	n/a	LOCK	2	2	[0, 0, 0]	n/a	FR1	1	R1217T
317.999	1.393	352317	REC_WORD	1.393	n/a	BOMB	4	2	[0, 0, 0]	n/a	FR1	1	R1217T
319.392	1.302	353710	REC_WORD	1.302	n/a	POLE	9	2	[0, 0, 0]	n/a	FR1	1	R1217T
320.694	3.718	355012	REC_WORD	3.718	n/a	MOLE	-999	2	[0, 0, 0]	n/a	FR1	1	R1217T
324.412	3.698	358730	REC_WORD	3.698	n/a	RAT	-999	2	[0, 0, 0]	n/a	FR1	1	R1217T
328.11	1.616	362428	REC_WORD	1.616	n/a	STRAW	8	2	[0, 0, 0]	n/a	FR1	1	R1217T
329.726	15.143	364044	REC_WORD	15.143	n/a	STEM	5	2	[0, 0, 0]	n/a	FR1	1	R1217T
344.869	5.996	379186	REC_END	n/a	n/a	n/a	-999	2	[0, 0, 0]	n/a	FR1	1	R1217T
350.865	0.5	385181	TRIAL	n/a	n/a	n/a	-999	3	[0, 0, 0]	n/a	FR1	1	R1217T
351.365	10.428	385681	COUNTDOWN_START	n/a	n/a	n/a	-999	3	[0, 0, 0]	n/a	FR1	1	R1217T
361.793	0.007	396109	COUNTDOWN_END	n/a	n/a	n/a	-999	3	[0, 0, 0]	n/a	FR1	1	R1217T
361.8	1.617	396116	ORIENT	n/a	n/a	n/a	-999	3	[0, 0, 0]	n/a	FR1	1	R1217T
363.417	2.184	397733	ORIENT_OFF	n/a	n/a	n/a	-999	3	[0, 0, 0]	n/a	FR1	1	R1217T
365.601	1.617	399917	WORD	n/a	wordpools/wordpool_EN.txt	WAVE	1	3	[0, 0, 0]	n/a	FR1	1	R1217T
367.218	0.767	401534	WORD_OFF	n/a	n/a	WAVE	1	3	[0, 0, 0]	n/a	FR1	1	R1217T
367.985	1.617	402300	WORD	n/a	wordpools/wordpool_EN.txt	SEA	2	3	[0, 0, 0]	n/a	FR1	1	R1217T
369.602	0.883	403917	WORD_OFF	n/a	n/a	SEA	2	3	[0, 0, 0]	n/a	FR1	1	R1217T
370.485	1.617	404800	WORD	n/a	wordpools/wordpool_EN.txt	FRUIT	3	3	[0, 0, 0]	n/a	FR1	1	R1217T
372.102	0.916	406417	WORD_OFF	n/a	n/a	FRUIT	3	3	[0, 0, 0]	n/a	FR1	1	R1217T
373.018	1.618	407333	WORD	n/a	wordpools/wordpool_EN.txt	BANK	4	3	[0, 0, 0]	n/a	FR1	1	R1217T
374.636	0.934	408951	WORD_OFF	n/a	n/a	BANK	4	3	[0, 0, 0]	n/a	FR1	1	R1217T
375.57	1.616	409885	WORD	n/a	wordpools/wordpool_EN.txt	CUBE	5	3	[0, 0, 0]	n/a	FR1	1	R1217T
377.186	0.867	411501	WORD_OFF	n/a	n/a	CUBE	5	3	[0, 0, 0]	n/a	FR1	1	R1217T
378.053	1.617	412368	WORD	n/a	wordpools/wordpool_EN.txt	ROAD	6	3	[0, 0, 0]	n/a	FR1	1	R1217T
379.67	1.017	413985	WORD_OFF	n/a	n/a	ROAD	6	3	[0, 0, 0]	n/a	FR1	1	R1217T
380.687	1.617	415002	WORD	n/a	wordpools/wordpool_EN.txt	CROW	7	3	[0, 0, 0]	n/a	FR1	1	R1217T
382.304	0.767	416619	WORD_OFF	n/a	n/a	CROW	7	3	[0, 0, 0]	n/a	FR1	1	R1217T
383.071	1.617	417386	WORD	n/a	wordpools/wordpool_EN.txt	PET	8	3	[0, 0, 0]	n/a	FR1	1	R1217T
384.688	0.983	419002	WORD_OFF	n/a	n/a	PET	8	3	[0, 0, 0]	n/a	FR1	1	R1217T
385.671	1.617	419985	WORD	n/a	wordpools/wordpool_EN.txt	TOOL	9	3	[0, 0, 0]	n/a	FR1	1	R1217T
387.288	1.0	421602	WORD_OFF	n/a	n/a	TOOL	9	3	[0, 0, 0]	n/a	FR1	1	R1217T
388.288	1.618	422602	WORD	n/a	wordpools/wordpool_EN.txt	CHIEF	10	3	[0, 0, 0]	n/a	FR1	1	R1217T
389.906	0.8	424220	WORD_OFF	n/a	n/a	CHIEF	10	3	[0, 0, 0]	n/a	FR1	1	R1217T
390.706	1.617	425020	WORD	n/a	wordpools/wordpool_EN.txt	BEAN	11	3	[0, 0, 0]	n/a	FR1	1	R1217T
392.323	0.833	426637	WORD_OFF	n/a	n/a	BEAN	11	3	[0, 0, 0]	n/a	FR1	1	R1217T
393.156	1.617	427470	WORD	n/a	wordpools/wordpool_EN.txt	MOTH	12	3	[0, 0, 0]	n/a	FR1	1	R1217T
394.773	0.0	429087	WORD_OFF	n/a	n/a	MOTH	12	3	[0, 0, 0]	n/a	FR1	1	R1217T
394.773	0.001	429087	DISTRACT_START	n/a	n/a	n/a	-999	3	[0, 0, 0]	n/a	FR1	1	R1217T
394.774	0.016	429088	START	n/a	n/a	n/a	-999	3	[-999, -999, -999]	n/a	FR1	1	R1217T
394.79	5.817	429104	PROB	5.817	n/a	n/a	-999	3	[3, 8, 9]	20	FR1	1	R1217T
400.607	3.368	434920	PROB	3.368	n/a	n/a	-999	3	[2, 2, 5]	14	FR1	1	R1217T
403.975	4.751	438288	PROB	4.751	n/a	n/a	-999	3	[5, 1, 4]	10	FR1	1	R1217T
408.726	3.134	443039	PROB	3.134	n/a	n/a	-999	3	[7, 3, 7]	17	FR1	1	R1217T
411.86	11.943	446173	PROB	11.943	n/a	n/a	-999	3	[3, 5, 2]	10	FR1	1	R1217T
423.803	0.009	458115	STOP	n/a	n/a	n/a	-999	3	[-999, -999, -999]	n/a	FR1	1	R1217T
423.812	0.617	458124	DISTRACT_END	n/a	n/a	n/a	-999	3	[0, 0, 0]	n/a	FR1	1	R1217T
424.429	0.517	458741	RETRIEVAL_ORIENT	n/a	n/a	n/a	-999	3	[0, 0, 0]	n/a	FR1	1	R1217T
424.946	1.101	459258	REC_START	n/a	n/a	n/a	-999	3	[0, 0, 0]	n/a	FR1	1	R1217T
426.047	0.875	460359	REC_WORD	0.875	n/a	SEA	2	3	[0, 0, 0]	n/a	FR1	1	R1217T
426.922	1.006	461234	REC_WORD	1.006	n/a	WAVE	1	3	[0, 0, 0]	n/a	FR1	1	R1217T
427.928	1.221	462240	REC_WORD	1.221	n/a	BANK	4	3	[0, 0, 0]	n/a	FR1	1	R1217T
429.149	1.344	463461	REC_WORD	1.344	n/a	TOOL	9	3	[0, 0, 0]	n/a	FR1	1	R1217T
430.493	5.93	464805	REC_WORD	5.93	n/a	EEL	-999	3	[0, 0, 0]	n/a	FR1	1	R1217T
436.423	18.536	470734	REC_WORD	18.536	n/a	MOTH	12	3	[0, 0, 0]	n/a	FR1	1	R1217T
454.959	6.926	489269	REC_END	n/a	n/a	n/a	-999	3	[0, 0, 0]	n/a	FR1	1	R1217T
461.885	0.5	496195	TRIAL	n/a	n/a	n/a	-999	4	[0, 0, 0]	n/a	FR1	1	R1217T
462.385	10.428	496695	COUNTDOWN_START	n/a	n/a	n/a	-999	4	[0, 0, 0]	n/a	FR1	1	R1217T
472.813	0.008	507122	COUNTDOWN_END	n/a	n/a	n/a	-999	4	[0, 0, 0]	n/a	FR1	1	R1217T
472.821	1.617	507130	ORIENT	n/a	n/a	n/a	-999	4	[0, 0, 0]	n/a	FR1	1	R1217T
474.438	2.15	508747	ORIENT_OFF	n/a	n/a	n/a	-999	4	[0, 0, 0]	n/a	FR1	1	R1217T
476.588	1.617	510897	WORD	n/a	wordpools/wordpool_EN.txt	PEN	1	4	[0, 0, 0]	n/a	FR1	1	R1217T
478.205	0.867	512514	WORD_OFF	n/a	n/a	PEN	1	4	[0, 0, 0]	n/a	FR1	1	R1217T
479.072	1.617	513381	WORD	n/a	wordpools/wordpool_EN.txt	FACE	2	4	[0, 0, 0]	n/a	FR1	1	R1217T
480.689	0.917	514998	WORD_OFF	n/a	n/a	FACE	2	4	[0, 0, 0]	n/a	FR1	1	R1217T
481.606	1.616	515915	WORD	n/a	wordpools/wordpool_EN.txt	SLIME	3	4	[0, 0, 0]	n/a	FR1	1	R1217T
483.222	0.85	517531	WORD_OFF	n/a	n/a	SLIME	3	4	[0, 0, 0]	n/a	FR1	1	R1217T
484.072	1.618	518380	WORD	n/a	wordpools/wordpool_EN.txt	DRESS	4	4	[0, 0, 0]	n/a	FR1	1	R1217T
485.69	0.783	519998	WORD_OFF	n/a	n/a	DRESS	4	4	[0, 0, 0]	n/a	FR1	1	R1217T
486.473	1.617	520781	WORD	n/a	wordpools/wordpool_EN.txt	HAT	5	4	[0, 0, 0]	n/a	FR1	1	R1217T
488.09	0.984	522398	WORD_OFF	n/a	n/a	HAT	5	4	[0, 0, 0]	n/a	FR1	1	R1217T
489.074	1.616	523382	WORD	n/a	wordpools/wordpool_EN.txt	BOARD	6	4	[0, 0, 0]	n/a	FR1	1	R1217T
490.69	0.817	524998	WORD_OFF	n/a	n/a	BOARD	6	4	[0, 0, 0]	n/a	FR1	1	R1217T
491.507	1.617	525815	WORD	n/a	wordpools/wordpool_EN.txt	COUCH	7	4	[0, 0, 0]	n/a	FR1	1	R1217T
493.124	0.784	527432	WORD_OFF	n/a	n/a	COUCH	7	4	[0, 0, 0]	n/a	FR1	1	R1217T
493.908	1.617	528216	WORD	n/a	wordpools/wordpool_EN.txt	FORK	8	4	[0, 0, 0]	n/a	FR1	1	R1217T
495.525	0.983	529833	WORD_OFF	n/a	n/a	FORK	8	4	[0, 0, 0]	n/a	FR1	1	R1217T
496.508	1.617	530816	WORD	n/a	wordpools/wordpool_EN.txt	GUARD	9	4	[0, 0, 0]	n/a	FR1	1	R1217T
498.125	0.784	532433	WORD_OFF	n/a	n/a	GUARD	9	4	[0, 0, 0]	n/a	FR1	1	R1217T
498.909	1.617	533217	WORD	n/a	wordpools/wordpool_EN.txt	FARM	10	4	[0, 0, 0]	n/a	FR1	1	R1217T
500.526	0.883	534833	WORD_OFF	n/a	n/a	FARM	10	4	[0, 0, 0]	n/a	FR1	1	R1217T
501.409	1.616	535716	WORD	n/a	wordpools/wordpool_EN.txt	TOE	11	4	[0, 0, 0]	n/a	FR1	1	R1217T
503.025	0.868	537332	WORD_OFF	n/a	n/a	TOE	11	4	[0, 0, 0]	n/a	FR1	1	R1217T
503.893	1.617	538200	WORD	n/a	wordpools/wordpool_EN.txt	CHALK	12	4	[0, 0, 0]	n/a	FR1	1	R1217T
505.51	0.0	539817	WORD_OFF	n/a	n/a	CHALK	12	4	[0, 0, 0]	n/a	FR1	1	R1217T
505.51	0.0	539817	DISTRACT_START	n/a	n/a	n/a	-999	4	[0, 0, 0]	n/a	FR1	1	R1217T
505.51	0.016	539817	START	n/a	n/a	n/a	-999	4	[-999, -999, -999]	n/a	FR1	1	R1217T
505.526	6.052	539833	PROB	6.052	n/a	n/a	-999	4	[6, 3, 2]	11	FR1	1	R1217T
511.578	2.467	545885	PROB	2.467	n/a	n/a	-999	4	[1, 5, 1]	7	FR1	1	R1217T
514.045	3.317	548352	PROB	3.317	n/a	n/a	-999	4	[4, 6, 6]	14	FR1	1	R1217T
517.362	6.601	551668	PROB	6.601	n/a	n/a	-999	4	[5, 4, 8]	17	FR1	1	R1217T
523.963	9.367	558269	PROB	9.367	n/a	n/a	-999	4	[2, 5, 2]	9	FR1	1	R1217T
533.33	0.018	567636	STOP	n/a	n/a	n/a	-999	4	[-999, -999, -999]	n/a	FR1	1	R1217T
533.348	0.567	567654	DISTRACT_END	n/a	n/a	n/a	-999	4	[0, 0, 0]	n/a	FR1	1	R1217T
533.915	0.518	568220	RETRIEVAL_ORIENT	n/a	n/a	n/a	-999	4	[0, 0, 0]	n/a	FR1	1	R1217T
534.433	1.272	568738	REC_START	n/a	n/a	n/a	-999	4	[0, 0, 0]	n/a	FR1	1	R1217T
535.705	0.785	570010	REC_WORD	0.785	n/a	FACE	2	4	[0, 0, 0]	n/a	FR1	1	R1217T
536.49	0.115	570795	REC_WORD_VV	0.115	n/a	<>	-999	4	[0, 0, 0]	n/a	FR1	1	R1217T
536.605	1.782	570910	REC_WORD	1.782	n/a	TOE	11	4	[0, 0, 0]	n/a	FR1	1	R1217T
538.387	10.242	572692	REC_WORD	10.242	n/a	BOARD	6	4	[0, 0, 0]	n/a	FR1	1	R1217T
548.629	2.307	582934	REC_WORD	2.307	n/a	SLIME	3	4	[0, 0, 0]	n/a	FR1	1	R1217T
550.936	13.508	585240	REC_WORD	13.508	n/a	CROW	-999	4	[0, 0, 0]	n/a	FR1	1	R1217T
564.444	6.344	598748	REC_END	n/a	n/a	n/a	-999	4	[0, 0, 0]	n/a	FR1	1	R1217T
570.788	0.5	605091	TRIAL	n/a	n/a	n/a	-999	5	[0, 0, 0]	n/a	FR1	1	R1217T
571.288	10.428	605591	COUNTDOWN_START	n/a	n/a	n/a	-999	5	[0, 0, 0]	n/a	FR1	1	R1217T
581.716	0.008	616019	COUNTDOWN_END	n/a	n/a	n/a	-999	5	[0, 0, 0]	n/a	FR1	1	R1217T
581.724	1.617	616027	ORIENT	n/a	n/a	n/a	-999	5	[0, 0, 0]	n/a	FR1	1	R1217T
583.341	2.167	617643	ORIENT_OFF	n/a	n/a	n/a	-999	5	[0, 0, 0]	n/a	FR1	1	R1217T
585.508	1.617	619810	WORD	n/a	wordpools/wordpool_EN.txt	STOVE	1	5	[0, 0, 0]	n/a	FR1	1	R1217T
587.125	0.816	621427	WORD_OFF	n/a	n/a	STOVE	1	5	[0, 0, 0]	n/a	FR1	1	R1217T
587.941	1.617	622243	WORD	n/a	wordpools/wordpool_EN.txt	HEART	2	5	[0, 0, 0]	n/a	FR1	1	R1217T
589.558	0.867	623860	WORD_OFF	n/a	n/a	HEART	2	5	[0, 0, 0]	n/a	FR1	1	R1217T
590.425	1.617	624727	WORD	n/a	wordpools/wordpool_EN.txt	BARN	3	5	[0, 0, 0]	n/a	FR1	1	R1217T
592.042	0.95	626344	WORD_OFF	n/a	n/a	BARN	3	5	[0, 0, 0]	n/a	FR1	1	R1217T
592.992	1.617	627294	WORD	n/a	wordpools/wordpool_EN.txt	ARM	4	5	[0, 0, 0]	n/a	FR1	1	R1217T
594.609	0.984	628911	WORD_OFF	n/a	n/a	ARM	4	5	[0, 0, 0]	n/a	FR1	1	R1217T
595.593	1.617	629895	WORD	n/a	wordpools/wordpool_EN.txt	LIP	5	5	[0, 0, 0]	n/a	FR1	1	R1217T
597.21	0.883	631512	WORD_OFF	n/a	n/a	LIP	5	5	[0, 0, 0]	n/a	FR1	1	R1217T
598.093	1.617	632395	WORD	n/a	wordpools/wordpool_EN.txt	SNAKE	6	5	[0, 0, 0]	n/a	FR1	1	R1217T
599.71	0.817	634012	WORD_OFF	n/a	n/a	SNAKE	6	5	[0, 0, 0]	n/a	FR1	1	R1217T
600.527	1.617	634828	WORD	n/a	wordpools/wordpool_EN.txt	BOX	7	5	[0, 0, 0]	n/a	FR1	1	R1217T
602.144	0.9	636445	WORD_OFF	n/a	n/a	BOX	7	5	[0, 0, 0]	n/a	FR1	1	R1217T
603.044	1.617	637345	WORD	n/a	wordpools/wordpool_EN.txt	DEER	8	5	[0, 0, 0]	n/a	FR1	1	R1217T
604.661	0.834	638962	WORD_OFF	n/a	n/a	DEER	8	5	[0, 0, 0]	n/a	FR1	1	R1217T
605.495	1.617	639796	WORD	n/a	wordpools/wordpool_EN.txt	PLATE	9	5	[0, 0, 0]	n/a	FR1	1	R1217T
607.112	0.915	641413	WORD_OFF	n/a	n/a	PLATE	9	5	[0, 0, 0]	n/a	FR1	1	R1217T
608.027	1.601	642328	WORD	n/a	wordpools/wordpool_EN.txt	SEAL	10	5	[0, 0, 0]	n/a	FR1	1	R1217T
609.628	0.901	643929	WORD_OFF	n/a	n/a	SEAL	10	5	[0, 0, 0]	n/a	FR1	1	R1217T
610.529	1.617	644830	WORD	n/a	wordpools/wordpool_EN.txt	WAND	11	5	[0, 0, 0]	n/a	FR1	1	R1217T
612.146	0.966	646447	WORD_OFF	n/a	n/a	WAND	11	5	[0, 0, 0]	n/a	FR1	1	R1217T
613.112	1.618	647413	WORD	n/a	wordpools/wordpool_EN.txt	TREE	12	5	[0, 0, 0]	n/a	FR1	1	R1217T
614.73	0.0	649031	WORD_OFF	n/a	n/a	TREE	12	5	[0, 0, 0]	n/a	FR1	1	R1217T
614.73	0.0	649031	DISTRACT_START	n/a	n/a	n/a	-999	5	[0, 0, 0]	n/a	FR1	1	R1217T
614.73	0.016	649031	START	n/a	n/a	n/a	-999	5	[-999, -999, -999]	n/a	FR1	1	R1217T
614.746	7.552	649047	PROB	7.552	n/a	n/a	-999	5	[9, 5, 2]	16	FR1	1	R1217T
622.298	3.3	656598	PROB	3.3	n/a	n/a	-999	5	[2, 9, 4]	15	FR1	1	R1217T
625.598	3.301	659898	PROB	3.301	n/a	n/a	-999	5	[1, 3, 2]	6	FR1	1	R1217T
628.899	3.034	663199	PROB	3.034	n/a	n/a	-999	5	[9, 3, 1]	13	FR1	1	R1217T
631.933	2.974	666233	PROB	2.974	n/a	n/a	-999	5	[5, 2, 2]	9	FR1	1	R1217T
634.907	0.01	669206	STOP	n/a	n/a	n/a	-999	5	[-999, -999, -999]	n/a	FR1	1	R1217T
634.917	0.7	669216	DISTRACT_END	n/a	n/a	n/a	-999	5	[0, 0, 0]	n/a	FR1	1	R1217T
635.617	0.517	669916	RETRIEVAL_ORIENT	n/a	n/a	n/a	-999	5	[0, 0, 0]	n/a	FR1	1	R1217T
636.134	2.246	670433	REC_START	n/a	n/a	n/a	-999	5	[0, 0, 0]	n/a	FR1	1	R1217T
638.38	0.83	672679	REC_WORD	0.83	n/a	STOVE	1	5	[0, 0, 0]	n/a	FR1	1	R1217T
639.21	0.12	673509	REC_WORD_VV	0.12	n/a	<>	-999	5	[0, 0, 0]	n/a	FR1	1	R1217T
639.33	2.465	673629	REC_WORD	2.465	n/a	BOX	7	5	[0, 0, 0]	n/a	FR1	1	R1217T
641.795	24.352	676094	REC_WORD	24.352	n/a	LIP	5	5	[0, 0, 0]	n/a	FR1	1	R1217T
666.147	5.426	700445	REC_END	n/a	n/a	n/a	-999	5	[0, 0, 0]	n/a	FR1	1	R1217T
671.573	0.5	705870	TRIAL	n/a	n/a	n/a	-999	6	[0, 0, 0]	n/a	FR1	1	R1217T
672.073	10.428	706370	COUNTDOWN_START	n/a	n/a	n/a	-999	6	[0, 0, 0]	n/a	FR1	1	R1217T
682.501	0.008	716798	COUNTDOWN_END	n/a	n/a	n/a	-999	6	[0, 0, 0]	n/a	FR1	1	R1217T
682.509	1.617	716806	ORIENT	n/a	n/a	n/a	-999	6	[0, 0, 0]	n/a	FR1	1	R1217T
684.126	2.133	718422	ORIENT_OFF	n/a	n/a	n/a	-999	6	[0, 0, 0]	n/a	FR1	1	R1217T
686.259	1.617	720555	WORD	n/a	wordpools/wordpool_EN.txt	SHIP	1	6	[0, 0, 0]	n/a	FR1	1	R1217T
687.876	0.851	722172	WORD_OFF	n/a	n/a	SHIP	1	6	[0, 0, 0]	n/a	FR1	1	R1217T
688.727	1.616	723023	WORD	n/a	wordpools/wordpool_EN.txt	FOOD	2	6	[0, 0, 0]	n/a	FR1	1	R1217T
690.343	0.917	724639	WORD_OFF	n/a	n/a	FOOD	2	6	[0, 0, 0]	n/a	FR1	1	R1217T
691.26	1.617	725556	WORD	n/a	wordpools/wordpool_EN.txt	JAIL	3	6	[0, 0, 0]	n/a	FR1	1	R1217T
692.877	1.017	727173	WORD_OFF	n/a	n/a	JAIL	3	6	[0, 0, 0]	n/a	FR1	1	R1217T
693.894	1.617	728190	WORD	n/a	wordpools/wordpool_EN.txt	CALF	4	6	[0, 0, 0]	n/a	FR1	1	R1217T
695.511	0.8	729807	WORD_OFF	n/a	n/a	CALF	4	6	[0, 0, 0]	n/a	FR1	1	R1217T
696.311	1.617	730607	WORD	n/a	wordpools/wordpool_EN.txt	LAMB	5	6	[0, 0, 0]	n/a	FR1	1	R1217T
697.928	0.967	732224	WORD_OFF	n/a	n/a	LAMB	5	6	[0, 0, 0]	n/a	FR1	1	R1217T
698.895	1.617	733191	WORD	n/a	wordpools/wordpool_EN.txt	EAR	6	6	[0, 0, 0]	n/a	FR1	1	R1217T
700.512	0.967	734807	WORD_OFF	n/a	n/a	EAR	6	6	[0, 0, 0]	n/a	FR1	1	R1217T
701.479	1.617	735774	WORD	n/a	wordpools/wordpool_EN.txt	TENT	7	6	[0, 0, 0]	n/a	FR1	1	R1217T
703.096	0.967	737391	WORD_OFF	n/a	n/a	TENT	7	6	[0, 0, 0]	n/a	FR1	1	R1217T
704.063	1.617	738358	WORD	n/a	wordpools/wordpool_EN.txt	BLUSH	8	6	[0, 0, 0]	n/a	FR1	1	R1217T
705.68	0.95	739975	WORD_OFF	n/a	n/a	BLUSH	8	6	[0, 0, 0]	n/a	FR1	1	R1217T
706.63	1.617	740925	WORD	n/a	wordpools/wordpool_EN.txt	HOOK	9	6	[0, 0, 0]	n/a	FR1	1	R1217T
708.247	0.917	742542	WORD_OFF	n/a	n/a	HOOK	9	6	[0, 0, 0]	n/a	FR1	1	R1217T
709.164	1.616	743459	WORD	n/a	wordpools/wordpool_EN.txt	PRINCE	10	6	[0, 0, 0]	n/a	FR1	1	R1217T
710.78	0.767	745075	WORD_OFF	n/a	n/a	PRINCE	10	6	[0, 0, 0]	n/a	FR1	1	R1217T
711.547	1.617	745842	WORD	n/a	wordpools/wordpool_EN.txt	INK	11	6	[0, 0, 0]	n/a	FR1	1	R1217T
713.164	0.967	747459	WORD_OFF	n/a	n/a	INK	11	6	[0, 0, 0]	n/a	FR1	1	R1217T
714.131	1.617	748426	WORD	n/a	wordpools/wordpool_EN.txt	VAN	12	6	[0, 0, 0]	n/a	FR1	1	R1217T
715.748	0.0	750043	WORD_OFF	n/a	n/a	VAN	12	6	[0, 0, 0]	n/a	FR1	1	R1217T
715.748	0.001	750043	DISTRACT_START	n/a	n/a	n/a	-999	6	[0, 0, 0]	n/a	FR1	1	R1217T
715.749	0.016	750044	START	n/a	n/a	n/a	-999	6	[-999, -999, -999]	n/a	FR1	1	R1217T
715.765	6.684	750060	PROB	6.684	n/a	n/a	-999	6	[9, 3, 4]	16	FR1	1	R1217T
722.449	3.768	756743	PROB	3.768	n/a	n/a	-999	6	[7, 9, 9]	25	FR1	1	R1217T
726.217	3.0	760511	PROB	3.0	n/a	n/a	-999	6	[4, 4, 6]	14	FR1	1	R1217T
729.217	3.567	763511	PROB	3.567	n/a	n/a	-999	6	[7, 3, 6]	16	FR1	1	R1217T
732.784	2.851	767077	PROB	2.851	n/a	n/a	-999	6	[8, 1, 2]	11	FR1	1	R1217T
735.635	11.815	769928	PROB	11.815	n/a	n/a	-999	6	[8, 3, 5]	16	FR1	1	R1217T
747.45	0.021	781743	STOP	n/a	n/a	n/a	-999	6	[-999, -999, -999]	n/a	FR1	1	R1217T
747.471	0.666	781764	DISTRACT_END	n/a	n/a	n/a	-999	6	[0, 0, 0]	n/a	FR1	1	R1217T
748.137	0.518	782430	RETRIEVAL_ORIENT	n/a	n/a	n/a	-999	6	[0, 0, 0]	n/a	FR1	1	R1217T
748.655	1.013	782948	REC_START	n/a	n/a	n/a	-999	6	[0, 0, 0]	n/a	FR1	1	R1217T
749.668	0.92	783960	REC_WORD	0.92	n/a	JAIL	3	6	[0, 0, 0]	n/a	FR1	1	R1217T
750.588	0.661	784880	REC_WORD	0.661	n/a	SHIP	1	6	[0, 0, 0]	n/a	FR1	1	R1217T
751.249	1.578	785541	REC_WORD	1.578	n/a	FOOD	2	6	[0, 0, 0]	n/a	FR1	1	R1217T
752.827	2.543	787119	REC_WORD	2.543	n/a	HEART	-999	6	[0, 0, 0]	n/a	FR1	1	R1217T
755.37	8.578	789662	REC_WORD	8.578	n/a	SWARM	-999	6	[0, 0, 0]	n/a	FR1	1	R1217T
763.948	1.65	798240	REC_WORD	1.65	n/a	INK	11	6	[0, 0, 0]	n/a	FR1	1	R1217T
765.598	13.067	799890	REC_WORD	13.067	n/a	PEN	-999	6	[0, 0, 0]	n/a	FR1	1	R1217T
778.665	10.846	812956	REC_END	n/a	n/a	n/a	-999	6	[0, 0, 0]	n/a	FR1	1	R1217T
789.511	0.5	823801	TRIAL	n/a	n/a	n/a	-999	7	[0, 0, 0]	n/a	FR1	1	R1217T
790.011	10.428	824301	COUNTDOWN_START	n/a	n/a	n/a	-999	7	[0, 0, 0]	n/a	FR1	1	R1217T
800.439	0.008	834728	COUNTDOWN_END	n/a	n/a	n/a	-999	7	[0, 0, 0]	n/a	FR1	1	R1217T
800.447	1.617	834736	ORIENT	n/a	n/a	n/a	-999	7	[0, 0, 0]	n/a	FR1	1	R1217T
802.064	2.2	836353	ORIENT_OFF	n/a	n/a	n/a	-999	7	[0, 0, 0]	n/a	FR1	1	R1217T
804.264	1.617	838553	WORD	n/a	wordpools/wordpool_EN.txt	GOLD	1	7	[0, 0, 0]	n/a	FR1	1	R1217T
805.881	0.767	840170	WORD_OFF	n/a	n/a	GOLD	1	7	[0, 0, 0]	n/a	FR1	1	R1217T
806.648	1.617	840937	WORD	n/a	wordpools/wordpool_EN.txt	COIN	2	7	[0, 0, 0]	n/a	FR1	1	R1217T
808.265	0.783	842554	WORD_OFF	n/a	n/a	COIN	2	7	[0, 0, 0]	n/a	FR1	1	R1217T
809.048	1.617	843337	WORD	n/a	wordpools/wordpool_EN.txt	CANE	3	7	[0, 0, 0]	n/a	FR1	1	R1217T
810.665	0.967	844954	WORD_OFF	n/a	n/a	CANE	3	7	[0, 0, 0]	n/a	FR1	1	R1217T
811.632	1.617	845921	WORD	n/a	wordpools/wordpool_EN.txt	FUR	4	7	[0, 0, 0]	n/a	FR1	1	R1217T
813.249	0.884	847538	WORD_OFF	n/a	n/a	FUR	4	7	[0, 0, 0]	n/a	FR1	1	R1217T
814.133	1.617	848422	WORD	n/a	wordpools/wordpool_EN.txt	WORLD	5	7	[0, 0, 0]	n/a	FR1	1	R1217T
815.75	0.95	850039	WORD_OFF	n/a	n/a	WORLD	5	7	[0, 0, 0]	n/a	FR1	1	R1217T
816.7	1.617	850988	WORD	n/a	wordpools/wordpool_EN.txt	BRICK	6	7	[0, 0, 0]	n/a	FR1	1	R1217T
818.317	0.8	852605	WORD_OFF	n/a	n/a	BRICK	6	7	[0, 0, 0]	n/a	FR1	1	R1217T
819.117	1.617	853405	WORD	n/a	wordpools/wordpool_EN.txt	BEACH	7	7	[0, 0, 0]	n/a	FR1	1	R1217T
820.734	1.0	855022	WORD_OFF	n/a	n/a	BEACH	7	7	[0, 0, 0]	n/a	FR1	1	R1217T
821.734	1.617	856022	WORD	n/a	wordpools/wordpool_EN.txt	GRAPE	8	7	[0, 0, 0]	n/a	FR1	1	R1217T
823.351	0.833	857639	WORD_OFF	n/a	n/a	GRAPE	8	7	[0, 0, 0]	n/a	FR1	1	R1217T
824.184	1.617	858472	WORD	n/a	wordpools/wordpool_EN.txt	OWL	9	7	[0, 0, 0]	n/a	FR1	1	R1217T
825.801	1.017	860089	WORD_OFF	n/a	n/a	OWL	9	7	[0, 0, 0]	n/a	FR1	1	R1217T
826.818	1.617	861106	WORD	n/a	wordpools/wordpool_EN.txt	CLOCK	10	7	[0, 0, 0]	n/a	FR1	1	R1217T
828.435	0.817	862723	WORD_OFF	n/a	n/a	CLOCK	10	7	[0, 0, 0]	n/a	FR1	1	R1217T
829.252	1.617	863540	WORD	n/a	wordpools/wordpool_EN.txt	LAND	11	7	[0, 0, 0]	n/a	FR1	1	R1217T
830.869	0.917	865157	WORD_OFF	n/a	n/a	LAND	11	7	[0, 0, 0]	n/a	FR1	1	R1217T
831.786	1.617	866074	WORD	n/a	wordpools/wordpool_EN.txt	GLOVE	12	7	[0, 0, 0]	n/a	FR1	1	R1217T
833.403	0.0	867690	WORD_OFF	n/a	n/a	GLOVE	12	7	[0, 0, 0]	n/a	FR1	1	R1217T
833.403	0.001	867690	DISTRACT_START	n/a	n/a	n/a	-999	7	[0, 0, 0]	n/a	FR1	1	R1217T
833.404	0.015	867691	START	n/a	n/a	n/a	-999	7	[-999, -999, -999]	n/a	FR1	1	R1217T
833.419	6.335	867706	PROB	6.335	n/a	n/a	-999	7	[5, 4, 9]	18	FR1	1	R1217T
839.754	3.417	874041	PROB	3.417	n/a	n/a	-999	7	[6, 8, 5]	19	FR1	1	R1217T
843.171	3.768	877458	PROB	3.768	n/a	n/a	-999	7	[6, 9, 3]	18	FR1	1	R1217T
846.939	3.5	881226	PROB	3.5	n/a	n/a	-999	7	[6, 9, 5]	20	FR1	1	R1217T
850.439	3.179	884725	PROB	3.179	n/a	n/a	-999	7	[7, 4, 4]	15	FR1	1	R1217T
853.618	0.022	887904	STOP	n/a	n/a	n/a	-999	7	[-999, -999, -999]	n/a	FR1	1	R1217T
853.64	0.65	887926	DISTRACT_END	n/a	n/a	n/a	-999	7	[0, 0, 0]	n/a	FR1	1	R1217T
854.29	0.517	888576	RETRIEVAL_ORIENT	n/a	n/a	n/a	-999	7	[0, 0, 0]	n/a	FR1	1	R1217T
854.807	1.765	889093	REC_START	n/a	n/a	n/a	-999	7	[0, 0, 0]	n/a	FR1	1	R1217T
856.572	0.771	890858	REC_WORD	0.771	n/a	GOLD	1	7	[0, 0, 0]	n/a	FR1	1	R1217T
857.343	1.749	891629	REC_WORD	1.749	n/a	COIN	2	7	[0, 0, 0]	n/a	FR1	1	R1217T
859.092	11.139	893378	REC_WORD	11.139	n/a	WORLD	5	7	[0, 0, 0]	n/a	FR1	1	R1217T
870.231	5.724	904516	REC_WORD	5.724	n/a	WATCH	-999	7	[0, 0, 0]	n/a	FR1	1	R1217T
875.955	4.88	910240	REC_WORD	4.88	n/a	FUR	4	7	[0, 0, 0]	n/a	FR1	1	R1217T
880.835	3.984	915120	REC_WORD	3.984	n/a	LAND	11	7	[0, 0, 0]	n/a	FR1	1	R1217T
884.819	5.761	919103	REC_END	n/a	n/a	n/a	-999	7	[0, 0, 0]	n/a	FR1	1	R1217T
890.58	0.5	924864	TRIAL	n/a	n/a	n/a	-999	8	[0, 0, 0]	n/a	FR1	1	R1217T
891.08	10.428	925364	COUNTDOWN_START	n/a	n/a	n/a	-999	8	[0, 0, 0]	n/a	FR1	1	R1217T
901.508	0.007	935791	COUNTDOWN_END	n/a	n/a	n/a	-999	8	[0, 0, 0]	n/a	FR1	1	R1217T
901.515	1.617	935798	ORIENT	n/a	n/a	n/a	-999	8	[0, 0, 0]	n/a	FR1	1	R1217T
903.132	2.117	937415	ORIENT_OFF	n/a	n/a	n/a	-999	8	[0, 0, 0]	n/a	FR1	1	R1217T
905.249	1.617	939532	WORD	n/a	wordpools/wordpool_EN.txt	SQUARE	1	8	[0, 0, 0]	n/a	FR1	1	R1217T
906.866	0.967	941149	WORD_OFF	n/a	n/a	SQUARE	1	8	[0, 0, 0]	n/a	FR1	1	R1217T
907.833	1.617	942116	WORD	n/a	wordpools/wordpool_EN.txt	CONE	2	8	[0, 0, 0]	n/a	FR1	1	R1217T
909.45	0.983	943733	WORD_OFF	n/a	n/a	CONE	2	8	[0, 0, 0]	n/a	FR1	1	R1217T
910.433	1.617	944716	WORD	n/a	wordpools/wordpool_EN.txt	SLEEVE	3	8	[0, 0, 0]	n/a	FR1	1	R1217T
912.05	1.001	946333	WORD_OFF	n/a	n/a	SLEEVE	3	8	[0, 0, 0]	n/a	FR1	1	R1217T
913.051	1.617	947334	WORD	n/a	wordpools/wordpool_EN.txt	HEN	4	8	[0, 0, 0]	n/a	FR1	1	R1217T
914.668	0.866	948951	WORD_OFF	n/a	n/a	HEN	4	8	[0, 0, 0]	n/a	FR1	1	R1217T
915.534	1.617	949816	WORD	n/a	wordpools/wordpool_EN.txt	TRASH	5	8	[0, 0, 0]	n/a	FR1	1	R1217T
917.151	0.934	951433	WORD_OFF	n/a	n/a	TRASH	5	8	[0, 0, 0]	n/a	FR1	1	R1217T
918.085	1.617	952367	WORD	n/a	wordpools/wordpool_EN.txt	SPONGE	6	8	[0, 0, 0]	n/a	FR1	1	R1217T
919.702	0.983	953984	WORD_OFF	n/a	n/a	SPONGE	6	8	[0, 0, 0]	n/a	FR1	1	R1217T
920.685	1.617	954967	WORD	n/a	wordpools/wordpool_EN.txt	STONE	7	8	[0, 0, 0]	n/a	FR1	1	R1217T
922.302	0.817	956584	WORD_OFF	n/a	n/a	STONE	7	8	[0, 0, 0]	n/a	FR1	1	R1217T
923.119	1.617	957401	WORD	n/a	wordpools/wordpool_EN.txt	PALM	8	8	[0, 0, 0]	n/a	FR1	1	R1217T
924.736	0.95	959018	WORD_OFF	n/a	n/a	PALM	8	8	[0, 0, 0]	n/a	FR1	1	R1217T
925.686	1.617	959968	WORD	n/a	wordpools/wordpool_EN.txt	SHRIMP	9	8	[0, 0, 0]	n/a	FR1	1	R1217T
927.303	0.984	961585	WORD_OFF	n/a	n/a	SHRIMP	9	8	[0, 0, 0]	n/a	FR1	1	R1217T
928.287	1.617	962569	WORD	n/a	wordpools/wordpool_EN.txt	SUN	10	8	[0, 0, 0]	n/a	FR1	1	R1217T
929.904	0.883	964186	WORD_OFF	n/a	n/a	SUN	10	8	[0, 0, 0]	n/a	FR1	1	R1217T
930.787	1.617	965069	WORD	n/a	wordpools/wordpool_EN.txt	CLIFF	11	8	[0, 0, 0]	n/a	FR1	1	R1217T
932.404	0.934	966685	WORD_OFF	n/a	n/a	CLIFF	11	8	[0, 0, 0]	n/a	FR1	1	R1217T
933.338	1.617	967619	WORD	n/a	wordpools/wordpool_EN.txt	APE	12	8	[0, 0, 0]	n/a	FR1	1	R1217T
934.955	0.0	969236	WORD_OFF	n/a	n/a	APE	12	8	[0, 0, 0]	n/a	FR1	1	R1217T
934.955	0.0	969236	DISTRACT_START	n/a	n/a	n/a	-999	8	[0, 0, 0]	n/a	FR1	1	R1217T
934.955	0.016	969236	START	n/a	n/a	n/a	-999	8	[-999, -999, -999]	n/a	FR1	1	R1217T
934.971	3.351	969252	PROB	3.351	n/a	n/a	-999	8	[4, 4, 4]	12	FR1	1	R1217T
938.322	5.683	972603	PROB	5.683	n/a	n/a	-999	8	[9, 8, 7]	22	FR1	1	R1217T
944.005	4.252	978286	PROB	4.252	n/a	n/a	-999	8	[9, 8, 5]	22	FR1	1	R1217T
948.257	4.084	982538	PROB	4.084	n/a	n/a	-999	8	[3, 5, 8]	16	FR1	1	R1217T
952.341	2.934	986621	PROB	2.934	n/a	n/a	-999	8	[5, 4, 3]	12	FR1	1	R1217T
955.275	0.017	989555	STOP	n/a	n/a	n/a	-999	8	[-999, -999, -999]	n/a	FR1	1	R1217T
955.292	0.7	989572	DISTRACT_END	n/a	n/a	n/a	-999	8	[0, 0, 0]	n/a	FR1	1	R1217T
955.992	0.517	990272	RETRIEVAL_ORIENT	n/a	n/a	n/a	-999	8	[0, 0, 0]	n/a	FR1	1	R1217T
956.509	12.38	990789	REC_START	n/a	n/a	n/a	-999	8	[0, 0, 0]	n/a	FR1	1	R1217T
968.889	0.666	1003168	REC_WORD	0.666	n/a	SUN	10	8	[0, 0, 0]	n/a	FR1	1	R1217T
969.555	13.888	1003834	REC_WORD	13.888	n/a	SQUARE	1	8	[0, 0, 0]	n/a	FR1	1	R1217T
983.443	3.077	1017721	REC_WORD	3.077	n/a	LIP	-999	8	[0, 0, 0]	n/a	FR1	1	R1217T
986.52	5.395	1020798	REC_END	n/a	n/a	n/a	-999	8	[0, 0, 0]	n/a	FR1	1	R1217T
991.915	0.5	1026193	TRIAL	n/a	n/a	n/a	-999	9	[0, 0, 0]	n/a	FR1	1	R1217T
992.415	10.428	1026693	COUNTDOWN_START	n/a	n/a	n/a	-999	9	[0, 0, 0]	n/a	FR1	1	R1217T
1002.843	0.007	1037120	COUNTDOWN_END	n/a	n/a	n/a	-999	9	[0, 0, 0]	n/a	FR1	1	R1217T
1002.85	1.617	1037127	ORIENT	n/a	n/a	n/a	-999	9	[0, 0, 0]	n/a	FR1	1	R1217T
1004.467	2.101	1038744	ORIENT_OFF	n/a	n/a	n/a	-999	9	[0, 0, 0]	n/a	FR1	1	R1217T
1006.568	1.617	1040845	WORD	n/a	wordpools/wordpool_EN.txt	EGG	1	9	[0, 0, 0]	n/a	FR1	1	R1217T
1008.185	0.95	1042462	WORD_OFF	n/a	n/a	EGG	1	9	[0, 0, 0]	n/a	FR1	1	R1217T
1009.135	1.617	1043412	WORD	n/a	wordpools/wordpool_EN.txt	SKI	2	9	[0, 0, 0]	n/a	FR1	1	R1217T
1010.752	0.883	1045029	WORD_OFF	n/a	n/a	SKI	2	9	[0, 0, 0]	n/a	FR1	1	R1217T
1011.635	1.617	1045912	WORD	n/a	wordpools/wordpool_EN.txt	CUP	3	9	[0, 0, 0]	n/a	FR1	1	R1217T
1013.252	0.934	1047529	WORD_OFF	n/a	n/a	CUP	3	9	[0, 0, 0]	n/a	FR1	1	R1217T
1014.186	1.617	1048463	WORD	n/a	wordpools/wordpool_EN.txt	SPARK	4	9	[0, 0, 0]	n/a	FR1	1	R1217T
1015.803	0.933	1050079	WORD_OFF	n/a	n/a	SPARK	4	9	[0, 0, 0]	n/a	FR1	1	R1217T
1016.736	1.617	1051012	WORD	n/a	wordpools/wordpool_EN.txt	LEG	5	9	[0, 0, 0]	n/a	FR1	1	R1217T
1018.353	0.967	1052629	WORD_OFF	n/a	n/a	LEG	5	9	[0, 0, 0]	n/a	FR1	1	R1217T
1019.32	1.617	1053596	WORD	n/a	wordpools/wordpool_EN.txt	BAND	6	9	[0, 0, 0]	n/a	FR1	1	R1217T
1020.937	0.983	1055213	WORD_OFF	n/a	n/a	BAND	6	9	[0, 0, 0]	n/a	FR1	1	R1217T
1021.92	1.617	1056196	WORD	n/a	wordpools/wordpool_EN.txt	CROWN	7	9	[0, 0, 0]	n/a	FR1	1	R1217T
1023.537	0.851	1057813	WORD_OFF	n/a	n/a	CROWN	7	9	[0, 0, 0]	n/a	FR1	1	R1217T
1024.388	1.616	1058664	WORD	n/a	wordpools/wordpool_EN.txt	RAKE	8	9	[0, 0, 0]	n/a	FR1	1	R1217T
1026.004	0.817	1060280	WORD_OFF	n/a	n/a	RAKE	8	9	[0, 0, 0]	n/a	FR1	1	R1217T
1026.821	1.617	1061097	WORD	n/a	wordpools/wordpool_EN.txt	MOON	9	9	[0, 0, 0]	n/a	FR1	1	R1217T
1028.438	0.767	1062714	WORD_OFF	n/a	n/a	MOON	9	9	[0, 0, 0]	n/a	FR1	1	R1217T
1029.205	1.617	1063481	WORD	n/a	wordpools/wordpool_EN.txt	PEA	10	9	[0, 0, 0]	n/a	FR1	1	R1217T
1030.822	0.867	1065098	WORD_OFF	n/a	n/a	PEA	10	9	[0, 0, 0]	n/a	FR1	1	R1217T
1031.689	1.617	1065965	WORD	n/a	wordpools/wordpool_EN.txt	RICE	11	9	[0, 0, 0]	n/a	FR1	1	R1217T
1033.306	0.867	1067581	WORD_OFF	n/a	n/a	RICE	11	9	[0, 0, 0]	n/a	FR1	1	R1217T
1034.173	1.617	1068448	WORD	n/a	wordpools/wordpool_EN.txt	DITCH	12	9	[0, 0, 0]	n/a	FR1	1	R1217T
1035.79	0.0	1070065	DISTRACT_START	n/a	n/a	n/a	-999	9	[0, 0, 0]	n/a	FR1	1	R1217T
1035.79	0.0	1070065	WORD_OFF	n/a	n/a	DITCH	12	9	[0, 0, 0]	n/a	FR1	1	R1217T
1035.79	0.016	1070065	START	n/a	n/a	n/a	-999	9	[-999, -999, -999]	n/a	FR1	1	R1217T
1035.806	5.018	1070081	PROB	5.018	n/a	n/a	-999	9	[8, 1, 7]	16	FR1	1	R1217T
1040.824	3.984	1075099	PROB	3.984	n/a	n/a	-999	9	[8, 6, 3]	17	FR1	1	R1217T
1044.808	2.7	1079083	PROB	2.7	n/a	n/a	-999	9	[1, 6, 4]	11	FR1	1	R1217T
1047.508	3.884	1081783	PROB	3.884	n/a	n/a	-999	9	[4, 3, 8]	15	FR1	1	R1217T
1051.392	9.843	1085666	PROB	9.843	n/a	n/a	-999	9	[8, 1, 5]	14	FR1	1	R1217T
1061.235	0.009	1095509	STOP	n/a	n/a	n/a	-999	9	[-999, -999, -999]	n/a	FR1	1	R1217T
1061.244	0.684	1095518	DISTRACT_END	n/a	n/a	n/a	-999	9	[0, 0, 0]	n/a	FR1	1	R1217T
1061.928	0.517	1096202	RETRIEVAL_ORIENT	n/a	n/a	n/a	-999	9	[0, 0, 0]	n/a	FR1	1	R1217T
1062.445	1.33	1096719	REC_START	n/a	n/a	n/a	-999	9	[0, 0, 0]	n/a	FR1	1	R1217T
1063.775	0.906	1098049	REC_WORD	0.906	n/a	EGG	1	9	[0, 0, 0]	n/a	FR1	1	R1217T
1064.681	14.247	1098955	REC_WORD	14.247	n/a	LEG	5	9	[0, 0, 0]	n/a	FR1	1	R1217T
1078.928	2.837	1113201	REC_WORD_VV	2.837	n/a	<>	-999	9	[0, 0, 0]	n/a	FR1	1	R1217T
1081.765	1.538	1116037	REC_WORD	1.538	n/a	BROWN	-999	9	[0, 0, 0]	n/a	FR1	1	R1217T
1083.303	9.151	1117575	REC_WORD	9.151	n/a	RICE	11	9	[0, 0, 0]	n/a	FR1	1	R1217T
1092.454	5.214	1126726	REC_END	n/a	n/a	n/a	-999	9	[0, 0, 0]	n/a	FR1	1	R1217T
1097.668	0.5	1131940	TRIAL	n/a	n/a	n/a	-999	10	[0, 0, 0]	n/a	FR1	1	R1217T
1098.168	10.428	1132440	COUNTDOWN_START	n/a	n/a	n/a	-999	10	[0, 0, 0]	n/a	FR1	1	R1217T
1108.596	0.007	1142867	COUNTDOWN_END	n/a	n/a	n/a	-999	10	[0, 0, 0]	n/a	FR1	1	R1217T
1108.603	1.617	1142874	ORIENT	n/a	n/a	n/a	-999	10	[0, 0, 0]	n/a	FR1	1	R1217T
1110.22	2.017	1144491	ORIENT_OFF	n/a	n/a	n/a	-999	10	[0, 0, 0]	n/a	FR1	1	R1217T
1112.237	1.617	1146508	WORD	n/a	wordpools/wordpool_EN.txt	SPEAR	1	10	[0, 0, 0]	n/a	FR1	1	R1217T
1113.854	0.8	1148125	WORD_OFF	n/a	n/a	SPEAR	1	10	[0, 0, 0]	n/a	FR1	1	R1217T
1114.654	1.617	1148925	WORD	n/a	wordpools/wordpool_EN.txt	FLOOR	2	10	[0, 0, 0]	n/a	FR1	1	R1217T
1116.271	0.9	1150541	WORD_OFF	n/a	n/a	FLOOR	2	10	[0, 0, 0]	n/a	FR1	1	R1217T
1117.171	1.617	1151441	WORD	n/a	wordpools/wordpool_EN.txt	NEST	3	10	[0, 0, 0]	n/a	FR1	1	R1217T
1118.788	0.867	1153058	WORD_OFF	n/a	n/a	NEST	3	10	[0, 0, 0]	n/a	FR1	1	R1217T
1119.655	1.617	1153925	WORD	n/a	wordpools/wordpool_EN.txt	SEAT	4	10	[0, 0, 0]	n/a	FR1	1	R1217T
1121.272	0.783	1155542	WORD_OFF	n/a	n/a	SEAT	4	10	[0, 0, 0]	n/a	FR1	1	R1217T
1122.055	1.617	1156325	WORD	n/a	wordpools/wordpool_EN.txt	GATE	5	10	[0, 0, 0]	n/a	FR1	1	R1217T
1123.672	0.767	1157942	WORD_OFF	n/a	n/a	GATE	5	10	[0, 0, 0]	n/a	FR1	1	R1217T
1124.439	1.617	1158709	WORD	n/a	wordpools/wordpool_EN.txt	STOOL	6	10	[0, 0, 0]	n/a	FR1	1	R1217T
1126.056	0.884	1160326	WORD_OFF	n/a	n/a	STOOL	6	10	[0, 0, 0]	n/a	FR1	1	R1217T
1126.94	1.617	1161210	WORD	n/a	wordpools/wordpool_EN.txt	NET	7	10	[0, 0, 0]	n/a	FR1	1	R1217T
1128.557	0.783	1162827	WORD_OFF	n/a	n/a	NET	7	10	[0, 0, 0]	n/a	FR1	1	R1217T
1129.34	1.617	1163610	WORD	n/a	wordpools/wordpool_EN.txt	SALT	8	10	[0, 0, 0]	n/a	FR1	1	R1217T
1130.957	0.767	1165227	WORD_OFF	n/a	n/a	SALT	8	10	[0, 0, 0]	n/a	FR1	1	R1217T
1131.724	1.617	1165993	WORD	n/a	wordpools/wordpool_EN.txt	TAIL	9	10	[0, 0, 0]	n/a	FR1	1	R1217T
1133.341	0.833	1167610	WORD_OFF	n/a	n/a	TAIL	9	10	[0, 0, 0]	n/a	FR1	1	R1217T
1134.174	1.617	1168443	WORD	n/a	wordpools/wordpool_EN.txt	TOY	10	10	[0, 0, 0]	n/a	FR1	1	R1217T
1135.791	0.984	1170060	WORD_OFF	n/a	n/a	TOY	10	10	[0, 0, 0]	n/a	FR1	1	R1217T
1136.775	1.617	1171044	WORD	n/a	wordpools/wordpool_EN.txt	FORT	11	10	[0, 0, 0]	n/a	FR1	1	R1217T
1138.392	0.816	1172661	WORD_OFF	n/a	n/a	FORT	11	10	[0, 0, 0]	n/a	FR1	1	R1217T
1139.208	1.617	1173477	WORD	n/a	wordpools/wordpool_EN.txt	SKY	12	10	[0, 0, 0]	n/a	FR1	1	R1217T
1140.825	0.0	1175094	WORD_OFF	n/a	n/a	SKY	12	10	[0, 0, 0]	n/a	FR1	1	R1217T
1140.825	0.001	1175094	DISTRACT_START	n/a	n/a	n/a	-999	10	[0, 0, 0]	n/a	FR1	1	R1217T
1140.826	0.016	1175095	START	n/a	n/a	n/a	-999	10	[-999, -999, -999]	n/a	FR1	1	R1217T
1140.842	3.084	1175111	PROB	3.084	n/a	n/a	-999	10	[1, 9, 5]	15	FR1	1	R1217T
1143.926	4.1	1178195	PROB	4.1	n/a	n/a	-999	10	[7, 4, 9]	20	FR1	1	R1217T
1148.026	2.851	1182295	PROB	2.851	n/a	n/a	-999	10	[4, 1, 5]	10	FR1	1	R1217T
1150.877	2.867	1185145	PROB	2.867	n/a	n/a	-999	10	[9, 7, 9]	25	FR1	1	R1217T
1153.744	10.347	1188012	PROB	10.347	n/a	n/a	-999	10	[9, 2, 4]	15	FR1	1	R1217T
1164.091	0.022	1198359	STOP	n/a	n/a	n/a	-999	10	[-999, -999, -999]	n/a	FR1	1	R1217T
1164.113	0.55	1198381	DISTRACT_END	n/a	n/a	n/a	-999	10	[0, 0, 0]	n/a	FR1	1	R1217T
1164.663	0.518	1198931	RETRIEVAL_ORIENT	n/a	n/a	n/a	-999	10	[0, 0, 0]	n/a	FR1	1	R1217T
1165.181	3.083	1199448	REC_START	n/a	n/a	n/a	-999	10	[0, 0, 0]	n/a	FR1	1	R1217T
1168.264	0.636	1202531	REC_WORD	0.636	n/a	GATE	5	10	[0, 0, 0]	n/a	FR1	1	R1217T
1168.9	3.986	1203167	REC_WORD	3.986	n/a	STOOL	6	10	[0, 0, 0]	n/a	FR1	1	R1217T
1172.886	22.305	1207153	REC_WORD	22.305	n/a	SOFT	-999	10	[0, 0, 0]	n/a	FR1	1	R1217T
1195.191	5.495	1229457	REC_END	n/a	n/a	n/a	-999	10	[0, 0, 0]	n/a	FR1	1	R1217T
1200.686	0.5	1234951	TRIAL	n/a	n/a	n/a	-999	11	[0, 0, 0]	n/a	FR1	1	R1217T
1201.186	10.428	1235451	COUNTDOWN_START	n/a	n/a	n/a	-999	11	[0, 0, 0]	n/a	FR1	1	R1217T
1211.614	0.008	1245879	COUNTDOWN_END	n/a	n/a	n/a	-999	11	[0, 0, 0]	n/a	FR1	1	R1217T
1211.622	1.617	1245887	ORIENT	n/a	n/a	n/a	-999	11	[0, 0, 0]	n/a	FR1	1	R1217T
1213.239	2.2	1247504	ORIENT_OFF	n/a	n/a	n/a	-999	11	[0, 0, 0]	n/a	FR1	1	R1217T
1215.439	1.617	1249703	WORD	n/a	wordpools/wordpool_EN.txt	BUSH	1	11	[0, 0, 0]	n/a	FR1	1	R1217T
1217.056	0.783	1251320	WORD_OFF	n/a	n/a	BUSH	1	11	[0, 0, 0]	n/a	FR1	1	R1217T
1217.839	1.617	1252103	WORD	n/a	wordpools/wordpool_EN.txt	CAKE	2	11	[0, 0, 0]	n/a	FR1	1	R1217T
1219.456	0.767	1253720	WORD_OFF	n/a	n/a	CAKE	2	11	[0, 0, 0]	n/a	FR1	1	R1217T
1220.223	1.617	1254487	WORD	n/a	wordpools/wordpool_EN.txt	SOUP	3	11	[0, 0, 0]	n/a	FR1	1	R1217T
1221.84	0.934	1256104	WORD_OFF	n/a	n/a	SOUP	3	11	[0, 0, 0]	n/a	FR1	1	R1217T
1222.774	1.617	1257038	WORD	n/a	wordpools/wordpool_EN.txt	ROOF	4	11	[0, 0, 0]	n/a	FR1	1	R1217T
1224.391	0.833	1258655	WORD_OFF	n/a	n/a	ROOF	4	11	[0, 0, 0]	n/a	FR1	1	R1217T
1225.224	1.617	1259488	WORD	n/a	wordpools/wordpool_EN.txt	VINE	5	11	[0, 0, 0]	n/a	FR1	1	R1217T
1226.841	0.817	1261105	WORD_OFF	n/a	n/a	VINE	5	11	[0, 0, 0]	n/a	FR1	1	R1217T
1227.658	1.617	1261922	WORD	n/a	wordpools/wordpool_EN.txt	WEB	6	11	[0, 0, 0]	n/a	FR1	1	R1217T
1229.275	1.0	1263539	WORD_OFF	n/a	n/a	WEB	6	11	[0, 0, 0]	n/a	FR1	1	R1217T
1230.275	1.617	1264539	WORD	n/a	wordpools/wordpool_EN.txt	WHALE	7	11	[0, 0, 0]	n/a	FR1	1	R1217T
1231.892	1.0	1266155	WORD_OFF	n/a	n/a	WHALE	7	11	[0, 0, 0]	n/a	FR1	1	R1217T
1232.892	1.617	1267155	WORD	n/a	wordpools/wordpool_EN.txt	GEESE	8	11	[0, 0, 0]	n/a	FR1	1	R1217T
1234.509	0.934	1268772	WORD_OFF	n/a	n/a	GEESE	8	11	[0, 0, 0]	n/a	FR1	1	R1217T
1235.443	1.617	1269706	WORD	n/a	wordpools/wordpool_EN.txt	MAT	9	11	[0, 0, 0]	n/a	FR1	1	R1217T
1237.06	0.983	1271323	WORD_OFF	n/a	n/a	MAT	9	11	[0, 0, 0]	n/a	FR1	1	R1217T
1238.043	1.617	1272306	WORD	n/a	wordpools/wordpool_EN.txt	MOUTH	10	11	[0, 0, 0]	n/a	FR1	1	R1217T
1239.66	0.883	1273923	WORD_OFF	n/a	n/a	MOUTH	10	11	[0, 0, 0]	n/a	FR1	1	R1217T
1240.543	1.618	1274806	WORD	n/a	wordpools/wordpool_EN.txt	BAG	11	11	[0, 0, 0]	n/a	FR1	1	R1217T
1242.161	0.783	1276424	WORD_OFF	n/a	n/a	BAG	11	11	[0, 0, 0]	n/a	FR1	1	R1217T
1242.944	1.617	1277207	WORD	n/a	wordpools/wordpool_EN.txt	JUICE	12	11	[0, 0, 0]	n/a	FR1	1	R1217T
1244.561	0.0	1278824	WORD_OFF	n/a	n/a	JUICE	12	11	[0, 0, 0]	n/a	FR1	1	R1217T
1244.561	0.001	1278824	DISTRACT_START	n/a	n/a	n/a	-999	11	[0, 0, 0]	n/a	FR1	1	R1217T
1244.562	0.016	1278825	START	n/a	n/a	n/a	-999	11	[-999, -999, -999]	n/a	FR1	1	R1217T
1244.578	4.117	1278841	PROB	4.117	n/a	n/a	-999	11	[3, 4, 1]	8	FR1	1	R1217T
1248.695	3.316	1282957	PROB	3.316	n/a	n/a	-999	11	[4, 8, 4]	16	FR1	1	R1217T
1252.011	2.252	1286273	PROB	2.252	n/a	n/a	-999	11	[3, 2, 4]	9	FR1	1	R1217T
1254.263	5.017	1288525	PROB	5.017	n/a	n/a	-999	11	[9, 2, 6]	17	FR1	1	R1217T
1259.28	9.451	1293542	PROB	9.451	n/a	n/a	-999	11	[1, 6, 5]	12	FR1	1	R1217T
1268.731	0.018	1302992	STOP	n/a	n/a	n/a	-999	11	[-999, -999, -999]	n/a	FR1	1	R1217T
1268.749	0.55	1303010	DISTRACT_END	n/a	n/a	n/a	-999	11	[0, 0, 0]	n/a	FR1	1	R1217T
1269.299	0.517	1303560	RETRIEVAL_ORIENT	n/a	n/a	n/a	-999	11	[0, 0, 0]	n/a	FR1	1	R1217T
1269.816	1.948	1304077	REC_START	n/a	n/a	n/a	-999	11	[0, 0, 0]	n/a	FR1	1	R1217T
1271.764	0.696	1306025	REC_WORD	0.696	n/a	GEESE	8	11	[0, 0, 0]	n/a	FR1	1	R1217T
1272.46	6.739	1306721	REC_WORD	6.739	n/a	WHALE	7	11	[0, 0, 0]	n/a	FR1	1	R1217T
1279.199	2.026	1313460	REC_WORD	2.026	n/a	MAT	9	11	[0, 0, 0]	n/a	FR1	1	R1217T
1281.225	10.404	1315485	REC_WORD	10.404	n/a	BAT	-999	11	[0, 0, 0]	n/a	FR1	1	R1217T
1291.629	8.198	1325889	REC_WORD	8.198	n/a	ROOF	4	11	[0, 0, 0]	n/a	FR1	1	R1217T
1299.827	24.615	1334086	REC_END	n/a	n/a	n/a	-999	11	[0, 0, 0]	n/a	FR1	1	R1217T
1324.442	0.5	1358700	TRIAL	n/a	n/a	n/a	-999	12	[0, 0, 0]	n/a	FR1	1	R1217T
1324.942	10.428	1359200	COUNTDOWN_START	n/a	n/a	n/a	-999	12	[0, 0, 0]	n/a	FR1	1	R1217T
1335.37	0.008	1369627	COUNTDOWN_END	n/a	n/a	n/a	-999	12	[0, 0, 0]	n/a	FR1	1	R1217T
1335.378	1.616	1369635	ORIENT	n/a	n/a	n/a	-999	12	[0, 0, 0]	n/a	FR1	1	R1217T
1336.994	2.033	1371251	ORIENT_OFF	n/a	n/a	n/a	-999	12	[0, 0, 0]	n/a	FR1	1	R1217T
1339.027	1.601	1373284	WORD	n/a	wordpools/wordpool_EN.txt	ROOT	1	12	[0, 0, 0]	n/a	FR1	1	R1217T
1340.628	0.817	1374885	WORD_OFF	n/a	n/a	ROOT	1	12	[0, 0, 0]	n/a	FR1	1	R1217T
1341.445	1.617	1375702	WORD	n/a	wordpools/wordpool_EN.txt	CAPE	2	12	[0, 0, 0]	n/a	FR1	1	R1217T
1343.062	0.934	1377319	WORD_OFF	n/a	n/a	CAPE	2	12	[0, 0, 0]	n/a	FR1	1	R1217T
1343.996	1.617	1378253	WORD	n/a	wordpools/wordpool_EN.txt	BED	3	12	[0, 0, 0]	n/a	FR1	1	R1217T
1345.613	1.0	1379870	WORD_OFF	n/a	n/a	BED	3	12	[0, 0, 0]	n/a	FR1	1	R1217T
1346.613	1.617	1380870	WORD	n/a	wordpools/wordpool_EN.txt	MOOSE	4	12	[0, 0, 0]	n/a	FR1	1	R1217T
1348.23	0.95	1382486	WORD_OFF	n/a	n/a	MOOSE	4	12	[0, 0, 0]	n/a	FR1	1	R1217T
1349.18	1.617	1383436	WORD	n/a	wordpools/wordpool_EN.txt	BEE	5	12	[0, 0, 0]	n/a	FR1	1	R1217T
1350.797	1.017	1385053	WORD_OFF	n/a	n/a	BEE	5	12	[0, 0, 0]	n/a	FR1	1	R1217T
1351.814	1.617	1386070	WORD	n/a	wordpools/wordpool_EN.txt	MAZE	6	12	[0, 0, 0]	n/a	FR1	1	R1217T
1353.431	0.783	1387687	WORD_OFF	n/a	n/a	MAZE	6	12	[0, 0, 0]	n/a	FR1	1	R1217T
1354.214	1.617	1388470	WORD	n/a	wordpools/wordpool_EN.txt	WOLF	7	12	[0, 0, 0]	n/a	FR1	1	R1217T
1355.831	0.867	1390087	WORD_OFF	n/a	n/a	WOLF	7	12	[0, 0, 0]	n/a	FR1	1	R1217T
1356.698	1.617	1390954	WORD	n/a	wordpools/wordpool_EN.txt	SMILE	8	12	[0, 0, 0]	n/a	FR1	1	R1217T
1358.315	0.8	1392571	WORD_OFF	n/a	n/a	SMILE	8	12	[0, 0, 0]	n/a	FR1	1	R1217T
1359.115	1.617	1393371	WORD	n/a	wordpools/wordpool_EN.txt	GLASS	9	12	[0, 0, 0]	n/a	FR1	1	R1217T
1360.732	0.917	1394988	WORD_OFF	n/a	n/a	GLASS	9	12	[0, 0, 0]	n/a	FR1	1	R1217T
1361.649	1.617	1395905	WORD	n/a	wordpools/wordpool_EN.txt	SKUNK	10	12	[0, 0, 0]	n/a	FR1	1	R1217T
1363.266	0.783	1397522	WORD_OFF	n/a	n/a	SKUNK	10	12	[0, 0, 0]	n/a	FR1	1	R1217T
1364.049	1.617	1398305	WORD	n/a	wordpools/wordpool_EN.txt	MILK	11	12	[0, 0, 0]	n/a	FR1	1	R1217T
1365.666	0.984	1399921	WORD_OFF	n/a	n/a	MILK	11	12	[0, 0, 0]	n/a	FR1	1	R1217T
1366.65	1.617	1400905	WORD	n/a	wordpools/wordpool_EN.txt	STORM	12	12	[0, 0, 0]	n/a	FR1	1	R1217T
1368.267	0.0	1402522	WORD_OFF	n/a	n/a	STORM	12	12	[0, 0, 0]	n/a	FR1	1	R1217T
1368.267	0.001	1402522	DISTRACT_START	n/a	n/a	n/a	-999	12	[0, 0, 0]	n/a	FR1	1	R1217T
1368.268	0.016	1402523	START	n/a	n/a	n/a	-999	12	[-999, -999, -999]	n/a	FR1	1	R1217T
1368.284	6.634	1402539	PROB	6.634	n/a	n/a	-999	12	[9, 4, 4]	17	FR1	1	R1217T
1374.918	3.467	1409173	PROB	3.467	n/a	n/a	-999	12	[3, 9, 6]	18	FR1	1	R1217T
1378.385	14.082	1412640	PROB	14.082	n/a	n/a	-999	12	[6, 3, 5]	14	FR1	1	R1217T
1392.467	0.021	1426721	STOP	n/a	n/a	n/a	-999	12	[-999, -999, -999]	n/a	FR1	1	R1217T
1392.488	0.7	1426742	DISTRACT_END	n/a	n/a	n/a	-999	12	[0, 0, 0]	n/a	FR1	1	R1217T
1393.188	0.517	1427442	RETRIEVAL_ORIENT	n/a	n/a	n/a	-999	12	[0, 0, 0]	n/a	FR1	1	R1217T
1393.705	2.007	1427959	REC_START	n/a	n/a	n/a	-999	12	[0, 0, 0]	n/a	FR1	1	R1217T
1395.712	0.365	1429966	REC_WORD_VV	0.365	n/a	<>	-999	12	[0, 0, 0]	n/a	FR1	1	R1217T
1396.077	0.344	1430331	REC_WORD_VV	0.344	n/a	<>	-999	12	[0, 0, 0]	n/a	FR1	1	R1217T
1396.421	0.995	1430675	REC_WORD	0.995	n/a	BEE	5	12	[0, 0, 0]	n/a	FR1	1	R1217T
1397.416	0.223	1431669	REC_WORD_VV	0.223	n/a	<>	-999	12	[0, 0, 0]	n/a	FR1	1	R1217T
1397.639	1.988	1431892	REC_WORD	1.988	n/a	WOLF	7	12	[0, 0, 0]	n/a	FR1	1	R1217T
1399.627	2.387	1433880	REC_WORD	2.387	n/a	MAZE	6	12	[0, 0, 0]	n/a	FR1	1	R1217T
1402.014	6.424	1436267	REC_WORD	6.424	n/a	GLASS	9	12	[0, 0, 0]	n/a	FR1	1	R1217T
1408.438	15.278	1442691	REC_WORD	15.278	n/a	STONE	-999	12	[0, 0, 0]	n/a	FR1	1	R1217T
1423.716	5.462	1457968	REC_END	n/a	n/a	n/a	-999	12	[0, 0, 0]	n/a	FR1	1	R1217T
1429.178	0.5	1463430	TRIAL	n/a	n/a	n/a	-999	13	[0, 0, 0]	n/a	FR1	1	R1217T
1429.678	10.428	1463930	COUNTDOWN_START	n/a	n/a	n/a	-999	13	[0, 0, 0]	n/a	FR1	1	R1217T
1440.106	0.007	1474357	COUNTDOWN_END	n/a	n/a	n/a	-999	13	[0, 0, 0]	n/a	FR1	1	R1217T
1440.113	1.617	1474364	ORIENT	n/a	n/a	n/a	-999	13	[0, 0, 0]	n/a	FR1	1	R1217T
1441.73	2.1	1475981	ORIENT_OFF	n/a	n/a	n/a	-999	13	[0, 0, 0]	n/a	FR1	1	R1217T
1443.83	1.618	1478081	WORD	n/a	wordpools/wordpool_EN.txt	CHAIR	1	13	[0, 0, 0]	n/a	FR1	1	R1217T
1445.448	0.85	1479699	WORD_OFF	n/a	n/a	CHAIR	1	13	[0, 0, 0]	n/a	FR1	1	R1217T
1446.298	1.617	1480549	WORD	n/a	wordpools/wordpool_EN.txt	MOUSE	2	13	[0, 0, 0]	n/a	FR1	1	R1217T
1447.915	0.966	1482165	WORD_OFF	n/a	n/a	MOUSE	2	13	[0, 0, 0]	n/a	FR1	1	R1217T
1448.881	1.601	1483131	WORD	n/a	wordpools/wordpool_EN.txt	DART	3	13	[0, 0, 0]	n/a	FR1	1	R1217T
1450.482	0.767	1484732	WORD_OFF	n/a	n/a	DART	3	13	[0, 0, 0]	n/a	FR1	1	R1217T
1451.249	1.617	1485499	WORD	n/a	wordpools/wordpool_EN.txt	SEED	4	13	[0, 0, 0]	n/a	FR1	1	R1217T
1452.866	0.766	1487116	WORD_OFF	n/a	n/a	SEED	4	13	[0, 0, 0]	n/a	FR1	1	R1217T
1453.632	1.617	1487882	WORD	n/a	wordpools/wordpool_EN.txt	CAT	5	13	[0, 0, 0]	n/a	FR1	1	R1217T
1455.249	0.984	1489499	WORD_OFF	n/a	n/a	CAT	5	13	[0, 0, 0]	n/a	FR1	1	R1217T
1456.233	1.617	1490483	WORD	n/a	wordpools/wordpool_EN.txt	LAKE	6	13	[0, 0, 0]	n/a	FR1	1	R1217T
1457.85	0.833	1492100	WORD_OFF	n/a	n/a	LAKE	6	13	[0, 0, 0]	n/a	FR1	1	R1217T
1458.683	1.617	1492933	WORD	n/a	wordpools/wordpool_EN.txt	HAWK	7	13	[0, 0, 0]	n/a	FR1	1	R1217T
1460.3	0.817	1494550	WORD_OFF	n/a	n/a	HAWK	7	13	[0, 0, 0]	n/a	FR1	1	R1217T
1461.117	1.617	1495367	WORD	n/a	wordpools/wordpool_EN.txt	FLEA	8	13	[0, 0, 0]	n/a	FR1	1	R1217T
1462.734	0.8	1496984	WORD_OFF	n/a	n/a	FLEA	8	13	[0, 0, 0]	n/a	FR1	1	R1217T
1463.534	1.617	1497784	WORD	n/a	wordpools/wordpool_EN.txt	NOSE	9	13	[0, 0, 0]	n/a	FR1	1	R1217T
1465.151	0.984	1499400	WORD_OFF	n/a	n/a	NOSE	9	13	[0, 0, 0]	n/a	FR1	1	R1217T
1466.135	1.616	1500384	WORD	n/a	wordpools/wordpool_EN.txt	SPOON	10	13	[0, 0, 0]	n/a	FR1	1	R1217T
1467.751	1.001	1502000	WORD_OFF	n/a	n/a	SPOON	10	13	[0, 0, 0]	n/a	FR1	1	R1217T
1468.752	1.617	1503001	WORD	n/a	wordpools/wordpool_EN.txt	ICE	11	13	[0, 0, 0]	n/a	FR1	1	R1217T
1470.369	0.933	1504618	WORD_OFF	n/a	n/a	ICE	11	13	[0, 0, 0]	n/a	FR1	1	R1217T
1471.302	1.617	1505551	WORD	n/a	wordpools/wordpool_EN.txt	CHIN	12	13	[0, 0, 0]	n/a	FR1	1	R1217T
1472.919	0.0	1507168	WORD_OFF	n/a	n/a	CHIN	12	13	[0, 0, 0]	n/a	FR1	1	R1217T
1472.919	0.001	1507168	DISTRACT_START	n/a	n/a	n/a	-999	13	[0, 0, 0]	n/a	FR1	1	R1217T
1472.92	0.016	1507169	START	n/a	n/a	n/a	-999	13	[-999, -999, -999]	n/a	FR1	1	R1217T
1472.936	4.734	1507185	PROB	4.734	n/a	n/a	-999	13	[7, 1, 1]	9	FR1	1	R1217T
1477.67	4.751	1511919	PROB	4.751	n/a	n/a	-999	13	[6, 6, 1]	13	FR1	1	R1217T
1482.421	2.917	1516669	PROB	2.917	n/a	n/a	-999	13	[4, 7, 1]	12	FR1	1	R1217T
1485.338	2.884	1519586	PROB	2.884	n/a	n/a	-999	13	[5, 8, 8]	21	FR1	1	R1217T
1488.222	4.667	1522470	PROB	4.667	n/a	n/a	-999	13	[4, 4, 6]	14	FR1	1	R1217T
1492.889	4.441	1527137	PROB	4.441	n/a	n/a	-999	13	[1, 5, 3]	9	FR1	1	R1217T
1497.33	0.01	1531577	STOP	n/a	n/a	n/a	-999	13	[-999, -999, -999]	n/a	FR1	1	R1217T
1497.34	0.6	1531587	DISTRACT_END	n/a	n/a	n/a	-999	13	[0, 0, 0]	n/a	FR1	1	R1217T
1497.94	0.518	1532187	RETRIEVAL_ORIENT	n/a	n/a	n/a	-999	13	[0, 0, 0]	n/a	FR1	1	R1217T
1498.458	1.34	1532705	REC_START	n/a	n/a	n/a	-999	13	[0, 0, 0]	n/a	FR1	1	R1217T
1499.798	0.891	1534045	REC_WORD	0.891	n/a	CAT	5	13	[0, 0, 0]	n/a	FR1	1	R1217T
1500.689	1.212	1534936	REC_WORD	1.212	n/a	MOUSE	2	13	[0, 0, 0]	n/a	FR1	1	R1217T
1501.901	0.861	1536148	REC_WORD	0.861	n/a	HAWK	7	13	[0, 0, 0]	n/a	FR1	1	R1217T
1502.762	1.792	1537009	REC_WORD	1.792	n/a	FLEA	8	13	[0, 0, 0]	n/a	FR1	1	R1217T
1504.554	2.114	1538801	REC_WORD	2.114	n/a	SPOON	10	13	[0, 0, 0]	n/a	FR1	1	R1217T
1506.668	21.801	1540915	REC_WORD	21.801	n/a	ICE	11	13	[0, 0, 0]	n/a	FR1	1	R1217T
1528.469	4.278	1562715	REC_END	n/a	n/a	n/a	-999	13	[0, 0, 0]	n/a	FR1	1	R1217T
1532.747	0.5	1566992	TRIAL	n/a	n/a	n/a	-999	14	[0, 0, 0]	n/a	FR1	1	R1217T
1533.247	10.428	1567492	COUNTDOWN_START	n/a	n/a	n/a	-999	14	[0, 0, 0]	n/a	FR1	1	R1217T
1543.675	0.007	1577920	COUNTDOWN_END	n/a	n/a	n/a	-999	14	[0, 0, 0]	n/a	FR1	1	R1217T
1543.682	1.617	1577927	ORIENT	n/a	n/a	n/a	-999	14	[0, 0, 0]	n/a	FR1	1	R1217T
1545.299	2.05	1579544	ORIENT_OFF	n/a	n/a	n/a	-999	14	[0, 0, 0]	n/a	FR1	1	R1217T
1547.349	1.617	1581593	WORD	n/a	wordpools/wordpool_EN.txt	VEST	1	14	[0, 0, 0]	n/a	FR1	1	R1217T
1548.966	0.984	1583210	WORD_OFF	n/a	n/a	VEST	1	14	[0, 0, 0]	n/a	FR1	1	R1217T
1549.95	1.617	1584194	WORD	n/a	wordpools/wordpool_EN.txt	DOCK	2	14	[0, 0, 0]	n/a	FR1	1	R1217T
1551.567	0.933	1585811	WORD_OFF	n/a	n/a	DOCK	2	14	[0, 0, 0]	n/a	FR1	1	R1217T
1552.5	1.617	1586744	WORD	n/a	wordpools/wordpool_EN.txt	TRAIN	3	14	[0, 0, 0]	n/a	FR1	1	R1217T
1554.117	0.916	1588361	WORD_OFF	n/a	n/a	TRAIN	3	14	[0, 0, 0]	n/a	FR1	1	R1217T
1555.033	1.601	1589277	WORD	n/a	wordpools/wordpool_EN.txt	SHEEP	4	14	[0, 0, 0]	n/a	FR1	1	R1217T
1556.634	0.851	1590878	WORD_OFF	n/a	n/a	SHEEP	4	14	[0, 0, 0]	n/a	FR1	1	R1217T
1557.485	1.616	1591729	WORD	n/a	wordpools/wordpool_EN.txt	SCHOOL	5	14	[0, 0, 0]	n/a	FR1	1	R1217T
1559.101	0.867	1593345	WORD_OFF	n/a	n/a	SCHOOL	5	14	[0, 0, 0]	n/a	FR1	1	R1217T
1559.968	1.617	1594212	WORD	n/a	wordpools/wordpool_EN.txt	BLOOM	6	14	[0, 0, 0]	n/a	FR1	1	R1217T
1561.585	0.817	1595829	WORD_OFF	n/a	n/a	BLOOM	6	14	[0, 0, 0]	n/a	FR1	1	R1217T
1562.402	1.616	1596646	WORD	n/a	wordpools/wordpool_EN.txt	SWORD	7	14	[0, 0, 0]	n/a	FR1	1	R1217T
1564.018	0.968	1598261	WORD_OFF	n/a	n/a	SWORD	7	14	[0, 0, 0]	n/a	FR1	1	R1217T
1564.986	1.617	1599229	WORD	n/a	wordpools/wordpool_EN.txt	CAR	8	14	[0, 0, 0]	n/a	FR1	1	R1217T
1566.603	0.916	1600846	WORD_OFF	n/a	n/a	CAR	8	14	[0, 0, 0]	n/a	FR1	1	R1217T
1567.519	1.618	1601762	WORD	n/a	wordpools/wordpool_EN.txt	LAMP	9	14	[0, 0, 0]	n/a	FR1	1	R1217T
1569.137	0.783	1603380	WORD_OFF	n/a	n/a	LAMP	9	14	[0, 0, 0]	n/a	FR1	1	R1217T
1569.92	1.617	1604163	WORD	n/a	wordpools/wordpool_EN.txt	BRIDGE	10	14	[0, 0, 0]	n/a	FR1	1	R1217T
1571.537	0.8	1605780	WORD_OFF	n/a	n/a	BRIDGE	10	14	[0, 0, 0]	n/a	FR1	1	R1217T
1572.337	1.617	1606580	WORD	n/a	wordpools/wordpool_EN.txt	FROG	11	14	[0, 0, 0]	n/a	FR1	1	R1217T
1573.954	0.85	1608197	WORD_OFF	n/a	n/a	FROG	11	14	[0, 0, 0]	n/a	FR1	1	R1217T
1574.804	1.617	1609047	WORD	n/a	wordpools/wordpool_EN.txt	WHEEL	12	14	[0, 0, 0]	n/a	FR1	1	R1217T
1576.421	0.0	1610664	WORD_OFF	n/a	n/a	WHEEL	12	14	[0, 0, 0]	n/a	FR1	1	R1217T
1576.421	0.001	1610664	DISTRACT_START	n/a	n/a	n/a	-999	14	[0, 0, 0]	n/a	FR1	1	R1217T
1576.422	0.016	1610665	START	n/a	n/a	n/a	-999	14	[-999, -999, -999]	n/a	FR1	1	R1217T
1576.438	3.834	1610681	PROB	3.834	n/a	n/a	-999	14	[3, 2, 3]	8	FR1	1	R1217T
1580.272	3.334	1614514	PROB	3.334	n/a	n/a	-999	14	[5, 5, 7]	17	FR1	1	R1217T
1583.606	2.767	1617848	PROB	2.767	n/a	n/a	-999	14	[4, 6, 5]	15	FR1	1	R1217T
1586.373	2.3	1620615	PROB	2.3	n/a	n/a	-999	14	[5, 3, 3]	11	FR1	1	R1217T
1588.673	2.834	1622915	PROB	2.834	n/a	n/a	-999	14	[2, 6, 5]	13	FR1	1	R1217T
1591.507	2.668	1625749	PROB	2.668	n/a	n/a	-999	14	[9, 2, 1]	12	FR1	1	R1217T
1594.175	7.948	1628417	PROB	7.948	n/a	n/a	-999	14	[8, 6, 2]	16	FR1	1	R1217T
1602.123	0.02	1636364	STOP	n/a	n/a	n/a	-999	14	[-999, -999, -999]	n/a	FR1	1	R1217T
1602.143	0.516	1636384	DISTRACT_END	n/a	n/a	n/a	-999	14	[0, 0, 0]	n/a	FR1	1	R1217T
1602.659	0.518	1636900	RETRIEVAL_ORIENT	n/a	n/a	n/a	-999	14	[0, 0, 0]	n/a	FR1	1	R1217T
1603.177	1.457	1637418	REC_START	n/a	n/a	n/a	-999	14	[0, 0, 0]	n/a	FR1	1	R1217T
1604.634	0.568	1638875	REC_WORD	0.568	n/a	DOCK	2	14	[0, 0, 0]	n/a	FR1	1	R1217T
1605.202	3.035	1639443	REC_WORD	3.035	n/a	HOUSE	-999	14	[0, 0, 0]	n/a	FR1	1	R1217T
1608.237	5.826	1642478	REC_WORD	5.826	n/a	SCHOOL	5	14	[0, 0, 0]	n/a	FR1	1	R1217T
1614.063	19.125	1648303	REC_WORD	19.125	n/a	SHEEP	4	14	[0, 0, 0]	n/a	FR1	1	R1217T
1633.188	4.895	1667427	REC_END	n/a	n/a	n/a	-999	14	[0, 0, 0]	n/a	FR1	1	R1217T
1638.083	0.5	1672322	TRIAL	n/a	n/a	n/a	-999	15	[0, 0, 0]	n/a	FR1	1	R1217T
1638.583	10.428	1672822	COUNTDOWN_START	n/a	n/a	n/a	-999	15	[0, 0, 0]	n/a	FR1	1	R1217T
1649.011	0.005	1683249	COUNTDOWN_END	n/a	n/a	n/a	-999	15	[0, 0, 0]	n/a	FR1	1	R1217T
1649.016	1.602	1683254	ORIENT	n/a	n/a	n/a	-999	15	[0, 0, 0]	n/a	FR1	1	R1217T
1650.618	1.95	1684856	ORIENT_OFF	n/a	n/a	n/a	-999	15	[0, 0, 0]	n/a	FR1	1	R1217T
1652.568	1.617	1686806	WORD	n/a	wordpools/wordpool_EN.txt	BEAK	1	15	[0, 0, 0]	n/a	FR1	1	R1217T
1654.185	0.917	1688423	WORD_OFF	n/a	n/a	BEAK	1	15	[0, 0, 0]	n/a	FR1	1	R1217T
1655.102	1.617	1689340	WORD	n/a	wordpools/wordpool_EN.txt	BOOT	2	15	[0, 0, 0]	n/a	FR1	1	R1217T
1656.719	1.0	1690957	WORD_OFF	n/a	n/a	BOOT	2	15	[0, 0, 0]	n/a	FR1	1	R1217T
1657.719	1.617	1691957	WORD	n/a	wordpools/wordpool_EN.txt	PEACH	3	15	[0, 0, 0]	n/a	FR1	1	R1217T
1659.336	1.001	1693574	WORD_OFF	n/a	n/a	PEACH	3	15	[0, 0, 0]	n/a	FR1	1	R1217T
1660.337	1.616	1694575	WORD	n/a	wordpools/wordpool_EN.txt	TIE	4	15	[0, 0, 0]	n/a	FR1	1	R1217T
1661.953	0.801	1696191	WORD_OFF	n/a	n/a	TIE	4	15	[0, 0, 0]	n/a	FR1	1	R1217T
1662.754	1.617	1696992	WORD	n/a	wordpools/wordpool_EN.txt	GOAT	5	15	[0, 0, 0]	n/a	FR1	1	R1217T
1664.371	0.883	1698608	WORD_OFF	n/a	n/a	GOAT	5	15	[0, 0, 0]	n/a	FR1	1	R1217T
1665.254	1.617	1699491	WORD	n/a	wordpools/wordpool_EN.txt	MUD	6	15	[0, 0, 0]	n/a	FR1	1	R1217T
1666.871	0.9	1701108	WORD_OFF	n/a	n/a	MUD	6	15	[0, 0, 0]	n/a	FR1	1	R1217T
1667.771	1.617	1702008	WORD	n/a	wordpools/wordpool_EN.txt	PIE	7	15	[0, 0, 0]	n/a	FR1	1	R1217T
1669.388	0.784	1703625	WORD_OFF	n/a	n/a	PIE	7	15	[0, 0, 0]	n/a	FR1	1	R1217T
1670.172	1.617	1704409	WORD	n/a	wordpools/wordpool_EN.txt	HAND	8	15	[0, 0, 0]	n/a	FR1	1	R1217T
1671.789	0.95	1706026	WORD_OFF	n/a	n/a	HAND	8	15	[0, 0, 0]	n/a	FR1	1	R1217T
1672.739	1.617	1706976	WORD	n/a	wordpools/wordpool_EN.txt	ROCK	9	15	[0, 0, 0]	n/a	FR1	1	R1217T
1674.356	0.917	1708593	WORD_OFF	n/a	n/a	ROCK	9	15	[0, 0, 0]	n/a	FR1	1	R1217T
1675.273	1.616	1709510	WORD	n/a	wordpools/wordpool_EN.txt	CART	10	15	[0, 0, 0]	n/a	FR1	1	R1217T
1676.889	0.851	1711126	WORD_OFF	n/a	n/a	CART	10	15	[0, 0, 0]	n/a	FR1	1	R1217T
1677.74	1.617	1711977	WORD	n/a	wordpools/wordpool_EN.txt	CRANE	11	15	[0, 0, 0]	n/a	FR1	1	R1217T
1679.357	0.933	1713594	WORD_OFF	n/a	n/a	CRANE	11	15	[0, 0, 0]	n/a	FR1	1	R1217T
1680.29	1.617	1714526	WORD	n/a	wordpools/wordpool_EN.txt	VASE	12	15	[0, 0, 0]	n/a	FR1	1	R1217T
1681.907	0.0	1716143	WORD_OFF	n/a	n/a	VASE	12	15	[0, 0, 0]	n/a	FR1	1	R1217T
1681.907	0.001	1716143	DISTRACT_START	n/a	n/a	n/a	-999	15	[0, 0, 0]	n/a	FR1	1	R1217T
1681.908	0.016	1716144	START	n/a	n/a	n/a	-999	15	[-999, -999, -999]	n/a	FR1	1	R1217T
1681.924	7.901	1716160	PROB	7.901	n/a	n/a	-999	15	[4, 3, 9]	16	FR1	1	R1217T
1689.825	2.784	1724061	PROB	2.784	n/a	n/a	-999	15	[1, 9, 8]	18	FR1	1	R1217T
1692.609	5.218	1726845	PROB	5.218	n/a	n/a	-999	15	[9, 7, 6]	22	FR1	1	R1217T
1697.827	4.084	1732062	PROB	4.084	n/a	n/a	-999	15	[7, 7, 5]	19	FR1	1	R1217T
1701.911	4.035	1736146	PROB	4.035	n/a	n/a	-999	15	[4, 9, 8]	21	FR1	1	R1217T
1705.946	0.015	1740181	STOP	n/a	n/a	n/a	-999	15	[-999, -999, -999]	n/a	FR1	1	R1217T
1705.961	0.517	1740196	DISTRACT_END	n/a	n/a	n/a	-999	15	[0, 0, 0]	n/a	FR1	1	R1217T
1706.478	0.518	1740713	RETRIEVAL_ORIENT	n/a	n/a	n/a	-999	15	[0, 0, 0]	n/a	FR1	1	R1217T
1706.996	2.32	1741231	REC_START	n/a	n/a	n/a	-999	15	[0, 0, 0]	n/a	FR1	1	R1217T
1709.316	16.519	1743551	REC_WORD	16.519	n/a	TIE	4	15	[0, 0, 0]	n/a	FR1	1	R1217T
1725.835	10.766	1760069	REC_WORD	10.766	n/a	CART	10	15	[0, 0, 0]	n/a	FR1	1	R1217T
1736.601	0.403	1770834	REC_WORD	0.403	n/a	GOAT	5	15	[0, 0, 0]	n/a	FR1	1	R1217T
1737.004	4.931	1771237	REC_END	n/a	n/a	n/a	-999	15	[0, 0, 0]	n/a	FR1	1	R1217T
1741.935	0.5	1776168	TRIAL	n/a	n/a	n/a	-999	16	[0, 0, 0]	n/a	FR1	1	R1217T
1742.435	10.428	1776668	COUNTDOWN_START	n/a	n/a	n/a	-999	16	[0, 0, 0]	n/a	FR1	1	R1217T
1752.863	0.007	1787095	COUNTDOWN_END	n/a	n/a	n/a	-999	16	[0, 0, 0]	n/a	FR1	1	R1217T
1752.87	1.617	1787102	ORIENT	n/a	n/a	n/a	-999	16	[0, 0, 0]	n/a	FR1	1	R1217T
1754.487	2.184	1788719	ORIENT_OFF	n/a	n/a	n/a	-999	16	[0, 0, 0]	n/a	FR1	1	R1217T
1756.671	1.617	1790903	WORD	n/a	wordpools/wordpool_EN.txt	FOX	1	16	[0, 0, 0]	n/a	FR1	1	R1217T
1758.288	0.8	1792520	WORD_OFF	n/a	n/a	FOX	1	16	[0, 0, 0]	n/a	FR1	1	R1217T
1759.088	1.617	1793320	WORD	n/a	wordpools/wordpool_EN.txt	TOOTH	2	16	[0, 0, 0]	n/a	FR1	1	R1217T
1760.705	0.883	1794937	WORD_OFF	n/a	n/a	TOOTH	2	16	[0, 0, 0]	n/a	FR1	1	R1217T
1761.588	1.617	1795820	WORD	n/a	wordpools/wordpool_EN.txt	CASH	3	16	[0, 0, 0]	n/a	FR1	1	R1217T
1763.205	0.967	1797436	WORD_OFF	n/a	n/a	CASH	3	16	[0, 0, 0]	n/a	FR1	1	R1217T
1764.172	1.617	1798403	WORD	n/a	wordpools/wordpool_EN.txt	FILM	4	16	[0, 0, 0]	n/a	FR1	1	R1217T
1765.789	1.0	1800020	WORD_OFF	n/a	n/a	FILM	4	16	[0, 0, 0]	n/a	FR1	1	R1217T
1766.789	1.617	1801020	WORD	n/a	wordpools/wordpool_EN.txt	TEETH	5	16	[0, 0, 0]	n/a	FR1	1	R1217T
1768.406	0.784	1802637	WORD_OFF	n/a	n/a	TEETH	5	16	[0, 0, 0]	n/a	FR1	1	R1217T
1769.19	1.617	1803421	WORD	n/a	wordpools/wordpool_EN.txt	NAIL	6	16	[0, 0, 0]	n/a	FR1	1	R1217T
1770.807	0.883	1805038	WORD_OFF	n/a	n/a	NAIL	6	16	[0, 0, 0]	n/a	FR1	1	R1217T
1771.69	1.617	1805921	WORD	n/a	wordpools/wordpool_EN.txt	PEARL	7	16	[0, 0, 0]	n/a	FR1	1	R1217T
1773.307	0.933	1807538	WORD_OFF	n/a	n/a	PEARL	7	16	[0, 0, 0]	n/a	FR1	1	R1217T
1774.24	1.618	1808471	WORD	n/a	wordpools/wordpool_EN.txt	KITE	8	16	[0, 0, 0]	n/a	FR1	1	R1217T
1775.858	0.866	1810089	WORD_OFF	n/a	n/a	KITE	8	16	[0, 0, 0]	n/a	FR1	1	R1217T
1776.724	1.617	1810955	WORD	n/a	wordpools/wordpool_EN.txt	THREAD	9	16	[0, 0, 0]	n/a	FR1	1	R1217T
1778.341	0.9	1812572	WORD_OFF	n/a	n/a	THREAD	9	16	[0, 0, 0]	n/a	FR1	1	R1217T
1779.241	1.617	1813472	WORD	n/a	wordpools/wordpool_EN.txt	CORD	10	16	[0, 0, 0]	n/a	FR1	1	R1217T
1780.858	0.917	1815088	WORD_OFF	n/a	n/a	CORD	10	16	[0, 0, 0]	n/a	FR1	1	R1217T
1781.775	1.617	1816005	WORD	n/a	wordpools/wordpool_EN.txt	JUDGE	11	16	[0, 0, 0]	n/a	FR1	1	R1217T
1783.392	0.867	1817622	WORD_OFF	n/a	n/a	JUDGE	11	16	[0, 0, 0]	n/a	FR1	1	R1217T
1784.259	1.617	1818489	WORD	n/a	wordpools/wordpool_EN.txt	SHEET	12	16	[0, 0, 0]	n/a	FR1	1	R1217T
1785.876	0.0	1820106	DISTRACT_START	n/a	n/a	n/a	-999	16	[0, 0, 0]	n/a	FR1	1	R1217T
1785.876	0.0	1820106	WORD_OFF	n/a	n/a	SHEET	12	16	[0, 0, 0]	n/a	FR1	1	R1217T
1785.876	0.017	1820106	START	n/a	n/a	n/a	-999	16	[-999, -999, -999]	n/a	FR1	1	R1217T
1785.893	5.317	1820123	PROB	5.317	n/a	n/a	-999	16	[6, 1, 5]	12	FR1	1	R1217T
1791.21	3.918	1825440	PROB	3.918	n/a	n/a	-999	16	[9, 1, 8]	18	FR1	1	R1217T
1795.128	3.784	1829358	PROB	3.784	n/a	n/a	-999	16	[6, 3, 8]	17	FR1	1	R1217T
1798.912	6.934	1833141	PROB	6.934	n/a	n/a	-999	16	[4, 3, 2]	9	FR1	1	R1217T
1805.846	3.692	1840075	PROB	3.692	n/a	n/a	-999	16	[4, 2, 4]	10	FR1	1	R1217T
1809.538	0.009	1843767	STOP	n/a	n/a	n/a	-999	16	[-999, -999, -999]	n/a	FR1	1	R1217T
1809.547	0.683	1843776	DISTRACT_END	n/a	n/a	n/a	-999	16	[0, 0, 0]	n/a	FR1	1	R1217T
1810.23	0.518	1844459	RETRIEVAL_ORIENT	n/a	n/a	n/a	-999	16	[0, 0, 0]	n/a	FR1	1	R1217T
1810.748	1.193	1844977	REC_START	n/a	n/a	n/a	-999	16	[0, 0, 0]	n/a	FR1	1	R1217T
1811.941	0.409	1846170	REC_WORD_VV	0.409	n/a	<>	-999	16	[0, 0, 0]	n/a	FR1	1	R1217T
1812.35	0.951	1846579	REC_WORD	0.951	n/a	TOOTH	2	16	[0, 0, 0]	n/a	FR1	1	R1217T
1813.301	1.253	1847529	REC_WORD	1.253	n/a	TEETH	5	16	[0, 0, 0]	n/a	FR1	1	R1217T
1814.554	3.325	1848782	REC_WORD	3.325	n/a	NAIL	6	16	[0, 0, 0]	n/a	FR1	1	R1217T
1817.879	2.48	1852107	REC_WORD	2.48	n/a	PEARL	7	16	[0, 0, 0]	n/a	FR1	1	R1217T
1820.359	20.399	1854587	REC_WORD	20.399	n/a	CASH	3	16	[0, 0, 0]	n/a	FR1	1	R1217T
1840.758	5.244	1874985	REC_END	n/a	n/a	n/a	-999	16	[0, 0, 0]	n/a	FR1	1	R1217T
1846.002	0.5	1880228	TRIAL	n/a	n/a	n/a	-999	17	[0, 0, 0]	n/a	FR1	1	R1217T
1846.502	10.428	1880728	COUNTDOWN_START	n/a	n/a	n/a	-999	17	[0, 0, 0]	n/a	FR1	1	R1217T
1856.93	0.009	1891156	COUNTDOWN_END	n/a	n/a	n/a	-999	17	[0, 0, 0]	n/a	FR1	1	R1217T
1856.939	1.617	1891165	ORIENT	n/a	n/a	n/a	-999	17	[0, 0, 0]	n/a	FR1	1	R1217T
1858.556	1.967	1892782	ORIENT_OFF	n/a	n/a	n/a	-999	17	[0, 0, 0]	n/a	FR1	1	R1217T
1860.523	1.617	1894749	WORD	n/a	wordpools/wordpool_EN.txt	PIG	1	17	[0, 0, 0]	n/a	FR1	1	R1217T
1862.14	0.933	1896366	WORD_OFF	n/a	n/a	PIG	1	17	[0, 0, 0]	n/a	FR1	1	R1217T
1863.073	1.617	1897298	WORD	n/a	wordpools/wordpool_EN.txt	BOAT	2	17	[0, 0, 0]	n/a	FR1	1	R1217T
1864.69	0.95	1898915	WORD_OFF	n/a	n/a	BOAT	2	17	[0, 0, 0]	n/a	FR1	1	R1217T
1865.64	1.601	1899865	WORD	n/a	wordpools/wordpool_EN.txt	FENCE	3	17	[0, 0, 0]	n/a	FR1	1	R1217T
1867.241	0.866	1901466	WORD_OFF	n/a	n/a	FENCE	3	17	[0, 0, 0]	n/a	FR1	1	R1217T
1868.107	1.618	1902332	WORD	n/a	wordpools/wordpool_EN.txt	PIT	4	17	[0, 0, 0]	n/a	FR1	1	R1217T
1869.725	0.966	1903950	WORD_OFF	n/a	n/a	PIT	4	17	[0, 0, 0]	n/a	FR1	1	R1217T
1870.691	1.617	1904916	WORD	n/a	wordpools/wordpool_EN.txt	RIB	5	17	[0, 0, 0]	n/a	FR1	1	R1217T
1872.308	0.934	1906533	WORD_OFF	n/a	n/a	RIB	5	17	[0, 0, 0]	n/a	FR1	1	R1217T
1873.242	1.617	1907467	WORD	n/a	wordpools/wordpool_EN.txt	RUG	6	17	[0, 0, 0]	n/a	FR1	1	R1217T
1874.859	0.833	1909084	WORD_OFF	n/a	n/a	RUG	6	17	[0, 0, 0]	n/a	FR1	1	R1217T
1875.692	1.617	1909917	WORD	n/a	wordpools/wordpool_EN.txt	SOCK	7	17	[0, 0, 0]	n/a	FR1	1	R1217T
1877.309	0.884	1911534	WORD_OFF	n/a	n/a	SOCK	7	17	[0, 0, 0]	n/a	FR1	1	R1217T
1878.193	1.617	1912418	WORD	n/a	wordpools/wordpool_EN.txt	CLOWN	8	17	[0, 0, 0]	n/a	FR1	1	R1217T
1879.81	0.95	1914034	WORD_OFF	n/a	n/a	CLOWN	8	17	[0, 0, 0]	n/a	FR1	1	R1217T
1880.76	1.617	1914984	WORD	n/a	wordpools/wordpool_EN.txt	MAP	9	17	[0, 0, 0]	n/a	FR1	1	R1217T
1882.377	0.9	1916601	WORD_OFF	n/a	n/a	MAP	9	17	[0, 0, 0]	n/a	FR1	1	R1217T
1883.277	1.617	1917501	WORD	n/a	wordpools/wordpool_EN.txt	TRAY	10	17	[0, 0, 0]	n/a	FR1	1	R1217T
1884.894	1.0	1919118	WORD_OFF	n/a	n/a	TRAY	10	17	[0, 0, 0]	n/a	FR1	1	R1217T
1885.894	1.617	1920118	WORD	n/a	wordpools/wordpool_EN.txt	DOG	11	17	[0, 0, 0]	n/a	FR1	1	R1217T
1887.511	0.934	1921735	WORD_OFF	n/a	n/a	DOG	11	17	[0, 0, 0]	n/a	FR1	1	R1217T
1888.445	1.616	1922669	WORD	n/a	wordpools/wordpool_EN.txt	ROPE	12	17	[0, 0, 0]	n/a	FR1	1	R1217T
1890.061	0.0	1924285	WORD_OFF	n/a	n/a	ROPE	12	17	[0, 0, 0]	n/a	FR1	1	R1217T
1890.061	0.001	1924285	DISTRACT_START	n/a	n/a	n/a	-999	17	[0, 0, 0]	n/a	FR1	1	R1217T
1890.062	0.016	1924286	START	n/a	n/a	n/a	-999	17	[-999, -999, -999]	n/a	FR1	1	R1217T
1890.078	3.968	1924302	PROB	3.968	n/a	n/a	-999	17	[4, 2, 7]	13	FR1	1	R1217T
1894.046	3.983	1928270	PROB	3.983	n/a	n/a	-999	17	[5, 8, 7]	20	FR1	1	R1217T
1898.029	5.318	1932252	PROB	5.318	n/a	n/a	-999	17	[5, 9, 9]	23	FR1	1	R1217T
1903.347	3.518	1937570	PROB	3.518	n/a	n/a	-999	17	[8, 8, 4]	20	FR1	1	R1217T
1906.865	4.906	1941088	PROB	4.906	n/a	n/a	-999	17	[2, 5, 6]	13	FR1	1	R1217T
1911.771	0.011	1945994	STOP	n/a	n/a	n/a	-999	17	[-999, -999, -999]	n/a	FR1	1	R1217T
1911.782	0.6	1946005	DISTRACT_END	n/a	n/a	n/a	-999	17	[0, 0, 0]	n/a	FR1	1	R1217T
1912.382	0.518	1946605	RETRIEVAL_ORIENT	n/a	n/a	n/a	-999	17	[0, 0, 0]	n/a	FR1	1	R1217T
1912.9	4.394	1947122	REC_START	n/a	n/a	n/a	-999	17	[0, 0, 0]	n/a	FR1	1	R1217T
1917.294	0.588	1951516	REC_WORD	0.588	n/a	BOAT	2	17	[0, 0, 0]	n/a	FR1	1	R1217T
1917.882	0.76	1952104	REC_WORD_VV	0.76	n/a	<>	-999	17	[0, 0, 0]	n/a	FR1	1	R1217T
1918.642	0.595	1952864	REC_WORD_VV	0.595	n/a	<>	-999	17	[0, 0, 0]	n/a	FR1	1	R1217T
1919.237	17.636	1953459	REC_WORD	17.636	n/a	FENCE	3	17	[0, 0, 0]	n/a	FR1	1	R1217T
1936.873	1.958	1971094	REC_WORD	1.958	n/a	KALE	-999	17	[0, 0, 0]	n/a	FR1	1	R1217T
1938.831	4.079	1973052	REC_WORD_VV	4.079	n/a	<>	-999	17	[0, 0, 0]	n/a	FR1	1	R1217T
1942.91	5.129	1977131	REC_END	n/a	n/a	n/a	-999	17	[0, 0, 0]	n/a	FR1	1	R1217T
1948.039	0.5	1982259	TRIAL	n/a	n/a	n/a	-999	18	[0, 0, 0]	n/a	FR1	1	R1217T
1948.539	10.428	1982759	COUNTDOWN_START	n/a	n/a	n/a	-999	18	[0, 0, 0]	n/a	FR1	1	R1217T
1958.967	0.007	1993187	COUNTDOWN_END	n/a	n/a	n/a	-999	18	[0, 0, 0]	n/a	FR1	1	R1217T
1958.974	1.617	1993194	ORIENT	n/a	n/a	n/a	-999	18	[0, 0, 0]	n/a	FR1	1	R1217T
1960.591	2.217	1994811	ORIENT_OFF	n/a	n/a	n/a	-999	18	[0, 0, 0]	n/a	FR1	1	R1217T
1962.808	1.617	1997027	WORD	n/a	wordpools/wordpool_EN.txt	ANT	1	18	[0, 0, 0]	n/a	FR1	1	R1217T
1964.425	0.867	1998644	WORD_OFF	n/a	n/a	ANT	1	18	[0, 0, 0]	n/a	FR1	1	R1217T
1965.292	1.617	1999511	WORD	n/a	wordpools/wordpool_EN.txt	DIME	2	18	[0, 0, 0]	n/a	FR1	1	R1217T
1966.909	0.983	2001128	WORD_OFF	n/a	n/a	DIME	2	18	[0, 0, 0]	n/a	FR1	1	R1217T
1967.892	1.617	2002111	WORD	n/a	wordpools/wordpool_EN.txt	FUDGE	3	18	[0, 0, 0]	n/a	FR1	1	R1217T
1969.509	0.784	2003728	WORD_OFF	n/a	n/a	FUDGE	3	18	[0, 0, 0]	n/a	FR1	1	R1217T
1970.293	1.617	2004512	WORD	n/a	wordpools/wordpool_EN.txt	DOLL	4	18	[0, 0, 0]	n/a	FR1	1	R1217T
1971.91	0.816	2006129	WORD_OFF	n/a	n/a	DOLL	4	18	[0, 0, 0]	n/a	FR1	1	R1217T
1972.726	1.618	2006945	WORD	n/a	wordpools/wordpool_EN.txt	PASTE	5	18	[0, 0, 0]	n/a	FR1	1	R1217T
1974.344	0.966	2008563	WORD_OFF	n/a	n/a	PASTE	5	18	[0, 0, 0]	n/a	FR1	1	R1217T
1975.31	1.617	2009529	WORD	n/a	wordpools/wordpool_EN.txt	CHEEK	6	18	[0, 0, 0]	n/a	FR1	1	R1217T
1976.927	0.934	2011146	WORD_OFF	n/a	n/a	CHEEK	6	18	[0, 0, 0]	n/a	FR1	1	R1217T
1977.861	1.617	2012080	WORD	n/a	wordpools/wordpool_EN.txt	GRASS	7	18	[0, 0, 0]	n/a	FR1	1	R1217T
1979.478	0.983	2013696	WORD_OFF	n/a	n/a	GRASS	7	18	[0, 0, 0]	n/a	FR1	1	R1217T
1980.461	1.617	2014679	WORD	n/a	wordpools/wordpool_EN.txt	HILL	8	18	[0, 0, 0]	n/a	FR1	1	R1217T
1982.078	0.984	2016296	WORD_OFF	n/a	n/a	HILL	8	18	[0, 0, 0]	n/a	FR1	1	R1217T
1983.062	1.617	2017280	WORD	n/a	wordpools/wordpool_EN.txt	LEAF	9	18	[0, 0, 0]	n/a	FR1	1	R1217T
1984.679	0.95	2018897	WORD_OFF	n/a	n/a	LEAF	9	18	[0, 0, 0]	n/a	FR1	1	R1217T
1985.629	1.617	2019847	WORD	n/a	wordpools/wordpool_EN.txt	PEAR	10	18	[0, 0, 0]	n/a	FR1	1	R1217T
1987.246	0.85	2021464	WORD_OFF	n/a	n/a	PEAR	10	18	[0, 0, 0]	n/a	FR1	1	R1217T
1988.096	1.617	2022314	WORD	n/a	wordpools/wordpool_EN.txt	TOAST	11	18	[0, 0, 0]	n/a	FR1	1	R1217T
1989.713	0.867	2023931	WORD_OFF	n/a	n/a	TOAST	11	18	[0, 0, 0]	n/a	FR1	1	R1217T
1990.58	1.617	2024798	WORD	n/a	wordpools/wordpool_EN.txt	TOAD	12	18	[0, 0, 0]	n/a	FR1	1	R1217T
1992.197	0.0	2026415	DISTRACT_START	n/a	n/a	n/a	-999	18	[0, 0, 0]	n/a	FR1	1	R1217T
1992.197	0.0	2026415	WORD_OFF	n/a	n/a	TOAD	12	18	[0, 0, 0]	n/a	FR1	1	R1217T
1992.197	0.016	2026415	START	n/a	n/a	n/a	-999	18	[-999, -999, -999]	n/a	FR1	1	R1217T
1992.213	4.201	2026431	PROB	4.201	n/a	n/a	-999	18	[3, 6, 6]	15	FR1	1	R1217T
1996.414	3.567	2030631	PROB	3.567	n/a	n/a	-999	18	[9, 4, 8]	21	FR1	1	R1217T
1999.981	3.318	2034198	PROB	3.318	n/a	n/a	-999	18	[3, 2, 2]	7	FR1	1	R1217T
2003.299	3.234	2037516	PROB	3.234	n/a	n/a	-999	18	[7, 3, 4]	15	FR1	1	R1217T
2006.533	3.817	2040750	PROB	3.817	n/a	n/a	-999	18	[6, 5, 6]	17	FR1	1	R1217T
2010.35	28.701	2044567	PROB	28.701	n/a	n/a	-999	18	[9, 6, 8]	23	FR1	1	R1217T
2039.051	0.021	2073266	STOP	n/a	n/a	n/a	-999	18	[-999, -999, -999]	n/a	FR1	1	R1217T
2039.072	0.617	2073287	DISTRACT_END	n/a	n/a	n/a	-999	18	[0, 0, 0]	n/a	FR1	1	R1217T
2039.689	0.517	2073904	RETRIEVAL_ORIENT	n/a	n/a	n/a	-999	18	[0, 0, 0]	n/a	FR1	1	R1217T
2040.206	1.446	2074421	REC_START	n/a	n/a	n/a	-999	18	[0, 0, 0]	n/a	FR1	1	R1217T
2041.652	28.563	2075867	REC_WORD_VV	28.563	n/a	<>	-999	18	[0, 0, 0]	n/a	FR1	1	R1217T
2070.215	5.213	2104428	REC_END	n/a	n/a	n/a	-999	18	[0, 0, 0]	n/a	FR1	1	R1217T
2075.428	0.5	2109641	TRIAL	n/a	n/a	n/a	-999	19	[0, 0, 0]	n/a	FR1	1	R1217T
2075.928	10.428	2110141	COUNTDOWN_START	n/a	n/a	n/a	-999	19	[0, 0, 0]	n/a	FR1	1	R1217T
2086.356	0.008	2120568	COUNTDOWN_END	n/a	n/a	n/a	-999	19	[0, 0, 0]	n/a	FR1	1	R1217T
2086.364	1.617	2120576	ORIENT	n/a	n/a	n/a	-999	19	[0, 0, 0]	n/a	FR1	1	R1217T
2087.981	2.25	2122193	ORIENT_OFF	n/a	n/a	n/a	-999	19	[0, 0, 0]	n/a	FR1	1	R1217T
2090.231	1.617	2124443	WORD	n/a	wordpools/wordpool_EN.txt	SUIT	1	19	[0, 0, 0]	n/a	FR1	1	R1217T
2091.848	0.85	2126060	WORD_OFF	n/a	n/a	SUIT	1	19	[0, 0, 0]	n/a	FR1	1	R1217T
2092.698	1.617	2126910	WORD	n/a	wordpools/wordpool_EN.txt	BROOM	2	19	[0, 0, 0]	n/a	FR1	1	R1217T
2094.315	0.784	2128527	WORD_OFF	n/a	n/a	BROOM	2	19	[0, 0, 0]	n/a	FR1	1	R1217T
2095.099	1.617	2129311	WORD	n/a	wordpools/wordpool_EN.txt	LAWN	3	19	[0, 0, 0]	n/a	FR1	1	R1217T
2096.716	0.967	2130927	WORD_OFF	n/a	n/a	LAWN	3	19	[0, 0, 0]	n/a	FR1	1	R1217T
2097.683	1.617	2131894	WORD	n/a	wordpools/wordpool_EN.txt	BENCH	4	19	[0, 0, 0]	n/a	FR1	1	R1217T
2099.3	0.9	2133511	WORD_OFF	n/a	n/a	BENCH	4	19	[0, 0, 0]	n/a	FR1	1	R1217T
2100.2	1.617	2134411	WORD	n/a	wordpools/wordpool_EN.txt	HOSE	5	19	[0, 0, 0]	n/a	FR1	1	R1217T
2101.817	0.8	2136028	WORD_OFF	n/a	n/a	HOSE	5	19	[0, 0, 0]	n/a	FR1	1	R1217T
2102.617	1.617	2136828	WORD	n/a	wordpools/wordpool_EN.txt	PARK	6	19	[0, 0, 0]	n/a	FR1	1	R1217T
2104.234	0.917	2138445	WORD_OFF	n/a	n/a	PARK	6	19	[0, 0, 0]	n/a	FR1	1	R1217T
2105.151	1.617	2139362	WORD	n/a	wordpools/wordpool_EN.txt	WEED	7	19	[0, 0, 0]	n/a	FR1	1	R1217T
2106.768	0.8	2140979	WORD_OFF	n/a	n/a	WEED	7	19	[0, 0, 0]	n/a	FR1	1	R1217T
2107.568	1.617	2141779	WORD	n/a	wordpools/wordpool_EN.txt	HOUSE	8	19	[0, 0, 0]	n/a	FR1	1	R1217T
2109.185	0.783	2143396	WORD_OFF	n/a	n/a	HOUSE	8	19	[0, 0, 0]	n/a	FR1	1	R1217T
2109.968	1.617	2144179	WORD	n/a	wordpools/wordpool_EN.txt	CAGE	9	19	[0, 0, 0]	n/a	FR1	1	R1217T
2111.585	1.0	2145796	WORD_OFF	n/a	n/a	CAGE	9	19	[0, 0, 0]	n/a	FR1	1	R1217T
2112.585	1.617	2146795	WORD	n/a	wordpools/wordpool_EN.txt	TEA	10	19	[0, 0, 0]	n/a	FR1	1	R1217T
2114.202	0.933	2148412	WORD_OFF	n/a	n/a	TEA	10	19	[0, 0, 0]	n/a	FR1	1	R1217T
2115.135	1.618	2149345	WORD	n/a	wordpools/wordpool_EN.txt	TANK	11	19	[0, 0, 0]	n/a	FR1	1	R1217T
2116.753	0.8	2150963	WORD_OFF	n/a	n/a	TANK	11	19	[0, 0, 0]	n/a	FR1	1	R1217T
2117.553	1.617	2151763	WORD	n/a	wordpools/wordpool_EN.txt	POOL	12	19	[0, 0, 0]	n/a	FR1	1	R1217T
2119.17	0.0	2153380	WORD_OFF	n/a	n/a	POOL	12	19	[0, 0, 0]	n/a	FR1	1	R1217T
2119.17	0.0	2153380	DISTRACT_START	n/a	n/a	n/a	-999	19	[0, 0, 0]	n/a	FR1	1	R1217T
2119.17	0.016	2153380	START	n/a	n/a	n/a	-999	19	[-999, -999, -999]	n/a	FR1	1	R1217T
2119.186	5.817	2153396	PROB	5.817	n/a	n/a	-999	19	[7, 6, 3]	16	FR1	1	R1217T
2125.003	3.218	2159213	PROB	3.218	n/a	n/a	-999	19	[2, 3, 3]	8	FR1	1	R1217T
2128.221	3.351	2162431	PROB	3.351	n/a	n/a	-999	19	[2, 8, 4]	14	FR1	1	R1217T
2131.572	2.4	2165781	PROB	2.4	n/a	n/a	-999	19	[3, 9, 1]	13	FR1	1	R1217T
2133.972	3.151	2168181	PROB	3.151	n/a	n/a	-999	19	[9, 1, 6]	16	FR1	1	R1217T
2137.123	9.44	2171332	PROB	9.44	n/a	n/a	-999	19	[8, 9, 3]	20	FR1	1	R1217T
2146.563	0.012	2180771	STOP	n/a	n/a	n/a	-999	19	[-999, -999, -999]	n/a	FR1	1	R1217T
2146.575	0.633	2180783	DISTRACT_END	n/a	n/a	n/a	-999	19	[0, 0, 0]	n/a	FR1	1	R1217T
2147.208	0.52	2181416	RETRIEVAL_ORIENT	n/a	n/a	n/a	-999	19	[0, 0, 0]	n/a	FR1	1	R1217T
2147.728	2.073	2181936	REC_START	n/a	n/a	n/a	-999	19	[0, 0, 0]	n/a	FR1	1	R1217T
2149.801	0.914	2184009	REC_WORD	0.914	n/a	BENCH	4	19	[0, 0, 0]	n/a	FR1	1	R1217T
2150.715	2.498	2184923	REC_WORD	2.498	n/a	WEED	7	19	[0, 0, 0]	n/a	FR1	1	R1217T
2153.213	0.793	2187421	REC_WORD	0.793	n/a	TREE	-999	19	[0, 0, 0]	n/a	FR1	1	R1217T
2154.006	1.379	2188214	REC_WORD	1.379	n/a	PARK	6	19	[0, 0, 0]	n/a	FR1	1	R1217T
2155.385	2.108	2189593	REC_WORD	2.108	n/a	GRASS	-999	19	[0, 0, 0]	n/a	FR1	1	R1217T
2157.493	0.951	2191701	REC_WORD	0.951	n/a	WEED	7	19	[0, 0, 0]	n/a	FR1	1	R1217T
2158.444	3.796	2192652	REC_WORD	3.796	n/a	LAWN	3	19	[0, 0, 0]	n/a	FR1	1	R1217T
2162.24	15.496	2196447	REC_WORD	15.496	n/a	DIME	-999	19	[0, 0, 0]	n/a	FR1	1	R1217T
2177.736	5.045	2211943	REC_END	n/a	n/a	n/a	-999	19	[0, 0, 0]	n/a	FR1	1	R1217T
2182.781	0.5	2216987	TRIAL	n/a	n/a	n/a	-999	20	[0, 0, 0]	n/a	FR1	1	R1217T
2183.281	10.428	2217487	COUNTDOWN_START	n/a	n/a	n/a	-999	20	[0, 0, 0]	n/a	FR1	1	R1217T
2193.709	0.008	2227915	COUNTDOWN_END	n/a	n/a	n/a	-999	20	[0, 0, 0]	n/a	FR1	1	R1217T
2193.717	1.617	2227923	ORIENT	n/a	n/a	n/a	-999	20	[0, 0, 0]	n/a	FR1	1	R1217T
2195.334	2.133	2229539	ORIENT_OFF	n/a	n/a	n/a	-999	20	[0, 0, 0]	n/a	FR1	1	R1217T
2197.467	1.617	2231672	WORD	n/a	wordpools/wordpool_EN.txt	BRANCH	1	20	[0, 0, 0]	n/a	FR1	1	R1217T
2199.084	0.95	2233289	WORD_OFF	n/a	n/a	BRANCH	1	20	[0, 0, 0]	n/a	FR1	1	R1217T
2200.034	1.617	2234239	WORD	n/a	wordpools/wordpool_EN.txt	DOOR	2	20	[0, 0, 0]	n/a	FR1	1	R1217T
2201.651	0.984	2235856	WORD_OFF	n/a	n/a	DOOR	2	20	[0, 0, 0]	n/a	FR1	1	R1217T
2202.635	1.617	2236840	WORD	n/a	wordpools/wordpool_EN.txt	SAIL	3	20	[0, 0, 0]	n/a	FR1	1	R1217T
2204.252	0.766	2238457	WORD_OFF	n/a	n/a	SAIL	3	20	[0, 0, 0]	n/a	FR1	1	R1217T
2205.018	1.618	2239223	WORD	n/a	wordpools/wordpool_EN.txt	WALL	4	20	[0, 0, 0]	n/a	FR1	1	R1217T
2206.636	1.0	2240841	WORD_OFF	n/a	n/a	WALL	4	20	[0, 0, 0]	n/a	FR1	1	R1217T
2207.636	1.617	2241841	WORD	n/a	wordpools/wordpool_EN.txt	DESK	5	20	[0, 0, 0]	n/a	FR1	1	R1217T
2209.253	0.8	2243458	WORD_OFF	n/a	n/a	DESK	5	20	[0, 0, 0]	n/a	FR1	1	R1217T
2210.053	1.617	2244258	WORD	n/a	wordpools/wordpool_EN.txt	PURSE	6	20	[0, 0, 0]	n/a	FR1	1	R1217T
2211.67	0.817	2245874	WORD_OFF	n/a	n/a	PURSE	6	20	[0, 0, 0]	n/a	FR1	1	R1217T
2212.487	1.617	2246691	WORD	n/a	wordpools/wordpool_EN.txt	OAK	7	20	[0, 0, 0]	n/a	FR1	1	R1217T
2214.104	0.932	2248308	WORD_OFF	n/a	n/a	OAK	7	20	[0, 0, 0]	n/a	FR1	1	R1217T
2215.036	1.618	2249240	WORD	n/a	wordpools/wordpool_EN.txt	THUMB	8	20	[0, 0, 0]	n/a	FR1	1	R1217T
2216.654	1.0	2250858	WORD_OFF	n/a	n/a	THUMB	8	20	[0, 0, 0]	n/a	FR1	1	R1217T
2217.654	1.617	2251858	WORD	n/a	wordpools/wordpool_EN.txt	HORN	9	20	[0, 0, 0]	n/a	FR1	1	R1217T
2219.271	0.917	2253475	WORD_OFF	n/a	n/a	HORN	9	20	[0, 0, 0]	n/a	FR1	1	R1217T
2220.188	1.617	2254392	WORD	n/a	wordpools/wordpool_EN.txt	SLUSH	10	20	[0, 0, 0]	n/a	FR1	1	R1217T
2221.805	0.767	2256009	WORD_OFF	n/a	n/a	SLUSH	10	20	[0, 0, 0]	n/a	FR1	1	R1217T
2222.572	1.617	2256776	WORD	n/a	wordpools/wordpool_EN.txt	YARD	11	20	[0, 0, 0]	n/a	FR1	1	R1217T
2224.189	0.832	2258393	WORD_OFF	n/a	n/a	YARD	11	20	[0, 0, 0]	n/a	FR1	1	R1217T
2225.021	1.601	2259225	WORD	n/a	wordpools/wordpool_EN.txt	ROSE	12	20	[0, 0, 0]	n/a	FR1	1	R1217T
2226.622	0.0	2260826	WORD_OFF	n/a	n/a	ROSE	12	20	[0, 0, 0]	n/a	FR1	1	R1217T
2226.622	0.001	2260826	DISTRACT_START	n/a	n/a	n/a	-999	20	[0, 0, 0]	n/a	FR1	1	R1217T
2226.623	0.016	2260827	START	n/a	n/a	n/a	-999	20	[-999, -999, -999]	n/a	FR1	1	R1217T
2226.639	4.401	2260843	PROB	4.401	n/a	n/a	-999	20	[3, 5, 1]	9	FR1	1	R1217T
2231.04	3.317	2265243	PROB	3.317	n/a	n/a	-999	20	[3, 2, 9]	14	FR1	1	R1217T
2234.357	2.868	2268560	PROB	2.868	n/a	n/a	-999	20	[7, 1, 9]	17	FR1	1	R1217T
2237.225	6.401	2271428	PROB	6.401	n/a	n/a	-999	20	[5, 9, 3]	17	FR1	1	R1217T
2243.626	6.936	2277829	PROB	6.936	n/a	n/a	-999	20	[5, 3, 1]	9	FR1	1	R1217T
2250.562	0.015	2284764	STOP	n/a	n/a	n/a	-999	20	[-999, -999, -999]	n/a	FR1	1	R1217T
2250.577	0.65	2284779	DISTRACT_END	n/a	n/a	n/a	-999	20	[0, 0, 0]	n/a	FR1	1	R1217T
2251.227	0.517	2285429	RETRIEVAL_ORIENT	n/a	n/a	n/a	-999	20	[0, 0, 0]	n/a	FR1	1	R1217T
2251.744	2.434	2285946	REC_START	n/a	n/a	n/a	-999	20	[0, 0, 0]	n/a	FR1	1	R1217T
2254.178	1.233	2288380	REC_WORD	1.233	n/a	BENCH	-999	20	[0, 0, 0]	n/a	FR1	1	R1217T
2255.411	9.203	2289613	REC_WORD	9.203	n/a	ROSE	12	20	[0, 0, 0]	n/a	FR1	1	R1217T
2264.614	14.865	2298815	REC_WORD	14.865	n/a	YARD	11	20	[0, 0, 0]	n/a	FR1	1	R1217T
2279.479	2.277	2313679	REC_WORD	2.277	n/a	RANCH	-999	20	[0, 0, 0]	n/a	FR1	1	R1217T
2281.756	5.028	2315956	REC_END	n/a	n/a	n/a	-999	20	[0, 0, 0]	n/a	FR1	1	R1217T
2286.784	0.5	2320984	TRIAL	n/a	n/a	n/a	-999	21	[0, 0, 0]	n/a	FR1	1	R1217T
2287.284	10.428	2321484	COUNTDOWN_START	n/a	n/a	n/a	-999	21	[0, 0, 0]	n/a	FR1	1	R1217T
2297.712	0.007	2331911	COUNTDOWN_END	n/a	n/a	n/a	-999	21	[0, 0, 0]	n/a	FR1	1	R1217T
2297.719	1.617	2331918	ORIENT	n/a	n/a	n/a	-999	21	[0, 0, 0]	n/a	FR1	1	R1217T
2299.336	2.25	2333535	ORIENT_OFF	n/a	n/a	n/a	-999	21	[0, 0, 0]	n/a	FR1	1	R1217T
2301.586	1.617	2335785	WORD	n/a	wordpools/wordpool_EN.txt	SHELL	1	21	[0, 0, 0]	n/a	FR1	1	R1217T
2303.203	0.867	2337402	WORD_OFF	n/a	n/a	SHELL	1	21	[0, 0, 0]	n/a	FR1	1	R1217T
2304.07	1.617	2338269	WORD	n/a	wordpools/wordpool_EN.txt	COW	2	21	[0, 0, 0]	n/a	FR1	1	R1217T
2305.687	0.934	2339886	WORD_OFF	n/a	n/a	COW	2	21	[0, 0, 0]	n/a	FR1	1	R1217T
2306.621	1.616	2340820	WORD	n/a	wordpools/wordpool_EN.txt	FOAM	3	21	[0, 0, 0]	n/a	FR1	1	R1217T
2308.237	0.901	2342436	WORD_OFF	n/a	n/a	FOAM	3	21	[0, 0, 0]	n/a	FR1	1	R1217T
2309.138	1.617	2343337	WORD	n/a	wordpools/wordpool_EN.txt	DUCK	4	21	[0, 0, 0]	n/a	FR1	1	R1217T
2310.755	0.883	2344954	WORD_OFF	n/a	n/a	DUCK	4	21	[0, 0, 0]	n/a	FR1	1	R1217T
2311.638	1.617	2345836	WORD	n/a	wordpools/wordpool_EN.txt	BAT	5	21	[0, 0, 0]	n/a	FR1	1	R1217T
2313.255	0.95	2347453	WORD_OFF	n/a	n/a	BAT	5	21	[0, 0, 0]	n/a	FR1	1	R1217T
2314.205	1.617	2348403	WORD	n/a	wordpools/wordpool_EN.txt	JEEP	6	21	[0, 0, 0]	n/a	FR1	1	R1217T
2315.822	0.967	2350020	WORD_OFF	n/a	n/a	JEEP	6	21	[0, 0, 0]	n/a	FR1	1	R1217T
2316.789	1.617	2350987	WORD	n/a	wordpools/wordpool_EN.txt	STEAM	7	21	[0, 0, 0]	n/a	FR1	1	R1217T
2318.406	0.817	2352604	WORD_OFF	n/a	n/a	STEAM	7	21	[0, 0, 0]	n/a	FR1	1	R1217T
2319.223	1.617	2353421	WORD	n/a	wordpools/wordpool_EN.txt	ELF	8	21	[0, 0, 0]	n/a	FR1	1	R1217T
2320.84	0.95	2355038	WORD_OFF	n/a	n/a	ELF	8	21	[0, 0, 0]	n/a	FR1	1	R1217T
2321.79	1.617	2355988	WORD	n/a	wordpools/wordpool_EN.txt	FLAME	9	21	[0, 0, 0]	n/a	FR1	1	R1217T
2323.407	0.9	2357605	WORD_OFF	n/a	n/a	FLAME	9	21	[0, 0, 0]	n/a	FR1	1	R1217T
2324.307	1.617	2358505	WORD	n/a	wordpools/wordpool_EN.txt	BADGE	10	21	[0, 0, 0]	n/a	FR1	1	R1217T
2325.924	0.95	2360122	WORD_OFF	n/a	n/a	BADGE	10	21	[0, 0, 0]	n/a	FR1	1	R1217T
2326.874	1.617	2361072	WORD	n/a	wordpools/wordpool_EN.txt	PHONE	11	21	[0, 0, 0]	n/a	FR1	1	R1217T
2328.491	0.884	2362688	WORD_OFF	n/a	n/a	PHONE	11	21	[0, 0, 0]	n/a	FR1	1	R1217T
2329.375	1.617	2363572	WORD	n/a	wordpools/wordpool_EN.txt	BOY	12	21	[0, 0, 0]	n/a	FR1	1	R1217T
2330.992	0.0	2365189	WORD_OFF	n/a	n/a	BOY	12	21	[0, 0, 0]	n/a	FR1	1	R1217T
2330.992	0.0	2365189	DISTRACT_START	n/a	n/a	n/a	-999	21	[0, 0, 0]	n/a	FR1	1	R1217T
2330.992	0.015	2365189	START	n/a	n/a	n/a	-999	21	[-999, -999, -999]	n/a	FR1	1	R1217T
2331.007	5.436	2365204	PROB	5.436	n/a	n/a	-999	21	[1, 7, 4]	12	FR1	1	R1217T
2336.443	3.884	2370640	PROB	3.884	n/a	n/a	-999	21	[6, 6, 7]	19	FR1	1	R1217T
2340.327	2.867	2374524	PROB	2.867	n/a	n/a	-999	21	[2, 8, 1]	11	FR1	1	R1217T
2343.194	3.784	2377391	PROB	3.784	n/a	n/a	-999	21	[2, 7, 4]	13	FR1	1	R1217T
2346.978	10.528	2381174	PROB	10.528	n/a	n/a	-999	21	[1, 3, 4]	8	FR1	1	R1217T
2357.506	0.007	2391702	STOP	n/a	n/a	n/a	-999	21	[-999, -999, -999]	n/a	FR1	1	R1217T
2357.513	0.634	2391709	DISTRACT_END	n/a	n/a	n/a	-999	21	[0, 0, 0]	n/a	FR1	1	R1217T
2358.147	0.517	2392343	RETRIEVAL_ORIENT	n/a	n/a	n/a	-999	21	[0, 0, 0]	n/a	FR1	1	R1217T
2358.664	1.203	2392860	REC_START	n/a	n/a	n/a	-999	21	[0, 0, 0]	n/a	FR1	1	R1217T
2359.867	1.297	2394063	REC_WORD	1.297	n/a	COW	2	21	[0, 0, 0]	n/a	FR1	1	R1217T
2361.164	1.392	2395359	REC_WORD	1.392	n/a	DUCK	4	21	[0, 0, 0]	n/a	FR1	1	R1217T
2362.556	1.59	2396751	REC_WORD	1.59	n/a	BAT	5	21	[0, 0, 0]	n/a	FR1	1	R1217T
2364.146	13.203	2398341	REC_WORD	13.203	n/a	ELF	8	21	[0, 0, 0]	n/a	FR1	1	R1217T
2377.349	0.699	2411544	REC_WORD	0.699	n/a	BOY	12	21	[0, 0, 0]	n/a	FR1	1	R1217T
2378.048	10.626	2412242	REC_WORD	10.626	n/a	PHONE	11	21	[0, 0, 0]	n/a	FR1	1	R1217T
2388.674	5.012	2422868	REC_END	n/a	n/a	n/a	-999	21	[0, 0, 0]	n/a	FR1	1	R1217T
2393.686	0.5	2427880	TRIAL	n/a	n/a	n/a	-999	22	[0, 0, 0]	n/a	FR1	1	R1217T
2394.186	10.428	2428380	COUNTDOWN_START	n/a	n/a	n/a	-999	22	[0, 0, 0]	n/a	FR1	1	R1217T
2404.614	0.008	2438807	COUNTDOWN_END	n/a	n/a	n/a	-999	22	[0, 0, 0]	n/a	FR1	1	R1217T
2404.622	1.617	2438815	ORIENT	n/a	n/a	n/a	-999	22	[0, 0, 0]	n/a	FR1	1	R1217T
2406.239	2.1	2440432	ORIENT_OFF	n/a	n/a	n/a	-999	22	[0, 0, 0]	n/a	FR1	1	R1217T
2408.339	1.617	2442532	WORD	n/a	wordpools/wordpool_EN.txt	POND	1	22	[0, 0, 0]	n/a	FR1	1	R1217T
2409.956	0.85	2444149	WORD_OFF	n/a	n/a	POND	1	22	[0, 0, 0]	n/a	FR1	1	R1217T
2410.806	1.617	2444999	WORD	n/a	wordpools/wordpool_EN.txt	PIN	2	22	[0, 0, 0]	n/a	FR1	1	R1217T
2412.423	0.934	2446615	WORD_OFF	n/a	n/a	PIN	2	22	[0, 0, 0]	n/a	FR1	1	R1217T
2413.357	1.616	2447549	WORD	n/a	wordpools/wordpool_EN.txt	SMOKE	3	22	[0, 0, 0]	n/a	FR1	1	R1217T
2414.973	0.967	2449165	WORD_OFF	n/a	n/a	SMOKE	3	22	[0, 0, 0]	n/a	FR1	1	R1217T
2415.94	1.617	2450132	WORD	n/a	wordpools/wordpool_EN.txt	BIRD	4	22	[0, 0, 0]	n/a	FR1	1	R1217T
2417.557	0.834	2451749	WORD_OFF	n/a	n/a	BIRD	4	22	[0, 0, 0]	n/a	FR1	1	R1217T
2418.391	1.616	2452583	WORD	n/a	wordpools/wordpool_EN.txt	CAVE	5	22	[0, 0, 0]	n/a	FR1	1	R1217T
2420.007	0.884	2454199	WORD_OFF	n/a	n/a	CAVE	5	22	[0, 0, 0]	n/a	FR1	1	R1217T
2420.891	1.617	2455083	WORD	n/a	wordpools/wordpool_EN.txt	BRUSH	6	22	[0, 0, 0]	n/a	FR1	1	R1217T
2422.508	0.8	2456700	WORD_OFF	n/a	n/a	BRUSH	6	22	[0, 0, 0]	n/a	FR1	1	R1217T
2423.308	1.617	2457500	WORD	n/a	wordpools/wordpool_EN.txt	SHIELD	7	22	[0, 0, 0]	n/a	FR1	1	R1217T
2424.925	0.867	2459117	WORD_OFF	n/a	n/a	SHIELD	7	22	[0, 0, 0]	n/a	FR1	1	R1217T
2425.792	1.617	2459984	WORD	n/a	wordpools/wordpool_EN.txt	HOLE	8	22	[0, 0, 0]	n/a	FR1	1	R1217T
2427.409	0.834	2461601	WORD_OFF	n/a	n/a	HOLE	8	22	[0, 0, 0]	n/a	FR1	1	R1217T
2428.243	1.617	2462434	WORD	n/a	wordpools/wordpool_EN.txt	SINK	9	22	[0, 0, 0]	n/a	FR1	1	R1217T
2429.86	0.966	2464051	WORD_OFF	n/a	n/a	SINK	9	22	[0, 0, 0]	n/a	FR1	1	R1217T
2430.826	1.617	2465017	WORD	n/a	wordpools/wordpool_EN.txt	AXE	10	22	[0, 0, 0]	n/a	FR1	1	R1217T
2432.443	0.9	2466634	WORD_OFF	n/a	n/a	AXE	10	22	[0, 0, 0]	n/a	FR1	1	R1217T
2433.343	1.617	2467534	WORD	n/a	wordpools/wordpool_EN.txt	WOOD	11	22	[0, 0, 0]	n/a	FR1	1	R1217T
2434.96	0.884	2469151	WORD_OFF	n/a	n/a	WOOD	11	22	[0, 0, 0]	n/a	FR1	1	R1217T
2435.844	1.617	2470035	WORD	n/a	wordpools/wordpool_EN.txt	OAR	12	22	[0, 0, 0]	n/a	FR1	1	R1217T
2437.461	0.0	2471652	WORD_OFF	n/a	n/a	OAR	12	22	[0, 0, 0]	n/a	FR1	1	R1217T
2437.461	0.001	2471652	DISTRACT_START	n/a	n/a	n/a	-999	22	[0, 0, 0]	n/a	FR1	1	R1217T
2437.462	0.016	2471653	START	n/a	n/a	n/a	-999	22	[-999, -999, -999]	n/a	FR1	1	R1217T
2437.478	6.484	2471669	PROB	6.484	n/a	n/a	-999	22	[7, 3, 2]	12	FR1	1	R1217T
2443.962	2.701	2478153	PROB	2.701	n/a	n/a	-999	22	[6, 1, 4]	11	FR1	1	R1217T
2446.663	5.617	2480853	PROB	5.617	n/a	n/a	-999	22	[7, 9, 4]	20	FR1	1	R1217T
2452.28	3.151	2486470	PROB	3.151	n/a	n/a	-999	22	[8, 8, 1]	17	FR1	1	R1217T
2455.431	3.196	2489621	PROB	3.196	n/a	n/a	-999	22	[6, 9, 8]	23	FR1	1	R1217T
2458.627	0.021	2492817	STOP	n/a	n/a	n/a	-999	22	[-999, -999, -999]	n/a	FR1	1	R1217T
2458.648	0.684	2492838	DISTRACT_END	n/a	n/a	n/a	-999	22	[0, 0, 0]	n/a	FR1	1	R1217T
2459.332	0.517	2493522	RETRIEVAL_ORIENT	n/a	n/a	n/a	-999	22	[0, 0, 0]	n/a	FR1	1	R1217T
2459.849	3.611	2494039	REC_START	n/a	n/a	n/a	-999	22	[0, 0, 0]	n/a	FR1	1	R1217T
2463.46	0.12	2497649	REC_WORD_VV	0.12	n/a	<>	-999	22	[0, 0, 0]	n/a	FR1	1	R1217T
2463.58	0.776	2497769	REC_WORD	0.776	n/a	CAVE	5	22	[0, 0, 0]	n/a	FR1	1	R1217T
2464.356	0.22	2498545	REC_WORD_VV	0.22	n/a	<>	-999	22	[0, 0, 0]	n/a	FR1	1	R1217T
2464.576	0.783	2498765	REC_WORD	0.783	n/a	PIT	-999	22	[0, 0, 0]	n/a	FR1	1	R1217T
2465.359	0.17	2499548	REC_WORD_VV	0.17	n/a	<>	-999	22	[0, 0, 0]	n/a	FR1	1	R1217T
2465.529	18.507	2499718	REC_WORD	18.507	n/a	POND	1	22	[0, 0, 0]	n/a	FR1	1	R1217T
2484.036	5.822	2518224	REC_WORD	5.822	n/a	SMOKE	3	22	[0, 0, 0]	n/a	FR1	1	R1217T
2489.858	5.297	2524046	REC_END	n/a	n/a	n/a	-999	22	[0, 0, 0]	n/a	FR1	1	R1217T
2495.155	0.5	2529342	TRIAL	n/a	n/a	n/a	-999	23	[0, 0, 0]	n/a	FR1	1	R1217T
2495.655	10.428	2529842	COUNTDOWN_START	n/a	n/a	n/a	-999	23	[0, 0, 0]	n/a	FR1	1	R1217T
2506.083	0.007	2540270	COUNTDOWN_END	n/a	n/a	n/a	-999	23	[0, 0, 0]	n/a	FR1	1	R1217T
2506.09	1.617	2540277	ORIENT	n/a	n/a	n/a	-999	23	[0, 0, 0]	n/a	FR1	1	R1217T
2507.707	2.1	2541894	ORIENT_OFF	n/a	n/a	n/a	-999	23	[0, 0, 0]	n/a	FR1	1	R1217T
2509.807	1.617	2543994	WORD	n/a	wordpools/wordpool_EN.txt	HOOF	1	23	[0, 0, 0]	n/a	FR1	1	R1217T
2511.424	0.801	2545610	WORD_OFF	n/a	n/a	HOOF	1	23	[0, 0, 0]	n/a	FR1	1	R1217T
2512.225	1.616	2546411	WORD	n/a	wordpools/wordpool_EN.txt	PANTS	2	23	[0, 0, 0]	n/a	FR1	1	R1217T
2513.841	0.784	2548027	WORD_OFF	n/a	n/a	PANTS	2	23	[0, 0, 0]	n/a	FR1	1	R1217T
2514.625	1.617	2548811	WORD	n/a	wordpools/wordpool_EN.txt	JET	3	23	[0, 0, 0]	n/a	FR1	1	R1217T
2516.242	0.85	2550428	WORD_OFF	n/a	n/a	JET	3	23	[0, 0, 0]	n/a	FR1	1	R1217T
2517.092	1.617	2551278	WORD	n/a	wordpools/wordpool_EN.txt	STREET	4	23	[0, 0, 0]	n/a	FR1	1	R1217T
2518.709	0.85	2552895	WORD_OFF	n/a	n/a	STREET	4	23	[0, 0, 0]	n/a	FR1	1	R1217T
2519.559	1.617	2553745	WORD	n/a	wordpools/wordpool_EN.txt	MUG	5	23	[0, 0, 0]	n/a	FR1	1	R1217T
2521.176	1.0	2555362	WORD_OFF	n/a	n/a	MUG	5	23	[0, 0, 0]	n/a	FR1	1	R1217T
2522.176	1.617	2556362	WORD	n/a	wordpools/wordpool_EN.txt	PLANT	6	23	[0, 0, 0]	n/a	FR1	1	R1217T
2523.793	0.95	2557979	WORD_OFF	n/a	n/a	PLANT	6	23	[0, 0, 0]	n/a	FR1	1	R1217T
2524.743	1.617	2558929	WORD	n/a	wordpools/wordpool_EN.txt	FLAG	7	23	[0, 0, 0]	n/a	FR1	1	R1217T
2526.36	0.984	2560546	WORD_OFF	n/a	n/a	FLAG	7	23	[0, 0, 0]	n/a	FR1	1	R1217T
2527.344	1.617	2561529	WORD	n/a	wordpools/wordpool_EN.txt	SNAIL	8	23	[0, 0, 0]	n/a	FR1	1	R1217T
2528.961	1.0	2563146	WORD_OFF	n/a	n/a	SNAIL	8	23	[0, 0, 0]	n/a	FR1	1	R1217T
2529.961	1.617	2564146	WORD	n/a	wordpools/wordpool_EN.txt	RAT	9	23	[0, 0, 0]	n/a	FR1	1	R1217T
2531.578	0.767	2565763	WORD_OFF	n/a	n/a	RAT	9	23	[0, 0, 0]	n/a	FR1	1	R1217T
2532.345	1.617	2566530	WORD	n/a	wordpools/wordpool_EN.txt	CLOTH	10	23	[0, 0, 0]	n/a	FR1	1	R1217T
2533.962	0.983	2568147	WORD_OFF	n/a	n/a	CLOTH	10	23	[0, 0, 0]	n/a	FR1	1	R1217T
2534.945	1.617	2569130	WORD	n/a	wordpools/wordpool_EN.txt	FISH	11	23	[0, 0, 0]	n/a	FR1	1	R1217T
2536.562	0.917	2570747	WORD_OFF	n/a	n/a	FISH	11	23	[0, 0, 0]	n/a	FR1	1	R1217T
2537.479	1.617	2571664	WORD	n/a	wordpools/wordpool_EN.txt	SHIRT	12	23	[0, 0, 0]	n/a	FR1	1	R1217T
2539.096	0.0	2573281	WORD_OFF	n/a	n/a	SHIRT	12	23	[0, 0, 0]	n/a	FR1	1	R1217T
2539.096	0.001	2573281	DISTRACT_START	n/a	n/a	n/a	-999	23	[0, 0, 0]	n/a	FR1	1	R1217T
2539.097	0.016	2573282	START	n/a	n/a	n/a	-999	23	[-999, -999, -999]	n/a	FR1	1	R1217T
2539.113	5.151	2573298	PROB	5.151	n/a	n/a	-999	23	[4, 9, 1]	14	FR1	1	R1217T
2544.264	2.6	2578448	PROB	2.6	n/a	n/a	-999	23	[1, 9, 5]	15	FR1	1	R1217T
2546.864	2.567	2581048	PROB	2.567	n/a	n/a	-999	23	[1, 9, 4]	14	FR1	1	R1217T
2549.431	3.101	2583615	PROB	3.101	n/a	n/a	-999	23	[2, 1, 4]	7	FR1	1	R1217T
2552.532	2.3	2586716	PROB	2.3	n/a	n/a	-999	23	[6, 1, 6]	13	FR1	1	R1217T
2554.832	2.301	2589016	PROB	2.301	n/a	n/a	-999	23	[5, 2, 5]	12	FR1	1	R1217T
2557.133	3.573	2591317	PROB	3.573	n/a	n/a	-999	23	[9, 4, 6]	19	FR1	1	R1217T
2560.706	0.011	2594889	STOP	n/a	n/a	n/a	-999	23	[-999, -999, -999]	n/a	FR1	1	R1217T
2560.717	0.65	2594900	DISTRACT_END	n/a	n/a	n/a	-999	23	[0, 0, 0]	n/a	FR1	1	R1217T
2561.367	0.517	2595550	RETRIEVAL_ORIENT	n/a	n/a	n/a	-999	23	[0, 0, 0]	n/a	FR1	1	R1217T
2561.884	1.328	2596067	REC_START	n/a	n/a	n/a	-999	23	[0, 0, 0]	n/a	FR1	1	R1217T
2563.212	0.851	2597395	REC_WORD	0.851	n/a	SNAIL	8	23	[0, 0, 0]	n/a	FR1	1	R1217T
2564.063	1.849	2598246	REC_WORD	1.849	n/a	PANTS	2	23	[0, 0, 0]	n/a	FR1	1	R1217T
2565.912	2.0	2600095	REC_WORD	2.0	n/a	CALF	-999	23	[0, 0, 0]	n/a	FR1	1	R1217T
2567.912	12.735	2602095	REC_WORD	12.735	n/a	LEG	-999	23	[0, 0, 0]	n/a	FR1	1	R1217T
2580.647	7.023	2614829	REC_WORD	7.023	n/a	WAVE	-999	23	[0, 0, 0]	n/a	FR1	1	R1217T
2587.67	4.223	2621852	REC_WORD_VV	4.223	n/a	<>	-999	23	[0, 0, 0]	n/a	FR1	1	R1217T
2591.893	5.497	2626075	REC_END	n/a	n/a	n/a	-999	23	[0, 0, 0]	n/a	FR1	1	R1217T
2597.39	0.5	2631571	TRIAL	n/a	n/a	n/a	-999	24	[0, 0, 0]	n/a	FR1	1	R1217T
2597.89	10.428	2632071	COUNTDOWN_START	n/a	n/a	n/a	-999	24	[0, 0, 0]	n/a	FR1	1	R1217T
2608.318	0.007	2642499	COUNTDOWN_END	n/a	n/a	n/a	-999	24	[0, 0, 0]	n/a	FR1	1	R1217T
2608.325	1.617	2642506	ORIENT	n/a	n/a	n/a	-999	24	[0, 0, 0]	n/a	FR1	1	R1217T
2609.942	2.051	2644123	ORIENT_OFF	n/a	n/a	n/a	-999	24	[0, 0, 0]	n/a	FR1	1	R1217T
2611.993	1.617	2646173	WORD	n/a	wordpools/wordpool_EN.txt	STRING	1	24	[0, 0, 0]	n/a	FR1	1	R1217T
2613.61	0.983	2647790	WORD_OFF	n/a	n/a	STRING	1	24	[0, 0, 0]	n/a	FR1	1	R1217T
2614.593	1.617	2648773	WORD	n/a	wordpools/wordpool_EN.txt	BALL	2	24	[0, 0, 0]	n/a	FR1	1	R1217T
2616.21	0.917	2650390	WORD_OFF	n/a	n/a	BALL	2	24	[0, 0, 0]	n/a	FR1	1	R1217T
2617.127	1.617	2651307	WORD	n/a	wordpools/wordpool_EN.txt	SHARK	3	24	[0, 0, 0]	n/a	FR1	1	R1217T
2618.744	0.917	2652924	WORD_OFF	n/a	n/a	SHARK	3	24	[0, 0, 0]	n/a	FR1	1	R1217T
2619.661	1.617	2653841	WORD	n/a	wordpools/wordpool_EN.txt	SNOW	4	24	[0, 0, 0]	n/a	FR1	1	R1217T
2621.278	0.967	2655458	WORD_OFF	n/a	n/a	SNOW	4	24	[0, 0, 0]	n/a	FR1	1	R1217T
2622.245	1.616	2656425	WORD	n/a	wordpools/wordpool_EN.txt	WING	5	24	[0, 0, 0]	n/a	FR1	1	R1217T
2623.861	0.801	2658041	WORD_OFF	n/a	n/a	WING	5	24	[0, 0, 0]	n/a	FR1	1	R1217T
2624.662	1.617	2658842	WORD	n/a	wordpools/wordpool_EN.txt	STORE	6	24	[0, 0, 0]	n/a	FR1	1	R1217T
2626.279	1.0	2660459	WORD_OFF	n/a	n/a	STORE	6	24	[0, 0, 0]	n/a	FR1	1	R1217T
2627.279	1.617	2661458	WORD	n/a	wordpools/wordpool_EN.txt	STICK	7	24	[0, 0, 0]	n/a	FR1	1	R1217T
2628.896	1.0	2663075	WORD_OFF	n/a	n/a	STICK	7	24	[0, 0, 0]	n/a	FR1	1	R1217T
2629.896	1.617	2664075	WORD	n/a	wordpools/wordpool_EN.txt	SIGN	8	24	[0, 0, 0]	n/a	FR1	1	R1217T
2631.513	0.917	2665692	WORD_OFF	n/a	n/a	SIGN	8	24	[0, 0, 0]	n/a	FR1	1	R1217T
2632.43	1.617	2666609	WORD	n/a	wordpools/wordpool_EN.txt	SWAMP	9	24	[0, 0, 0]	n/a	FR1	1	R1217T
2634.047	0.816	2668226	WORD_OFF	n/a	n/a	SWAMP	9	24	[0, 0, 0]	n/a	FR1	1	R1217T
2634.863	1.601	2669042	WORD	n/a	wordpools/wordpool_EN.txt	PIPE	10	24	[0, 0, 0]	n/a	FR1	1	R1217T
2636.464	0.8	2670643	WORD_OFF	n/a	n/a	PIPE	10	24	[0, 0, 0]	n/a	FR1	1	R1217T
2637.264	1.617	2671443	WORD	n/a	wordpools/wordpool_EN.txt	DRUM	11	24	[0, 0, 0]	n/a	FR1	1	R1217T
2638.881	0.8	2673060	WORD_OFF	n/a	n/a	DRUM	11	24	[0, 0, 0]	n/a	FR1	1	R1217T
2639.681	1.617	2673860	WORD	n/a	wordpools/wordpool_EN.txt	MULE	12	24	[0, 0, 0]	n/a	FR1	1	R1217T
2641.298	0.0	2675477	WORD_OFF	n/a	n/a	MULE	12	24	[0, 0, 0]	n/a	FR1	1	R1217T
2641.298	0.0	2675477	DISTRACT_START	n/a	n/a	n/a	-999	24	[0, 0, 0]	n/a	FR1	1	R1217T
2641.298	0.017	2675477	START	n/a	n/a	n/a	-999	24	[-999, -999, -999]	n/a	FR1	1	R1217T
2641.315	5.734	2675494	PROB	5.734	n/a	n/a	-999	24	[9, 4, 3]	16	FR1	1	R1217T
2647.049	4.617	2681227	PROB	4.617	n/a	n/a	-999	24	[3, 6, 9]	18	FR1	1	R1217T
2651.666	3.785	2685844	PROB	3.785	n/a	n/a	-999	24	[1, 4, 8]	13	FR1	1	R1217T
2655.451	2.917	2689629	PROB	2.917	n/a	n/a	-999	24	[3, 2, 7]	12	FR1	1	R1217T
2658.368	2.884	2692546	PROB	2.884	n/a	n/a	-999	24	[2, 1, 3]	6	FR1	1	R1217T
2661.252	8.055	2695429	PROB	8.055	n/a	n/a	-999	24	[3, 6, 1]	7	FR1	1	R1217T
2669.307	0.013	2703484	STOP	n/a	n/a	n/a	-999	24	[-999, -999, -999]	n/a	FR1	1	R1217T
2669.32	0.682	2703497	DISTRACT_END	n/a	n/a	n/a	-999	24	[0, 0, 0]	n/a	FR1	1	R1217T
2670.002	0.519	2704179	RETRIEVAL_ORIENT	n/a	n/a	n/a	-999	24	[0, 0, 0]	n/a	FR1	1	R1217T
2670.521	2.244	2704698	REC_START	n/a	n/a	n/a	-999	24	[0, 0, 0]	n/a	FR1	1	R1217T
2672.765	0.114	2706942	REC_WORD_VV	0.114	n/a	<>	-999	24	[0, 0, 0]	n/a	FR1	1	R1217T
2672.879	0.893	2707056	REC_WORD	0.893	n/a	SHARK	3	24	[0, 0, 0]	n/a	FR1	1	R1217T
2673.772	1.229	2707949	REC_WORD	1.229	n/a	SNAIL	-999	24	[0, 0, 0]	n/a	FR1	1	R1217T
2675.001	18.792	2709178	REC_WORD	18.792	n/a	WING	5	24	[0, 0, 0]	n/a	FR1	1	R1217T
2693.793	6.74	2727968	REC_WORD	6.74	n/a	SNAKE	-999	24	[0, 0, 0]	n/a	FR1	1	R1217T
2700.533	5.143	2734708	REC_END	n/a	n/a	n/a	-999	24	[0, 0, 0]	n/a	FR1	1	R1217T
2705.676	0.5	2739851	TRIAL	n/a	n/a	n/a	-999	25	[0, 0, 0]	n/a	FR1	1	R1217T
2706.176	10.428	2740351	COUNTDOWN_START	n/a	n/a	n/a	-999	25	[0, 0, 0]	n/a	FR1	1	R1217T
2716.604	0.008	2750778	COUNTDOWN_END	n/a	n/a	n/a	-999	25	[0, 0, 0]	n/a	FR1	1	R1217T
2716.612	1.617	2750786	ORIENT	n/a	n/a	n/a	-999	25	[0, 0, 0]	n/a	FR1	1	R1217T
2718.229	1.817	2752403	ORIENT_OFF	n/a	n/a	n/a	-999	25	[0, 0, 0]	n/a	FR1	1	R1217T
2720.046	1.617	2754220	WORD	n/a	wordpools/wordpool_EN.txt	BOOK	1	25	[0, 0, 0]	n/a	FR1	1	R1217T
2721.663	0.9	2755837	WORD_OFF	n/a	n/a	BOOK	1	25	[0, 0, 0]	n/a	FR1	1	R1217T
2722.563	1.617	2756737	WORD	n/a	wordpools/wordpool_EN.txt	PLANE	2	25	[0, 0, 0]	n/a	FR1	1	R1217T
2724.18	0.883	2758354	WORD_OFF	n/a	n/a	PLANE	2	25	[0, 0, 0]	n/a	FR1	1	R1217T
2725.063	1.617	2759237	WORD	n/a	wordpools/wordpool_EN.txt	STAR	3	25	[0, 0, 0]	n/a	FR1	1	R1217T
2726.68	0.95	2760853	WORD_OFF	n/a	n/a	STAR	3	25	[0, 0, 0]	n/a	FR1	1	R1217T
2727.63	1.617	2761803	WORD	n/a	wordpools/wordpool_EN.txt	CLAY	4	25	[0, 0, 0]	n/a	FR1	1	R1217T
2729.247	0.967	2763420	WORD_OFF	n/a	n/a	CLAY	4	25	[0, 0, 0]	n/a	FR1	1	R1217T
2730.214	1.617	2764387	WORD	n/a	wordpools/wordpool_EN.txt	FAN	5	25	[0, 0, 0]	n/a	FR1	1	R1217T
2731.831	0.984	2766004	WORD_OFF	n/a	n/a	FAN	5	25	[0, 0, 0]	n/a	FR1	1	R1217T
2732.815	1.617	2766988	WORD	n/a	wordpools/wordpool_EN.txt	CLOUD	6	25	[0, 0, 0]	n/a	FR1	1	R1217T
2734.432	1.0	2768605	WORD_OFF	n/a	n/a	CLOUD	6	25	[0, 0, 0]	n/a	FR1	1	R1217T
2735.432	1.617	2769605	WORD	n/a	wordpools/wordpool_EN.txt	MAIL	7	25	[0, 0, 0]	n/a	FR1	1	R1217T
2737.049	0.817	2771222	WORD_OFF	n/a	n/a	MAIL	7	25	[0, 0, 0]	n/a	FR1	1	R1217T
2737.866	1.616	2772039	WORD	n/a	wordpools/wordpool_EN.txt	RAIN	8	25	[0, 0, 0]	n/a	FR1	1	R1217T
2739.482	0.951	2773655	WORD_OFF	n/a	n/a	RAIN	8	25	[0, 0, 0]	n/a	FR1	1	R1217T
2740.433	1.617	2774606	WORD	n/a	wordpools/wordpool_EN.txt	CORN	9	25	[0, 0, 0]	n/a	FR1	1	R1217T
2742.05	0.933	2776223	WORD_OFF	n/a	n/a	CORN	9	25	[0, 0, 0]	n/a	FR1	1	R1217T
2742.983	1.617	2777156	WORD	n/a	wordpools/wordpool_EN.txt	HORSE	10	25	[0, 0, 0]	n/a	FR1	1	R1217T
2744.6	0.867	2778772	WORD_OFF	n/a	n/a	HORSE	10	25	[0, 0, 0]	n/a	FR1	1	R1217T
2745.467	1.617	2779639	WORD	n/a	wordpools/wordpool_EN.txt	BOWL	11	25	[0, 0, 0]	n/a	FR1	1	R1217T
2747.084	0.8	2781256	WORD_OFF	n/a	n/a	BOWL	11	25	[0, 0, 0]	n/a	FR1	1	R1217T
2747.884	1.617	2782056	WORD	n/a	wordpools/wordpool_EN.txt	ARK	12	25	[0, 0, 0]	n/a	FR1	1	R1217T
2749.501	0.0	2783673	WORD_OFF	n/a	n/a	ARK	12	25	[0, 0, 0]	n/a	FR1	1	R1217T
2749.501	0.001	2783673	DISTRACT_START	n/a	n/a	n/a	-999	25	[0, 0, 0]	n/a	FR1	1	R1217T
2749.502	0.016	2783674	START	n/a	n/a	n/a	-999	25	[-999, -999, -999]	n/a	FR1	1	R1217T
2749.518	3.8	2783690	PROB	3.8	n/a	n/a	-999	25	[4, 7, 4]	15	FR1	1	R1217T
2753.318	3.301	2787490	PROB	3.301	n/a	n/a	-999	25	[6, 6, 4]	16	FR1	1	R1217T
2756.619	2.35	2790791	PROB	2.35	n/a	n/a	-999	25	[3, 5, 5]	13	FR1	1	R1217T
2758.969	3.001	2793141	PROB	3.001	n/a	n/a	-999	25	[7, 5, 3]	15	FR1	1	R1217T
2761.97	3.184	2796141	PROB	3.184	n/a	n/a	-999	25	[2, 8, 4]	14	FR1	1	R1217T
2765.154	2.3	2799325	PROB	2.3	n/a	n/a	-999	25	[4, 6, 1]	11	FR1	1	R1217T
2767.454	2.917	2801625	PROB	2.917	n/a	n/a	-999	25	[4, 9, 9]	22	FR1	1	R1217T
2770.371	0.017	2804542	STOP	n/a	n/a	n/a	-999	25	[-999, -999, -999]	n/a	FR1	1	R1217T
2770.388	0.65	2804559	DISTRACT_END	n/a	n/a	n/a	-999	25	[0, 0, 0]	n/a	FR1	1	R1217T
2771.038	0.518	2805209	RETRIEVAL_ORIENT	n/a	n/a	n/a	-999	25	[0, 0, 0]	n/a	FR1	1	R1217T
2771.556	2.14	2805727	REC_START	n/a	n/a	n/a	-999	25	[0, 0, 0]	n/a	FR1	1	R1217T
2773.696	3.364	2807867	REC_WORD	3.364	n/a	PLANE	2	25	[0, 0, 0]	n/a	FR1	1	R1217T
2777.06	2.295	2811230	REC_WORD	2.295	n/a	RAIN	8	25	[0, 0, 0]	n/a	FR1	1	R1217T
2779.355	1.219	2813525	REC_WORD	1.219	n/a	RAIN	8	25	[0, 0, 0]	n/a	FR1	1	R1217T
2780.574	5.284	2814744	REC_WORD	5.284	n/a	MAIL	7	25	[0, 0, 0]	n/a	FR1	1	R1217T
2785.858	15.708	2820028	REC_WORD	15.708	n/a	STAR	3	25	[0, 0, 0]	n/a	FR1	1	R1217T
2801.566	44.019	2835735	REC_END	n/a	n/a	n/a	-999	25	[0, 0, 0]	n/a	FR1	1	R1217T
2845.585	0.0	2879751	SESS_END	n/a	n/a	n/a	-999	25	[0, 0, 0]	n/a	FR1	1	R1217T
