onset	duration	sample	trial_type	response_time	stim_file	item_name	serialpos	list	test	answer	experiment	session	subject
0.0	3.501	37630	INSTRUCT_START	n/a	n/a	n/a	-999	-999	[0, 0, 0]	n/a	FR1	1	R1542J
3.501	19.099	41127	INSTRUCT_END	n/a	n/a	n/a	-999	-999	[0, 0, 0]	n/a	FR1	1	R1542J
22.6	10.349	60235	COUNTDOWN_START	n/a	n/a	n/a	-999	-999	[0, 0, 0]	n/a	FR1	1	R1542J
32.949	0.0	70578	COUNTDOWN_END	n/a	n/a	n/a	-999	-999	[0, 0, 0]	n/a	FR1	1	R1542J
32.949	1.917	70578	ENCODING_START	n/a	n/a	n/a	-999	-1	[0, 0, 0]	n/a	FR1	1	R1542J
34.866	1.616	72497	WORD	n/a	n/a	SWAMP	1	-1	[0, 0, 0]	n/a	FR1	1	R1542J
36.482	0.8	74107	WORD_OFF	n/a	n/a	SWAMP	1	-1	[0, 0, 0]	n/a	FR1	1	R1542J
37.282	1.618	74904	WORD	n/a	n/a	OAR	2	-1	[0, 0, 0]	n/a	FR1	1	R1542J
38.9	0.949	76530	WORD_OFF	n/a	n/a	OAR	2	-1	[0, 0, 0]	n/a	FR1	1	R1542J
39.849	1.616	77473	WORD	n/a	n/a	SHARK	3	-1	[0, 0, 0]	n/a	FR1	1	R1542J
41.465	0.917	79083	WORD_OFF	n/a	n/a	SHARK	3	-1	[0, 0, 0]	n/a	FR1	1	R1542J
42.382	1.6	80010	WORD	n/a	n/a	PLANT	4	-1	[0, 0, 0]	n/a	FR1	1	R1542J
43.982	0.834	81604	WORD_OFF	n/a	n/a	PLANT	4	-1	[0, 0, 0]	n/a	FR1	1	R1542J
44.816	1.616	82449	WORD	n/a	n/a	DITCH	5	-1	[0, 0, 0]	n/a	FR1	1	R1542J
46.432	0.884	84059	WORD_OFF	n/a	n/a	DITCH	5	-1	[0, 0, 0]	n/a	FR1	1	R1542J
47.316	1.6	84937	WORD	n/a	n/a	CHIN	6	-1	[0, 0, 0]	n/a	FR1	1	R1542J
48.916	0.766	86547	WORD_OFF	n/a	n/a	CHIN	6	-1	[0, 0, 0]	n/a	FR1	1	R1542J
49.682	1.6	87312	WORD	n/a	n/a	BAR	7	-1	[0, 0, 0]	n/a	FR1	1	R1542J
51.282	0.832	88905	WORD_OFF	n/a	n/a	BAR	7	-1	[0, 0, 0]	n/a	FR1	1	R1542J
52.114	1.601	89735	WORD	n/a	n/a	BRANCH	8	-1	[0, 0, 0]	n/a	FR1	1	R1542J
53.715	0.783	91345	WORD_OFF	n/a	n/a	BRANCH	8	-1	[0, 0, 0]	n/a	FR1	1	R1542J
54.498	1.6	92125	WORD	n/a	n/a	GOAL	9	-1	[0, 0, 0]	n/a	FR1	1	R1542J
56.098	0.9	93719	WORD_OFF	n/a	n/a	GOAL	9	-1	[0, 0, 0]	n/a	FR1	1	R1542J
56.998	1.617	94630	WORD	n/a	n/a	PEA	10	-1	[0, 0, 0]	n/a	FR1	1	R1542J
58.615	0.817	96240	WORD_OFF	n/a	n/a	PEA	10	-1	[0, 0, 0]	n/a	FR1	1	R1542J
59.432	1.6	97053	WORD	n/a	n/a	COD	11	-1	[0, 0, 0]	n/a	FR1	1	R1542J
61.032	0.966	98663	WORD_OFF	n/a	n/a	COD	11	-1	[0, 0, 0]	n/a	FR1	1	R1542J
61.998	1.6	99622	WORD	n/a	n/a	CART	12	-1	[0, 0, 0]	n/a	FR1	1	R1542J
63.598	0.002	101216	WORD_OFF	n/a	n/a	CART	12	-1	[0, 0, 0]	n/a	FR1	1	R1542J
63.6	0.001	101218	PROB	0.001	n/a	n/a	-999	-1	[2, 5, 7]	14	FR1	1	R1542J
63.601	0.0	101219	START	n/a	n/a	n/a	-999	-1	[-999, -999, -999]	n/a	FR1	1	R1542J
63.601	0.0	101232	ENCODING_END	n/a	n/a	n/a	-999	-1	[0, 0, 0]	n/a	FR1	1	R1542J
63.601	5.998	101232	DISTRACT_START	n/a	n/a	n/a	-999	-1	[0, 0, 0]	n/a	FR1	1	R1542J
69.599	2.733	107216	PROB	2.733	n/a	n/a	-999	-1	[2, 4, 5]	11	FR1	1	R1542J
72.332	2.685	109949	PROB	2.685	n/a	n/a	-999	-1	[5, 1, 8]	14	FR1	1	R1542J
75.017	2.683	112634	PROB	2.683	n/a	n/a	-999	-1	[2, 2, 6]	10	FR1	1	R1542J
77.7	2.482	115317	PROB	2.482	n/a	n/a	-999	-1	[2, 6, 3]	11	FR1	1	R1542J
80.182	3.85	117799	PROB	3.85	n/a	n/a	-999	-1	[2, 3, 5]	10	FR1	1	R1542J
84.032	0.0	121649	STOP	n/a	n/a	n/a	-999	-1	[-999, -999, -999]	n/a	FR1	1	R1542J
84.032	1.65	121658	DISTRACT_END	n/a	n/a	n/a	-999	-1	[0, 0, 0]	n/a	FR1	1	R1542J
85.682	0.78	123300	REC_START	n/a	n/a	n/a	-999	-1	[0, 0, 0]	n/a	FR1	1	R1542J
86.462	1.3	124079	REC_WORD	1.3	n/a	PEA	10	-1	[0, 0, 0]	n/a	FR1	1	R1542J
87.762	1.32	125379	REC_WORD	1.32	n/a	COD	11	-1	[0, 0, 0]	n/a	FR1	1	R1542J
89.082	1.98	126699	REC_WORD	1.98	n/a	SWAMP	1	-1	[0, 0, 0]	n/a	FR1	1	R1542J
91.062	1.23	128679	REC_WORD	1.23	n/a	DITCH	5	-1	[0, 0, 0]	n/a	FR1	1	R1542J
92.292	23.576	129908	REC_WORD	23.576	n/a	SHARK	3	-1	[0, 0, 0]	n/a	FR1	1	R1542J
115.868	4.599	153483	REC_END	n/a	n/a	n/a	-999	-1	[0, 0, 0]	n/a	FR1	1	R1542J
120.467	10.349	158085	COUNTDOWN_START	n/a	n/a	n/a	-999	1	[0, 0, 0]	n/a	FR1	1	R1542J
130.816	0.0	168444	COUNTDOWN_END	n/a	n/a	n/a	-999	1	[0, 0, 0]	n/a	FR1	1	R1542J
130.816	2.015	168444	ENCODING_START	n/a	n/a	n/a	-999	1	[0, 0, 0]	n/a	FR1	1	R1542J
132.831	1.601	170444	WORD	n/a	wordpools/wordpool_long_EN.txt	TILE	1	1	[0, 0, 0]	n/a	FR1	1	R1542J
134.432	0.833	172054	WORD_OFF	n/a	n/a	TILE	1	1	[0, 0, 0]	n/a	FR1	1	R1542J
135.265	1.6	172884	WORD	n/a	wordpools/wordpool_long_EN.txt	CLAY	2	1	[0, 0, 0]	n/a	FR1	1	R1542J
136.865	0.984	174494	WORD_OFF	n/a	n/a	CLAY	2	1	[0, 0, 0]	n/a	FR1	1	R1542J
137.849	1.6	175470	WORD	n/a	wordpools/wordpool_long_EN.txt	HOLE	3	1	[0, 0, 0]	n/a	FR1	1	R1542J
139.449	0.933	177063	WORD_OFF	n/a	n/a	HOLE	3	1	[0, 0, 0]	n/a	FR1	1	R1542J
140.382	1.616	178006	WORD	n/a	wordpools/wordpool_long_EN.txt	GREASE	4	1	[0, 0, 0]	n/a	FR1	1	R1542J
141.998	0.783	179616	WORD_OFF	n/a	n/a	GREASE	4	1	[0, 0, 0]	n/a	FR1	1	R1542J
142.781	1.602	180397	WORD	n/a	wordpools/wordpool_long_EN.txt	SEED	5	1	[0, 0, 0]	n/a	FR1	1	R1542J
144.383	0.816	182007	WORD_OFF	n/a	n/a	SEED	5	1	[0, 0, 0]	n/a	FR1	1	R1542J
145.199	1.6	182820	WORD	n/a	wordpools/wordpool_long_EN.txt	TWIG	6	1	[0, 0, 0]	n/a	FR1	1	R1542J
146.799	0.782	184414	WORD_OFF	n/a	n/a	TWIG	6	1	[0, 0, 0]	n/a	FR1	1	R1542J
147.581	1.601	185194	WORD	n/a	wordpools/wordpool_long_EN.txt	FENCE	7	1	[0, 0, 0]	n/a	FR1	1	R1542J
149.182	0.866	186804	WORD_OFF	n/a	n/a	FENCE	7	1	[0, 0, 0]	n/a	FR1	1	R1542J
150.048	1.601	187666	WORD	n/a	wordpools/wordpool_long_EN.txt	HILL	8	1	[0, 0, 0]	n/a	FR1	1	R1542J
151.649	1.0	189276	WORD_OFF	n/a	n/a	HILL	8	1	[0, 0, 0]	n/a	FR1	1	R1542J
152.649	1.6	190268	WORD	n/a	wordpools/wordpool_long_EN.txt	CAPE	9	1	[0, 0, 0]	n/a	FR1	1	R1542J
154.249	0.932	191862	WORD_OFF	n/a	n/a	CAPE	9	1	[0, 0, 0]	n/a	FR1	1	R1542J
155.181	1.618	192805	WORD	n/a	wordpools/wordpool_long_EN.txt	FILM	10	1	[0, 0, 0]	n/a	FR1	1	R1542J
156.799	0.933	194415	WORD_OFF	n/a	n/a	FILM	10	1	[0, 0, 0]	n/a	FR1	1	R1542J
157.732	1.6	195358	WORD	n/a	wordpools/wordpool_long_EN.txt	SQUARE	11	1	[0, 0, 0]	n/a	FR1	1	R1542J
159.332	0.832	196952	WORD_OFF	n/a	n/a	SQUARE	11	1	[0, 0, 0]	n/a	FR1	1	R1542J
160.164	1.602	197781	WORD	n/a	wordpools/wordpool_long_EN.txt	BRIDGE	12	1	[0, 0, 0]	n/a	FR1	1	R1542J
161.766	0.0	199380	START	n/a	n/a	n/a	-999	1	[-999, -999, -999]	n/a	FR1	1	R1542J
161.766	0.0	199380	PROB	0.0	n/a	n/a	-999	1	[2, 2, 6]	10	FR1	1	R1542J
161.765	0.001	199391	WORD_OFF	n/a	n/a	BRIDGE	12	1	[0, 0, 0]	n/a	FR1	1	R1542J
161.766	0.0	199391	ENCODING_END	n/a	n/a	n/a	-999	1	[0, 0, 0]	n/a	FR1	1	R1542J
161.766	2.999	199391	DISTRACT_START	n/a	n/a	n/a	-999	1	[0, 0, 0]	n/a	FR1	1	R1542J
164.765	3.202	202378	PROB	3.202	n/a	n/a	-999	1	[8, 1, 6]	14	FR1	1	R1542J
167.967	3.833	205580	PROB	3.833	n/a	n/a	-999	1	[2, 8, 6]	16	FR1	1	R1542J
171.8	3.498	209413	PROB	3.498	n/a	n/a	-999	1	[5, 7, 2]	14	FR1	1	R1542J
175.298	2.367	212911	PROB	2.367	n/a	n/a	-999	1	[7, 1, 1]	9	FR1	1	R1542J
177.665	2.751	215278	PROB	2.751	n/a	n/a	-999	1	[2, 7, 1]	10	FR1	1	R1542J
180.416	2.016	218029	PROB	2.016	n/a	n/a	-999	1	[2, 3, 2]	7	FR1	1	R1542J
182.432	0.0	220044	DISTRACT_END	n/a	n/a	n/a	-999	1	[0, 0, 0]	n/a	FR1	1	R1542J
182.432	1.533	220045	STOP	n/a	n/a	n/a	-999	1	[-999, -999, -999]	n/a	FR1	1	R1542J
183.965	1.32	221589	REC_START	n/a	n/a	n/a	-999	1	[0, 0, 0]	n/a	FR1	1	R1542J
185.285	6.17	222898	REC_WORD	6.17	n/a	TILE	1	1	[0, 0, 0]	n/a	FR1	1	R1542J
191.455	8.435	229067	REC_WORD	8.435	n/a	CHIN	-999	1	[0, 0, 0]	n/a	FR1	1	R1542J
199.89	3.045	237502	REC_WORD	3.045	n/a	SQUARE	11	1	[0, 0, 0]	n/a	FR1	1	R1542J
202.935	11.235	240547	REC_WORD	11.235	n/a	GREASE	4	1	[0, 0, 0]	n/a	FR1	1	R1542J
214.17	1.48	251788	REC_END	n/a	n/a	n/a	-999	1	[0, 0, 0]	n/a	FR1	1	R1542J
215.65	10.35	253268	COUNTDOWN_START	n/a	n/a	n/a	-999	1	[0, 0, 0]	n/a	FR1	1	R1542J
226.0	0.0	263611	COUNTDOWN_END	n/a	n/a	n/a	-999	1	[0, 0, 0]	n/a	FR1	1	R1542J
226.0	1.949	263627	ENCODING_START	n/a	n/a	n/a	-999	2	[0, 0, 0]	n/a	FR1	1	R1542J
227.949	1.6	265563	WORD	n/a	wordpools/wordpool_long_EN.txt	SUN	1	2	[0, 0, 0]	n/a	FR1	1	R1542J
229.549	0.866	267172	WORD_OFF	n/a	n/a	SUN	1	2	[0, 0, 0]	n/a	FR1	1	R1542J
230.415	1.617	268034	WORD	n/a	wordpools/wordpool_long_EN.txt	YACHT	2	2	[0, 0, 0]	n/a	FR1	1	R1542J
232.032	0.884	269644	WORD_OFF	n/a	n/a	YACHT	2	2	[0, 0, 0]	n/a	FR1	1	R1542J
232.916	1.616	270539	WORD	n/a	wordpools/wordpool_long_EN.txt	SLOPE	3	2	[0, 0, 0]	n/a	FR1	1	R1542J
234.532	0.934	272149	WORD_OFF	n/a	n/a	SLOPE	3	2	[0, 0, 0]	n/a	FR1	1	R1542J
235.466	1.616	273076	WORD	n/a	wordpools/wordpool_long_EN.txt	ROOT	4	2	[0, 0, 0]	n/a	FR1	1	R1542J
237.082	0.949	274702	WORD_OFF	n/a	n/a	ROOT	4	2	[0, 0, 0]	n/a	FR1	1	R1542J
238.031	1.601	275645	WORD	n/a	wordpools/wordpool_long_EN.txt	PASTE	5	2	[0, 0, 0]	n/a	FR1	1	R1542J
239.632	0.783	277255	WORD_OFF	n/a	n/a	PASTE	5	2	[0, 0, 0]	n/a	FR1	1	R1542J
240.415	1.616	278036	WORD	n/a	wordpools/wordpool_long_EN.txt	NAIL	6	2	[0, 0, 0]	n/a	FR1	1	R1542J
242.031	0.901	279646	WORD_OFF	n/a	n/a	NAIL	6	2	[0, 0, 0]	n/a	FR1	1	R1542J
242.932	1.6	280556	WORD	n/a	wordpools/wordpool_long_EN.txt	SOUP	7	2	[0, 0, 0]	n/a	FR1	1	R1542J
244.532	0.818	282150	WORD_OFF	n/a	n/a	SOUP	7	2	[0, 0, 0]	n/a	FR1	1	R1542J
245.35	1.615	282963	WORD	n/a	wordpools/wordpool_long_EN.txt	FOOD	8	2	[0, 0, 0]	n/a	FR1	1	R1542J
246.965	0.95	284589	WORD_OFF	n/a	n/a	FOOD	8	2	[0, 0, 0]	n/a	FR1	1	R1542J
247.915	1.6	285533	WORD	n/a	wordpools/wordpool_long_EN.txt	FLASK	9	2	[0, 0, 0]	n/a	FR1	1	R1542J
249.515	0.951	287126	WORD_OFF	n/a	n/a	FLASK	9	2	[0, 0, 0]	n/a	FR1	1	R1542J
250.466	1.599	288086	WORD	n/a	wordpools/wordpool_long_EN.txt	ROD	10	2	[0, 0, 0]	n/a	FR1	1	R1542J
252.065	0.95	289680	WORD_OFF	n/a	n/a	ROD	10	2	[0, 0, 0]	n/a	FR1	1	R1542J
253.015	1.601	290639	WORD	n/a	wordpools/wordpool_long_EN.txt	LUNCH	11	2	[0, 0, 0]	n/a	FR1	1	R1542J
254.616	0.915	292233	WORD_OFF	n/a	n/a	LUNCH	11	2	[0, 0, 0]	n/a	FR1	1	R1542J
255.531	1.601	293143	WORD	n/a	wordpools/wordpool_long_EN.txt	TOAST	12	2	[0, 0, 0]	n/a	FR1	1	R1542J
257.132	0.0	294741	START	n/a	n/a	n/a	-999	2	[-999, -999, -999]	n/a	FR1	1	R1542J
257.132	0.0	294741	PROB	0.0	n/a	n/a	-999	2	[4, 8, 1]	13	FR1	1	R1542J
257.131	0.001	294753	WORD_OFF	n/a	n/a	TOAST	12	2	[0, 0, 0]	n/a	FR1	1	R1542J
257.132	0.0	294753	ENCODING_END	n/a	n/a	n/a	-999	2	[0, 0, 0]	n/a	FR1	1	R1542J
257.132	4.517	294753	DISTRACT_START	n/a	n/a	n/a	-999	2	[0, 0, 0]	n/a	FR1	1	R1542J
261.649	4.151	299258	PROB	4.151	n/a	n/a	-999	2	[5, 8, 7]	20	FR1	1	R1542J
265.8	2.716	303409	PROB	2.716	n/a	n/a	-999	2	[6, 5, 6]	17	FR1	1	R1542J
268.516	3.133	306125	PROB	3.133	n/a	n/a	-999	2	[6, 6, 5]	17	FR1	1	R1542J
271.649	3.25	309258	PROB	3.25	n/a	n/a	-999	2	[2, 2, 5]	9	FR1	1	R1542J
274.899	2.632	312508	PROB	2.632	n/a	n/a	-999	2	[4, 8, 1]	13	FR1	1	R1542J
277.531	0.0	315140	STOP	n/a	n/a	n/a	-999	2	[-999, -999, -999]	n/a	FR1	1	R1542J
277.531	1.918	315146	DISTRACT_END	n/a	n/a	n/a	-999	2	[0, 0, 0]	n/a	FR1	1	R1542J
279.449	0.554	317065	REC_START	n/a	n/a	n/a	-999	2	[0, 0, 0]	n/a	FR1	1	R1542J
280.003	1.141	317612	REC_WORD	1.141	n/a	SUN	1	2	[0, 0, 0]	n/a	FR1	1	R1542J
281.144	1.285	318752	REC_WORD	1.285	n/a	YACHT	2	2	[0, 0, 0]	n/a	FR1	1	R1542J
282.429	1.07	320037	REC_WORD	1.07	n/a	LUNCH	11	2	[0, 0, 0]	n/a	FR1	1	R1542J
283.499	1.465	321107	REC_WORD	1.465	n/a	SOUP	7	2	[0, 0, 0]	n/a	FR1	1	R1542J
284.964	1.78	322572	REC_WORD	1.78	n/a	TOAST	12	2	[0, 0, 0]	n/a	FR1	1	R1542J
286.744	13.673	324352	REC_WORD	13.673	n/a	SLOPE	3	2	[0, 0, 0]	n/a	FR1	1	R1542J
300.417	9.255	338025	REC_WORD	9.255	n/a	NAIL	6	2	[0, 0, 0]	n/a	FR1	1	R1542J
309.672	1.428	347280	REC_END	n/a	n/a	n/a	-999	2	[0, 0, 0]	n/a	FR1	1	R1542J
311.1	10.349	348712	COUNTDOWN_START	n/a	n/a	n/a	-999	2	[0, 0, 0]	n/a	FR1	1	R1542J
321.449	0.0	359054	COUNTDOWN_END	n/a	n/a	n/a	-999	2	[0, 0, 0]	n/a	FR1	1	R1542J
321.449	2.133	359071	ENCODING_START	n/a	n/a	n/a	-999	3	[0, 0, 0]	n/a	FR1	1	R1542J
323.582	1.6	361201	WORD	n/a	wordpools/wordpool_long_EN.txt	CLAM	1	3	[0, 0, 0]	n/a	FR1	1	R1542J
325.182	0.783	362795	WORD_OFF	n/a	n/a	CLAM	1	3	[0, 0, 0]	n/a	FR1	1	R1542J
325.965	1.6	363575	WORD	n/a	wordpools/wordpool_long_EN.txt	FLEET	2	3	[0, 0, 0]	n/a	FR1	1	R1542J
327.565	0.983	365185	WORD_OFF	n/a	n/a	FLEET	2	3	[0, 0, 0]	n/a	FR1	1	R1542J
328.548	1.601	366161	WORD	n/a	wordpools/wordpool_long_EN.txt	LIP	3	3	[0, 0, 0]	n/a	FR1	1	R1542J
330.149	0.834	367755	WORD_OFF	n/a	n/a	LIP	3	3	[0, 0, 0]	n/a	FR1	1	R1542J
330.983	1.615	368600	WORD	n/a	wordpools/wordpool_long_EN.txt	SPHINX	4	3	[0, 0, 0]	n/a	FR1	1	R1542J
332.598	0.767	370210	WORD_OFF	n/a	n/a	SPHINX	4	3	[0, 0, 0]	n/a	FR1	1	R1542J
333.365	1.618	370975	WORD	n/a	wordpools/wordpool_long_EN.txt	SOCK	5	3	[0, 0, 0]	n/a	FR1	1	R1542J
334.983	0.949	372601	WORD_OFF	n/a	n/a	SOCK	5	3	[0, 0, 0]	n/a	FR1	1	R1542J
335.932	1.6	373544	WORD	n/a	wordpools/wordpool_long_EN.txt	PORK	6	3	[0, 0, 0]	n/a	FR1	1	R1542J
337.532	0.833	375138	WORD_OFF	n/a	n/a	PORK	6	3	[0, 0, 0]	n/a	FR1	1	R1542J
338.365	1.6	375983	WORD	n/a	wordpools/wordpool_long_EN.txt	FLEA	7	3	[0, 0, 0]	n/a	FR1	1	R1542J
339.965	0.784	377577	WORD_OFF	n/a	n/a	FLEA	7	3	[0, 0, 0]	n/a	FR1	1	R1542J
340.749	1.6	378358	WORD	n/a	wordpools/wordpool_long_EN.txt	CHURCH	8	3	[0, 0, 0]	n/a	FR1	1	R1542J
342.349	1.0	379968	WORD_OFF	n/a	n/a	CHURCH	8	3	[0, 0, 0]	n/a	FR1	1	R1542J
343.349	1.6	380960	WORD	n/a	wordpools/wordpool_long_EN.txt	OX	9	3	[0, 0, 0]	n/a	FR1	1	R1542J
344.949	0.866	382553	WORD_OFF	n/a	n/a	OX	9	3	[0, 0, 0]	n/a	FR1	1	R1542J
345.815	1.601	383432	WORD	n/a	wordpools/wordpool_long_EN.txt	FLAG	10	3	[0, 0, 0]	n/a	FR1	1	R1542J
347.416	0.899	385025	WORD_OFF	n/a	n/a	FLAG	10	3	[0, 0, 0]	n/a	FR1	1	R1542J
348.315	1.616	385920	WORD	n/a	wordpools/wordpool_long_EN.txt	SLEEVE	11	3	[0, 0, 0]	n/a	FR1	1	R1542J
349.931	0.9	387546	WORD_OFF	n/a	n/a	SLEEVE	11	3	[0, 0, 0]	n/a	FR1	1	R1542J
350.831	1.618	388440	WORD	n/a	wordpools/wordpool_long_EN.txt	VEST	12	3	[0, 0, 0]	n/a	FR1	1	R1542J
352.449	0.001	390054	PROB	0.001	n/a	n/a	-999	3	[4, 7, 2]	13	FR1	1	R1542J
352.45	0.0	390055	START	n/a	n/a	n/a	-999	3	[-999, -999, -999]	n/a	FR1	1	R1542J
352.449	0.001	390067	WORD_OFF	n/a	n/a	VEST	12	3	[0, 0, 0]	n/a	FR1	1	R1542J
352.45	0.0	390067	ENCODING_END	n/a	n/a	n/a	-999	3	[0, 0, 0]	n/a	FR1	1	R1542J
352.45	2.732	390067	DISTRACT_START	n/a	n/a	n/a	-999	3	[0, 0, 0]	n/a	FR1	1	R1542J
355.182	2.667	392787	PROB	2.667	n/a	n/a	-999	3	[8, 7, 3]	18	FR1	1	R1542J
357.849	2.784	395454	PROB	2.784	n/a	n/a	-999	3	[6, 3, 4]	13	FR1	1	R1542J
360.633	2.299	398238	PROB	2.299	n/a	n/a	-999	3	[1, 1, 3]	5	FR1	1	R1542J
362.932	5.567	400537	PROB	5.567	n/a	n/a	-999	3	[6, 2, 7]	15	FR1	1	R1542J
368.499	2.483	406104	PROB	2.483	n/a	n/a	-999	3	[3, 5, 5]	13	FR1	1	R1542J
370.982	2.15	408587	PROB	2.15	n/a	n/a	-999	3	[2, 7, 2]	11	FR1	1	R1542J
373.132	0.0	410736	DISTRACT_END	n/a	n/a	n/a	-999	3	[0, 0, 0]	n/a	FR1	1	R1542J
373.132	1.666	410737	STOP	n/a	n/a	n/a	-999	3	[-999, -999, -999]	n/a	FR1	1	R1542J
374.798	0.64	412411	REC_START	n/a	n/a	n/a	-999	3	[0, 0, 0]	n/a	FR1	1	R1542J
375.438	1.235	413042	REC_WORD	1.235	n/a	FLEA	7	3	[0, 0, 0]	n/a	FR1	1	R1542J
376.673	2.75	414277	REC_WORD	2.75	n/a	FLEET	2	3	[0, 0, 0]	n/a	FR1	1	R1542J
379.423	3.405	417027	REC_WORD	3.405	n/a	CLAM	1	3	[0, 0, 0]	n/a	FR1	1	R1542J
382.828	2.59	420432	REC_WORD	2.59	n/a	VEST	12	3	[0, 0, 0]	n/a	FR1	1	R1542J
385.418	19.596	423022	REC_WORD	19.596	n/a	OX	9	3	[0, 0, 0]	n/a	FR1	1	R1542J
405.014	1.419	442626	REC_END	n/a	n/a	n/a	-999	3	[0, 0, 0]	n/a	FR1	1	R1542J
406.433	10.348	444041	COUNTDOWN_START	n/a	n/a	n/a	-999	3	[0, 0, 0]	n/a	FR1	1	R1542J
416.781	0.0	454384	COUNTDOWN_END	n/a	n/a	n/a	-999	3	[0, 0, 0]	n/a	FR1	1	R1542J
416.781	2.033	454400	ENCODING_START	n/a	n/a	n/a	-999	4	[0, 0, 0]	n/a	FR1	1	R1542J
418.814	1.601	456417	WORD	n/a	wordpools/wordpool_long_EN.txt	STICK	1	4	[0, 0, 0]	n/a	FR1	1	R1542J
420.415	0.999	458027	WORD_OFF	n/a	n/a	STICK	1	4	[0, 0, 0]	n/a	FR1	1	R1542J
421.414	1.602	459019	WORD	n/a	wordpools/wordpool_long_EN.txt	STAIR	2	4	[0, 0, 0]	n/a	FR1	1	R1542J
423.016	0.9	460629	WORD_OFF	n/a	n/a	STAIR	2	4	[0, 0, 0]	n/a	FR1	1	R1542J
423.916	1.616	461523	WORD	n/a	wordpools/wordpool_long_EN.txt	GROUND	3	4	[0, 0, 0]	n/a	FR1	1	R1542J
425.532	0.95	463133	WORD_OFF	n/a	n/a	GROUND	3	4	[0, 0, 0]	n/a	FR1	1	R1542J
426.482	1.6	464092	WORD	n/a	wordpools/wordpool_long_EN.txt	TRASH	4	4	[0, 0, 0]	n/a	FR1	1	R1542J
428.082	0.949	465686	WORD_OFF	n/a	n/a	TRASH	4	4	[0, 0, 0]	n/a	FR1	1	R1542J
429.031	1.601	466646	WORD	n/a	wordpools/wordpool_long_EN.txt	QUAIL	5	4	[0, 0, 0]	n/a	FR1	1	R1542J
430.632	0.9	468239	WORD_OFF	n/a	n/a	QUAIL	5	4	[0, 0, 0]	n/a	FR1	1	R1542J
431.532	1.6	469134	WORD	n/a	wordpools/wordpool_long_EN.txt	SMILE	6	4	[0, 0, 0]	n/a	FR1	1	R1542J
433.132	0.817	470744	WORD_OFF	n/a	n/a	SMILE	6	4	[0, 0, 0]	n/a	FR1	1	R1542J
433.949	1.616	471557	WORD	n/a	wordpools/wordpool_long_EN.txt	NEST	7	4	[0, 0, 0]	n/a	FR1	1	R1542J
435.565	0.783	473167	WORD_OFF	n/a	n/a	NEST	7	4	[0, 0, 0]	n/a	FR1	1	R1542J
436.348	1.6	473964	WORD	n/a	wordpools/wordpool_long_EN.txt	BUG	8	4	[0, 0, 0]	n/a	FR1	1	R1542J
437.948	0.784	475557	WORD_OFF	n/a	n/a	BUG	8	4	[0, 0, 0]	n/a	FR1	1	R1542J
438.732	1.6	476338	WORD	n/a	wordpools/wordpool_long_EN.txt	PLATE	9	4	[0, 0, 0]	n/a	FR1	1	R1542J
440.332	0.8	477948	WORD_OFF	n/a	n/a	PLATE	9	4	[0, 0, 0]	n/a	FR1	1	R1542J
441.132	1.617	478745	WORD	n/a	wordpools/wordpool_long_EN.txt	BADGE	10	4	[0, 0, 0]	n/a	FR1	1	R1542J
442.749	0.966	480355	WORD_OFF	n/a	n/a	BADGE	10	4	[0, 0, 0]	n/a	FR1	1	R1542J
443.715	1.6	481330	WORD	n/a	wordpools/wordpool_long_EN.txt	YOLK	11	4	[0, 0, 0]	n/a	FR1	1	R1542J
445.315	0.966	482924	WORD_OFF	n/a	n/a	YOLK	11	4	[0, 0, 0]	n/a	FR1	1	R1542J
446.281	1.601	483884	WORD	n/a	wordpools/wordpool_long_EN.txt	TROUT	12	4	[0, 0, 0]	n/a	FR1	1	R1542J
447.882	0.002	485483	PROB	0.002	n/a	n/a	-999	4	[3, 8, 1]	12	FR1	1	R1542J
447.884	0.0	485485	START	n/a	n/a	n/a	-999	4	[-999, -999, -999]	n/a	FR1	1	R1542J
447.882	0.002	485494	WORD_OFF	n/a	n/a	TROUT	12	4	[0, 0, 0]	n/a	FR1	1	R1542J
447.884	0.0	485494	ENCODING_END	n/a	n/a	n/a	-999	4	[0, 0, 0]	n/a	FR1	1	R1542J
447.884	2.748	485494	DISTRACT_START	n/a	n/a	n/a	-999	4	[0, 0, 0]	n/a	FR1	1	R1542J
450.632	2.717	488233	PROB	2.717	n/a	n/a	-999	4	[1, 5, 6]	12	FR1	1	R1542J
453.349	4.217	490950	PROB	4.217	n/a	n/a	-999	4	[7, 4, 3]	14	FR1	1	R1542J
457.566	3.049	495167	PROB	3.049	n/a	n/a	-999	4	[4, 8, 6]	18	FR1	1	R1542J
460.615	2.667	498216	PROB	2.667	n/a	n/a	-999	4	[7, 1, 3]	11	FR1	1	R1542J
463.282	2.417	500883	PROB	2.417	n/a	n/a	-999	4	[6, 1, 7]	14	FR1	1	R1542J
465.699	2.668	503300	PROB	2.668	n/a	n/a	-999	4	[1, 5, 4]	10	FR1	1	R1542J
468.367	0.0	505968	DISTRACT_END	n/a	n/a	n/a	-999	4	[0, 0, 0]	n/a	FR1	1	R1542J
468.367	1.865	505968	STOP	n/a	n/a	n/a	-999	4	[-999, -999, -999]	n/a	FR1	1	R1542J
470.232	1.015	507838	REC_START	n/a	n/a	n/a	-999	4	[0, 0, 0]	n/a	FR1	1	R1542J
471.247	1.84	508847	REC_WORD	1.84	n/a	QUAIL	5	4	[0, 0, 0]	n/a	FR1	1	R1542J
473.087	2.835	510687	REC_WORD	2.835	n/a	NEST	7	4	[0, 0, 0]	n/a	FR1	1	R1542J
475.922	3.42	513522	REC_WORD	3.42	n/a	STAIR	2	4	[0, 0, 0]	n/a	FR1	1	R1542J
479.342	3.455	516942	REC_WORD	3.455	n/a	FLOOR	-999	4	[0, 0, 0]	n/a	FR1	1	R1542J
482.797	3.74	520397	REC_WORD	3.74	n/a	WOOD	-999	4	[0, 0, 0]	n/a	FR1	1	R1542J
486.537	1.535	524137	REC_WORD	1.535	n/a	TROUT	12	4	[0, 0, 0]	n/a	FR1	1	R1542J
488.072	12.382	525672	REC_WORD	12.382	n/a	EGG	-999	4	[0, 0, 0]	n/a	FR1	1	R1542J
500.454	1.379	538053	REC_END	n/a	n/a	n/a	-999	4	[0, 0, 0]	n/a	FR1	1	R1542J
501.833	10.35	539436	COUNTDOWN_START	n/a	n/a	n/a	-999	4	[0, 0, 0]	n/a	FR1	1	R1542J
512.183	0.0	549795	COUNTDOWN_END	n/a	n/a	n/a	-999	4	[0, 0, 0]	n/a	FR1	1	R1542J
512.183	2.149	549795	ENCODING_START	n/a	n/a	n/a	-999	5	[0, 0, 0]	n/a	FR1	1	R1542J
514.332	1.617	551941	WORD	n/a	wordpools/wordpool_long_EN.txt	MUD	1	5	[0, 0, 0]	n/a	FR1	1	R1542J
515.949	0.817	553551	WORD_OFF	n/a	n/a	MUD	1	5	[0, 0, 0]	n/a	FR1	1	R1542J
516.766	1.615	554364	WORD	n/a	wordpools/wordpool_long_EN.txt	CAVE	2	5	[0, 0, 0]	n/a	FR1	1	R1542J
518.381	0.85	555991	WORD_OFF	n/a	n/a	CAVE	2	5	[0, 0, 0]	n/a	FR1	1	R1542J
519.231	1.601	556836	WORD	n/a	wordpools/wordpool_long_EN.txt	DUST	3	5	[0, 0, 0]	n/a	FR1	1	R1542J
520.832	0.999	558430	WORD_OFF	n/a	n/a	DUST	3	5	[0, 0, 0]	n/a	FR1	1	R1542J
521.831	1.601	559438	WORD	n/a	wordpools/wordpool_long_EN.txt	RAKE	4	5	[0, 0, 0]	n/a	FR1	1	R1542J
523.432	0.999	561032	WORD_OFF	n/a	n/a	RAKE	4	5	[0, 0, 0]	n/a	FR1	1	R1542J
524.431	1.6	562040	WORD	n/a	wordpools/wordpool_long_EN.txt	PIT	5	5	[0, 0, 0]	n/a	FR1	1	R1542J
526.031	0.884	563634	WORD_OFF	n/a	n/a	PIT	5	5	[0, 0, 0]	n/a	FR1	1	R1542J
526.915	1.617	564528	WORD	n/a	wordpools/wordpool_long_EN.txt	CARD	6	5	[0, 0, 0]	n/a	FR1	1	R1542J
528.532	0.849	566138	WORD_OFF	n/a	n/a	CARD	6	5	[0, 0, 0]	n/a	FR1	1	R1542J
529.381	1.601	566984	WORD	n/a	wordpools/wordpool_long_EN.txt	MOUTH	7	5	[0, 0, 0]	n/a	FR1	1	R1542J
530.982	1.001	568594	WORD_OFF	n/a	n/a	MOUTH	7	5	[0, 0, 0]	n/a	FR1	1	R1542J
531.983	1.6	569586	WORD	n/a	wordpools/wordpool_long_EN.txt	CHEST	8	5	[0, 0, 0]	n/a	FR1	1	R1542J
533.583	0.799	571180	WORD_OFF	n/a	n/a	CHEST	8	5	[0, 0, 0]	n/a	FR1	1	R1542J
534.382	1.6	571993	WORD	n/a	wordpools/wordpool_long_EN.txt	SWORD	9	5	[0, 0, 0]	n/a	FR1	1	R1542J
535.982	0.899	573586	WORD_OFF	n/a	n/a	SWORD	9	5	[0, 0, 0]	n/a	FR1	1	R1542J
536.881	1.601	574481	WORD	n/a	wordpools/wordpool_long_EN.txt	BREAD	10	5	[0, 0, 0]	n/a	FR1	1	R1542J
538.482	0.916	576091	WORD_OFF	n/a	n/a	BREAD	10	5	[0, 0, 0]	n/a	FR1	1	R1542J
539.398	1.617	577001	WORD	n/a	wordpools/wordpool_long_EN.txt	KEY	11	5	[0, 0, 0]	n/a	FR1	1	R1542J
541.015	0.834	578611	WORD_OFF	n/a	n/a	KEY	11	5	[0, 0, 0]	n/a	FR1	1	R1542J
541.849	1.616	579457	WORD	n/a	wordpools/wordpool_long_EN.txt	PERCH	12	5	[0, 0, 0]	n/a	FR1	1	R1542J
543.465	0.001	581062	PROB	0.001	n/a	n/a	-999	5	[1, 1, 6]	8	FR1	1	R1542J
543.466	0.0	581063	START	n/a	n/a	n/a	-999	5	[-999, -999, -999]	n/a	FR1	1	R1542J
543.464	0.002	581067	WORD_OFF	n/a	n/a	PERCH	12	5	[0, 0, 0]	n/a	FR1	1	R1542J
543.466	0.0	581067	ENCODING_END	n/a	n/a	n/a	-999	5	[0, 0, 0]	n/a	FR1	1	R1542J
543.466	2.749	581067	DISTRACT_START	n/a	n/a	n/a	-999	5	[0, 0, 0]	n/a	FR1	1	R1542J
546.215	3.667	583812	PROB	3.667	n/a	n/a	-999	5	[7, 8, 7]	22	FR1	1	R1542J
549.882	3.45	587479	PROB	3.45	n/a	n/a	-999	5	[3, 3, 7]	13	FR1	1	R1542J
553.332	2.45	590929	PROB	2.45	n/a	n/a	-999	5	[1, 7, 6]	14	FR1	1	R1542J
555.782	2.317	593379	PROB	2.317	n/a	n/a	-999	5	[2, 4, 2]	8	FR1	1	R1542J
558.099	2.966	595696	PROB	2.966	n/a	n/a	-999	5	[7, 4, 5]	16	FR1	1	R1542J
561.065	2.45	598662	PROB	2.45	n/a	n/a	-999	5	[5, 4, 3]	12	FR1	1	R1542J
563.515	0.0	601111	STOP	n/a	n/a	n/a	-999	5	[-999, -999, -999]	n/a	FR1	1	R1542J
563.515	1.584	601118	DISTRACT_END	n/a	n/a	n/a	-999	5	[0, 0, 0]	n/a	FR1	1	R1542J
565.099	0.75	602696	REC_START	n/a	n/a	n/a	-999	5	[0, 0, 0]	n/a	FR1	1	R1542J
565.849	1.245	603445	REC_WORD	1.245	n/a	MUD	1	5	[0, 0, 0]	n/a	FR1	1	R1542J
567.094	1.29	604690	REC_WORD	1.29	n/a	CAVE	2	5	[0, 0, 0]	n/a	FR1	1	R1542J
568.384	1.865	605980	REC_WORD	1.865	n/a	RAKE	4	5	[0, 0, 0]	n/a	FR1	1	R1542J
570.249	1.175	607845	REC_WORD	1.175	n/a	MOUTH	7	5	[0, 0, 0]	n/a	FR1	1	R1542J
571.424	1.7	609020	REC_WORD	1.7	n/a	CHEST	8	5	[0, 0, 0]	n/a	FR1	1	R1542J
573.124	2.78	610720	REC_WORD	2.78	n/a	CARD	6	5	[0, 0, 0]	n/a	FR1	1	R1542J
575.904	19.409	613500	REC_WORD	19.409	n/a	DUST	3	5	[0, 0, 0]	n/a	FR1	1	R1542J
595.313	1.537	632911	REC_END	n/a	n/a	n/a	-999	5	[0, 0, 0]	n/a	FR1	1	R1542J
596.85	10.348	634456	COUNTDOWN_START	n/a	n/a	n/a	-999	5	[0, 0, 0]	n/a	FR1	1	R1542J
607.198	0.0	644799	COUNTDOWN_END	n/a	n/a	n/a	-999	5	[0, 0, 0]	n/a	FR1	1	R1542J
607.198	2.033	644799	ENCODING_START	n/a	n/a	n/a	-999	6	[0, 0, 0]	n/a	FR1	1	R1542J
609.231	1.602	646832	WORD	n/a	wordpools/wordpool_long_EN.txt	SEA	1	6	[0, 0, 0]	n/a	FR1	1	R1542J
610.833	0.883	648425	WORD_OFF	n/a	n/a	SEA	1	6	[0, 0, 0]	n/a	FR1	1	R1542J
611.716	1.616	649320	WORD	n/a	wordpools/wordpool_long_EN.txt	FAN	2	6	[0, 0, 0]	n/a	FR1	1	R1542J
613.332	0.783	650930	WORD_OFF	n/a	n/a	FAN	2	6	[0, 0, 0]	n/a	FR1	1	R1542J
614.115	1.601	651710	WORD	n/a	wordpools/wordpool_long_EN.txt	RUST	3	6	[0, 0, 0]	n/a	FR1	1	R1542J
615.716	0.982	653320	WORD_OFF	n/a	n/a	RUST	3	6	[0, 0, 0]	n/a	FR1	1	R1542J
616.698	1.618	654296	WORD	n/a	wordpools/wordpool_long_EN.txt	SCARF	4	6	[0, 0, 0]	n/a	FR1	1	R1542J
618.316	0.783	655922	WORD_OFF	n/a	n/a	SCARF	4	6	[0, 0, 0]	n/a	FR1	1	R1542J
619.099	1.6	656703	WORD	n/a	wordpools/wordpool_long_EN.txt	ROAD	5	6	[0, 0, 0]	n/a	FR1	1	R1542J
620.699	0.883	658297	WORD_OFF	n/a	n/a	ROAD	5	6	[0, 0, 0]	n/a	FR1	1	R1542J
621.582	1.617	659175	WORD	n/a	wordpools/wordpool_long_EN.txt	WIFE	6	6	[0, 0, 0]	n/a	FR1	1	R1542J
623.199	0.95	660801	WORD_OFF	n/a	n/a	WIFE	6	6	[0, 0, 0]	n/a	FR1	1	R1542J
624.149	1.616	661760	WORD	n/a	wordpools/wordpool_long_EN.txt	BAG	7	6	[0, 0, 0]	n/a	FR1	1	R1542J
625.765	0.884	663370	WORD_OFF	n/a	n/a	BAG	7	6	[0, 0, 0]	n/a	FR1	1	R1542J
626.649	1.617	664248	WORD	n/a	wordpools/wordpool_long_EN.txt	NET	8	6	[0, 0, 0]	n/a	FR1	1	R1542J
628.266	0.833	665858	WORD_OFF	n/a	n/a	NET	8	6	[0, 0, 0]	n/a	FR1	1	R1542J
629.099	1.616	666704	WORD	n/a	wordpools/wordpool_long_EN.txt	PLAID	9	6	[0, 0, 0]	n/a	FR1	1	R1542J
630.715	0.885	668314	WORD_OFF	n/a	n/a	PLAID	9	6	[0, 0, 0]	n/a	FR1	1	R1542J
631.6	1.615	669208	WORD	n/a	wordpools/wordpool_long_EN.txt	WHEEL	10	6	[0, 0, 0]	n/a	FR1	1	R1542J
633.215	0.851	670818	WORD_OFF	n/a	n/a	WHEEL	10	6	[0, 0, 0]	n/a	FR1	1	R1542J
634.066	1.616	671664	WORD	n/a	wordpools/wordpool_long_EN.txt	EEL	11	6	[0, 0, 0]	n/a	FR1	1	R1542J
635.682	0.95	673290	WORD_OFF	n/a	n/a	EEL	11	6	[0, 0, 0]	n/a	FR1	1	R1542J
636.632	1.601	674234	WORD	n/a	wordpools/wordpool_long_EN.txt	TOY	12	6	[0, 0, 0]	n/a	FR1	1	R1542J
638.233	0.0	675826	PROB	0.0	n/a	n/a	-999	6	[2, 6, 2]	10	FR1	1	R1542J
638.232	0.003	675827	WORD_OFF	n/a	n/a	TOY	12	6	[0, 0, 0]	n/a	FR1	1	R1542J
638.235	0.0	675828	START	n/a	n/a	n/a	-999	6	[-999, -999, -999]	n/a	FR1	1	R1542J
638.235	0.0	675834	ENCODING_END	n/a	n/a	n/a	-999	6	[0, 0, 0]	n/a	FR1	1	R1542J
638.235	3.03	675844	DISTRACT_START	n/a	n/a	n/a	-999	6	[0, 0, 0]	n/a	FR1	1	R1542J
641.265	2.6	678858	PROB	2.6	n/a	n/a	-999	6	[7, 2, 2]	11	FR1	1	R1542J
643.865	2.133	681458	PROB	2.133	n/a	n/a	-999	6	[2, 1, 1]	4	FR1	1	R1542J
645.998	2.551	683591	PROB	2.551	n/a	n/a	-999	6	[3, 6, 1]	10	FR1	1	R1542J
648.549	2.75	686142	PROB	2.75	n/a	n/a	-999	6	[4, 8, 5]	17	FR1	1	R1542J
651.299	3.267	688892	PROB	3.267	n/a	n/a	-999	6	[7, 8, 2]	17	FR1	1	R1542J
654.566	2.817	692159	PROB	2.817	n/a	n/a	-999	6	[3, 1, 5]	9	FR1	1	R1542J
657.383	2.649	694976	PROB	2.649	n/a	n/a	-999	6	[3, 1, 7]	11	FR1	1	R1542J
660.032	0.0	697624	STOP	n/a	n/a	n/a	-999	6	[-999, -999, -999]	n/a	FR1	1	R1542J
660.032	1.833	697635	DISTRACT_END	n/a	n/a	n/a	-999	6	[0, 0, 0]	n/a	FR1	1	R1542J
661.865	1.264	699456	REC_START	n/a	n/a	n/a	-999	6	[0, 0, 0]	n/a	FR1	1	R1542J
663.129	1.071	700721	REC_WORD	1.071	n/a	EEL	11	6	[0, 0, 0]	n/a	FR1	1	R1542J
664.2	9.135	701792	REC_WORD	9.135	n/a	SEA	1	6	[0, 0, 0]	n/a	FR1	1	R1542J
673.335	2.5	710927	REC_WORD	2.5	n/a	WHEEL	10	6	[0, 0, 0]	n/a	FR1	1	R1542J
675.835	10.255	713427	REC_WORD	10.255	n/a	TOY	12	6	[0, 0, 0]	n/a	FR1	1	R1542J
686.09	6.002	723681	REC_WORD	6.002	n/a	FOAM	-999	6	[0, 0, 0]	n/a	FR1	1	R1542J
692.092	1.441	729688	REC_END	n/a	n/a	n/a	-999	6	[0, 0, 0]	n/a	FR1	1	R1542J
693.533	10.349	731135	COUNTDOWN_START	n/a	n/a	n/a	-999	6	[0, 0, 0]	n/a	FR1	1	R1542J
703.882	0.0	741478	COUNTDOWN_END	n/a	n/a	n/a	-999	6	[0, 0, 0]	n/a	FR1	1	R1542J
703.882	2.184	741478	ENCODING_START	n/a	n/a	n/a	-999	7	[0, 0, 0]	n/a	FR1	1	R1542J
706.066	1.617	743657	WORD	n/a	wordpools/wordpool_long_EN.txt	WASP	1	7	[0, 0, 0]	n/a	FR1	1	R1542J
707.683	0.799	745283	WORD_OFF	n/a	n/a	WASP	1	7	[0, 0, 0]	n/a	FR1	1	R1542J
708.482	1.6	746080	WORD	n/a	wordpools/wordpool_long_EN.txt	CUP	2	7	[0, 0, 0]	n/a	FR1	1	R1542J
710.082	0.818	747674	WORD_OFF	n/a	n/a	CUP	2	7	[0, 0, 0]	n/a	FR1	1	R1542J
710.9	1.615	748503	WORD	n/a	wordpools/wordpool_long_EN.txt	BRICK	3	7	[0, 0, 0]	n/a	FR1	1	R1542J
712.515	0.751	750113	WORD_OFF	n/a	n/a	BRICK	3	7	[0, 0, 0]	n/a	FR1	1	R1542J
713.266	1.615	750861	WORD	n/a	wordpools/wordpool_long_EN.txt	TOWN	4	7	[0, 0, 0]	n/a	FR1	1	R1542J
714.881	1.001	752471	WORD_OFF	n/a	n/a	TOWN	4	7	[0, 0, 0]	n/a	FR1	1	R1542J
715.882	1.617	753480	WORD	n/a	wordpools/wordpool_long_EN.txt	STOOL	5	7	[0, 0, 0]	n/a	FR1	1	R1542J
717.499	0.766	755090	WORD_OFF	n/a	n/a	STOOL	5	7	[0, 0, 0]	n/a	FR1	1	R1542J
718.265	1.6	755854	WORD	n/a	wordpools/wordpool_long_EN.txt	JAIL	6	7	[0, 0, 0]	n/a	FR1	1	R1542J
719.865	0.8	757464	WORD_OFF	n/a	n/a	JAIL	6	7	[0, 0, 0]	n/a	FR1	1	R1542J
720.665	1.6	758261	WORD	n/a	wordpools/wordpool_long_EN.txt	STAKE	7	7	[0, 0, 0]	n/a	FR1	1	R1542J
722.265	0.95	759854	WORD_OFF	n/a	n/a	STAKE	7	7	[0, 0, 0]	n/a	FR1	1	R1542J
723.215	1.616	760814	WORD	n/a	wordpools/wordpool_long_EN.txt	WEED	8	7	[0, 0, 0]	n/a	FR1	1	R1542J
724.831	0.917	762424	WORD_OFF	n/a	n/a	WEED	8	7	[0, 0, 0]	n/a	FR1	1	R1542J
725.748	1.601	763351	WORD	n/a	wordpools/wordpool_long_EN.txt	POND	9	7	[0, 0, 0]	n/a	FR1	1	R1542J
727.349	0.95	764945	WORD_OFF	n/a	n/a	POND	9	7	[0, 0, 0]	n/a	FR1	1	R1542J
728.299	1.616	765888	WORD	n/a	wordpools/wordpool_long_EN.txt	ZOO	10	7	[0, 0, 0]	n/a	FR1	1	R1542J
729.915	0.866	767514	WORD_OFF	n/a	n/a	ZOO	10	7	[0, 0, 0]	n/a	FR1	1	R1542J
730.781	1.6	768376	WORD	n/a	wordpools/wordpool_long_EN.txt	SEAT	11	7	[0, 0, 0]	n/a	FR1	1	R1542J
732.381	0.884	769970	WORD_OFF	n/a	n/a	SEAT	11	7	[0, 0, 0]	n/a	FR1	1	R1542J
733.265	1.601	770864	WORD	n/a	wordpools/wordpool_long_EN.txt	STORM	12	7	[0, 0, 0]	n/a	FR1	1	R1542J
734.866	0.0	772455	PROB	0.0	n/a	n/a	-999	7	[1, 2, 3]	6	FR1	1	R1542J
734.866	0.003	772458	WORD_OFF	n/a	n/a	STORM	12	7	[0, 0, 0]	n/a	FR1	1	R1542J
734.869	0.0	772458	START	n/a	n/a	n/a	-999	7	[-999, -999, -999]	n/a	FR1	1	R1542J
734.869	0.0	772474	ENCODING_END	n/a	n/a	n/a	-999	7	[0, 0, 0]	n/a	FR1	1	R1542J
734.869	2.996	772474	DISTRACT_START	n/a	n/a	n/a	-999	7	[0, 0, 0]	n/a	FR1	1	R1542J
737.865	2.717	775454	PROB	2.717	n/a	n/a	-999	7	[6, 1, 5]	12	FR1	1	R1542J
740.582	3.667	778171	PROB	3.667	n/a	n/a	-999	7	[5, 7, 6]	18	FR1	1	R1542J
744.249	3.816	781838	PROB	3.816	n/a	n/a	-999	7	[2, 4, 2]	8	FR1	1	R1542J
748.065	3.967	785654	PROB	3.967	n/a	n/a	-999	7	[8, 2, 4]	14	FR1	1	R1542J
752.032	5.316	789621	PROB	5.316	n/a	n/a	-999	7	[3, 8, 6]	17	FR1	1	R1542J
757.348	0.0	794936	STOP	n/a	n/a	n/a	-999	7	[-999, -999, -999]	n/a	FR1	1	R1542J
757.348	1.751	794948	DISTRACT_END	n/a	n/a	n/a	-999	7	[0, 0, 0]	n/a	FR1	1	R1542J
759.099	1.05	796688	REC_START	n/a	n/a	n/a	-999	7	[0, 0, 0]	n/a	FR1	1	R1542J
760.149	1.1	797737	REC_WORD	1.1	n/a	JAIL	6	7	[0, 0, 0]	n/a	FR1	1	R1542J
761.249	1.94	798837	REC_WORD	1.94	n/a	STOOL	5	7	[0, 0, 0]	n/a	FR1	1	R1542J
763.189	3.77	800777	REC_WORD	3.77	n/a	SEAT	11	7	[0, 0, 0]	n/a	FR1	1	R1542J
766.959	4.0	804547	REC_WORD	4.0	n/a	WEED	8	7	[0, 0, 0]	n/a	FR1	1	R1542J
770.959	1.525	808547	REC_WORD	1.525	n/a	BEE	-999	7	[0, 0, 0]	n/a	FR1	1	R1542J
772.484	12.125	810072	REC_WORD	12.125	n/a	CUP	2	7	[0, 0, 0]	n/a	FR1	1	R1542J
784.609	4.71	822196	REC_WORD	4.71	n/a	ZOO	10	7	[0, 0, 0]	n/a	FR1	1	R1542J
789.319	1.446	826920	REC_END	n/a	n/a	n/a	-999	7	[0, 0, 0]	n/a	FR1	1	R1542J
790.765	10.351	828367	COUNTDOWN_START	n/a	n/a	n/a	-999	7	[0, 0, 0]	n/a	FR1	1	R1542J
801.116	0.0	838710	COUNTDOWN_END	n/a	n/a	n/a	-999	7	[0, 0, 0]	n/a	FR1	1	R1542J
801.116	2.032	838710	ENCODING_START	n/a	n/a	n/a	-999	8	[0, 0, 0]	n/a	FR1	1	R1542J
803.148	1.602	840743	WORD	n/a	wordpools/wordpool_long_EN.txt	THIEF	1	8	[0, 0, 0]	n/a	FR1	1	R1542J
804.75	0.798	842337	WORD_OFF	n/a	n/a	THIEF	1	8	[0, 0, 0]	n/a	FR1	1	R1542J
805.548	1.616	843134	WORD	n/a	wordpools/wordpool_long_EN.txt	TOOL	2	8	[0, 0, 0]	n/a	FR1	1	R1542J
807.164	0.886	844760	WORD_OFF	n/a	n/a	TOOL	2	8	[0, 0, 0]	n/a	FR1	1	R1542J
808.05	1.617	845638	WORD	n/a	wordpools/wordpool_long_EN.txt	HOOF	3	8	[0, 0, 0]	n/a	FR1	1	R1542J
809.667	0.966	847264	WORD_OFF	n/a	n/a	HOOF	3	8	[0, 0, 0]	n/a	FR1	1	R1542J
810.633	1.615	848224	WORD	n/a	wordpools/wordpool_long_EN.txt	BUSH	4	8	[0, 0, 0]	n/a	FR1	1	R1542J
812.248	1.001	849834	WORD_OFF	n/a	n/a	BUSH	4	8	[0, 0, 0]	n/a	FR1	1	R1542J
813.249	1.601	850842	WORD	n/a	wordpools/wordpool_long_EN.txt	TRENCH	5	8	[0, 0, 0]	n/a	FR1	1	R1542J
814.85	0.832	852436	WORD_OFF	n/a	n/a	TRENCH	5	8	[0, 0, 0]	n/a	FR1	1	R1542J
815.682	1.617	853281	WORD	n/a	wordpools/wordpool_long_EN.txt	YARD	6	8	[0, 0, 0]	n/a	FR1	1	R1542J
817.299	0.833	854891	WORD_OFF	n/a	n/a	YARD	6	8	[0, 0, 0]	n/a	FR1	1	R1542J
818.132	1.6	855721	WORD	n/a	wordpools/wordpool_long_EN.txt	CAGE	7	8	[0, 0, 0]	n/a	FR1	1	R1542J
819.732	0.849	857331	WORD_OFF	n/a	n/a	CAGE	7	8	[0, 0, 0]	n/a	FR1	1	R1542J
820.581	1.601	858176	WORD	n/a	wordpools/wordpool_long_EN.txt	CRIB	8	8	[0, 0, 0]	n/a	FR1	1	R1542J
822.182	1.0	859770	WORD_OFF	n/a	n/a	CRIB	8	8	[0, 0, 0]	n/a	FR1	1	R1542J
823.182	1.6	860778	WORD	n/a	wordpools/wordpool_long_EN.txt	TOOTH	9	8	[0, 0, 0]	n/a	FR1	1	R1542J
824.782	0.934	862372	WORD_OFF	n/a	n/a	TOOTH	9	8	[0, 0, 0]	n/a	FR1	1	R1542J
825.716	1.616	863315	WORD	n/a	wordpools/wordpool_long_EN.txt	LOFT	10	8	[0, 0, 0]	n/a	FR1	1	R1542J
827.332	1.0	864925	WORD_OFF	n/a	n/a	LOFT	10	8	[0, 0, 0]	n/a	FR1	1	R1542J
828.332	1.6	865917	WORD	n/a	wordpools/wordpool_long_EN.txt	CHIEF	11	8	[0, 0, 0]	n/a	FR1	1	R1542J
829.932	0.801	867527	WORD_OFF	n/a	n/a	CHIEF	11	8	[0, 0, 0]	n/a	FR1	1	R1542J
830.733	1.6	868324	WORD	n/a	wordpools/wordpool_long_EN.txt	RUG	12	8	[0, 0, 0]	n/a	FR1	1	R1542J
832.333	0.0	869918	WORD_OFF	n/a	n/a	RUG	12	8	[0, 0, 0]	n/a	FR1	1	R1542J
832.333	0.003	869918	PROB	0.003	n/a	n/a	-999	8	[2, 7, 4]	13	FR1	1	R1542J
832.336	0.0	869921	START	n/a	n/a	n/a	-999	8	[-999, -999, -999]	n/a	FR1	1	R1542J
832.336	0.0	869934	ENCODING_END	n/a	n/a	n/a	-999	8	[0, 0, 0]	n/a	FR1	1	R1542J
832.336	4.395	869934	DISTRACT_START	n/a	n/a	n/a	-999	8	[0, 0, 0]	n/a	FR1	1	R1542J
836.731	3.101	874316	PROB	3.101	n/a	n/a	-999	8	[3, 5, 6]	14	FR1	1	R1542J
839.832	2.617	877417	PROB	2.617	n/a	n/a	-999	8	[7, 7, 1]	15	FR1	1	R1542J
842.449	3.45	880034	PROB	3.45	n/a	n/a	-999	8	[5, 2, 6]	13	FR1	1	R1542J
845.899	2.634	883484	PROB	2.634	n/a	n/a	-999	8	[4, 3, 6]	13	FR1	1	R1542J
848.533	2.383	886117	PROB	2.383	n/a	n/a	-999	8	[8, 4, 1]	13	FR1	1	R1542J
850.916	2.349	888500	PROB	2.349	n/a	n/a	-999	8	[6, 1, 4]	11	FR1	1	R1542J
853.265	0.0	890849	STOP	n/a	n/a	n/a	-999	8	[-999, -999, -999]	n/a	FR1	1	R1542J
853.265	1.834	890863	DISTRACT_END	n/a	n/a	n/a	-999	8	[0, 0, 0]	n/a	FR1	1	R1542J
855.099	5.39	892685	REC_START	n/a	n/a	n/a	-999	8	[0, 0, 0]	n/a	FR1	1	R1542J
860.489	0.895	898073	REC_WORD	0.895	n/a	CRIB	8	8	[0, 0, 0]	n/a	FR1	1	R1542J
861.384	1.275	898968	REC_WORD	1.275	n/a	CAGE	7	8	[0, 0, 0]	n/a	FR1	1	R1542J
862.659	8.255	900243	REC_WORD	8.255	n/a	RUG	12	8	[0, 0, 0]	n/a	FR1	1	R1542J
870.914	14.403	908497	REC_WORD	14.403	n/a	CHIEF	11	8	[0, 0, 0]	n/a	FR1	1	R1542J
885.317	1.551	922900	REC_END	n/a	n/a	n/a	-999	8	[0, 0, 0]	n/a	FR1	1	R1542J
886.868	10.348	924461	COUNTDOWN_START	n/a	n/a	n/a	-999	8	[0, 0, 0]	n/a	FR1	1	R1542J
897.216	0.0	934804	COUNTDOWN_END	n/a	n/a	n/a	-999	8	[0, 0, 0]	n/a	FR1	1	R1542J
897.216	2.183	934804	ENCODING_START	n/a	n/a	n/a	-999	9	[0, 0, 0]	n/a	FR1	1	R1542J
899.399	1.615	936983	WORD	n/a	wordpools/wordpool_long_EN.txt	BARN	1	9	[0, 0, 0]	n/a	FR1	1	R1542J
901.014	0.784	938609	WORD_OFF	n/a	n/a	BARN	1	9	[0, 0, 0]	n/a	FR1	1	R1542J
901.798	1.601	939390	WORD	n/a	wordpools/wordpool_long_EN.txt	HORN	2	9	[0, 0, 0]	n/a	FR1	1	R1542J
903.399	0.933	940984	WORD_OFF	n/a	n/a	HORN	2	9	[0, 0, 0]	n/a	FR1	1	R1542J
904.332	1.6	941927	WORD	n/a	wordpools/wordpool_long_EN.txt	JUDGE	3	9	[0, 0, 0]	n/a	FR1	1	R1542J
905.932	1.0	943521	WORD_OFF	n/a	n/a	JUDGE	3	9	[0, 0, 0]	n/a	FR1	1	R1542J
906.932	1.6	944529	WORD	n/a	wordpools/wordpool_long_EN.txt	BEAK	4	9	[0, 0, 0]	n/a	FR1	1	R1542J
908.532	0.984	946123	WORD_OFF	n/a	n/a	BEAK	4	9	[0, 0, 0]	n/a	FR1	1	R1542J
909.516	1.616	947098	WORD	n/a	wordpools/wordpool_long_EN.txt	BOWL	5	9	[0, 0, 0]	n/a	FR1	1	R1542J
911.132	0.816	948725	WORD_OFF	n/a	n/a	BOWL	5	9	[0, 0, 0]	n/a	FR1	1	R1542J
911.948	1.601	949538	WORD	n/a	wordpools/wordpool_long_EN.txt	LACE	6	9	[0, 0, 0]	n/a	FR1	1	R1542J
913.549	0.9	951131	WORD_OFF	n/a	n/a	LACE	6	9	[0, 0, 0]	n/a	FR1	1	R1542J
914.449	1.6	952042	WORD	n/a	wordpools/wordpool_long_EN.txt	GIRL	7	9	[0, 0, 0]	n/a	FR1	1	R1542J
916.049	0.799	953636	WORD_OFF	n/a	n/a	GIRL	7	9	[0, 0, 0]	n/a	FR1	1	R1542J
916.848	1.6	954433	WORD	n/a	wordpools/wordpool_long_EN.txt	LINT	8	9	[0, 0, 0]	n/a	FR1	1	R1542J
918.448	0.967	956043	WORD_OFF	n/a	n/a	LINT	8	9	[0, 0, 0]	n/a	FR1	1	R1542J
919.415	1.601	957002	WORD	n/a	wordpools/wordpool_long_EN.txt	DIME	9	9	[0, 0, 0]	n/a	FR1	1	R1542J
921.016	0.999	958596	WORD_OFF	n/a	n/a	DIME	9	9	[0, 0, 0]	n/a	FR1	1	R1542J
922.015	1.6	959604	WORD	n/a	wordpools/wordpool_long_EN.txt	BROOK	10	9	[0, 0, 0]	n/a	FR1	1	R1542J
923.615	0.933	961198	WORD_OFF	n/a	n/a	BROOK	10	9	[0, 0, 0]	n/a	FR1	1	R1542J
924.548	1.616	962141	WORD	n/a	wordpools/wordpool_long_EN.txt	TRAY	11	9	[0, 0, 0]	n/a	FR1	1	R1542J
926.164	0.769	963751	WORD_OFF	n/a	n/a	TRAY	11	9	[0, 0, 0]	n/a	FR1	1	R1542J
926.933	1.615	964515	WORD	n/a	wordpools/wordpool_long_EN.txt	DEER	12	9	[0, 0, 0]	n/a	FR1	1	R1542J
928.548	0.002	966129	PROB	0.002	n/a	n/a	-999	9	[2, 2, 8]	12	FR1	1	R1542J
928.55	0.0	966131	START	n/a	n/a	n/a	-999	9	[-999, -999, -999]	n/a	FR1	1	R1542J
928.548	0.002	966141	WORD_OFF	n/a	n/a	DEER	12	9	[0, 0, 0]	n/a	FR1	1	R1542J
928.55	0.0	966141	ENCODING_END	n/a	n/a	n/a	-999	9	[0, 0, 0]	n/a	FR1	1	R1542J
928.55	2.982	966141	DISTRACT_START	n/a	n/a	n/a	-999	9	[0, 0, 0]	n/a	FR1	1	R1542J
931.532	2.317	969113	PROB	2.317	n/a	n/a	-999	9	[1, 3, 7]	11	FR1	1	R1542J
933.849	3.25	971430	PROB	3.25	n/a	n/a	-999	9	[6, 4, 4]	14	FR1	1	R1542J
937.099	2.85	974680	PROB	2.85	n/a	n/a	-999	9	[7, 1, 8]	16	FR1	1	R1542J
939.949	2.75	977530	PROB	2.75	n/a	n/a	-999	9	[5, 8, 8]	21	FR1	1	R1542J
942.699	4.099	980279	PROB	4.099	n/a	n/a	-999	9	[2, 4, 5]	11	FR1	1	R1542J
946.798	3.9	984378	PROB	3.9	n/a	n/a	-999	9	[8, 3, 5]	16	FR1	1	R1542J
950.698	0.0	988278	STOP	n/a	n/a	n/a	-999	9	[-999, -999, -999]	n/a	FR1	1	R1542J
950.698	1.584	988291	DISTRACT_END	n/a	n/a	n/a	-999	9	[0, 0, 0]	n/a	FR1	1	R1542J
952.282	1.79	989868	REC_START	n/a	n/a	n/a	-999	9	[0, 0, 0]	n/a	FR1	1	R1542J
954.072	1.795	991652	REC_WORD	1.795	n/a	BARN	1	9	[0, 0, 0]	n/a	FR1	1	R1542J
955.867	5.545	993447	REC_WORD	5.545	n/a	DEER	12	9	[0, 0, 0]	n/a	FR1	1	R1542J
961.412	13.857	998992	REC_WORD	13.857	n/a	BROOK	10	9	[0, 0, 0]	n/a	FR1	1	R1542J
975.269	7.237	1012848	REC_WORD	7.237	n/a	TRAY	11	9	[0, 0, 0]	n/a	FR1	1	R1542J
982.506	1.377	1020100	REC_END	n/a	n/a	n/a	-999	9	[0, 0, 0]	n/a	FR1	1	R1542J
983.883	10.349	1021466	COUNTDOWN_START	n/a	n/a	n/a	-999	9	[0, 0, 0]	n/a	FR1	1	R1542J
994.232	0.0	1031825	COUNTDOWN_END	n/a	n/a	n/a	-999	9	[0, 0, 0]	n/a	FR1	1	R1542J
994.232	2.0	1031825	ENCODING_START	n/a	n/a	n/a	-999	10	[0, 0, 0]	n/a	FR1	1	R1542J
996.232	1.6	1033825	WORD	n/a	wordpools/wordpool_long_EN.txt	SPOUSE	1	10	[0, 0, 0]	n/a	FR1	1	R1542J
997.832	0.817	1035419	WORD_OFF	n/a	n/a	SPOUSE	1	10	[0, 0, 0]	n/a	FR1	1	R1542J
998.649	1.616	1036232	WORD	n/a	wordpools/wordpool_long_EN.txt	MOUSE	2	10	[0, 0, 0]	n/a	FR1	1	R1542J
1000.265	0.917	1037842	WORD_OFF	n/a	n/a	MOUSE	2	10	[0, 0, 0]	n/a	FR1	1	R1542J
1001.182	1.6	1038769	WORD	n/a	wordpools/wordpool_long_EN.txt	SPEAR	3	10	[0, 0, 0]	n/a	FR1	1	R1542J
1002.782	0.95	1040362	WORD_OFF	n/a	n/a	SPEAR	3	10	[0, 0, 0]	n/a	FR1	1	R1542J
1003.732	1.6	1041322	WORD	n/a	wordpools/wordpool_long_EN.txt	CASH	4	10	[0, 0, 0]	n/a	FR1	1	R1542J
1005.332	0.85	1042916	WORD_OFF	n/a	n/a	CASH	4	10	[0, 0, 0]	n/a	FR1	1	R1542J
1006.182	1.6	1043761	WORD	n/a	wordpools/wordpool_long_EN.txt	BENCH	5	10	[0, 0, 0]	n/a	FR1	1	R1542J
1007.782	0.85	1045371	WORD_OFF	n/a	n/a	BENCH	5	10	[0, 0, 0]	n/a	FR1	1	R1542J
1008.632	1.601	1046217	WORD	n/a	wordpools/wordpool_long_EN.txt	RIB	6	10	[0, 0, 0]	n/a	FR1	1	R1542J
1010.233	0.933	1047811	WORD_OFF	n/a	n/a	RIB	6	10	[0, 0, 0]	n/a	FR1	1	R1542J
1011.166	1.599	1048754	WORD	n/a	wordpools/wordpool_long_EN.txt	PET	7	10	[0, 0, 0]	n/a	FR1	1	R1542J
1012.765	0.866	1050348	WORD_OFF	n/a	n/a	PET	7	10	[0, 0, 0]	n/a	FR1	1	R1542J
1013.631	1.601	1051209	WORD	n/a	wordpools/wordpool_long_EN.txt	ROCK	8	10	[0, 0, 0]	n/a	FR1	1	R1542J
1015.232	0.9	1052819	WORD_OFF	n/a	n/a	ROCK	8	10	[0, 0, 0]	n/a	FR1	1	R1542J
1016.132	1.618	1053714	WORD	n/a	wordpools/wordpool_long_EN.txt	WEB	9	10	[0, 0, 0]	n/a	FR1	1	R1542J
1017.75	0.781	1055340	WORD_OFF	n/a	n/a	WEB	9	10	[0, 0, 0]	n/a	FR1	1	R1542J
1018.531	1.6	1056121	WORD	n/a	wordpools/wordpool_long_EN.txt	CROWN	10	10	[0, 0, 0]	n/a	FR1	1	R1542J
1020.131	0.951	1057714	WORD_OFF	n/a	n/a	CROWN	10	10	[0, 0, 0]	n/a	FR1	1	R1542J
1021.082	1.601	1058658	WORD	n/a	wordpools/wordpool_long_EN.txt	STRING	11	10	[0, 0, 0]	n/a	FR1	1	R1542J
1022.683	0.983	1060268	WORD_OFF	n/a	n/a	STRING	11	10	[0, 0, 0]	n/a	FR1	1	R1542J
1023.666	1.601	1061243	WORD	n/a	wordpools/wordpool_long_EN.txt	SKATE	12	10	[0, 0, 0]	n/a	FR1	1	R1542J
1025.267	0.001	1062844	PROB	0.001	n/a	n/a	-999	10	[6, 2, 8]	16	FR1	1	R1542J
1025.268	0.0	1062845	START	n/a	n/a	n/a	-999	10	[-999, -999, -999]	n/a	FR1	1	R1542J
1025.266	0.002	1062853	WORD_OFF	n/a	n/a	SKATE	12	10	[0, 0, 0]	n/a	FR1	1	R1542J
1025.268	0.0	1062853	ENCODING_END	n/a	n/a	n/a	-999	10	[0, 0, 0]	n/a	FR1	1	R1542J
1025.268	3.615	1062853	DISTRACT_START	n/a	n/a	n/a	-999	10	[0, 0, 0]	n/a	FR1	1	R1542J
1028.883	3.899	1066460	PROB	3.899	n/a	n/a	-999	10	[1, 3, 2]	6	FR1	1	R1542J
1032.782	3.317	1070359	PROB	3.317	n/a	n/a	-999	10	[6, 5, 5]	16	FR1	1	R1542J
1036.099	3.133	1073675	PROB	3.133	n/a	n/a	-999	10	[2, 3, 5]	10	FR1	1	R1542J
1039.232	3.717	1076808	PROB	3.717	n/a	n/a	-999	10	[7, 7, 8]	22	FR1	1	R1542J
1042.949	2.451	1080525	PROB	2.451	n/a	n/a	-999	10	[2, 3, 7]	12	FR1	1	R1542J
1045.4	0.0	1082976	STOP	n/a	n/a	n/a	-999	10	[-999, -999, -999]	n/a	FR1	1	R1542J
1045.4	1.565	1082986	DISTRACT_END	n/a	n/a	n/a	-999	10	[0, 0, 0]	n/a	FR1	1	R1542J
1046.965	0.98	1084547	REC_START	n/a	n/a	n/a	-999	10	[0, 0, 0]	n/a	FR1	1	R1542J
1047.945	1.0	1085521	REC_WORD	1.0	n/a	SPOUSE	1	10	[0, 0, 0]	n/a	FR1	1	R1542J
1048.945	0.779	1086521	REC_WORD_VV	0.779	n/a	<>	-999	10	[0, 0, 0]	n/a	FR1	1	R1542J
1049.724	3.251	1087300	REC_WORD	3.251	n/a	MOUSE	2	10	[0, 0, 0]	n/a	FR1	1	R1542J
1052.975	24.216	1090551	REC_WORD	24.216	n/a	STRING	11	10	[0, 0, 0]	n/a	FR1	1	R1542J
1077.191	1.926	1114779	REC_END	n/a	n/a	n/a	-999	10	[0, 0, 0]	n/a	FR1	1	R1542J
1079.117	10.349	1116698	COUNTDOWN_START	n/a	n/a	n/a	-999	10	[0, 0, 0]	n/a	FR1	1	R1542J
1089.466	0.0	1127040	COUNTDOWN_END	n/a	n/a	n/a	-999	10	[0, 0, 0]	n/a	FR1	1	R1542J
1089.466	2.033	1127057	ENCODING_START	n/a	n/a	n/a	-999	11	[0, 0, 0]	n/a	FR1	1	R1542J
1091.499	1.6	1129073	WORD	n/a	wordpools/wordpool_long_EN.txt	FOX	1	11	[0, 0, 0]	n/a	FR1	1	R1542J
1093.099	0.884	1130683	WORD_OFF	n/a	n/a	FOX	1	11	[0, 0, 0]	n/a	FR1	1	R1542J
1093.983	1.616	1131561	WORD	n/a	wordpools/wordpool_long_EN.txt	LEAF	2	11	[0, 0, 0]	n/a	FR1	1	R1542J
1095.599	1.0	1133188	WORD_OFF	n/a	n/a	LEAF	2	11	[0, 0, 0]	n/a	FR1	1	R1542J
1096.599	1.601	1134180	WORD	n/a	wordpools/wordpool_long_EN.txt	MULE	3	11	[0, 0, 0]	n/a	FR1	1	R1542J
1098.2	0.883	1135773	WORD_OFF	n/a	n/a	MULE	3	11	[0, 0, 0]	n/a	FR1	1	R1542J
1099.083	1.616	1136668	WORD	n/a	wordpools/wordpool_long_EN.txt	MASK	4	11	[0, 0, 0]	n/a	FR1	1	R1542J
1100.699	1.0	1138278	WORD_OFF	n/a	n/a	MASK	4	11	[0, 0, 0]	n/a	FR1	1	R1542J
1101.699	1.618	1139286	WORD	n/a	wordpools/wordpool_long_EN.txt	STEAM	5	11	[0, 0, 0]	n/a	FR1	1	R1542J
1103.317	0.982	1140896	WORD_OFF	n/a	n/a	STEAM	5	11	[0, 0, 0]	n/a	FR1	1	R1542J
1104.299	1.6	1141872	WORD	n/a	wordpools/wordpool_long_EN.txt	EGG	6	11	[0, 0, 0]	n/a	FR1	1	R1542J
1105.899	0.766	1143482	WORD_OFF	n/a	n/a	EGG	6	11	[0, 0, 0]	n/a	FR1	1	R1542J
1106.665	1.6	1144246	WORD	n/a	wordpools/wordpool_long_EN.txt	FARM	7	11	[0, 0, 0]	n/a	FR1	1	R1542J
1108.265	0.767	1145840	WORD_OFF	n/a	n/a	FARM	7	11	[0, 0, 0]	n/a	FR1	1	R1542J
1109.032	1.6	1146620	WORD	n/a	wordpools/wordpool_long_EN.txt	LAWN	8	11	[0, 0, 0]	n/a	FR1	1	R1542J
1110.632	0.783	1148214	WORD_OFF	n/a	n/a	LAWN	8	11	[0, 0, 0]	n/a	FR1	1	R1542J
1111.415	1.601	1148994	WORD	n/a	wordpools/wordpool_long_EN.txt	SKUNK	9	11	[0, 0, 0]	n/a	FR1	1	R1542J
1113.016	0.866	1150588	WORD_OFF	n/a	n/a	SKUNK	9	11	[0, 0, 0]	n/a	FR1	1	R1542J
1113.882	1.6	1151466	WORD	n/a	wordpools/wordpool_long_EN.txt	WRIST	10	11	[0, 0, 0]	n/a	FR1	1	R1542J
1115.482	0.801	1153060	WORD_OFF	n/a	n/a	WRIST	10	11	[0, 0, 0]	n/a	FR1	1	R1542J
1116.283	1.616	1153857	WORD	n/a	wordpools/wordpool_long_EN.txt	MAP	11	11	[0, 0, 0]	n/a	FR1	1	R1542J
1117.899	0.9	1155483	WORD_OFF	n/a	n/a	MAP	11	11	[0, 0, 0]	n/a	FR1	1	R1542J
1118.799	1.6	1156378	WORD	n/a	wordpools/wordpool_long_EN.txt	PEARL	12	11	[0, 0, 0]	n/a	FR1	1	R1542J
1120.399	0.001	1157971	WORD_OFF	n/a	n/a	PEARL	12	11	[0, 0, 0]	n/a	FR1	1	R1542J
1120.4	0.001	1157973	PROB	0.001	n/a	n/a	-999	11	[1, 1, 2]	4	FR1	1	R1542J
1120.401	0.0	1157974	START	n/a	n/a	n/a	-999	11	[-999, -999, -999]	n/a	FR1	1	R1542J
1120.401	0.0	1157988	ENCODING_END	n/a	n/a	n/a	-999	11	[0, 0, 0]	n/a	FR1	1	R1542J
1120.401	3.515	1157988	DISTRACT_START	n/a	n/a	n/a	-999	11	[0, 0, 0]	n/a	FR1	1	R1542J
1123.916	3.383	1161489	PROB	3.383	n/a	n/a	-999	11	[2, 6, 8]	16	FR1	1	R1542J
1127.299	2.617	1164872	PROB	2.617	n/a	n/a	-999	11	[8, 8, 6]	22	FR1	1	R1542J
1129.916	3.099	1167488	PROB	3.099	n/a	n/a	-999	11	[4, 5, 5]	14	FR1	1	R1542J
1133.015	2.566	1170587	PROB	2.566	n/a	n/a	-999	11	[5, 1, 7]	13	FR1	1	R1542J
1135.581	3.968	1173153	PROB	3.968	n/a	n/a	-999	11	[8, 5, 5]	18	FR1	1	R1542J
1139.549	5.717	1177121	PROB	5.717	n/a	n/a	-999	11	[6, 5, 8]	19	FR1	1	R1542J
1145.266	0.0	1182838	STOP	n/a	n/a	n/a	-999	11	[-999, -999, -999]	n/a	FR1	1	R1542J
1145.266	1.732	1182853	DISTRACT_END	n/a	n/a	n/a	-999	11	[0, 0, 0]	n/a	FR1	1	R1542J
1146.998	6.855	1184576	REC_START	n/a	n/a	n/a	-999	11	[0, 0, 0]	n/a	FR1	1	R1542J
1153.853	1.71	1191424	REC_WORD	1.71	n/a	FOX	1	11	[0, 0, 0]	n/a	FR1	1	R1542J
1155.563	13.22	1193134	REC_WORD	13.22	n/a	MASK	4	11	[0, 0, 0]	n/a	FR1	1	R1542J
1168.783	1.14	1206354	REC_WORD	1.14	n/a	FARM	7	11	[0, 0, 0]	n/a	FR1	1	R1542J
1169.923	4.3	1207494	REC_WORD	4.3	n/a	MAP	11	11	[0, 0, 0]	n/a	FR1	1	R1542J
1174.223	2.999	1211794	REC_WORD	2.999	n/a	LAWN	8	11	[0, 0, 0]	n/a	FR1	1	R1542J
1177.222	1.478	1214792	REC_END	n/a	n/a	n/a	-999	11	[0, 0, 0]	n/a	FR1	1	R1542J
1178.7	10.348	1216272	COUNTDOWN_START	n/a	n/a	n/a	-999	11	[0, 0, 0]	n/a	FR1	1	R1542J
1189.048	0.0	1226631	COUNTDOWN_END	n/a	n/a	n/a	-999	11	[0, 0, 0]	n/a	FR1	1	R1542J
1189.048	1.967	1226631	ENCODING_START	n/a	n/a	n/a	-999	12	[0, 0, 0]	n/a	FR1	1	R1542J
1191.015	1.601	1228598	WORD	n/a	wordpools/wordpool_long_EN.txt	WING	1	12	[0, 0, 0]	n/a	FR1	1	R1542J
1192.616	0.999	1230192	WORD_OFF	n/a	n/a	WING	1	12	[0, 0, 0]	n/a	FR1	1	R1542J
1193.615	1.6	1231184	WORD	n/a	wordpools/wordpool_long_EN.txt	INK	2	12	[0, 0, 0]	n/a	FR1	1	R1542J
1195.215	0.917	1232794	WORD_OFF	n/a	n/a	INK	2	12	[0, 0, 0]	n/a	FR1	1	R1542J
1196.132	1.601	1233705	WORD	n/a	wordpools/wordpool_long_EN.txt	BLUSH	3	12	[0, 0, 0]	n/a	FR1	1	R1542J
1197.733	0.932	1235315	WORD_OFF	n/a	n/a	BLUSH	3	12	[0, 0, 0]	n/a	FR1	1	R1542J
1198.665	1.601	1236242	WORD	n/a	wordpools/wordpool_long_EN.txt	SHEET	4	12	[0, 0, 0]	n/a	FR1	1	R1542J
1200.266	0.882	1237835	WORD_OFF	n/a	n/a	SHEET	4	12	[0, 0, 0]	n/a	FR1	1	R1542J
1201.148	1.602	1238730	WORD	n/a	wordpools/wordpool_long_EN.txt	CANE	5	12	[0, 0, 0]	n/a	FR1	1	R1542J
1202.75	0.799	1240323	WORD_OFF	n/a	n/a	CANE	5	12	[0, 0, 0]	n/a	FR1	1	R1542J
1203.549	1.617	1241120	WORD	n/a	wordpools/wordpool_long_EN.txt	QUEEN	6	12	[0, 0, 0]	n/a	FR1	1	R1542J
1205.166	0.866	1242747	WORD_OFF	n/a	n/a	QUEEN	6	12	[0, 0, 0]	n/a	FR1	1	R1542J
1206.032	1.616	1243608	WORD	n/a	wordpools/wordpool_long_EN.txt	BOMB	7	12	[0, 0, 0]	n/a	FR1	1	R1542J
1207.648	0.868	1245218	WORD_OFF	n/a	n/a	BOMB	7	12	[0, 0, 0]	n/a	FR1	1	R1542J
1208.516	1.599	1246097	WORD	n/a	wordpools/wordpool_long_EN.txt	KITE	8	12	[0, 0, 0]	n/a	FR1	1	R1542J
1210.115	1.0	1247690	WORD_OFF	n/a	n/a	KITE	8	12	[0, 0, 0]	n/a	FR1	1	R1542J
1211.115	1.602	1248699	WORD	n/a	wordpools/wordpool_long_EN.txt	LAND	9	12	[0, 0, 0]	n/a	FR1	1	R1542J
1212.717	0.848	1250292	WORD_OFF	n/a	n/a	LAND	9	12	[0, 0, 0]	n/a	FR1	1	R1542J
1213.565	1.601	1251138	WORD	n/a	wordpools/wordpool_long_EN.txt	BOARD	10	12	[0, 0, 0]	n/a	FR1	1	R1542J
1215.166	0.933	1252748	WORD_OFF	n/a	n/a	BOARD	10	12	[0, 0, 0]	n/a	FR1	1	R1542J
1216.099	1.617	1253675	WORD	n/a	wordpools/wordpool_long_EN.txt	SLIME	11	12	[0, 0, 0]	n/a	FR1	1	R1542J
1217.716	0.767	1255285	WORD_OFF	n/a	n/a	SLIME	11	12	[0, 0, 0]	n/a	FR1	1	R1542J
1218.483	1.616	1256065	WORD	n/a	wordpools/wordpool_long_EN.txt	SHIP	12	12	[0, 0, 0]	n/a	FR1	1	R1542J
1220.099	0.002	1257668	PROB	0.002	n/a	n/a	-999	12	[2, 2, 2]	6	FR1	1	R1542J
1220.101	0.0	1257670	START	n/a	n/a	n/a	-999	12	[-999, -999, -999]	n/a	FR1	1	R1542J
1220.099	0.002	1257675	WORD_OFF	n/a	n/a	SHIP	12	12	[0, 0, 0]	n/a	FR1	1	R1542J
1220.101	0.0	1257675	ENCODING_END	n/a	n/a	n/a	-999	12	[0, 0, 0]	n/a	FR1	1	R1542J
1220.101	2.481	1257675	DISTRACT_START	n/a	n/a	n/a	-999	12	[0, 0, 0]	n/a	FR1	1	R1542J
1222.582	2.8	1260151	PROB	2.8	n/a	n/a	-999	12	[6, 5, 5]	16	FR1	1	R1542J
1225.382	2.834	1262950	PROB	2.834	n/a	n/a	-999	12	[3, 8, 7]	18	FR1	1	R1542J
1228.216	2.366	1265784	PROB	2.366	n/a	n/a	-999	12	[4, 7, 2]	13	FR1	1	R1542J
1230.582	2.1	1268150	PROB	2.1	n/a	n/a	-999	12	[2, 2, 2]	6	FR1	1	R1542J
1232.682	3.452	1270250	PROB	3.452	n/a	n/a	-999	12	[4, 3, 6]	13	FR1	1	R1542J
1236.134	2.849	1273702	PROB	2.849	n/a	n/a	-999	12	[4, 2, 8]	14	FR1	1	R1542J
1238.983	2.682	1276551	PROB	2.682	n/a	n/a	-999	12	[4, 5, 5]	14	FR1	1	R1542J
1241.665	0.0	1279233	STOP	n/a	n/a	n/a	-999	12	[-999, -999, -999]	n/a	FR1	1	R1542J
1241.665	1.584	1279239	DISTRACT_END	n/a	n/a	n/a	-999	12	[0, 0, 0]	n/a	FR1	1	R1542J
1243.249	2.959	1280816	REC_START	n/a	n/a	n/a	-999	12	[0, 0, 0]	n/a	FR1	1	R1542J
1246.208	1.536	1283776	REC_WORD	1.536	n/a	SHIP	12	12	[0, 0, 0]	n/a	FR1	1	R1542J
1247.744	1.65	1285311	REC_WORD	1.65	n/a	QUEEN	6	12	[0, 0, 0]	n/a	FR1	1	R1542J
1249.394	1.675	1286961	REC_WORD	1.675	n/a	INK	2	12	[0, 0, 0]	n/a	FR1	1	R1542J
1251.069	4.805	1288636	REC_WORD	4.805	n/a	BLUSH	3	12	[0, 0, 0]	n/a	FR1	1	R1542J
1255.874	14.745	1293441	REC_WORD	14.745	n/a	BOMB	7	12	[0, 0, 0]	n/a	FR1	1	R1542J
1270.619	2.852	1308186	REC_WORD	2.852	n/a	BOARD	10	12	[0, 0, 0]	n/a	FR1	1	R1542J
1273.471	0.0	1311048	REC_END	n/a	n/a	n/a	-999	12	[0, 0, 0]	n/a	FR1	1	R1542J
