onset	duration	sample	trial_type	response_time	stim_file	item_name	serialpos	list	test	answer	experiment	session	subject
0.0	0.0	-1	START	n/a	n/a	n/a	-999	-1	[-999, -999, -999]	n/a	FR1	0	R1383J
0.0	14.299	-1	PROB	14.299	n/a	n/a	-999	-1	[7, 6, 3]	16	FR1	0	R1383J
14.299	3.567	-1	PROB	3.567	n/a	n/a	-999	-1	[8, 7, 1]	16	FR1	0	R1383J
17.866	3.95	-1	PROB	3.95	n/a	n/a	-999	-1	[3, 8, 4]	15	FR1	0	R1383J
21.816	73.317	-1	STOP	n/a	n/a	n/a	-999	-1	[-999, -999, -999]	n/a	FR1	0	R1383J
95.133	0.0	-1	START	n/a	n/a	n/a	-999	1	[-999, -999, -999]	n/a	FR1	0	R1383J
95.133	97.132	-1	PROB	97.132	n/a	n/a	-999	1	[3, 1, 3]	7	FR1	0	R1383J
192.265	18269.258	-1	STOP	n/a	n/a	n/a	-999	1	[-999, -999, -999]	n/a	FR1	0	R1383J
18461.523	1.077	8214	INSTRUCT_START	n/a	n/a	n/a	-999	-999	[0, 0, 0]	n/a	FR1	0	R1383J
18462.6	21.141	9293	INSTRUCT_END	n/a	n/a	n/a	-999	-999	[0, 0, 0]	n/a	FR1	0	R1383J
18483.741	10.358	30430	COUNTDOWN_START	n/a	n/a	n/a	-999	-999	[0, 0, 0]	n/a	FR1	0	R1383J
18494.099	0.0	40785	COUNTDOWN_END	n/a	n/a	n/a	-999	-999	[0, 0, 0]	n/a	FR1	0	R1383J
18494.099	1.956	40793	ENCODING_START	n/a	n/a	n/a	-999	-1	[0, 0, 0]	n/a	FR1	0	R1383J
18496.055	1.6	42743	WORD	n/a	n/a	COTTON	1	-1	[0, 0, 0]	n/a	FR1	0	R1383J
18497.655	0.984	44344	WORD_OFF	n/a	n/a	COTTON	1	-1	[0, 0, 0]	n/a	FR1	0	R1383J
18498.639	1.616	45327	WORD	n/a	n/a	RHINO	2	-1	[0, 0, 0]	n/a	FR1	0	R1383J
18500.255	0.8	46945	WORD_OFF	n/a	n/a	RHINO	2	-1	[0, 0, 0]	n/a	FR1	0	R1383J
18501.055	1.6	47746	WORD	n/a	n/a	CHEST	3	-1	[0, 0, 0]	n/a	FR1	0	R1383J
18502.655	0.8	49347	WORD_OFF	n/a	n/a	CHEST	3	-1	[0, 0, 0]	n/a	FR1	0	R1383J
18503.455	1.6	50148	WORD	n/a	n/a	WAGON	4	-1	[0, 0, 0]	n/a	FR1	0	R1383J
18505.055	0.966	51740	WORD_OFF	n/a	n/a	WAGON	4	-1	[0, 0, 0]	n/a	FR1	0	R1383J
18506.021	1.6	52706	WORD	n/a	n/a	FLOOD	5	-1	[0, 0, 0]	n/a	FR1	0	R1383J
18507.621	0.8	54307	WORD_OFF	n/a	n/a	FLOOD	5	-1	[0, 0, 0]	n/a	FR1	0	R1383J
18508.421	1.6	55108	WORD	n/a	n/a	RING	6	-1	[0, 0, 0]	n/a	FR1	0	R1383J
18510.021	0.783	56709	WORD_OFF	n/a	n/a	RING	6	-1	[0, 0, 0]	n/a	FR1	0	R1383J
18510.804	1.601	57492	WORD	n/a	n/a	IMAGE	7	-1	[0, 0, 0]	n/a	FR1	0	R1383J
18512.405	0.766	59093	WORD_OFF	n/a	n/a	IMAGE	7	-1	[0, 0, 0]	n/a	FR1	0	R1383J
18513.171	1.617	59859	WORD	n/a	n/a	BEAM	8	-1	[0, 0, 0]	n/a	FR1	0	R1383J
18514.788	0.9	61477	WORD_OFF	n/a	n/a	BEAM	8	-1	[0, 0, 0]	n/a	FR1	0	R1383J
18515.688	1.6	62374	WORD	n/a	n/a	TONGUE	9	-1	[0, 0, 0]	n/a	FR1	0	R1383J
18517.288	0.95	63975	WORD_OFF	n/a	n/a	TONGUE	9	-1	[0, 0, 0]	n/a	FR1	0	R1383J
18518.238	1.6	64923	WORD	n/a	n/a	BABY	10	-1	[0, 0, 0]	n/a	FR1	0	R1383J
18519.838	0.883	66524	WORD_OFF	n/a	n/a	BABY	10	-1	[0, 0, 0]	n/a	FR1	0	R1383J
18520.721	1.617	67412	WORD	n/a	n/a	CAMEL	11	-1	[0, 0, 0]	n/a	FR1	0	R1383J
18522.338	0.834	69022	WORD_OFF	n/a	n/a	CAMEL	11	-1	[0, 0, 0]	n/a	FR1	0	R1383J
18523.172	1.6	69857	WORD	n/a	n/a	WATCH	12	-1	[0, 0, 0]	n/a	FR1	0	R1383J
18524.772	0.002	71458	WORD_OFF	n/a	n/a	WATCH	12	-1	[0, 0, 0]	n/a	FR1	0	R1383J
18524.774	0.0	71458	ENCODING_END	n/a	n/a	n/a	-999	-1	[0, 0, 0]	n/a	FR1	0	R1383J
18524.773	0.002	71459	PROB	0.002	n/a	n/a	-999	2	[5, 1, 8]	14	FR1	0	R1383J
18524.775	0.0	71461	START	n/a	n/a	n/a	-999	2	[-999, -999, -999]	n/a	FR1	0	R1383J
18524.775	6.68	71467	DISTRACT_START	n/a	n/a	n/a	-999	-1	[0, 0, 0]	n/a	FR1	0	R1383J
18531.455	7.318	78141	PROB	7.318	n/a	n/a	-999	2	[3, 7, 6]	16	FR1	0	R1383J
18538.773	6.982	85459	PROB	6.982	n/a	n/a	-999	2	[4, 2, 5]	11	FR1	0	R1383J
18545.755	0.0	92438	DISTRACT_END	n/a	n/a	n/a	-999	-1	[0, 0, 0]	n/a	FR1	0	R1383J
18545.755	1.401	92441	STOP	n/a	n/a	n/a	-999	2	[-999, -999, -999]	n/a	FR1	0	R1383J
18547.156	3.127	93839	REC_START	n/a	n/a	n/a	-999	-1	[0, 0, 0]	n/a	FR1	0	R1383J
18550.283	0.967	96968	REC_WORD	0.967	n/a	COTTON	1	-1	[0, 0, 0]	n/a	FR1	0	R1383J
18551.25	1.312	97935	REC_WORD	1.312	n/a	RHINO	2	-1	[0, 0, 0]	n/a	FR1	0	R1383J
18552.562	0.993	99247	REC_WORD	0.993	n/a	CHEST	3	-1	[0, 0, 0]	n/a	FR1	0	R1383J
18553.555	1.385	100240	REC_WORD	1.385	n/a	FLOOD	5	-1	[0, 0, 0]	n/a	FR1	0	R1383J
18554.94	19.014	101625	REC_WORD	19.014	n/a	WAGON	4	-1	[0, 0, 0]	n/a	FR1	0	R1383J
18573.954	3.457	120639	REC_WORD	3.457	n/a	CAMEL	11	-1	[0, 0, 0]	n/a	FR1	0	R1383J
18577.411	20.295	124095	REC_END	n/a	n/a	n/a	-999	-1	[0, 0, 0]	n/a	FR1	0	R1383J
18597.706	10.359	144388	COUNTDOWN_START	n/a	n/a	n/a	-999	1	[0, 0, 0]	n/a	FR1	0	R1383J
18608.065	0.0	154751	COUNTDOWN_END	n/a	n/a	n/a	-999	1	[0, 0, 0]	n/a	FR1	0	R1383J
18608.065	1.94	154751	ENCODING_START	n/a	n/a	n/a	-999	1	[0, 0, 0]	n/a	FR1	0	R1383J
18610.005	1.616	156692	WORD	n/a	n/a	SCHOOL	1	1	[0, 0, 0]	n/a	FR1	0	R1383J
18611.621	0.869	158310	WORD_OFF	n/a	n/a	SCHOOL	1	1	[0, 0, 0]	n/a	FR1	0	R1383J
18612.49	1.599	159172	WORD	n/a	n/a	HOLE	2	1	[0, 0, 0]	n/a	FR1	0	R1383J
18614.089	0.783	160782	WORD_OFF	n/a	n/a	HOLE	2	1	[0, 0, 0]	n/a	FR1	0	R1383J
18614.872	1.6	161556	WORD	n/a	n/a	SPICE	3	1	[0, 0, 0]	n/a	FR1	0	R1383J
18616.472	0.8	163157	WORD_OFF	n/a	n/a	SPICE	3	1	[0, 0, 0]	n/a	FR1	0	R1383J
18617.272	1.6	163958	WORD	n/a	n/a	DRAIN	4	1	[0, 0, 0]	n/a	FR1	0	R1383J
18618.872	0.85	165559	WORD_OFF	n/a	n/a	DRAIN	4	1	[0, 0, 0]	n/a	FR1	0	R1383J
18619.722	1.6	166403	WORD	n/a	n/a	WHEAT	5	1	[0, 0, 0]	n/a	FR1	0	R1383J
18621.322	0.95	168004	WORD_OFF	n/a	n/a	WHEAT	5	1	[0, 0, 0]	n/a	FR1	0	R1383J
18622.272	1.617	168953	WORD	n/a	n/a	NURSE	6	1	[0, 0, 0]	n/a	FR1	0	R1383J
18623.889	0.9	170571	WORD_OFF	n/a	n/a	NURSE	6	1	[0, 0, 0]	n/a	FR1	0	R1383J
18624.789	1.6	171476	WORD	n/a	n/a	SEA	7	1	[0, 0, 0]	n/a	FR1	0	R1383J
18626.389	0.916	173069	WORD_OFF	n/a	n/a	SEA	7	1	[0, 0, 0]	n/a	FR1	0	R1383J
18627.305	1.617	173991	WORD	n/a	n/a	MOON	8	1	[0, 0, 0]	n/a	FR1	0	R1383J
18628.922	0.816	175601	WORD_OFF	n/a	n/a	MOON	8	1	[0, 0, 0]	n/a	FR1	0	R1383J
18629.738	1.6	176419	WORD	n/a	n/a	BOX	9	1	[0, 0, 0]	n/a	FR1	0	R1383J
18631.338	0.8	178020	WORD_OFF	n/a	n/a	BOX	9	1	[0, 0, 0]	n/a	FR1	0	R1383J
18632.138	1.601	178820	WORD	n/a	n/a	CHILD	10	1	[0, 0, 0]	n/a	FR1	0	R1383J
18633.739	0.932	180422	WORD_OFF	n/a	n/a	CHILD	10	1	[0, 0, 0]	n/a	FR1	0	R1383J
18634.671	1.601	181353	WORD	n/a	n/a	WORM	11	1	[0, 0, 0]	n/a	FR1	0	R1383J
18636.272	0.8	182954	WORD_OFF	n/a	n/a	WORM	11	1	[0, 0, 0]	n/a	FR1	0	R1383J
18637.072	1.618	183754	WORD	n/a	n/a	VINE	12	1	[0, 0, 0]	n/a	FR1	0	R1383J
18638.69	0.0	185372	START	n/a	n/a	n/a	-999	3	[-999, -999, -999]	n/a	FR1	0	R1383J
18638.69	0.0	185372	PROB	0.0	n/a	n/a	-999	3	[8, 6, 8]	22	FR1	0	R1383J
18638.689	0.001	185373	WORD_OFF	n/a	n/a	VINE	12	1	[0, 0, 0]	n/a	FR1	0	R1383J
18638.69	0.0	185373	ENCODING_END	n/a	n/a	n/a	-999	1	[0, 0, 0]	n/a	FR1	0	R1383J
18638.69	7.983	185373	DISTRACT_START	n/a	n/a	n/a	-999	1	[0, 0, 0]	n/a	FR1	0	R1383J
18646.673	9.766	193355	PROB	9.766	n/a	n/a	-999	3	[7, 8, 2]	17	FR1	0	R1383J
18656.439	6.949	203120	PROB	6.949	n/a	n/a	-999	3	[3, 2, 4]	1	FR1	0	R1383J
18663.388	0.0	210068	DISTRACT_END	n/a	n/a	n/a	-999	1	[0, 0, 0]	n/a	FR1	0	R1383J
18663.388	1.033	210069	STOP	n/a	n/a	n/a	-999	3	[-999, -999, -999]	n/a	FR1	0	R1383J
18664.421	4.443	211104	REC_START	n/a	n/a	n/a	-999	1	[0, 0, 0]	n/a	FR1	0	R1383J
18668.864	1.535	215545	REC_WORD	1.535	n/a	SCHOOL	1	1	[0, 0, 0]	n/a	FR1	0	R1383J
18670.399	1.705	217080	REC_WORD	1.705	n/a	DRAIN	4	1	[0, 0, 0]	n/a	FR1	0	R1383J
18672.104	22.549	218785	REC_WORD	22.549	n/a	HOLE	2	1	[0, 0, 0]	n/a	FR1	0	R1383J
18694.653	2.536	241334	REC_END	n/a	n/a	n/a	-999	1	[0, 0, 0]	n/a	FR1	0	R1383J
18697.189	10.358	243875	COUNTDOWN_START	n/a	n/a	n/a	-999	2	[0, 0, 0]	n/a	FR1	0	R1383J
18707.547	0.0	254230	COUNTDOWN_END	n/a	n/a	n/a	-999	2	[0, 0, 0]	n/a	FR1	0	R1383J
18707.547	2.191	254230	ENCODING_START	n/a	n/a	n/a	-999	2	[0, 0, 0]	n/a	FR1	0	R1383J
18709.738	1.6	256414	WORD	n/a	n/a	HAY	1	2	[0, 0, 0]	n/a	FR1	0	R1383J
18711.338	1.0	258015	WORD_OFF	n/a	n/a	HAY	1	2	[0, 0, 0]	n/a	FR1	0	R1383J
18712.338	1.616	259016	WORD	n/a	n/a	TOAD	2	2	[0, 0, 0]	n/a	FR1	0	R1383J
18713.954	0.935	260634	WORD_OFF	n/a	n/a	TOAD	2	2	[0, 0, 0]	n/a	FR1	0	R1383J
18714.889	1.616	261565	WORD	n/a	n/a	FROG	3	2	[0, 0, 0]	n/a	FR1	0	R1383J
18716.505	0.766	263184	WORD_OFF	n/a	n/a	FROG	3	2	[0, 0, 0]	n/a	FR1	0	R1383J
18717.271	1.601	263950	WORD	n/a	n/a	SKIN	4	2	[0, 0, 0]	n/a	FR1	0	R1383J
18718.872	0.999	265551	WORD_OFF	n/a	n/a	SKIN	4	2	[0, 0, 0]	n/a	FR1	0	R1383J
18719.871	1.618	266552	WORD	n/a	n/a	MOUSE	5	2	[0, 0, 0]	n/a	FR1	0	R1383J
18721.489	0.849	268170	WORD_OFF	n/a	n/a	MOUSE	5	2	[0, 0, 0]	n/a	FR1	0	R1383J
18722.338	1.601	269014	WORD	n/a	n/a	ROAD	6	2	[0, 0, 0]	n/a	FR1	0	R1383J
18723.939	0.85	270615	WORD_OFF	n/a	n/a	ROAD	6	2	[0, 0, 0]	n/a	FR1	0	R1383J
18724.789	1.6	271468	WORD	n/a	n/a	PLATE	7	2	[0, 0, 0]	n/a	FR1	0	R1383J
18726.389	0.816	273069	WORD_OFF	n/a	n/a	PLATE	7	2	[0, 0, 0]	n/a	FR1	0	R1383J
18727.205	1.617	273887	WORD	n/a	n/a	CHIN	8	2	[0, 0, 0]	n/a	FR1	0	R1383J
18728.822	0.867	275497	WORD_OFF	n/a	n/a	CHIN	8	2	[0, 0, 0]	n/a	FR1	0	R1383J
18729.689	1.6	276367	WORD	n/a	n/a	MAIL	9	2	[0, 0, 0]	n/a	FR1	0	R1383J
18731.289	0.916	277968	WORD_OFF	n/a	n/a	MAIL	9	2	[0, 0, 0]	n/a	FR1	0	R1383J
18732.205	1.616	278882	WORD	n/a	n/a	OIL	10	2	[0, 0, 0]	n/a	FR1	0	R1383J
18733.821	0.918	280500	WORD_OFF	n/a	n/a	OIL	10	2	[0, 0, 0]	n/a	FR1	0	R1383J
18734.739	1.6	281414	WORD	n/a	n/a	BADGE	11	2	[0, 0, 0]	n/a	FR1	0	R1383J
18736.339	0.815	283015	WORD_OFF	n/a	n/a	BADGE	11	2	[0, 0, 0]	n/a	FR1	0	R1383J
18737.154	1.601	283833	WORD	n/a	n/a	TRAIL	12	2	[0, 0, 0]	n/a	FR1	0	R1383J
18738.755	0.0	285433	PROB	0.0	n/a	n/a	-999	4	[1, 5, 5]	11	FR1	0	R1383J
18738.754	0.002	285434	WORD_OFF	n/a	n/a	TRAIL	12	2	[0, 0, 0]	n/a	FR1	0	R1383J
18738.756	0.0	285434	ENCODING_END	n/a	n/a	n/a	-999	2	[0, 0, 0]	n/a	FR1	0	R1383J
18738.756	0.0	285434	DISTRACT_START	n/a	n/a	n/a	-999	2	[0, 0, 0]	n/a	FR1	0	R1383J
18738.756	7.182	285434	START	n/a	n/a	n/a	-999	4	[-999, -999, -999]	n/a	FR1	0	R1383J
18745.938	9.234	292616	PROB	9.234	n/a	n/a	-999	4	[7, 8, 1]	16	FR1	0	R1383J
18755.172	6.849	301849	PROB	6.849	n/a	n/a	-999	4	[4, 3, 5]	132	FR1	0	R1383J
18762.021	0.0	308698	STOP	n/a	n/a	n/a	-999	4	[-999, -999, -999]	n/a	FR1	0	R1383J
18762.021	1.267	308703	DISTRACT_END	n/a	n/a	n/a	-999	2	[0, 0, 0]	n/a	FR1	0	R1383J
18763.288	9.496	309965	REC_START	n/a	n/a	n/a	-999	2	[0, 0, 0]	n/a	FR1	0	R1383J
18772.784	0.99	319461	REC_WORD	0.99	n/a	ANT	-999	2	[0, 0, 0]	n/a	FR1	0	R1383J
18773.774	3.537	320451	REC_WORD	3.537	n/a	SKIN	4	2	[0, 0, 0]	n/a	FR1	0	R1383J
18777.311	16.208	323987	REC_WORD	16.208	n/a	FROG	3	2	[0, 0, 0]	n/a	FR1	0	R1383J
18793.519	1.902	340194	REC_END	n/a	n/a	n/a	-999	2	[0, 0, 0]	n/a	FR1	0	R1383J
18795.421	10.359	342100	COUNTDOWN_START	n/a	n/a	n/a	-999	3	[0, 0, 0]	n/a	FR1	0	R1383J
18805.78	0.0	352455	COUNTDOWN_END	n/a	n/a	n/a	-999	3	[0, 0, 0]	n/a	FR1	0	R1383J
18805.78	2.074	352455	ENCODING_START	n/a	n/a	n/a	-999	3	[0, 0, 0]	n/a	FR1	0	R1383J
18807.854	1.601	354526	WORD	n/a	n/a	EARTH	1	3	[0, 0, 0]	n/a	FR1	0	R1383J
18809.455	0.867	356127	WORD_OFF	n/a	n/a	EARTH	1	3	[0, 0, 0]	n/a	FR1	0	R1383J
18810.322	1.6	356998	WORD	n/a	n/a	SOCK	2	3	[0, 0, 0]	n/a	FR1	0	R1383J
18811.922	0.95	358599	WORD_OFF	n/a	n/a	SOCK	2	3	[0, 0, 0]	n/a	FR1	0	R1383J
18812.872	1.617	359547	WORD	n/a	n/a	TOOL	3	3	[0, 0, 0]	n/a	FR1	0	R1383J
18814.489	0.799	361166	WORD_OFF	n/a	n/a	TOOL	3	3	[0, 0, 0]	n/a	FR1	0	R1383J
18815.288	1.6	361966	WORD	n/a	n/a	BIN	4	3	[0, 0, 0]	n/a	FR1	0	R1383J
18816.888	1.0	363567	WORD_OFF	n/a	n/a	BIN	4	3	[0, 0, 0]	n/a	FR1	0	R1383J
18817.888	1.617	364568	WORD	n/a	n/a	CHAIN	5	3	[0, 0, 0]	n/a	FR1	0	R1383J
18819.505	0.966	366178	WORD_OFF	n/a	n/a	CHAIN	5	3	[0, 0, 0]	n/a	FR1	0	R1383J
18820.471	1.601	367144	WORD	n/a	n/a	MIST	6	3	[0, 0, 0]	n/a	FR1	0	R1383J
18822.072	0.983	368745	WORD_OFF	n/a	n/a	MIST	6	3	[0, 0, 0]	n/a	FR1	0	R1383J
18823.055	1.617	369728	WORD	n/a	n/a	RUG	7	3	[0, 0, 0]	n/a	FR1	0	R1383J
18824.672	0.85	371347	WORD_OFF	n/a	n/a	RUG	7	3	[0, 0, 0]	n/a	FR1	0	R1383J
18825.522	1.616	372199	WORD	n/a	n/a	COURT	8	3	[0, 0, 0]	n/a	FR1	0	R1383J
18827.138	0.8	373818	WORD_OFF	n/a	n/a	COURT	8	3	[0, 0, 0]	n/a	FR1	0	R1383J
18827.938	1.6	374610	WORD	n/a	n/a	GOLD	9	3	[0, 0, 0]	n/a	FR1	0	R1383J
18829.538	0.767	376211	WORD_OFF	n/a	n/a	GOLD	9	3	[0, 0, 0]	n/a	FR1	0	R1383J
18830.305	1.617	376977	WORD	n/a	n/a	HARP	10	3	[0, 0, 0]	n/a	FR1	0	R1383J
18831.922	0.95	378595	WORD_OFF	n/a	n/a	HARP	10	3	[0, 0, 0]	n/a	FR1	0	R1383J
18832.872	1.6	379544	WORD	n/a	n/a	NECK	11	3	[0, 0, 0]	n/a	FR1	0	R1383J
18834.472	0.767	381145	WORD_OFF	n/a	n/a	NECK	11	3	[0, 0, 0]	n/a	FR1	0	R1383J
18835.239	1.6	381911	WORD	n/a	n/a	WHEEL	12	3	[0, 0, 0]	n/a	FR1	0	R1383J
18836.839	0.0	383512	WORD_OFF	n/a	n/a	WHEEL	12	3	[0, 0, 0]	n/a	FR1	0	R1383J
18836.839	0.001	383513	PROB	0.001	n/a	n/a	-999	5	[3, 2, 2]	7	FR1	0	R1383J
18836.84	0.0	383514	START	n/a	n/a	n/a	-999	5	[-999, -999, -999]	n/a	FR1	0	R1383J
18836.84	0.0	383520	ENCODING_END	n/a	n/a	n/a	-999	3	[0, 0, 0]	n/a	FR1	0	R1383J
18836.84	6.699	383520	DISTRACT_START	n/a	n/a	n/a	-999	3	[0, 0, 0]	n/a	FR1	0	R1383J
18843.539	6.084	390213	PROB	6.084	n/a	n/a	-999	5	[6, 4, 7]	17	FR1	0	R1383J
18849.623	6.833	396297	PROB	6.833	n/a	n/a	-999	5	[1, 8, 8]	17	FR1	0	R1383J
18856.456	6.333	403129	PROB	6.333	n/a	n/a	-999	5	[2, 8, 3]	13	FR1	0	R1383J
18862.789	0.0	409460	DISTRACT_END	n/a	n/a	n/a	-999	3	[0, 0, 0]	n/a	FR1	0	R1383J
18862.789	1.215	409462	STOP	n/a	n/a	n/a	-999	5	[-999, -999, -999]	n/a	FR1	0	R1383J
18864.004	5.44	410679	REC_START	n/a	n/a	n/a	-999	3	[0, 0, 0]	n/a	FR1	0	R1383J
18869.444	2.823	416117	REC_WORD	2.823	n/a	EARTH	1	3	[0, 0, 0]	n/a	FR1	0	R1383J
18872.267	1.54	418940	REC_WORD	1.54	n/a	TOOL	3	3	[0, 0, 0]	n/a	FR1	0	R1383J
18873.807	1.982	420480	REC_WORD	1.982	n/a	BIN	4	3	[0, 0, 0]	n/a	FR1	0	R1383J
18875.789	18.452	422462	REC_WORD	18.452	n/a	SKIN	-999	3	[0, 0, 0]	n/a	FR1	0	R1383J
18894.241	1.748	440917	REC_END	n/a	n/a	n/a	-999	3	[0, 0, 0]	n/a	FR1	0	R1383J
18895.989	10.359	442666	COUNTDOWN_START	n/a	n/a	n/a	-999	4	[0, 0, 0]	n/a	FR1	0	R1383J
18906.348	0.0	453021	COUNTDOWN_END	n/a	n/a	n/a	-999	4	[0, 0, 0]	n/a	FR1	0	R1383J
18906.348	1.991	453021	ENCODING_START	n/a	n/a	n/a	-999	4	[0, 0, 0]	n/a	FR1	0	R1383J
18908.339	1.6	455014	WORD	n/a	n/a	SNAIL	1	4	[0, 0, 0]	n/a	FR1	0	R1383J
18909.939	0.866	456606	WORD_OFF	n/a	n/a	SNAIL	1	4	[0, 0, 0]	n/a	FR1	0	R1383J
18910.805	1.6	457477	WORD	n/a	n/a	SHEET	2	4	[0, 0, 0]	n/a	FR1	0	R1383J
18912.405	0.934	459078	WORD_OFF	n/a	n/a	SHEET	2	4	[0, 0, 0]	n/a	FR1	0	R1383J
18913.339	1.6	460009	WORD	n/a	n/a	JUDGE	3	4	[0, 0, 0]	n/a	FR1	0	R1383J
18914.939	0.983	461610	WORD_OFF	n/a	n/a	JUDGE	3	4	[0, 0, 0]	n/a	FR1	0	R1383J
18915.922	1.6	462593	WORD	n/a	n/a	HOSE	4	4	[0, 0, 0]	n/a	FR1	0	R1383J
18917.522	0.866	464194	WORD_OFF	n/a	n/a	HOSE	4	4	[0, 0, 0]	n/a	FR1	0	R1383J
18918.388	1.601	465056	WORD	n/a	n/a	CAMP	5	4	[0, 0, 0]	n/a	FR1	0	R1383J
18919.989	0.966	466657	WORD_OFF	n/a	n/a	CAMP	5	4	[0, 0, 0]	n/a	FR1	0	R1383J
18920.955	1.6	467623	WORD	n/a	n/a	SOUP	6	4	[0, 0, 0]	n/a	FR1	0	R1383J
18922.555	0.983	469224	WORD_OFF	n/a	n/a	SOUP	6	4	[0, 0, 0]	n/a	FR1	0	R1383J
18923.538	1.601	470207	WORD	n/a	n/a	TREE	7	4	[0, 0, 0]	n/a	FR1	0	R1383J
18925.139	0.833	471808	WORD_OFF	n/a	n/a	TREE	7	4	[0, 0, 0]	n/a	FR1	0	R1383J
18925.972	1.616	472644	WORD	n/a	n/a	INK	8	4	[0, 0, 0]	n/a	FR1	0	R1383J
18927.588	0.934	474262	WORD_OFF	n/a	n/a	INK	8	4	[0, 0, 0]	n/a	FR1	0	R1383J
18928.522	1.617	475193	WORD	n/a	n/a	MOUTH	9	4	[0, 0, 0]	n/a	FR1	0	R1383J
18930.139	0.882	476812	WORD_OFF	n/a	n/a	MOUTH	9	4	[0, 0, 0]	n/a	FR1	0	R1383J
18931.021	1.601	477691	WORD	n/a	n/a	BUSH	10	4	[0, 0, 0]	n/a	FR1	0	R1383J
18932.622	0.85	479292	WORD_OFF	n/a	n/a	BUSH	10	4	[0, 0, 0]	n/a	FR1	0	R1383J
18933.472	1.6	480145	WORD	n/a	n/a	WAND	11	4	[0, 0, 0]	n/a	FR1	0	R1383J
18935.072	0.982	481746	WORD_OFF	n/a	n/a	WAND	11	4	[0, 0, 0]	n/a	FR1	0	R1383J
18936.054	1.602	482720	WORD	n/a	n/a	SEED	12	4	[0, 0, 0]	n/a	FR1	0	R1383J
18937.656	0.001	484326	PROB	0.001	n/a	n/a	-999	6	[7, 1, 5]	13	FR1	0	R1383J
18937.657	0.0	484327	START	n/a	n/a	n/a	-999	6	[-999, -999, -999]	n/a	FR1	0	R1383J
18937.655	0.002	484330	WORD_OFF	n/a	n/a	SEED	12	4	[0, 0, 0]	n/a	FR1	0	R1383J
18937.657	0.0	484330	ENCODING_END	n/a	n/a	n/a	-999	4	[0, 0, 0]	n/a	FR1	0	R1383J
18937.657	6.498	484330	DISTRACT_START	n/a	n/a	n/a	-999	4	[0, 0, 0]	n/a	FR1	0	R1383J
18944.155	4.385	490825	PROB	4.385	n/a	n/a	-999	6	[1, 8, 2]	11	FR1	0	R1383J
18948.54	5.115	495210	PROB	5.115	n/a	n/a	-999	6	[8, 7, 3]	18	FR1	0	R1383J
18953.655	5.234	500324	PROB	5.234	n/a	n/a	-999	6	[4, 8, 2]	14	FR1	0	R1383J
18958.889	0.0	505558	STOP	n/a	n/a	n/a	-999	6	[-999, -999, -999]	n/a	FR1	0	R1383J
18958.889	1.266	505562	DISTRACT_END	n/a	n/a	n/a	-999	4	[0, 0, 0]	n/a	FR1	0	R1383J
18960.155	4.262	506824	REC_START	n/a	n/a	n/a	-999	4	[0, 0, 0]	n/a	FR1	0	R1383J
18964.417	1.388	511086	REC_WORD	1.388	n/a	JUDGE	3	4	[0, 0, 0]	n/a	FR1	0	R1383J
18965.805	2.501	512474	REC_WORD	2.501	n/a	SNAIL	1	4	[0, 0, 0]	n/a	FR1	0	R1383J
18968.306	22.094	514975	REC_WORD	22.094	n/a	SEED	12	4	[0, 0, 0]	n/a	FR1	0	R1383J
18990.4	1.822	537072	REC_END	n/a	n/a	n/a	-999	4	[0, 0, 0]	n/a	FR1	0	R1383J
18992.222	10.36	538890	COUNTDOWN_START	n/a	n/a	n/a	-999	5	[0, 0, 0]	n/a	FR1	0	R1383J
19002.582	0.0	549254	COUNTDOWN_END	n/a	n/a	n/a	-999	5	[0, 0, 0]	n/a	FR1	0	R1383J
19002.582	1.923	549254	ENCODING_START	n/a	n/a	n/a	-999	5	[0, 0, 0]	n/a	FR1	0	R1383J
19004.505	1.617	551177	WORD	n/a	n/a	PLANT	1	5	[0, 0, 0]	n/a	FR1	0	R1383J
19006.122	0.867	552787	WORD_OFF	n/a	n/a	PLANT	1	5	[0, 0, 0]	n/a	FR1	0	R1383J
19006.989	1.616	553657	WORD	n/a	n/a	HAIR	2	5	[0, 0, 0]	n/a	FR1	0	R1383J
19008.605	0.984	555276	WORD_OFF	n/a	n/a	HAIR	2	5	[0, 0, 0]	n/a	FR1	0	R1383J
19009.589	1.616	556259	WORD	n/a	n/a	SPONGE	3	5	[0, 0, 0]	n/a	FR1	0	R1383J
19011.205	0.884	557877	WORD_OFF	n/a	n/a	SPONGE	3	5	[0, 0, 0]	n/a	FR1	0	R1383J
19012.089	1.6	558756	WORD	n/a	n/a	TIE	4	5	[0, 0, 0]	n/a	FR1	0	R1383J
19013.689	0.783	560357	WORD_OFF	n/a	n/a	TIE	4	5	[0, 0, 0]	n/a	FR1	0	R1383J
19014.472	1.617	561141	WORD	n/a	n/a	STONE	5	5	[0, 0, 0]	n/a	FR1	0	R1383J
19016.089	0.9	562759	WORD_OFF	n/a	n/a	STONE	5	5	[0, 0, 0]	n/a	FR1	0	R1383J
19016.989	1.616	563655	WORD	n/a	n/a	PIT	6	5	[0, 0, 0]	n/a	FR1	0	R1383J
19018.605	0.867	565274	WORD_OFF	n/a	n/a	PIT	6	5	[0, 0, 0]	n/a	FR1	0	R1383J
19019.472	1.6	566135	WORD	n/a	n/a	POT	7	5	[0, 0, 0]	n/a	FR1	0	R1383J
19021.072	0.799	567736	WORD_OFF	n/a	n/a	POT	7	5	[0, 0, 0]	n/a	FR1	0	R1383J
19021.871	1.618	568537	WORD	n/a	n/a	LEAF	8	5	[0, 0, 0]	n/a	FR1	0	R1383J
19023.489	0.783	570156	WORD_OFF	n/a	n/a	LEAF	8	5	[0, 0, 0]	n/a	FR1	0	R1383J
19024.272	1.616	570939	WORD	n/a	n/a	SNAKE	9	5	[0, 0, 0]	n/a	FR1	0	R1383J
19025.888	0.833	572557	WORD_OFF	n/a	n/a	SNAKE	9	5	[0, 0, 0]	n/a	FR1	0	R1383J
19026.721	1.618	573384	WORD	n/a	n/a	CROWN	10	5	[0, 0, 0]	n/a	FR1	0	R1383J
19028.339	0.983	575002	WORD_OFF	n/a	n/a	CROWN	10	5	[0, 0, 0]	n/a	FR1	0	R1383J
19029.322	1.617	575986	WORD	n/a	n/a	DITCH	11	5	[0, 0, 0]	n/a	FR1	0	R1383J
19030.939	0.916	577604	WORD_OFF	n/a	n/a	DITCH	11	5	[0, 0, 0]	n/a	FR1	0	R1383J
19031.855	1.617	578527	WORD	n/a	n/a	SKI	12	5	[0, 0, 0]	n/a	FR1	0	R1383J
19033.472	0.001	580136	WORD_OFF	n/a	n/a	SKI	12	5	[0, 0, 0]	n/a	FR1	0	R1383J
19033.473	0.0	580136	ENCODING_END	n/a	n/a	n/a	-999	5	[0, 0, 0]	n/a	FR1	0	R1383J
19033.472	0.001	580138	PROB	0.001	n/a	n/a	-999	7	[3, 5, 3]	11	FR1	0	R1383J
19033.473	0.0	580139	START	n/a	n/a	n/a	-999	7	[-999, -999, -999]	n/a	FR1	0	R1383J
19033.473	9.15	580145	DISTRACT_START	n/a	n/a	n/a	-999	5	[0, 0, 0]	n/a	FR1	0	R1383J
19042.623	7.332	589289	PROB	7.332	n/a	n/a	-999	7	[7, 5, 8]	20	FR1	0	R1383J
19049.955	5.399	596621	PROB	5.399	n/a	n/a	-999	7	[4, 3, 3]	10	FR1	0	R1383J
19055.354	0.0	602019	STOP	n/a	n/a	n/a	-999	7	[-999, -999, -999]	n/a	FR1	0	R1383J
19055.354	1.051	602021	DISTRACT_END	n/a	n/a	n/a	-999	5	[0, 0, 0]	n/a	FR1	0	R1383J
19056.405	3.224	603074	REC_START	n/a	n/a	n/a	-999	5	[0, 0, 0]	n/a	FR1	0	R1383J
19059.629	1.468	606294	REC_WORD	1.468	n/a	SPONGE	3	5	[0, 0, 0]	n/a	FR1	0	R1383J
19061.097	4.299	607762	REC_WORD	4.299	n/a	SKI	12	5	[0, 0, 0]	n/a	FR1	0	R1383J
19065.396	21.261	612061	REC_WORD	21.261	n/a	HAIR	2	5	[0, 0, 0]	n/a	FR1	0	R1383J
19086.657	1.365	633322	REC_END	n/a	n/a	n/a	-999	5	[0, 0, 0]	n/a	FR1	0	R1383J
19088.022	10.367	634688	COUNTDOWN_START	n/a	n/a	n/a	-999	6	[0, 0, 0]	n/a	FR1	0	R1383J
19098.389	0.0	645052	COUNTDOWN_END	n/a	n/a	n/a	-999	6	[0, 0, 0]	n/a	FR1	0	R1383J
19098.389	1.95	645052	ENCODING_START	n/a	n/a	n/a	-999	6	[0, 0, 0]	n/a	FR1	0	R1383J
19100.339	1.616	647001	WORD	n/a	n/a	SAUCE	1	6	[0, 0, 0]	n/a	FR1	0	R1383J
19101.955	0.849	648619	WORD_OFF	n/a	n/a	SAUCE	1	6	[0, 0, 0]	n/a	FR1	0	R1383J
19102.804	1.601	649472	WORD	n/a	n/a	DIME	2	6	[0, 0, 0]	n/a	FR1	0	R1383J
19104.405	1.0	651073	WORD_OFF	n/a	n/a	DIME	2	6	[0, 0, 0]	n/a	FR1	0	R1383J
19105.405	1.6	652065	WORD	n/a	n/a	PAGE	3	6	[0, 0, 0]	n/a	FR1	0	R1383J
19107.005	0.834	653666	WORD_OFF	n/a	n/a	PAGE	3	6	[0, 0, 0]	n/a	FR1	0	R1383J
19107.839	1.616	654502	WORD	n/a	n/a	DEER	4	6	[0, 0, 0]	n/a	FR1	0	R1383J
19109.455	0.767	656120	WORD_OFF	n/a	n/a	DEER	4	6	[0, 0, 0]	n/a	FR1	0	R1383J
19110.222	1.6	656886	WORD	n/a	n/a	BOOT	5	6	[0, 0, 0]	n/a	FR1	0	R1383J
19111.822	0.833	658487	WORD_OFF	n/a	n/a	BOOT	5	6	[0, 0, 0]	n/a	FR1	0	R1383J
19112.655	1.617	659322	WORD	n/a	n/a	MAZE	6	6	[0, 0, 0]	n/a	FR1	0	R1383J
19114.272	0.867	660932	WORD_OFF	n/a	n/a	MAZE	6	6	[0, 0, 0]	n/a	FR1	0	R1383J
19115.139	1.615	661802	WORD	n/a	n/a	FACE	7	6	[0, 0, 0]	n/a	FR1	0	R1383J
19116.754	0.951	663421	WORD_OFF	n/a	n/a	FACE	7	6	[0, 0, 0]	n/a	FR1	0	R1383J
19117.705	1.617	664369	WORD	n/a	n/a	HAT	8	6	[0, 0, 0]	n/a	FR1	0	R1383J
19119.322	0.816	665988	WORD_OFF	n/a	n/a	HAT	8	6	[0, 0, 0]	n/a	FR1	0	R1383J
19120.138	1.601	666806	WORD	n/a	n/a	THUMB	9	6	[0, 0, 0]	n/a	FR1	0	R1383J
19121.739	1.0	668398	WORD_OFF	n/a	n/a	THUMB	9	6	[0, 0, 0]	n/a	FR1	0	R1383J
19122.739	1.6	669399	WORD	n/a	n/a	STRAW	10	6	[0, 0, 0]	n/a	FR1	0	R1383J
19124.339	0.965	671000	WORD_OFF	n/a	n/a	STRAW	10	6	[0, 0, 0]	n/a	FR1	0	R1383J
19125.304	1.601	671966	WORD	n/a	n/a	BIRD	11	6	[0, 0, 0]	n/a	FR1	0	R1383J
19126.905	0.767	673567	WORD_OFF	n/a	n/a	BIRD	11	6	[0, 0, 0]	n/a	FR1	0	R1383J
19127.672	1.6	674333	WORD	n/a	n/a	SQUARE	12	6	[0, 0, 0]	n/a	FR1	0	R1383J
19129.272	0.001	675934	WORD_OFF	n/a	n/a	SQUARE	12	6	[0, 0, 0]	n/a	FR1	0	R1383J
19129.273	0.0	675934	ENCODING_END	n/a	n/a	n/a	-999	6	[0, 0, 0]	n/a	FR1	0	R1383J
19129.273	0.0	675934	DISTRACT_START	n/a	n/a	n/a	-999	6	[0, 0, 0]	n/a	FR1	0	R1383J
19129.272	0.001	675935	PROB	0.001	n/a	n/a	-999	8	[7, 7, 7]	21	FR1	0	R1383J
19129.273	7.449	675936	START	n/a	n/a	n/a	-999	8	[-999, -999, -999]	n/a	FR1	0	R1383J
19136.722	9.751	683384	PROB	9.751	n/a	n/a	-999	8	[8, 7, 5]	20	FR1	0	R1383J
19146.473	8.132	693135	PROB	8.132	n/a	n/a	-999	8	[5, 2, 2]	9	FR1	0	R1383J
19154.605	0.0	701265	DISTRACT_END	n/a	n/a	n/a	-999	6	[0, 0, 0]	n/a	FR1	0	R1383J
19154.605	1.183	701267	STOP	n/a	n/a	n/a	-999	8	[-999, -999, -999]	n/a	FR1	0	R1383J
19155.788	5.861	702448	REC_START	n/a	n/a	n/a	-999	6	[0, 0, 0]	n/a	FR1	0	R1383J
19161.649	3.004	708310	REC_WORD	3.004	n/a	MAZE	6	6	[0, 0, 0]	n/a	FR1	0	R1383J
19164.653	1.325	711314	REC_WORD	1.325	n/a	DEER	4	6	[0, 0, 0]	n/a	FR1	0	R1383J
19165.978	20.072	712639	REC_WORD	20.072	n/a	FACE	7	6	[0, 0, 0]	n/a	FR1	0	R1383J
19186.05	3.155	732713	REC_END	n/a	n/a	n/a	-999	6	[0, 0, 0]	n/a	FR1	0	R1383J
19189.205	10.367	735872	COUNTDOWN_START	n/a	n/a	n/a	-999	7	[0, 0, 0]	n/a	FR1	0	R1383J
19199.572	0.0	746235	COUNTDOWN_END	n/a	n/a	n/a	-999	7	[0, 0, 0]	n/a	FR1	0	R1383J
19199.572	1.984	746235	ENCODING_START	n/a	n/a	n/a	-999	7	[0, 0, 0]	n/a	FR1	0	R1383J
19201.556	1.6	748219	WORD	n/a	n/a	BOY	1	7	[0, 0, 0]	n/a	FR1	0	R1383J
19203.156	0.816	749812	WORD_OFF	n/a	n/a	BOY	1	7	[0, 0, 0]	n/a	FR1	0	R1383J
19203.972	1.617	750630	WORD	n/a	n/a	PAINT	2	7	[0, 0, 0]	n/a	FR1	0	R1383J
19205.589	0.967	752248	WORD_OFF	n/a	n/a	PAINT	2	7	[0, 0, 0]	n/a	FR1	0	R1383J
19206.556	1.599	753214	WORD	n/a	n/a	STICK	3	7	[0, 0, 0]	n/a	FR1	0	R1383J
19208.155	0.917	754815	WORD_OFF	n/a	n/a	STICK	3	7	[0, 0, 0]	n/a	FR1	0	R1383J
19209.072	1.616	755729	WORD	n/a	n/a	BOLT	4	7	[0, 0, 0]	n/a	FR1	0	R1383J
19210.688	0.901	757348	WORD_OFF	n/a	n/a	BOLT	4	7	[0, 0, 0]	n/a	FR1	0	R1383J
19211.589	1.6	758244	WORD	n/a	n/a	BOOK	5	7	[0, 0, 0]	n/a	FR1	0	R1383J
19213.189	0.9	759845	WORD_OFF	n/a	n/a	BOOK	5	7	[0, 0, 0]	n/a	FR1	0	R1383J
19214.089	1.616	760750	WORD	n/a	n/a	BROOM	6	7	[0, 0, 0]	n/a	FR1	0	R1383J
19215.705	0.95	762368	WORD_OFF	n/a	n/a	BROOM	6	7	[0, 0, 0]	n/a	FR1	0	R1383J
19216.655	1.6	763317	WORD	n/a	n/a	MEAT	7	7	[0, 0, 0]	n/a	FR1	0	R1383J
19218.255	0.817	764918	WORD_OFF	n/a	n/a	MEAT	7	7	[0, 0, 0]	n/a	FR1	0	R1383J
19219.072	1.6	765727	WORD	n/a	n/a	DART	8	7	[0, 0, 0]	n/a	FR1	0	R1383J
19220.672	0.833	767328	WORD_OFF	n/a	n/a	DART	8	7	[0, 0, 0]	n/a	FR1	0	R1383J
19221.505	1.6	768164	WORD	n/a	n/a	MOOSE	9	7	[0, 0, 0]	n/a	FR1	0	R1383J
19223.105	0.916	769765	WORD_OFF	n/a	n/a	MOOSE	9	7	[0, 0, 0]	n/a	FR1	0	R1383J
19224.021	1.6	770679	WORD	n/a	n/a	BONE	10	7	[0, 0, 0]	n/a	FR1	0	R1383J
19225.621	0.951	772280	WORD_OFF	n/a	n/a	BONE	10	7	[0, 0, 0]	n/a	FR1	0	R1383J
19226.572	1.6	773228	WORD	n/a	n/a	BOMB	11	7	[0, 0, 0]	n/a	FR1	0	R1383J
19228.172	0.766	774829	WORD_OFF	n/a	n/a	BOMB	11	7	[0, 0, 0]	n/a	FR1	0	R1383J
19228.938	1.617	775595	WORD	n/a	n/a	LIP	12	7	[0, 0, 0]	n/a	FR1	0	R1383J
19230.555	0.001	777214	WORD_OFF	n/a	n/a	LIP	12	7	[0, 0, 0]	n/a	FR1	0	R1383J
19230.556	0.0	777214	ENCODING_END	n/a	n/a	n/a	-999	7	[0, 0, 0]	n/a	FR1	0	R1383J
19230.556	0.0	777214	PROB	0.0	n/a	n/a	-999	9	[7, 3, 4]	14	FR1	0	R1383J
19230.556	0.0	777214	START	n/a	n/a	n/a	-999	9	[-999, -999, -999]	n/a	FR1	0	R1383J
19230.556	8.783	777222	DISTRACT_START	n/a	n/a	n/a	-999	7	[0, 0, 0]	n/a	FR1	0	R1383J
19239.339	11.133	785997	PROB	11.133	n/a	n/a	-999	9	[2, 8, 8]	18	FR1	0	R1383J
19250.472	5.333	797130	PROB	5.333	n/a	n/a	-999	9	[3, 2, 4]	9	FR1	0	R1383J
19255.805	0.0	802462	STOP	n/a	n/a	n/a	-999	9	[-999, -999, -999]	n/a	FR1	0	R1383J
19255.805	1.117	802466	DISTRACT_END	n/a	n/a	n/a	-999	7	[0, 0, 0]	n/a	FR1	0	R1383J
19256.922	3.19	803580	REC_START	n/a	n/a	n/a	-999	7	[0, 0, 0]	n/a	FR1	0	R1383J
19260.112	1.639	806769	REC_WORD	1.639	n/a	MOOSE	9	7	[0, 0, 0]	n/a	FR1	0	R1383J
19261.751	1.485	808408	REC_WORD	1.485	n/a	BOMB	11	7	[0, 0, 0]	n/a	FR1	0	R1383J
19263.236	5.34	809893	REC_WORD	5.34	n/a	MEAT	7	7	[0, 0, 0]	n/a	FR1	0	R1383J
19268.576	1.675	815233	REC_WORD	1.675	n/a	BOLT	4	7	[0, 0, 0]	n/a	FR1	0	R1383J
19270.251	1.683	816908	REC_WORD	1.683	n/a	BOY	1	7	[0, 0, 0]	n/a	FR1	0	R1383J
19271.934	4.25	818591	REC_WORD	4.25	n/a	PAINT	2	7	[0, 0, 0]	n/a	FR1	0	R1383J
19276.184	10.98	822841	REC_WORD	10.98	n/a	STICK	3	7	[0, 0, 0]	n/a	FR1	0	R1383J
19287.164	2.241	833819	REC_END	n/a	n/a	n/a	-999	7	[0, 0, 0]	n/a	FR1	0	R1383J
19289.405	10.36	836064	COUNTDOWN_START	n/a	n/a	n/a	-999	8	[0, 0, 0]	n/a	FR1	0	R1383J
19299.765	0.001	846419	COUNTDOWN_END	n/a	n/a	n/a	-999	8	[0, 0, 0]	n/a	FR1	0	R1383J
19299.766	2.223	846427	ENCODING_START	n/a	n/a	n/a	-999	8	[0, 0, 0]	n/a	FR1	0	R1383J
19301.989	1.616	848646	WORD	n/a	n/a	JAW	1	8	[0, 0, 0]	n/a	FR1	0	R1383J
19303.605	0.884	850265	WORD_OFF	n/a	n/a	JAW	1	8	[0, 0, 0]	n/a	FR1	0	R1383J
19304.489	1.616	851144	WORD	n/a	n/a	CONE	2	8	[0, 0, 0]	n/a	FR1	0	R1383J
19306.105	0.867	852762	WORD_OFF	n/a	n/a	CONE	2	8	[0, 0, 0]	n/a	FR1	0	R1383J
19306.972	1.617	853632	WORD	n/a	n/a	SHELL	3	8	[0, 0, 0]	n/a	FR1	0	R1383J
19308.589	0.833	855242	WORD_OFF	n/a	n/a	SHELL	3	8	[0, 0, 0]	n/a	FR1	0	R1383J
19309.422	1.6	856078	WORD	n/a	n/a	CLOTH	4	8	[0, 0, 0]	n/a	FR1	0	R1383J
19311.022	0.783	857679	WORD_OFF	n/a	n/a	CLOTH	4	8	[0, 0, 0]	n/a	FR1	0	R1383J
19311.805	1.6	858462	WORD	n/a	n/a	MOLE	5	8	[0, 0, 0]	n/a	FR1	0	R1383J
19313.405	0.917	860063	WORD_OFF	n/a	n/a	MOLE	5	8	[0, 0, 0]	n/a	FR1	0	R1383J
19314.322	1.617	860977	WORD	n/a	n/a	STRING	6	8	[0, 0, 0]	n/a	FR1	0	R1383J
19315.939	0.866	862595	WORD_OFF	n/a	n/a	STRING	6	8	[0, 0, 0]	n/a	FR1	0	R1383J
19316.805	1.6	863457	WORD	n/a	n/a	SUIT	7	8	[0, 0, 0]	n/a	FR1	0	R1383J
19318.405	0.884	865058	WORD_OFF	n/a	n/a	SUIT	7	8	[0, 0, 0]	n/a	FR1	0	R1383J
19319.289	1.6	865945	WORD	n/a	n/a	BRIDGE	8	8	[0, 0, 0]	n/a	FR1	0	R1383J
19320.889	0.882	867547	WORD_OFF	n/a	n/a	BRIDGE	8	8	[0, 0, 0]	n/a	FR1	0	R1383J
19321.771	1.601	868425	WORD	n/a	n/a	WEB	9	8	[0, 0, 0]	n/a	FR1	0	R1383J
19323.372	0.85	870027	WORD_OFF	n/a	n/a	WEB	9	8	[0, 0, 0]	n/a	FR1	0	R1383J
19324.222	1.617	870879	WORD	n/a	n/a	POOL	10	8	[0, 0, 0]	n/a	FR1	0	R1383J
19325.839	0.933	872498	WORD_OFF	n/a	n/a	POOL	10	8	[0, 0, 0]	n/a	FR1	0	R1383J
19326.772	1.6	873429	WORD	n/a	n/a	DOCK	11	8	[0, 0, 0]	n/a	FR1	0	R1383J
19328.372	0.8	875030	WORD_OFF	n/a	n/a	DOCK	11	8	[0, 0, 0]	n/a	FR1	0	R1383J
19329.172	1.6	875831	WORD	n/a	n/a	ELF	12	8	[0, 0, 0]	n/a	FR1	0	R1383J
19330.772	0.001	877423	WORD_OFF	n/a	n/a	ELF	12	8	[0, 0, 0]	n/a	FR1	0	R1383J
19330.773	0.0	877428	START	n/a	n/a	n/a	-999	10	[-999, -999, -999]	n/a	FR1	0	R1383J
19330.773	0.0	877428	PROB	0.0	n/a	n/a	-999	10	[1, 3, 7]	11	FR1	0	R1383J
19330.773	0.0	877432	ENCODING_END	n/a	n/a	n/a	-999	8	[0, 0, 0]	n/a	FR1	0	R1383J
19330.773	5.466	877432	DISTRACT_START	n/a	n/a	n/a	-999	8	[0, 0, 0]	n/a	FR1	0	R1383J
19336.239	7.451	882893	PROB	7.451	n/a	n/a	-999	10	[2, 3, 4]	9	FR1	0	R1383J
19343.69	5.315	890344	PROB	5.315	n/a	n/a	-999	10	[4, 5, 3]	12	FR1	0	R1383J
19349.005	8.016	895659	PROB	8.016	n/a	n/a	-999	10	[6, 2, 2]	10	FR1	0	R1383J
19357.021	0.0	903674	STOP	n/a	n/a	n/a	-999	10	[-999, -999, -999]	n/a	FR1	0	R1383J
19357.021	1.133	903676	DISTRACT_END	n/a	n/a	n/a	-999	8	[0, 0, 0]	n/a	FR1	0	R1383J
19358.154	2.964	904807	REC_START	n/a	n/a	n/a	-999	8	[0, 0, 0]	n/a	FR1	0	R1383J
19361.118	2.564	907771	REC_WORD	2.564	n/a	MOLE	5	8	[0, 0, 0]	n/a	FR1	0	R1383J
19363.682	10.042	910335	REC_WORD	10.042	n/a	JAW	1	8	[0, 0, 0]	n/a	FR1	0	R1383J
19373.724	14.658	920377	REC_WORD	14.658	n/a	SUIT	7	8	[0, 0, 0]	n/a	FR1	0	R1383J
19388.382	1.74	935037	REC_END	n/a	n/a	n/a	-999	8	[0, 0, 0]	n/a	FR1	0	R1383J
19390.122	10.361	936778	COUNTDOWN_START	n/a	n/a	n/a	-999	9	[0, 0, 0]	n/a	FR1	0	R1383J
19400.483	0.0	947133	COUNTDOWN_END	n/a	n/a	n/a	-999	9	[0, 0, 0]	n/a	FR1	0	R1383J
19400.483	2.022	947141	ENCODING_START	n/a	n/a	n/a	-999	9	[0, 0, 0]	n/a	FR1	0	R1383J
19402.505	1.617	949160	WORD	n/a	n/a	PIN	1	9	[0, 0, 0]	n/a	FR1	0	R1383J
19404.122	1.0	950770	WORD_OFF	n/a	n/a	PIN	1	9	[0, 0, 0]	n/a	FR1	0	R1383J
19405.122	1.601	951771	WORD	n/a	n/a	SALT	2	9	[0, 0, 0]	n/a	FR1	0	R1383J
19406.723	0.948	953372	WORD_OFF	n/a	n/a	SALT	2	9	[0, 0, 0]	n/a	FR1	0	R1383J
19407.671	1.6	954320	WORD	n/a	n/a	SWORD	3	9	[0, 0, 0]	n/a	FR1	0	R1383J
19409.271	0.983	955922	WORD_OFF	n/a	n/a	SWORD	3	9	[0, 0, 0]	n/a	FR1	0	R1383J
19410.254	1.601	956905	WORD	n/a	n/a	PHONE	4	9	[0, 0, 0]	n/a	FR1	0	R1383J
19411.855	0.816	958506	WORD_OFF	n/a	n/a	PHONE	4	9	[0, 0, 0]	n/a	FR1	0	R1383J
19412.671	1.6	959324	WORD	n/a	n/a	JAR	5	9	[0, 0, 0]	n/a	FR1	0	R1383J
19414.271	0.867	960925	WORD_OFF	n/a	n/a	JAR	5	9	[0, 0, 0]	n/a	FR1	0	R1383J
19415.138	1.601	961786	WORD	n/a	n/a	BAY	6	9	[0, 0, 0]	n/a	FR1	0	R1383J
19416.739	0.866	963388	WORD_OFF	n/a	n/a	BAY	6	9	[0, 0, 0]	n/a	FR1	0	R1383J
19417.605	1.6	964258	WORD	n/a	n/a	CAGE	7	9	[0, 0, 0]	n/a	FR1	0	R1383J
19419.205	0.867	965859	WORD_OFF	n/a	n/a	CAGE	7	9	[0, 0, 0]	n/a	FR1	0	R1383J
19420.072	1.617	966720	WORD	n/a	n/a	THROAT	8	9	[0, 0, 0]	n/a	FR1	0	R1383J
19421.689	0.9	968339	WORD_OFF	n/a	n/a	THROAT	8	9	[0, 0, 0]	n/a	FR1	0	R1383J
19422.589	1.6	969244	WORD	n/a	n/a	MUD	9	9	[0, 0, 0]	n/a	FR1	0	R1383J
19424.189	0.883	970836	WORD_OFF	n/a	n/a	MUD	9	9	[0, 0, 0]	n/a	FR1	0	R1383J
19425.072	1.6	971724	WORD	n/a	n/a	CRANE	10	9	[0, 0, 0]	n/a	FR1	0	R1383J
19426.672	0.9	973325	WORD_OFF	n/a	n/a	CRANE	10	9	[0, 0, 0]	n/a	FR1	0	R1383J
19427.572	1.6	974221	WORD	n/a	n/a	SHARK	11	9	[0, 0, 0]	n/a	FR1	0	R1383J
19429.172	0.766	975822	WORD_OFF	n/a	n/a	SHARK	11	9	[0, 0, 0]	n/a	FR1	0	R1383J
19429.938	1.6	976588	WORD	n/a	n/a	TAIL	12	9	[0, 0, 0]	n/a	FR1	0	R1383J
19431.538	0.001	978189	WORD_OFF	n/a	n/a	TAIL	12	9	[0, 0, 0]	n/a	FR1	0	R1383J
19431.539	0.0	978189	ENCODING_END	n/a	n/a	n/a	-999	9	[0, 0, 0]	n/a	FR1	0	R1383J
19431.539	0.0	978189	DISTRACT_START	n/a	n/a	n/a	-999	9	[0, 0, 0]	n/a	FR1	0	R1383J
19431.539	0.001	978190	START	n/a	n/a	n/a	-999	11	[-999, -999, -999]	n/a	FR1	0	R1383J
19431.54	8.116	978191	PROB	8.116	n/a	n/a	-999	11	[8, 7, 4]	19	FR1	0	R1383J
19439.656	8.683	986306	PROB	8.683	n/a	n/a	-999	11	[1, 8, 8]	17	FR1	0	R1383J
19448.339	4.883	994989	PROB	4.883	n/a	n/a	-999	11	[6, 7, 8]	21	FR1	0	R1383J
19453.222	0.0	999872	STOP	n/a	n/a	n/a	-999	11	[-999, -999, -999]	n/a	FR1	0	R1383J
19453.222	1.066	999874	DISTRACT_END	n/a	n/a	n/a	-999	9	[0, 0, 0]	n/a	FR1	0	R1383J
19454.288	3.389	1000936	REC_START	n/a	n/a	n/a	-999	9	[0, 0, 0]	n/a	FR1	0	R1383J
19457.677	2.552	1004326	REC_WORD	2.552	n/a	SHARK	11	9	[0, 0, 0]	n/a	FR1	0	R1383J
19460.229	2.474	1006878	REC_WORD	2.474	n/a	TAIL	12	9	[0, 0, 0]	n/a	FR1	0	R1383J
19462.703	21.822	1009352	REC_WORD	21.822	n/a	PIN	1	9	[0, 0, 0]	n/a	FR1	0	R1383J
19484.525	1.397	1031174	REC_END	n/a	n/a	n/a	-999	9	[0, 0, 0]	n/a	FR1	0	R1383J
19485.922	10.361	1032575	COUNTDOWN_START	n/a	n/a	n/a	-999	10	[0, 0, 0]	n/a	FR1	0	R1383J
19496.283	0.0	1042930	COUNTDOWN_END	n/a	n/a	n/a	-999	10	[0, 0, 0]	n/a	FR1	0	R1383J
19496.283	2.139	1042930	ENCODING_START	n/a	n/a	n/a	-999	10	[0, 0, 0]	n/a	FR1	0	R1383J
19498.422	1.616	1045071	WORD	n/a	n/a	BLADE	1	10	[0, 0, 0]	n/a	FR1	0	R1383J
19500.038	0.784	1046689	WORD_OFF	n/a	n/a	BLADE	1	10	[0, 0, 0]	n/a	FR1	0	R1383J
19500.822	1.617	1047473	WORD	n/a	n/a	BENCH	2	10	[0, 0, 0]	n/a	FR1	0	R1383J
19502.439	0.85	1049091	WORD_OFF	n/a	n/a	BENCH	2	10	[0, 0, 0]	n/a	FR1	0	R1383J
19503.289	1.616	1049935	WORD	n/a	n/a	HOUSE	3	10	[0, 0, 0]	n/a	FR1	0	R1383J
19504.905	0.966	1051554	WORD_OFF	n/a	n/a	HOUSE	3	10	[0, 0, 0]	n/a	FR1	0	R1383J
19505.871	1.601	1052520	WORD	n/a	n/a	ASH	4	10	[0, 0, 0]	n/a	FR1	0	R1383J
19507.472	0.967	1054121	WORD_OFF	n/a	n/a	ASH	4	10	[0, 0, 0]	n/a	FR1	0	R1383J
19508.439	1.599	1055087	WORD	n/a	n/a	STEW	5	10	[0, 0, 0]	n/a	FR1	0	R1383J
19510.038	0.967	1056688	WORD_OFF	n/a	n/a	STEW	5	10	[0, 0, 0]	n/a	FR1	0	R1383J
19511.005	1.6	1057654	WORD	n/a	n/a	ZOO	6	10	[0, 0, 0]	n/a	FR1	0	R1383J
19512.605	0.983	1059255	WORD_OFF	n/a	n/a	ZOO	6	10	[0, 0, 0]	n/a	FR1	0	R1383J
19513.588	1.601	1060238	WORD	n/a	n/a	MAT	7	10	[0, 0, 0]	n/a	FR1	0	R1383J
19515.189	0.883	1061839	WORD_OFF	n/a	n/a	MAT	7	10	[0, 0, 0]	n/a	FR1	0	R1383J
19516.072	1.6	1062718	WORD	n/a	n/a	HEEL	8	10	[0, 0, 0]	n/a	FR1	0	R1383J
19517.672	0.882	1064319	WORD_OFF	n/a	n/a	HEEL	8	10	[0, 0, 0]	n/a	FR1	0	R1383J
19518.554	1.601	1065198	WORD	n/a	n/a	APE	9	10	[0, 0, 0]	n/a	FR1	0	R1383J
19520.155	0.8	1066799	WORD_OFF	n/a	n/a	APE	9	10	[0, 0, 0]	n/a	FR1	0	R1383J
19520.955	1.6	1067600	WORD	n/a	n/a	WAX	10	10	[0, 0, 0]	n/a	FR1	0	R1383J
19522.555	0.767	1069201	WORD_OFF	n/a	n/a	WAX	10	10	[0, 0, 0]	n/a	FR1	0	R1383J
19523.322	1.6	1069967	WORD	n/a	n/a	COAL	11	10	[0, 0, 0]	n/a	FR1	0	R1383J
19524.922	0.783	1071568	WORD_OFF	n/a	n/a	COAL	11	10	[0, 0, 0]	n/a	FR1	0	R1383J
19525.705	1.616	1072351	WORD	n/a	n/a	PAN	12	10	[0, 0, 0]	n/a	FR1	0	R1383J
19527.321	0.001	1073969	WORD_OFF	n/a	n/a	PAN	12	10	[0, 0, 0]	n/a	FR1	0	R1383J
19527.322	0.0	1073969	ENCODING_END	n/a	n/a	n/a	-999	10	[0, 0, 0]	n/a	FR1	0	R1383J
19527.322	0.0	1073969	DISTRACT_START	n/a	n/a	n/a	-999	10	[0, 0, 0]	n/a	FR1	0	R1383J
19527.322	0.001	1073969	START	n/a	n/a	n/a	-999	12	[-999, -999, -999]	n/a	FR1	0	R1383J
19527.323	8.932	1073970	PROB	8.932	n/a	n/a	-999	12	[4, 8, 2]	14	FR1	0	R1383J
19536.255	8.25	1082901	PROB	8.25	n/a	n/a	-999	12	[6, 5, 1]	12	FR1	0	R1383J
19544.505	5.767	1091151	PROB	5.767	n/a	n/a	-999	12	[3, 7, 8]	18	FR1	0	R1383J
19550.272	0.0	1096916	DISTRACT_END	n/a	n/a	n/a	-999	10	[0, 0, 0]	n/a	FR1	0	R1383J
19550.272	1.199	1096918	STOP	n/a	n/a	n/a	-999	12	[-999, -999, -999]	n/a	FR1	0	R1383J
19551.471	4.244	1098117	REC_START	n/a	n/a	n/a	-999	10	[0, 0, 0]	n/a	FR1	0	R1383J
19555.715	12.079	1102361	REC_WORD	12.079	n/a	BLADE	1	10	[0, 0, 0]	n/a	FR1	0	R1383J
19567.794	5.016	1114439	REC_WORD	5.016	n/a	APE	9	10	[0, 0, 0]	n/a	FR1	0	R1383J
19572.81	8.894	1119455	REC_WORD	8.894	n/a	WAX	10	10	[0, 0, 0]	n/a	FR1	0	R1383J
19581.704	2.702	1128347	REC_END	n/a	n/a	n/a	-999	10	[0, 0, 0]	n/a	FR1	0	R1383J
19584.406	10.361	1131053	COUNTDOWN_START	n/a	n/a	n/a	-999	11	[0, 0, 0]	n/a	FR1	0	R1383J
19594.767	0.0	1141408	COUNTDOWN_END	n/a	n/a	n/a	-999	11	[0, 0, 0]	n/a	FR1	0	R1383J
19594.767	2.004	1141417	ENCODING_START	n/a	n/a	n/a	-999	11	[0, 0, 0]	n/a	FR1	0	R1383J
19596.771	1.6	1143418	WORD	n/a	n/a	SEAL	1	11	[0, 0, 0]	n/a	FR1	0	R1383J
19598.371	0.9	1145019	WORD_OFF	n/a	n/a	SEAL	1	11	[0, 0, 0]	n/a	FR1	0	R1383J
19599.271	1.6	1145915	WORD	n/a	n/a	STAIR	2	11	[0, 0, 0]	n/a	FR1	0	R1383J
19600.871	0.934	1147517	WORD_OFF	n/a	n/a	STAIR	2	11	[0, 0, 0]	n/a	FR1	0	R1383J
19601.805	1.616	1148448	WORD	n/a	n/a	KNOB	3	11	[0, 0, 0]	n/a	FR1	0	R1383J
19603.421	0.934	1150066	WORD_OFF	n/a	n/a	KNOB	3	11	[0, 0, 0]	n/a	FR1	0	R1383J
19604.355	1.617	1150997	WORD	n/a	n/a	BAT	4	11	[0, 0, 0]	n/a	FR1	0	R1383J
19605.972	0.95	1152616	WORD_OFF	n/a	n/a	BAT	4	11	[0, 0, 0]	n/a	FR1	0	R1383J
19606.922	1.617	1153564	WORD	n/a	n/a	TOOTH	5	11	[0, 0, 0]	n/a	FR1	0	R1383J
19608.539	0.849	1155183	WORD_OFF	n/a	n/a	TOOTH	5	11	[0, 0, 0]	n/a	FR1	0	R1383J
19609.388	1.601	1156027	WORD	n/a	n/a	GLOVE	6	11	[0, 0, 0]	n/a	FR1	0	R1383J
19610.989	0.999	1157628	WORD_OFF	n/a	n/a	GLOVE	6	11	[0, 0, 0]	n/a	FR1	0	R1383J
19611.988	1.601	1158629	WORD	n/a	n/a	STORM	7	11	[0, 0, 0]	n/a	FR1	0	R1383J
19613.589	0.866	1160230	WORD_OFF	n/a	n/a	STORM	7	11	[0, 0, 0]	n/a	FR1	0	R1383J
19614.455	1.6	1161100	WORD	n/a	n/a	PARK	8	11	[0, 0, 0]	n/a	FR1	0	R1383J
19616.055	0.884	1162701	WORD_OFF	n/a	n/a	PARK	8	11	[0, 0, 0]	n/a	FR1	0	R1383J
19616.939	1.616	1163580	WORD	n/a	n/a	SOIL	9	11	[0, 0, 0]	n/a	FR1	0	R1383J
19618.555	1.0	1165199	WORD_OFF	n/a	n/a	SOIL	9	11	[0, 0, 0]	n/a	FR1	0	R1383J
19619.555	1.616	1166199	WORD	n/a	n/a	BOARD	10	11	[0, 0, 0]	n/a	FR1	0	R1383J
19621.171	0.834	1167818	WORD_OFF	n/a	n/a	BOARD	10	11	[0, 0, 0]	n/a	FR1	0	R1383J
19622.005	1.6	1168644	WORD	n/a	n/a	BEAN	11	11	[0, 0, 0]	n/a	FR1	0	R1383J
19623.605	0.934	1170246	WORD_OFF	n/a	n/a	BEAN	11	11	[0, 0, 0]	n/a	FR1	0	R1383J
19624.539	1.615	1171185	WORD	n/a	n/a	FRUIT	12	11	[0, 0, 0]	n/a	FR1	0	R1383J
19626.154	0.001	1172795	WORD_OFF	n/a	n/a	FRUIT	12	11	[0, 0, 0]	n/a	FR1	0	R1383J
19626.155	0.001	1172798	PROB	0.001	n/a	n/a	-999	13	[4, 1, 4]	9	FR1	0	R1383J
19626.156	0.0	1172799	START	n/a	n/a	n/a	-999	13	[-999, -999, -999]	n/a	FR1	0	R1383J
19626.156	0.0	1172804	ENCODING_END	n/a	n/a	n/a	-999	11	[0, 0, 0]	n/a	FR1	0	R1383J
19626.156	9.816	1172804	DISTRACT_START	n/a	n/a	n/a	-999	11	[0, 0, 0]	n/a	FR1	0	R1383J
19635.972	7.833	1182614	PROB	7.833	n/a	n/a	-999	13	[3, 5, 6]	14	FR1	0	R1383J
19643.805	6.733	1190447	PROB	6.733	n/a	n/a	-999	13	[3, 3, 4]	1	FR1	0	R1383J
19650.538	0.0	1197178	DISTRACT_END	n/a	n/a	n/a	-999	11	[0, 0, 0]	n/a	FR1	0	R1383J
19650.538	1.3	1197180	STOP	n/a	n/a	n/a	-999	13	[-999, -999, -999]	n/a	FR1	0	R1383J
19651.838	3.818	1198483	REC_START	n/a	n/a	n/a	-999	11	[0, 0, 0]	n/a	FR1	0	R1383J
19655.656	2.192	1202298	REC_WORD	2.192	n/a	BAT	4	11	[0, 0, 0]	n/a	FR1	0	R1383J
19657.848	4.448	1204490	REC_WORD	4.448	n/a	GLOVE	6	11	[0, 0, 0]	n/a	FR1	0	R1383J
19662.296	19.795	1208937	REC_WORD	19.795	n/a	KNOB	3	11	[0, 0, 0]	n/a	FR1	0	R1383J
19682.091	3.065	1228730	REC_END	n/a	n/a	n/a	-999	11	[0, 0, 0]	n/a	FR1	0	R1383J
19685.156	10.368	1231802	COUNTDOWN_START	n/a	n/a	n/a	-999	12	[0, 0, 0]	n/a	FR1	0	R1383J
19695.524	0.001	1242166	COUNTDOWN_END	n/a	n/a	n/a	-999	12	[0, 0, 0]	n/a	FR1	0	R1383J
19695.525	2.214	1242166	ENCODING_START	n/a	n/a	n/a	-999	12	[0, 0, 0]	n/a	FR1	0	R1383J
19697.739	1.6	1244376	WORD	n/a	n/a	PRIZE	1	12	[0, 0, 0]	n/a	FR1	0	R1383J
19699.339	0.95	1245977	WORD_OFF	n/a	n/a	PRIZE	1	12	[0, 0, 0]	n/a	FR1	0	R1383J
19700.289	1.6	1246925	WORD	n/a	n/a	FLEA	2	12	[0, 0, 0]	n/a	FR1	0	R1383J
19701.889	0.933	1248527	WORD_OFF	n/a	n/a	FLEA	2	12	[0, 0, 0]	n/a	FR1	0	R1383J
19702.822	1.616	1249466	WORD	n/a	n/a	CREAM	3	12	[0, 0, 0]	n/a	FR1	0	R1383J
19704.438	0.951	1251076	WORD_OFF	n/a	n/a	CREAM	3	12	[0, 0, 0]	n/a	FR1	0	R1383J
19705.389	1.6	1252033	WORD	n/a	n/a	SKY	4	12	[0, 0, 0]	n/a	FR1	0	R1383J
19706.989	0.9	1253626	WORD_OFF	n/a	n/a	SKY	4	12	[0, 0, 0]	n/a	FR1	0	R1383J
19707.889	1.6	1254531	WORD	n/a	n/a	CHEEK	5	12	[0, 0, 0]	n/a	FR1	0	R1383J
19709.489	0.933	1256132	WORD_OFF	n/a	n/a	CHEEK	5	12	[0, 0, 0]	n/a	FR1	0	R1383J
19710.422	1.6	1257063	WORD	n/a	n/a	CUP	6	12	[0, 0, 0]	n/a	FR1	0	R1383J
19712.022	0.784	1258664	WORD_OFF	n/a	n/a	CUP	6	12	[0, 0, 0]	n/a	FR1	0	R1383J
19712.806	1.6	1259447	WORD	n/a	n/a	CLAY	7	12	[0, 0, 0]	n/a	FR1	0	R1383J
19714.406	0.9	1261048	WORD_OFF	n/a	n/a	CLAY	7	12	[0, 0, 0]	n/a	FR1	0	R1383J
19715.306	1.6	1261945	WORD	n/a	n/a	FLAME	8	12	[0, 0, 0]	n/a	FR1	0	R1383J
19716.906	0.85	1263546	WORD_OFF	n/a	n/a	FLAME	8	12	[0, 0, 0]	n/a	FR1	0	R1383J
19717.756	1.616	1264398	WORD	n/a	n/a	TROUT	9	12	[0, 0, 0]	n/a	FR1	0	R1383J
19719.372	0.767	1266008	WORD_OFF	n/a	n/a	TROUT	9	12	[0, 0, 0]	n/a	FR1	0	R1383J
19720.139	1.6	1266783	WORD	n/a	n/a	PORK	10	12	[0, 0, 0]	n/a	FR1	0	R1383J
19721.739	1.0	1268375	WORD_OFF	n/a	n/a	PORK	10	12	[0, 0, 0]	n/a	FR1	0	R1383J
19722.739	1.616	1269376	WORD	n/a	n/a	JET	11	12	[0, 0, 0]	n/a	FR1	0	R1383J
19724.355	0.867	1270994	WORD_OFF	n/a	n/a	JET	11	12	[0, 0, 0]	n/a	FR1	0	R1383J
19725.222	1.601	1271865	WORD	n/a	n/a	NEST	12	12	[0, 0, 0]	n/a	FR1	0	R1383J
19726.823	0.001	1273462	PROB	0.001	n/a	n/a	-999	14	[1, 6, 4]	11	FR1	0	R1383J
19726.824	0.0	1273463	START	n/a	n/a	n/a	-999	14	[-999, -999, -999]	n/a	FR1	0	R1383J
19726.822	0.002	1273466	WORD_OFF	n/a	n/a	NEST	12	12	[0, 0, 0]	n/a	FR1	0	R1383J
19726.824	0.0	1273466	ENCODING_END	n/a	n/a	n/a	-999	12	[0, 0, 0]	n/a	FR1	0	R1383J
19726.824	6.631	1273466	DISTRACT_START	n/a	n/a	n/a	-999	12	[0, 0, 0]	n/a	FR1	0	R1383J
19733.455	6.484	1280094	PROB	6.484	n/a	n/a	-999	14	[7, 2, 6]	15	FR1	0	R1383J
19739.939	8.05	1286577	PROB	8.05	n/a	n/a	-999	14	[3, 4, 7]	14	FR1	0	R1383J
19747.989	0.0	1294627	STOP	n/a	n/a	n/a	-999	14	[-999, -999, -999]	n/a	FR1	0	R1383J
19747.989	1.083	1294628	DISTRACT_END	n/a	n/a	n/a	-999	12	[0, 0, 0]	n/a	FR1	0	R1383J
19749.072	2.931	1295707	REC_START	n/a	n/a	n/a	-999	12	[0, 0, 0]	n/a	FR1	0	R1383J
19752.003	1.743	1298641	REC_WORD	1.743	n/a	CUP	6	12	[0, 0, 0]	n/a	FR1	0	R1383J
19753.746	3.392	1300384	REC_WORD	3.392	n/a	CREAM	3	12	[0, 0, 0]	n/a	FR1	0	R1383J
19757.138	16.979	1303776	REC_WORD	16.979	n/a	FLAME	8	12	[0, 0, 0]	n/a	FR1	0	R1383J
19774.117	5.197	1320754	REC_WORD	5.197	n/a	PRIZE	1	12	[0, 0, 0]	n/a	FR1	0	R1383J
19779.314	0.0	1325955	REC_END	n/a	n/a	n/a	-999	12	[0, 0, 0]	n/a	FR1	0	R1383J
