onset	duration	sample	trial_type	response_time	stim_file	item_name	serialpos	list	test	answer	experiment	session	subject
0.0	16.282	164691	SESS_START	n/a	n/a	n/a	-999	-999	[0, 0, 0]	n/a	FR1	0	R1018P
16.282	10.428	172831	COUNTDOWN_START	n/a	n/a	n/a	-999	-999	[0, 0, 0]	n/a	FR1	0	R1018P
26.71	3.675	178045	COUNTDOWN_END	n/a	n/a	n/a	-999	-999	[0, 0, 0]	n/a	FR1	0	R1018P
30.385	2.535	179882	PRACTICE_WORD	n/a	n/a	RING	1	-1	[0, 0, 0]	n/a	FR1	0	R1018P
32.92	2.433	181150	PRACTICE_WORD	n/a	n/a	COTTON	2	-1	[0, 0, 0]	n/a	FR1	0	R1018P
35.353	2.617	182366	PRACTICE_WORD	n/a	n/a	WAGON	3	-1	[0, 0, 0]	n/a	FR1	0	R1018P
37.97	2.534	183675	PRACTICE_WORD	n/a	n/a	WATCH	4	-1	[0, 0, 0]	n/a	FR1	0	R1018P
40.504	2.433	184942	PRACTICE_WORD	n/a	n/a	BEAM	5	-1	[0, 0, 0]	n/a	FR1	0	R1018P
42.937	2.567	186158	PRACTICE_WORD	n/a	n/a	CHEST	6	-1	[0, 0, 0]	n/a	FR1	0	R1018P
45.504	2.518	187441	PRACTICE_WORD	n/a	n/a	CAMEL	7	-1	[0, 0, 0]	n/a	FR1	0	R1018P
48.022	2.55	188700	PRACTICE_WORD	n/a	n/a	TONGUE	8	-1	[0, 0, 0]	n/a	FR1	0	R1018P
50.572	2.434	189975	PRACTICE_WORD	n/a	n/a	FLOOD	9	-1	[0, 0, 0]	n/a	FR1	0	R1018P
53.006	2.484	191192	PRACTICE_WORD	n/a	n/a	RHINO	10	-1	[0, 0, 0]	n/a	FR1	0	R1018P
55.49	2.534	192434	PRACTICE_WORD	n/a	n/a	ATTIC	11	-1	[0, 0, 0]	n/a	FR1	0	R1018P
58.024	1.617	193701	PRACTICE_WORD	n/a	n/a	IRON	12	-1	[0, 0, 0]	n/a	FR1	0	R1018P
59.641	0.0	194510	PRACTICE_DISTRACT_START	n/a	n/a	n/a	-999	-1	[0, 0, 0]	n/a	FR1	0	R1018P
59.641	0.016	194510	START	n/a	n/a	n/a	-999	-1	[-999, -999, -999]	n/a	FR1	0	R1018P
59.657	33.494	194518	PROB	33.494	n/a	n/a	-999	-1	[7, 2, 6]	15	FR1	0	R1018P
93.151	0.013	211264	STOP	n/a	n/a	n/a	-999	-1	[-999, -999, -999]	n/a	FR1	0	R1018P
93.164	0.519	211270	PRACTICE_DISTRACT_END	n/a	n/a	n/a	-999	-1	[0, 0, 0]	n/a	FR1	0	R1018P
93.683	30.514	211530	PRACTICE_REC_START	n/a	n/a	n/a	-999	-1	[0, 0, 0]	n/a	FR1	0	R1018P
124.197	44.247	226786	PRACTICE_REC_END	n/a	n/a	n/a	-999	-1	[0, 0, 0]	n/a	FR1	0	R1018P
168.444	0.001	248908	COUNTDOWN_START	n/a	n/a	n/a	-999	1	[0, 0, 0]	n/a	FR1	0	R1018P
168.445	10.427	248909	TRIAL	n/a	n/a	n/a	-999	1	[0, 0, 0]	n/a	FR1	0	R1018P
178.872	0.009	254122	COUNTDOWN_END	n/a	n/a	n/a	-999	1	[0, 0, 0]	n/a	FR1	0	R1018P
178.881	2.449	254126	ORIENT	n/a	n/a	n/a	-999	1	[0, 0, 0]	n/a	FR1	0	R1018P
181.33	2.451	255351	WORD	n/a	wordpools/wordpool_EN.txt	CORD	1	1	[0, 0, 0]	n/a	FR1	0	R1018P
183.781	2.45	256576	WORD	n/a	wordpools/wordpool_EN.txt	WAVE	2	1	[0, 0, 0]	n/a	FR1	0	R1018P
186.231	2.451	257801	WORD	n/a	wordpools/wordpool_EN.txt	JUICE	3	1	[0, 0, 0]	n/a	FR1	0	R1018P
188.682	2.383	259027	WORD	n/a	wordpools/wordpool_EN.txt	SHEEP	4	1	[0, 0, 0]	n/a	FR1	0	R1018P
191.065	2.468	260218	WORD	n/a	wordpools/wordpool_EN.txt	MAP	5	1	[0, 0, 0]	n/a	FR1	0	R1018P
193.533	2.55	261452	WORD	n/a	wordpools/wordpool_EN.txt	PLANE	6	1	[0, 0, 0]	n/a	FR1	0	R1018P
196.083	2.384	262727	WORD	n/a	wordpools/wordpool_EN.txt	CONE	7	1	[0, 0, 0]	n/a	FR1	0	R1018P
198.467	2.401	263919	WORD	n/a	wordpools/wordpool_EN.txt	SHIP	8	1	[0, 0, 0]	n/a	FR1	0	R1018P
200.868	2.483	265119	WORD	n/a	wordpools/wordpool_EN.txt	BOMB	9	1	[0, 0, 0]	n/a	FR1	0	R1018P
203.351	2.401	266361	WORD	n/a	wordpools/wordpool_EN.txt	POLE	10	1	[0, 0, 0]	n/a	FR1	0	R1018P
205.752	2.467	267561	WORD	n/a	wordpools/wordpool_EN.txt	ELF	11	1	[0, 0, 0]	n/a	FR1	0	R1018P
208.219	1.617	268795	WORD	n/a	wordpools/wordpool_EN.txt	MOON	12	1	[0, 0, 0]	n/a	FR1	0	R1018P
209.836	0.0	269603	DISTRACT_START	n/a	n/a	n/a	-999	1	[0, 0, 0]	n/a	FR1	0	R1018P
209.836	0.017	269603	START	n/a	n/a	n/a	-999	1	[-999, -999, -999]	n/a	FR1	0	R1018P
209.853	15.819	269612	PROB	15.819	n/a	n/a	-999	1	[9, 4, 7]	20	FR1	0	R1018P
225.672	19.375	277521	PROB	19.375	n/a	n/a	-999	1	[4, 4, 9]	17	FR1	0	R1018P
245.047	0.012	287208	STOP	n/a	n/a	n/a	-999	1	[-999, -999, -999]	n/a	FR1	0	R1018P
245.059	1.034	287214	DISTRACT_END	n/a	n/a	n/a	-999	1	[0, 0, 0]	n/a	FR1	0	R1018P
246.093	3.241	287731	REC_START	n/a	n/a	n/a	-999	1	[0, 0, 0]	n/a	FR1	0	R1018P
249.334	2.826	289351	REC_WORD	2.826	n/a	SHIP	-999	1	[0, 0, 0]	n/a	FR1	0	R1018P
252.16	0.854	290764	REC_WORD	0.854	n/a	MOON	-999	1	[0, 0, 0]	n/a	FR1	0	R1018P
253.014	1.165	291191	REC_WORD	1.165	n/a	POLE	-999	1	[0, 0, 0]	n/a	FR1	0	R1018P
254.179	10.414	291773	REC_WORD	10.414	n/a	ELF	-999	1	[0, 0, 0]	n/a	FR1	0	R1018P
264.593	11.514	296980	REC_WORD	11.514	n/a	CONE	-999	1	[0, 0, 0]	n/a	FR1	0	R1018P
276.107	8.093	302737	REC_END	n/a	n/a	n/a	-999	1	[0, 0, 0]	n/a	FR1	0	R1018P
284.2	0.0	306783	TRIAL	n/a	n/a	n/a	-999	2	[0, 0, 0]	n/a	FR1	0	R1018P
284.2	10.428	306783	COUNTDOWN_START	n/a	n/a	n/a	-999	2	[0, 0, 0]	n/a	FR1	0	R1018P
294.628	0.007	311997	COUNTDOWN_END	n/a	n/a	n/a	-999	2	[0, 0, 0]	n/a	FR1	0	R1018P
294.635	2.567	312000	ORIENT	n/a	n/a	n/a	-999	2	[0, 0, 0]	n/a	FR1	0	R1018P
297.202	2.484	313284	WORD	n/a	wordpools/wordpool_EN.txt	CAVE	1	2	[0, 0, 0]	n/a	FR1	0	R1018P
299.686	2.567	314526	WORD	n/a	wordpools/wordpool_EN.txt	STAIR	2	2	[0, 0, 0]	n/a	FR1	0	R1018P
302.253	2.584	315809	WORD	n/a	wordpools/wordpool_EN.txt	SWAMP	3	2	[0, 0, 0]	n/a	FR1	0	R1018P
304.837	2.567	317101	WORD	n/a	wordpools/wordpool_EN.txt	WOOD	4	2	[0, 0, 0]	n/a	FR1	0	R1018P
307.404	2.485	318384	WORD	n/a	wordpools/wordpool_EN.txt	CRANE	5	2	[0, 0, 0]	n/a	FR1	0	R1018P
309.889	2.616	319627	WORD	n/a	wordpools/wordpool_EN.txt	RAKE	6	2	[0, 0, 0]	n/a	FR1	0	R1018P
312.505	2.617	320935	WORD	n/a	wordpools/wordpool_EN.txt	HAWK	7	2	[0, 0, 0]	n/a	FR1	0	R1018P
315.122	2.401	322243	WORD	n/a	wordpools/wordpool_EN.txt	PIPE	8	2	[0, 0, 0]	n/a	FR1	0	R1018P
317.523	2.533	323444	WORD	n/a	wordpools/wordpool_EN.txt	HORSE	9	2	[0, 0, 0]	n/a	FR1	0	R1018P
320.056	2.484	324710	WORD	n/a	wordpools/wordpool_EN.txt	TREE	10	2	[0, 0, 0]	n/a	FR1	0	R1018P
322.54	2.534	325952	WORD	n/a	wordpools/wordpool_EN.txt	DART	11	2	[0, 0, 0]	n/a	FR1	0	R1018P
325.074	1.617	327219	WORD	n/a	wordpools/wordpool_EN.txt	BOX	12	2	[0, 0, 0]	n/a	FR1	0	R1018P
326.691	0.001	328027	DISTRACT_START	n/a	n/a	n/a	-999	2	[0, 0, 0]	n/a	FR1	0	R1018P
326.692	0.016	328028	START	n/a	n/a	n/a	-999	2	[-999, -999, -999]	n/a	FR1	0	R1018P
326.708	7.534	328036	PROB	7.534	n/a	n/a	-999	2	[1, 5, 8]	14	FR1	0	R1018P
334.242	8.452	331803	PROB	8.452	n/a	n/a	-999	2	[1, 3, 7]	11	FR1	0	R1018P
342.694	8.84	336029	PROB	8.84	n/a	n/a	-999	2	[7, 7, 2]	16	FR1	0	R1018P
351.534	0.012	340448	STOP	n/a	n/a	n/a	-999	2	[-999, -999, -999]	n/a	FR1	0	R1018P
351.546	1.101	340454	DISTRACT_END	n/a	n/a	n/a	-999	2	[0, 0, 0]	n/a	FR1	0	R1018P
352.647	2.901	341005	REC_START	n/a	n/a	n/a	-999	2	[0, 0, 0]	n/a	FR1	0	R1018P
355.548	2.495	342455	REC_WORD	2.495	n/a	HORSE	-999	2	[0, 0, 0]	n/a	FR1	0	R1018P
358.043	1.236	343703	REC_WORD	1.236	n/a	CAVE	-999	2	[0, 0, 0]	n/a	FR1	0	R1018P
359.279	1.759	344321	REC_WORD	1.759	n/a	HAWK	-999	2	[0, 0, 0]	n/a	FR1	0	R1018P
361.038	6.439	345200	REC_WORD	6.439	n/a	TREE	-999	2	[0, 0, 0]	n/a	FR1	0	R1018P
367.477	1.21	348419	REC_WORD	1.21	n/a	POLE	-999	2	[0, 0, 0]	n/a	FR1	0	R1018P
368.687	13.97	349024	REC_WORD_VV	13.97	n/a	<>	-999	2	[0, 0, 0]	n/a	FR1	0	R1018P
382.657	5.979	356009	REC_END	n/a	n/a	n/a	-999	2	[0, 0, 0]	n/a	FR1	0	R1018P
388.636	0.0	358998	TRIAL	n/a	n/a	n/a	-999	3	[0, 0, 0]	n/a	FR1	0	R1018P
388.636	10.428	358998	COUNTDOWN_START	n/a	n/a	n/a	-999	3	[0, 0, 0]	n/a	FR1	0	R1018P
399.064	0.007	364212	COUNTDOWN_END	n/a	n/a	n/a	-999	3	[0, 0, 0]	n/a	FR1	0	R1018P
399.071	2.551	364216	ORIENT	n/a	n/a	n/a	-999	3	[0, 0, 0]	n/a	FR1	0	R1018P
401.622	2.45	365491	WORD	n/a	wordpools/wordpool_EN.txt	RAT	1	3	[0, 0, 0]	n/a	FR1	0	R1018P
404.072	2.534	366716	WORD	n/a	wordpools/wordpool_EN.txt	BROOM	2	3	[0, 0, 0]	n/a	FR1	0	R1018P
406.606	2.551	367983	WORD	n/a	wordpools/wordpool_EN.txt	OWL	3	3	[0, 0, 0]	n/a	FR1	0	R1018P
409.157	2.533	369258	WORD	n/a	wordpools/wordpool_EN.txt	HEN	4	3	[0, 0, 0]	n/a	FR1	0	R1018P
411.69	2.434	370525	WORD	n/a	wordpools/wordpool_EN.txt	ANT	5	3	[0, 0, 0]	n/a	FR1	0	R1018P
414.124	2.484	371742	WORD	n/a	wordpools/wordpool_EN.txt	ROPE	6	3	[0, 0, 0]	n/a	FR1	0	R1018P
416.608	2.417	372984	WORD	n/a	wordpools/wordpool_EN.txt	STRING	7	3	[0, 0, 0]	n/a	FR1	0	R1018P
419.025	2.584	374192	WORD	n/a	wordpools/wordpool_EN.txt	KITE	8	3	[0, 0, 0]	n/a	FR1	0	R1018P
421.609	2.6	375484	WORD	n/a	wordpools/wordpool_EN.txt	FOX	9	3	[0, 0, 0]	n/a	FR1	0	R1018P
424.209	2.584	376784	WORD	n/a	wordpools/wordpool_EN.txt	CHIN	10	3	[0, 0, 0]	n/a	FR1	0	R1018P
426.793	2.451	378076	WORD	n/a	wordpools/wordpool_EN.txt	ROOF	11	3	[0, 0, 0]	n/a	FR1	0	R1018P
429.244	1.618	379301	WORD	n/a	wordpools/wordpool_EN.txt	THUMB	12	3	[0, 0, 0]	n/a	FR1	0	R1018P
430.862	0.0	380110	DISTRACT_START	n/a	n/a	n/a	-999	3	[0, 0, 0]	n/a	FR1	0	R1018P
430.862	0.016	380110	START	n/a	n/a	n/a	-999	3	[-999, -999, -999]	n/a	FR1	0	R1018P
430.878	10.685	380118	PROB	10.685	n/a	n/a	-999	3	[7, 4, 1]	12	FR1	0	R1018P
441.563	6.868	385460	PROB	6.868	n/a	n/a	-999	3	[5, 2, 4]	11	FR1	0	R1018P
448.431	7.576	388894	PROB	7.576	n/a	n/a	-999	3	[1, 4, 5]	10	FR1	0	R1018P
456.007	0.008	392682	STOP	n/a	n/a	n/a	-999	3	[-999, -999, -999]	n/a	FR1	0	R1018P
456.015	1.218	392686	DISTRACT_END	n/a	n/a	n/a	-999	3	[0, 0, 0]	n/a	FR1	0	R1018P
457.233	8.681	393295	REC_START	n/a	n/a	n/a	-999	3	[0, 0, 0]	n/a	FR1	0	R1018P
465.914	0.785	397635	REC_WORD	0.785	n/a	SHEEP	-999	3	[0, 0, 0]	n/a	FR1	0	R1018P
466.699	4.45	398028	REC_WORD	4.45	n/a	OWL	-999	3	[0, 0, 0]	n/a	FR1	0	R1018P
471.149	2.475	400253	REC_WORD	2.475	n/a	THUMB	-999	3	[0, 0, 0]	n/a	FR1	0	R1018P
473.624	6.177	401490	REC_WORD	6.177	n/a	KITE	-999	3	[0, 0, 0]	n/a	FR1	0	R1018P
479.801	3.036	404578	REC_WORD	3.036	n/a	CRANE	-999	3	[0, 0, 0]	n/a	FR1	0	R1018P
482.837	4.406	406096	REC_WORD	4.406	n/a	BROOM	-999	3	[0, 0, 0]	n/a	FR1	0	R1018P
487.243	21.932	408299	REC_END	n/a	n/a	n/a	-999	3	[0, 0, 0]	n/a	FR1	0	R1018P
509.175	0.001	419265	COUNTDOWN_START	n/a	n/a	n/a	-999	4	[0, 0, 0]	n/a	FR1	0	R1018P
509.176	10.427	419265	TRIAL	n/a	n/a	n/a	-999	4	[0, 0, 0]	n/a	FR1	0	R1018P
519.603	0.008	424478	COUNTDOWN_END	n/a	n/a	n/a	-999	4	[0, 0, 0]	n/a	FR1	0	R1018P
519.611	2.617	424482	ORIENT	n/a	n/a	n/a	-999	4	[0, 0, 0]	n/a	FR1	0	R1018P
522.228	2.55	425791	WORD	n/a	wordpools/wordpool_EN.txt	EGG	1	4	[0, 0, 0]	n/a	FR1	0	R1018P
524.778	2.401	427066	WORD	n/a	wordpools/wordpool_EN.txt	FORK	2	4	[0, 0, 0]	n/a	FR1	0	R1018P
527.179	2.6	428266	WORD	n/a	wordpools/wordpool_EN.txt	SLUSH	3	4	[0, 0, 0]	n/a	FR1	0	R1018P
529.779	2.584	429566	WORD	n/a	wordpools/wordpool_EN.txt	SEAT	4	4	[0, 0, 0]	n/a	FR1	0	R1018P
532.363	2.467	430858	WORD	n/a	wordpools/wordpool_EN.txt	PARK	5	4	[0, 0, 0]	n/a	FR1	0	R1018P
534.83	2.55	432091	WORD	n/a	wordpools/wordpool_EN.txt	CAR	6	4	[0, 0, 0]	n/a	FR1	0	R1018P
537.38	2.551	433366	WORD	n/a	wordpools/wordpool_EN.txt	DITCH	7	4	[0, 0, 0]	n/a	FR1	0	R1018P
539.931	2.517	434642	WORD	n/a	wordpools/wordpool_EN.txt	GLOVE	8	4	[0, 0, 0]	n/a	FR1	0	R1018P
542.448	2.534	435900	WORD	n/a	wordpools/wordpool_EN.txt	PANTS	9	4	[0, 0, 0]	n/a	FR1	0	R1018P
544.982	2.584	437167	WORD	n/a	wordpools/wordpool_EN.txt	SQUARE	10	4	[0, 0, 0]	n/a	FR1	0	R1018P
547.566	2.434	438459	WORD	n/a	wordpools/wordpool_EN.txt	LEG	11	4	[0, 0, 0]	n/a	FR1	0	R1018P
550.0	1.617	439676	WORD	n/a	wordpools/wordpool_EN.txt	TRAIN	12	4	[0, 0, 0]	n/a	FR1	0	R1018P
551.617	0.001	440485	DISTRACT_START	n/a	n/a	n/a	-999	4	[0, 0, 0]	n/a	FR1	0	R1018P
551.618	0.015	440485	START	n/a	n/a	n/a	-999	4	[-999, -999, -999]	n/a	FR1	0	R1018P
551.633	7.352	440493	PROB	7.352	n/a	n/a	-999	4	[1, 2, 5]	8	FR1	0	R1018P
558.985	9.452	444168	PROB	9.452	n/a	n/a	-999	4	[2, 6, 3]	11	FR1	0	R1018P
568.437	11.922	448894	PROB	11.922	n/a	n/a	-999	4	[7, 4, 9]	18	FR1	0	R1018P
580.359	0.013	454855	STOP	n/a	n/a	n/a	-999	4	[-999, -999, -999]	n/a	FR1	0	R1018P
580.372	1.201	454861	DISTRACT_END	n/a	n/a	n/a	-999	4	[0, 0, 0]	n/a	FR1	0	R1018P
581.573	2.719	455462	REC_START	n/a	n/a	n/a	-999	4	[0, 0, 0]	n/a	FR1	0	R1018P
584.292	0.362	456821	REC_WORD	0.362	n/a	PARK	-999	4	[0, 0, 0]	n/a	FR1	0	R1018P
584.654	0.472	457002	REC_WORD	0.472	n/a	CAR	-999	4	[0, 0, 0]	n/a	FR1	0	R1018P
585.126	3.404	457238	REC_WORD	3.404	n/a	DITCH	-999	4	[0, 0, 0]	n/a	FR1	0	R1018P
588.53	23.053	458940	REC_WORD	23.053	n/a	GLOVE	-999	4	[0, 0, 0]	n/a	FR1	0	R1018P
611.583	7.163	470466	REC_END	n/a	n/a	n/a	-999	4	[0, 0, 0]	n/a	FR1	0	R1018P
618.746	0.0	474047	TRIAL	n/a	n/a	n/a	-999	5	[0, 0, 0]	n/a	FR1	0	R1018P
618.746	10.428	474047	COUNTDOWN_START	n/a	n/a	n/a	-999	5	[0, 0, 0]	n/a	FR1	0	R1018P
629.174	0.007	479261	COUNTDOWN_END	n/a	n/a	n/a	-999	5	[0, 0, 0]	n/a	FR1	0	R1018P
629.181	2.601	479264	ORIENT	n/a	n/a	n/a	-999	5	[0, 0, 0]	n/a	FR1	0	R1018P
631.782	2.4	480565	WORD	n/a	wordpools/wordpool_EN.txt	BAG	1	5	[0, 0, 0]	n/a	FR1	0	R1018P
634.182	2.617	481765	WORD	n/a	wordpools/wordpool_EN.txt	GOAT	2	5	[0, 0, 0]	n/a	FR1	0	R1018P
636.799	2.601	483073	WORD	n/a	wordpools/wordpool_EN.txt	YARD	3	5	[0, 0, 0]	n/a	FR1	0	R1018P
639.4	2.617	484374	WORD	n/a	wordpools/wordpool_EN.txt	SNAIL	4	5	[0, 0, 0]	n/a	FR1	0	R1018P
642.017	2.551	485682	WORD	n/a	wordpools/wordpool_EN.txt	SHOE	5	5	[0, 0, 0]	n/a	FR1	0	R1018P
644.568	2.567	486958	WORD	n/a	wordpools/wordpool_EN.txt	FLEA	6	5	[0, 0, 0]	n/a	FR1	0	R1018P
647.135	2.5	488241	WORD	n/a	wordpools/wordpool_EN.txt	DRUM	7	5	[0, 0, 0]	n/a	FR1	0	R1018P
649.635	2.584	489491	WORD	n/a	wordpools/wordpool_EN.txt	GLASS	8	5	[0, 0, 0]	n/a	FR1	0	R1018P
652.219	2.401	490783	WORD	n/a	wordpools/wordpool_EN.txt	NOSE	9	5	[0, 0, 0]	n/a	FR1	0	R1018P
654.62	2.483	491983	WORD	n/a	wordpools/wordpool_EN.txt	WEB	10	5	[0, 0, 0]	n/a	FR1	0	R1018P
657.103	2.534	493225	WORD	n/a	wordpools/wordpool_EN.txt	WORLD	11	5	[0, 0, 0]	n/a	FR1	0	R1018P
659.637	1.617	494492	WORD	n/a	wordpools/wordpool_EN.txt	PEN	12	5	[0, 0, 0]	n/a	FR1	0	R1018P
661.254	0.001	495300	DISTRACT_START	n/a	n/a	n/a	-999	5	[0, 0, 0]	n/a	FR1	0	R1018P
661.255	0.016	495301	START	n/a	n/a	n/a	-999	5	[-999, -999, -999]	n/a	FR1	0	R1018P
661.271	7.984	495309	PROB	7.984	n/a	n/a	-999	5	[8, 6, 2]	16	FR1	0	R1018P
669.255	9.637	499300	PROB	9.637	n/a	n/a	-999	5	[7, 6, 7]	20	FR1	0	R1018P
678.892	16.587	504119	PROB	16.587	n/a	n/a	-999	5	[7, 4, 8]	15	FR1	0	R1018P
695.479	0.015	512412	STOP	n/a	n/a	n/a	-999	5	[-999, -999, -999]	n/a	FR1	0	R1018P
695.494	1.217	512419	DISTRACT_END	n/a	n/a	n/a	-999	5	[0, 0, 0]	n/a	FR1	0	R1018P
696.711	24.862	513028	REC_START	n/a	n/a	n/a	-999	5	[0, 0, 0]	n/a	FR1	0	R1018P
721.573	4.453	525458	REC_WORD	4.453	n/a	SNAIL	-999	5	[0, 0, 0]	n/a	FR1	0	R1018P
726.026	0.696	527684	REC_WORD_VV	0.696	n/a	<>	-999	5	[0, 0, 0]	n/a	FR1	0	R1018P
726.722	34.584	528032	REC_END	n/a	n/a	n/a	-999	5	[0, 0, 0]	n/a	FR1	0	R1018P
761.306	0.0	545323	COUNTDOWN_START	n/a	n/a	n/a	-999	6	[0, 0, 0]	n/a	FR1	0	R1018P
761.306	10.428	545323	TRIAL	n/a	n/a	n/a	-999	6	[0, 0, 0]	n/a	FR1	0	R1018P
771.734	0.008	550537	COUNTDOWN_END	n/a	n/a	n/a	-999	6	[0, 0, 0]	n/a	FR1	0	R1018P
771.742	2.617	550541	ORIENT	n/a	n/a	n/a	-999	6	[0, 0, 0]	n/a	FR1	0	R1018P
774.359	2.45	551850	WORD	n/a	wordpools/wordpool_EN.txt	DOCK	1	6	[0, 0, 0]	n/a	FR1	0	R1018P
776.809	2.634	553075	WORD	n/a	wordpools/wordpool_EN.txt	FOAM	2	6	[0, 0, 0]	n/a	FR1	0	R1018P
779.443	2.55	554392	WORD	n/a	wordpools/wordpool_EN.txt	DRESS	3	6	[0, 0, 0]	n/a	FR1	0	R1018P
781.993	2.468	555666	WORD	n/a	wordpools/wordpool_EN.txt	HOLE	4	6	[0, 0, 0]	n/a	FR1	0	R1018P
784.461	2.401	556900	WORD	n/a	wordpools/wordpool_EN.txt	SALT	5	6	[0, 0, 0]	n/a	FR1	0	R1018P
786.862	2.449	558101	WORD	n/a	wordpools/wordpool_EN.txt	JAR	6	6	[0, 0, 0]	n/a	FR1	0	R1018P
789.311	2.368	559325	WORD	n/a	wordpools/wordpool_EN.txt	ROSE	7	6	[0, 0, 0]	n/a	FR1	0	R1018P
791.679	2.5	560509	WORD	n/a	wordpools/wordpool_EN.txt	BEAK	8	6	[0, 0, 0]	n/a	FR1	0	R1018P
794.179	2.551	561759	WORD	n/a	wordpools/wordpool_EN.txt	SPOON	9	6	[0, 0, 0]	n/a	FR1	0	R1018P
796.73	2.6	563035	WORD	n/a	wordpools/wordpool_EN.txt	SINK	10	6	[0, 0, 0]	n/a	FR1	0	R1018P
799.33	2.552	564334	WORD	n/a	wordpools/wordpool_EN.txt	BATH	11	6	[0, 0, 0]	n/a	FR1	0	R1018P
801.882	1.616	565610	WORD	n/a	wordpools/wordpool_EN.txt	THREAD	12	6	[0, 0, 0]	n/a	FR1	0	R1018P
803.498	0.001	566418	DISTRACT_START	n/a	n/a	n/a	-999	6	[0, 0, 0]	n/a	FR1	0	R1018P
803.499	0.015	566419	START	n/a	n/a	n/a	-999	6	[-999, -999, -999]	n/a	FR1	0	R1018P
803.514	6.952	566426	PROB	6.952	n/a	n/a	-999	6	[1, 3, 1]	5	FR1	0	R1018P
810.466	15.652	569902	PROB	15.652	n/a	n/a	-999	6	[3, 8, 7]	16	FR1	0	R1018P
826.118	0.017	577728	STOP	n/a	n/a	n/a	-999	6	[-999, -999, -999]	n/a	FR1	0	R1018P
826.135	1.034	577736	DISTRACT_END	n/a	n/a	n/a	-999	6	[0, 0, 0]	n/a	FR1	0	R1018P
827.169	2.431	578253	REC_START	n/a	n/a	n/a	-999	6	[0, 0, 0]	n/a	FR1	0	R1018P
829.6	4.333	579469	REC_WORD	4.333	n/a	SALT	-999	6	[0, 0, 0]	n/a	FR1	0	R1018P
833.933	2.227	581635	REC_WORD	2.227	n/a	SINK	-999	6	[0, 0, 0]	n/a	FR1	0	R1018P
836.16	0.195	582749	REC_WORD_VV	0.195	n/a	<>	-999	6	[0, 0, 0]	n/a	FR1	0	R1018P
836.355	8.236	582846	REC_WORD	8.236	n/a	JAR	-999	6	[0, 0, 0]	n/a	FR1	0	R1018P
844.591	5.111	586964	REC_WORD	5.111	n/a	SALT	-999	6	[0, 0, 0]	n/a	FR1	0	R1018P
849.702	7.481	589519	REC_WORD	7.481	n/a	THREAD	-999	6	[0, 0, 0]	n/a	FR1	0	R1018P
857.183	5.526	593259	REC_END	n/a	n/a	n/a	-999	6	[0, 0, 0]	n/a	FR1	0	R1018P
862.709	0.0	596022	TRIAL	n/a	n/a	n/a	-999	7	[0, 0, 0]	n/a	FR1	0	R1018P
862.709	10.428	596022	COUNTDOWN_START	n/a	n/a	n/a	-999	7	[0, 0, 0]	n/a	FR1	0	R1018P
873.137	0.007	601236	COUNTDOWN_END	n/a	n/a	n/a	-999	7	[0, 0, 0]	n/a	FR1	0	R1018P
873.144	2.517	601240	ORIENT	n/a	n/a	n/a	-999	7	[0, 0, 0]	n/a	FR1	0	R1018P
875.661	2.6	602498	WORD	n/a	wordpools/wordpool_EN.txt	INK	1	7	[0, 0, 0]	n/a	FR1	0	R1018P
878.261	2.418	603798	WORD	n/a	wordpools/wordpool_EN.txt	BREAD	2	7	[0, 0, 0]	n/a	FR1	0	R1018P
880.679	2.45	605007	WORD	n/a	wordpools/wordpool_EN.txt	PEACH	3	7	[0, 0, 0]	n/a	FR1	0	R1018P
883.129	2.601	606232	WORD	n/a	wordpools/wordpool_EN.txt	CART	4	7	[0, 0, 0]	n/a	FR1	0	R1018P
885.73	2.517	607532	WORD	n/a	wordpools/wordpool_EN.txt	SIGN	5	7	[0, 0, 0]	n/a	FR1	0	R1018P
888.247	2.584	608791	WORD	n/a	wordpools/wordpool_EN.txt	LAWN	6	7	[0, 0, 0]	n/a	FR1	0	R1018P
890.831	2.517	610083	WORD	n/a	wordpools/wordpool_EN.txt	WHALE	7	7	[0, 0, 0]	n/a	FR1	0	R1018P
893.348	2.535	611341	WORD	n/a	wordpools/wordpool_EN.txt	STREET	8	7	[0, 0, 0]	n/a	FR1	0	R1018P
895.883	2.449	612608	WORD	n/a	wordpools/wordpool_EN.txt	STOVE	9	7	[0, 0, 0]	n/a	FR1	0	R1018P
898.332	2.617	613833	WORD	n/a	wordpools/wordpool_EN.txt	GOLD	10	7	[0, 0, 0]	n/a	FR1	0	R1018P
900.949	2.501	615141	WORD	n/a	wordpools/wordpool_EN.txt	STONE	11	7	[0, 0, 0]	n/a	FR1	0	R1018P
903.45	1.617	616392	WORD	n/a	wordpools/wordpool_EN.txt	COIN	12	7	[0, 0, 0]	n/a	FR1	0	R1018P
905.067	0.001	617200	DISTRACT_START	n/a	n/a	n/a	-999	7	[0, 0, 0]	n/a	FR1	0	R1018P
905.068	0.015	617201	START	n/a	n/a	n/a	-999	7	[-999, -999, -999]	n/a	FR1	0	R1018P
905.083	8.252	617208	PROB	8.252	n/a	n/a	-999	7	[5, 4, 5]	14	FR1	0	R1018P
913.335	14.263	621334	PROB	14.263	n/a	n/a	-999	7	[3, 4, 7]	14	FR1	0	R1018P
927.598	0.006	628465	STOP	n/a	n/a	n/a	-999	7	[-999, -999, -999]	n/a	FR1	0	R1018P
927.604	1.168	628468	DISTRACT_END	n/a	n/a	n/a	-999	7	[0, 0, 0]	n/a	FR1	0	R1018P
928.772	9.685	629052	REC_START	n/a	n/a	n/a	-999	7	[0, 0, 0]	n/a	FR1	0	R1018P
938.457	0.536	633894	REC_WORD	0.536	n/a	WHALE	-999	7	[0, 0, 0]	n/a	FR1	0	R1018P
938.993	8.752	634162	REC_WORD	8.752	n/a	LAWN	-999	7	[0, 0, 0]	n/a	FR1	0	R1018P
947.745	4.523	638538	REC_WORD_VV	4.523	n/a	<>	-999	7	[0, 0, 0]	n/a	FR1	0	R1018P
952.268	6.514	640799	REC_WORD	6.514	n/a	INK	-999	7	[0, 0, 0]	n/a	FR1	0	R1018P
958.782	4.979	644056	REC_END	n/a	n/a	n/a	-999	7	[0, 0, 0]	n/a	FR1	0	R1018P
963.761	0.0	646546	TRIAL	n/a	n/a	n/a	-999	8	[0, 0, 0]	n/a	FR1	0	R1018P
963.761	10.428	646546	COUNTDOWN_START	n/a	n/a	n/a	-999	8	[0, 0, 0]	n/a	FR1	0	R1018P
974.189	0.007	651759	COUNTDOWN_END	n/a	n/a	n/a	-999	8	[0, 0, 0]	n/a	FR1	0	R1018P
974.196	2.534	651763	ORIENT	n/a	n/a	n/a	-999	8	[0, 0, 0]	n/a	FR1	0	R1018P
976.73	2.601	653030	WORD	n/a	wordpools/wordpool_EN.txt	CORN	1	8	[0, 0, 0]	n/a	FR1	0	R1018P
979.331	2.467	654330	WORD	n/a	wordpools/wordpool_EN.txt	SMILE	2	8	[0, 0, 0]	n/a	FR1	0	R1018P
981.798	2.6	655564	WORD	n/a	wordpools/wordpool_EN.txt	SKY	3	8	[0, 0, 0]	n/a	FR1	0	R1018P
984.398	2.551	656864	WORD	n/a	wordpools/wordpool_EN.txt	VASE	4	8	[0, 0, 0]	n/a	FR1	0	R1018P
986.949	2.55	658139	WORD	n/a	wordpools/wordpool_EN.txt	BOWL	5	8	[0, 0, 0]	n/a	FR1	0	R1018P
989.499	2.567	659414	WORD	n/a	wordpools/wordpool_EN.txt	BAND	6	8	[0, 0, 0]	n/a	FR1	0	R1018P
992.066	2.568	660697	WORD	n/a	wordpools/wordpool_EN.txt	OAR	7	8	[0, 0, 0]	n/a	FR1	0	R1018P
994.634	2.467	661981	WORD	n/a	wordpools/wordpool_EN.txt	CHAIR	8	8	[0, 0, 0]	n/a	FR1	0	R1018P
997.101	2.583	663215	WORD	n/a	wordpools/wordpool_EN.txt	STEAK	9	8	[0, 0, 0]	n/a	FR1	0	R1018P
999.684	2.418	664506	WORD	n/a	wordpools/wordpool_EN.txt	BENCH	10	8	[0, 0, 0]	n/a	FR1	0	R1018P
1002.102	2.417	665715	WORD	n/a	wordpools/wordpool_EN.txt	LAMP	11	8	[0, 0, 0]	n/a	FR1	0	R1018P
1004.519	1.617	666924	WORD	n/a	wordpools/wordpool_EN.txt	HOOK	12	8	[0, 0, 0]	n/a	FR1	0	R1018P
1006.136	0.001	667732	DISTRACT_START	n/a	n/a	n/a	-999	8	[0, 0, 0]	n/a	FR1	0	R1018P
1006.137	0.015	667733	START	n/a	n/a	n/a	-999	8	[-999, -999, -999]	n/a	FR1	0	R1018P
1006.152	20.902	667740	PROB	20.902	n/a	n/a	-999	8	[6, 9, 7]	22	FR1	0	R1018P
1027.054	0.019	678190	STOP	n/a	n/a	n/a	-999	8	[-999, -999, -999]	n/a	FR1	0	R1018P
1027.073	1.185	678200	DISTRACT_END	n/a	n/a	n/a	-999	8	[0, 0, 0]	n/a	FR1	0	R1018P
1028.258	9.938	678792	REC_START	n/a	n/a	n/a	-999	8	[0, 0, 0]	n/a	FR1	0	R1018P
1038.196	18.659	683761	REC_WORD	18.659	n/a	SKY	-999	8	[0, 0, 0]	n/a	FR1	0	R1018P
1056.855	1.413	693090	REC_WORD	1.413	n/a	BREAD	-999	8	[0, 0, 0]	n/a	FR1	0	R1018P
1058.268	17.031	693797	REC_END	n/a	n/a	n/a	-999	8	[0, 0, 0]	n/a	FR1	0	R1018P
1075.299	0.0	702312	TRIAL	n/a	n/a	n/a	-999	9	[0, 0, 0]	n/a	FR1	0	R1018P
1075.299	10.428	702312	COUNTDOWN_START	n/a	n/a	n/a	-999	9	[0, 0, 0]	n/a	FR1	0	R1018P
1085.727	0.007	707525	COUNTDOWN_END	n/a	n/a	n/a	-999	9	[0, 0, 0]	n/a	FR1	0	R1018P
1085.734	2.417	707529	ORIENT	n/a	n/a	n/a	-999	9	[0, 0, 0]	n/a	FR1	0	R1018P
1088.151	2.417	708737	WORD	n/a	wordpools/wordpool_EN.txt	ARM	1	9	[0, 0, 0]	n/a	FR1	0	R1018P
1090.568	2.567	709946	WORD	n/a	wordpools/wordpool_EN.txt	CHEEK	2	9	[0, 0, 0]	n/a	FR1	0	R1018P
1093.135	2.584	711229	WORD	n/a	wordpools/wordpool_EN.txt	TOE	3	9	[0, 0, 0]	n/a	FR1	0	R1018P
1095.719	2.451	712521	WORD	n/a	wordpools/wordpool_EN.txt	PET	4	9	[0, 0, 0]	n/a	FR1	0	R1018P
1098.17	2.534	713747	WORD	n/a	wordpools/wordpool_EN.txt	TENT	5	9	[0, 0, 0]	n/a	FR1	0	R1018P
1100.704	2.467	715014	WORD	n/a	wordpools/wordpool_EN.txt	PURSE	6	9	[0, 0, 0]	n/a	FR1	0	R1018P
1103.171	2.5	716247	WORD	n/a	wordpools/wordpool_EN.txt	CAGE	7	9	[0, 0, 0]	n/a	FR1	0	R1018P
1105.671	2.534	717497	WORD	n/a	wordpools/wordpool_EN.txt	PALM	8	9	[0, 0, 0]	n/a	FR1	0	R1018P
1108.205	2.6	718764	WORD	n/a	wordpools/wordpool_EN.txt	GUARD	9	9	[0, 0, 0]	n/a	FR1	0	R1018P
1110.805	2.468	720064	WORD	n/a	wordpools/wordpool_EN.txt	HORN	10	9	[0, 0, 0]	n/a	FR1	0	R1018P
1113.273	2.433	721298	WORD	n/a	wordpools/wordpool_EN.txt	TOY	11	9	[0, 0, 0]	n/a	FR1	0	R1018P
1115.706	1.617	722514	WORD	n/a	wordpools/wordpool_EN.txt	TAIL	12	9	[0, 0, 0]	n/a	FR1	0	R1018P
1117.323	0.001	723323	DISTRACT_START	n/a	n/a	n/a	-999	9	[0, 0, 0]	n/a	FR1	0	R1018P
1117.324	0.016	723323	START	n/a	n/a	n/a	-999	9	[-999, -999, -999]	n/a	FR1	0	R1018P
1117.34	8.852	723331	PROB	8.852	n/a	n/a	-999	9	[7, 1, 6]	14	FR1	0	R1018P
1126.192	13.414	727757	PROB	13.414	n/a	n/a	-999	9	[9, 2, 6]	17	FR1	0	R1018P
1139.606	0.005	734463	STOP	n/a	n/a	n/a	-999	9	[-999, -999, -999]	n/a	FR1	0	R1018P
1139.611	1.051	734466	DISTRACT_END	n/a	n/a	n/a	-999	9	[0, 0, 0]	n/a	FR1	0	R1018P
1140.662	4.042	734991	REC_START	n/a	n/a	n/a	-999	9	[0, 0, 0]	n/a	FR1	0	R1018P
1144.704	2.354	737012	REC_WORD	2.354	n/a	TOY	-999	9	[0, 0, 0]	n/a	FR1	0	R1018P
1147.058	0.541	738189	REC_WORD	0.541	n/a	POND	-999	9	[0, 0, 0]	n/a	FR1	0	R1018P
1147.599	2.663	738460	REC_WORD	2.663	n/a	GUARD	-999	9	[0, 0, 0]	n/a	FR1	0	R1018P
1150.262	20.41	739791	REC_WORD	20.41	n/a	TAIL	-999	9	[0, 0, 0]	n/a	FR1	0	R1018P
1170.672	4.696	749996	REC_END	n/a	n/a	n/a	-999	9	[0, 0, 0]	n/a	FR1	0	R1018P
1175.368	0.0	752344	COUNTDOWN_START	n/a	n/a	n/a	-999	10	[0, 0, 0]	n/a	FR1	0	R1018P
1175.368	10.428	752344	TRIAL	n/a	n/a	n/a	-999	10	[0, 0, 0]	n/a	FR1	0	R1018P
1185.796	0.007	757557	COUNTDOWN_END	n/a	n/a	n/a	-999	10	[0, 0, 0]	n/a	FR1	0	R1018P
1185.803	2.6	757561	ORIENT	n/a	n/a	n/a	-999	10	[0, 0, 0]	n/a	FR1	0	R1018P
1188.403	2.485	758861	WORD	n/a	wordpools/wordpool_EN.txt	DESK	1	10	[0, 0, 0]	n/a	FR1	0	R1018P
1190.888	2.5	760103	WORD	n/a	wordpools/wordpool_EN.txt	PEARL	2	10	[0, 0, 0]	n/a	FR1	0	R1018P
1193.388	2.534	761353	WORD	n/a	wordpools/wordpool_EN.txt	DOG	3	10	[0, 0, 0]	n/a	FR1	0	R1018P
1195.922	2.6	762620	WORD	n/a	wordpools/wordpool_EN.txt	KEY	4	10	[0, 0, 0]	n/a	FR1	0	R1018P
1198.522	2.467	763920	WORD	n/a	wordpools/wordpool_EN.txt	JUDGE	5	10	[0, 0, 0]	n/a	FR1	0	R1018P
1200.989	2.484	765153	WORD	n/a	wordpools/wordpool_EN.txt	MAZE	6	10	[0, 0, 0]	n/a	FR1	0	R1018P
1203.473	2.6	766395	WORD	n/a	wordpools/wordpool_EN.txt	SHARK	7	10	[0, 0, 0]	n/a	FR1	0	R1018P
1206.073	2.518	767695	WORD	n/a	wordpools/wordpool_EN.txt	RUG	8	10	[0, 0, 0]	n/a	FR1	0	R1018P
1208.591	2.567	768954	WORD	n/a	wordpools/wordpool_EN.txt	BADGE	9	10	[0, 0, 0]	n/a	FR1	0	R1018P
1211.158	2.417	770238	WORD	n/a	wordpools/wordpool_EN.txt	COUCH	10	10	[0, 0, 0]	n/a	FR1	0	R1018P
1213.575	2.384	771446	WORD	n/a	wordpools/wordpool_EN.txt	SUN	11	10	[0, 0, 0]	n/a	FR1	0	R1018P
1215.959	1.617	772638	WORD	n/a	wordpools/wordpool_EN.txt	MAIL	12	10	[0, 0, 0]	n/a	FR1	0	R1018P
1217.576	0.0	773446	DISTRACT_START	n/a	n/a	n/a	-999	10	[0, 0, 0]	n/a	FR1	0	R1018P
1217.576	0.016	773446	START	n/a	n/a	n/a	-999	10	[-999, -999, -999]	n/a	FR1	0	R1018P
1217.592	9.303	773454	PROB	9.303	n/a	n/a	-999	10	[3, 2, 7]	12	FR1	0	R1018P
1226.895	5.583	778106	PROB	5.583	n/a	n/a	-999	10	[8, 9, 1]	18	FR1	0	R1018P
1232.478	9.361	780897	PROB	9.361	n/a	n/a	-999	10	[9, 4, 9]	22	FR1	0	R1018P
1241.839	0.009	785577	STOP	n/a	n/a	n/a	-999	10	[-999, -999, -999]	n/a	FR1	0	R1018P
1241.848	1.216	785582	DISTRACT_END	n/a	n/a	n/a	-999	10	[0, 0, 0]	n/a	FR1	0	R1018P
1243.064	10.443	786190	REC_START	n/a	n/a	n/a	-999	10	[0, 0, 0]	n/a	FR1	0	R1018P
1253.507	19.571	791411	REC_WORD	19.571	n/a	GUARD	-999	10	[0, 0, 0]	n/a	FR1	0	R1018P
1273.078	6.126	801196	REC_END	n/a	n/a	n/a	-999	10	[0, 0, 0]	n/a	FR1	0	R1018P
1279.204	0.0	804259	TRIAL	n/a	n/a	n/a	-999	11	[0, 0, 0]	n/a	FR1	0	R1018P
1279.204	10.428	804259	COUNTDOWN_START	n/a	n/a	n/a	-999	11	[0, 0, 0]	n/a	FR1	0	R1018P
1289.632	0.007	809473	COUNTDOWN_END	n/a	n/a	n/a	-999	11	[0, 0, 0]	n/a	FR1	0	R1018P
1289.639	2.384	809476	ORIENT	n/a	n/a	n/a	-999	11	[0, 0, 0]	n/a	FR1	0	R1018P
1292.023	2.534	810668	WORD	n/a	wordpools/wordpool_EN.txt	FOOD	1	11	[0, 0, 0]	n/a	FR1	0	R1018P
1294.557	2.534	811935	WORD	n/a	wordpools/wordpool_EN.txt	BRICK	2	11	[0, 0, 0]	n/a	FR1	0	R1018P
1297.091	2.5	813202	WORD	n/a	wordpools/wordpool_EN.txt	PRINCE	3	11	[0, 0, 0]	n/a	FR1	0	R1018P
1299.591	2.501	814452	WORD	n/a	wordpools/wordpool_EN.txt	WALL	4	11	[0, 0, 0]	n/a	FR1	0	R1018P
1302.092	2.5	815702	WORD	n/a	wordpools/wordpool_EN.txt	SHIELD	5	11	[0, 0, 0]	n/a	FR1	0	R1018P
1304.592	2.584	816952	WORD	n/a	wordpools/wordpool_EN.txt	PIE	6	11	[0, 0, 0]	n/a	FR1	0	R1018P
1307.176	2.584	818244	WORD	n/a	wordpools/wordpool_EN.txt	FRUIT	7	11	[0, 0, 0]	n/a	FR1	0	R1018P
1309.76	2.583	819536	WORD	n/a	wordpools/wordpool_EN.txt	CLAY	8	11	[0, 0, 0]	n/a	FR1	0	R1018P
1312.343	2.535	820827	WORD	n/a	wordpools/wordpool_EN.txt	SHELL	9	11	[0, 0, 0]	n/a	FR1	0	R1018P
1314.878	2.55	822095	WORD	n/a	wordpools/wordpool_EN.txt	SPEAR	10	11	[0, 0, 0]	n/a	FR1	0	R1018P
1317.428	2.485	823370	WORD	n/a	wordpools/wordpool_EN.txt	CLOTH	11	11	[0, 0, 0]	n/a	FR1	0	R1018P
1319.913	1.615	824612	WORD	n/a	wordpools/wordpool_EN.txt	FROG	12	11	[0, 0, 0]	n/a	FR1	0	R1018P
1321.528	0.001	825420	DISTRACT_START	n/a	n/a	n/a	-999	11	[0, 0, 0]	n/a	FR1	0	R1018P
1321.529	0.016	825420	START	n/a	n/a	n/a	-999	11	[-999, -999, -999]	n/a	FR1	0	R1018P
1321.545	18.437	825428	PROB	18.437	n/a	n/a	-999	11	[7, 6, 8]	21	FR1	0	R1018P
1339.982	8.784	834646	PROB	8.784	n/a	n/a	-999	11	[1, 8, 5]	14	FR1	0	R1018P
1348.766	0.018	839038	STOP	n/a	n/a	n/a	-999	11	[-999, -999, -999]	n/a	FR1	0	R1018P
1348.784	1.217	839047	DISTRACT_END	n/a	n/a	n/a	-999	11	[0, 0, 0]	n/a	FR1	0	R1018P
1350.001	19.864	839655	REC_START	n/a	n/a	n/a	-999	11	[0, 0, 0]	n/a	FR1	0	R1018P
1369.865	1.365	849587	REC_WORD	1.365	n/a	SPARE	-999	11	[0, 0, 0]	n/a	FR1	0	R1018P
1371.23	0.097	850269	REC_WORD_VV	0.097	n/a	<>	-999	11	[0, 0, 0]	n/a	FR1	0	R1018P
1371.327	0.378	850318	REC_WORD	0.378	n/a	SPEAR	-999	11	[0, 0, 0]	n/a	FR1	0	R1018P
1371.705	8.307	850507	REC_WORD_VV	8.307	n/a	<>	-999	11	[0, 0, 0]	n/a	FR1	0	R1018P
1380.012	17.548	854660	REC_END	n/a	n/a	n/a	-999	11	[0, 0, 0]	n/a	FR1	0	R1018P
1397.56	0.0	863434	TRIAL	n/a	n/a	n/a	-999	12	[0, 0, 0]	n/a	FR1	0	R1018P
1397.56	10.428	863434	COUNTDOWN_START	n/a	n/a	n/a	-999	12	[0, 0, 0]	n/a	FR1	0	R1018P
1407.988	0.007	868647	COUNTDOWN_END	n/a	n/a	n/a	-999	12	[0, 0, 0]	n/a	FR1	0	R1018P
1407.995	2.5	868651	ORIENT	n/a	n/a	n/a	-999	12	[0, 0, 0]	n/a	FR1	0	R1018P
1410.495	2.517	869901	WORD	n/a	wordpools/wordpool_EN.txt	STAR	1	12	[0, 0, 0]	n/a	FR1	0	R1018P
1413.012	2.617	871159	WORD	n/a	wordpools/wordpool_EN.txt	SCHOOL	2	12	[0, 0, 0]	n/a	FR1	0	R1018P
1415.629	2.484	872468	WORD	n/a	wordpools/wordpool_EN.txt	FLAG	3	12	[0, 0, 0]	n/a	FR1	0	R1018P
1418.113	2.568	873710	WORD	n/a	wordpools/wordpool_EN.txt	VEST	4	12	[0, 0, 0]	n/a	FR1	0	R1018P
1420.681	2.4	874994	WORD	n/a	wordpools/wordpool_EN.txt	BRIDGE	5	12	[0, 0, 0]	n/a	FR1	0	R1018P
1423.081	2.417	876194	WORD	n/a	wordpools/wordpool_EN.txt	CLIFF	6	12	[0, 0, 0]	n/a	FR1	0	R1018P
1425.498	2.534	877402	WORD	n/a	wordpools/wordpool_EN.txt	FACE	7	12	[0, 0, 0]	n/a	FR1	0	R1018P
1428.032	2.567	878669	WORD	n/a	wordpools/wordpool_EN.txt	FORT	8	12	[0, 0, 0]	n/a	FR1	0	R1018P
1430.599	2.451	879952	WORD	n/a	wordpools/wordpool_EN.txt	LAND	9	12	[0, 0, 0]	n/a	FR1	0	R1018P
1433.05	2.4	881178	WORD	n/a	wordpools/wordpool_EN.txt	CHIEF	10	12	[0, 0, 0]	n/a	FR1	0	R1018P
1435.45	2.384	882378	WORD	n/a	wordpools/wordpool_EN.txt	PEA	11	12	[0, 0, 0]	n/a	FR1	0	R1018P
1437.834	1.617	883570	WORD	n/a	wordpools/wordpool_EN.txt	ROAD	12	12	[0, 0, 0]	n/a	FR1	0	R1018P
1439.451	0.001	884378	DISTRACT_START	n/a	n/a	n/a	-999	12	[0, 0, 0]	n/a	FR1	0	R1018P
1439.452	0.015	884379	START	n/a	n/a	n/a	-999	12	[-999, -999, -999]	n/a	FR1	0	R1018P
1439.467	8.485	884386	PROB	8.485	n/a	n/a	-999	12	[1, 4, 2]	7	FR1	0	R1018P
1447.952	8.185	888628	PROB	8.185	n/a	n/a	-999	12	[2, 1, 7]	10	FR1	0	R1018P
1456.137	24.774	892721	PROB	24.774	n/a	n/a	-999	12	[9, 8, 7]	25	FR1	0	R1018P
1480.911	0.014	905107	STOP	n/a	n/a	n/a	-999	12	[-999, -999, -999]	n/a	FR1	0	R1018P
1480.925	1.034	905114	DISTRACT_END	n/a	n/a	n/a	-999	12	[0, 0, 0]	n/a	FR1	0	R1018P
1481.959	2.717	905631	REC_START	n/a	n/a	n/a	-999	12	[0, 0, 0]	n/a	FR1	0	R1018P
1484.676	0.756	906989	REC_WORD	0.756	n/a	FORT	-999	12	[0, 0, 0]	n/a	FR1	0	R1018P
1485.432	14.643	907367	REC_WORD	14.643	n/a	LAND	-999	12	[0, 0, 0]	n/a	FR1	0	R1018P
1500.075	11.898	914688	REC_WORD	11.898	n/a	CHIEF	-999	12	[0, 0, 0]	n/a	FR1	0	R1018P
1511.973	6.409	920637	REC_END	n/a	n/a	n/a	-999	12	[0, 0, 0]	n/a	FR1	0	R1018P
1518.382	0.0	923841	COUNTDOWN_START	n/a	n/a	n/a	-999	13	[0, 0, 0]	n/a	FR1	0	R1018P
1518.382	10.428	923841	TRIAL	n/a	n/a	n/a	-999	13	[0, 0, 0]	n/a	FR1	0	R1018P
1528.81	0.008	929055	COUNTDOWN_END	n/a	n/a	n/a	-999	13	[0, 0, 0]	n/a	FR1	0	R1018P
1528.818	2.5	929059	ORIENT	n/a	n/a	n/a	-999	13	[0, 0, 0]	n/a	FR1	0	R1018P
1531.318	2.535	930309	WORD	n/a	wordpools/wordpool_EN.txt	BEAR	1	13	[0, 0, 0]	n/a	FR1	0	R1018P
1533.853	2.383	931577	WORD	n/a	wordpools/wordpool_EN.txt	ZOO	2	13	[0, 0, 0]	n/a	FR1	0	R1018P
1536.236	2.383	932768	WORD	n/a	wordpools/wordpool_EN.txt	PIN	3	13	[0, 0, 0]	n/a	FR1	0	R1018P
1538.619	2.584	933959	WORD	n/a	wordpools/wordpool_EN.txt	WORM	4	13	[0, 0, 0]	n/a	FR1	0	R1018P
1541.203	2.501	935251	WORD	n/a	wordpools/wordpool_EN.txt	BED	5	13	[0, 0, 0]	n/a	FR1	0	R1018P
1543.704	2.517	936502	WORD	n/a	wordpools/wordpool_EN.txt	BIRD	6	13	[0, 0, 0]	n/a	FR1	0	R1018P
1546.221	2.584	937760	WORD	n/a	wordpools/wordpool_EN.txt	SLIME	7	13	[0, 0, 0]	n/a	FR1	0	R1018P
1548.805	2.433	939052	WORD	n/a	wordpools/wordpool_EN.txt	BRANCH	8	13	[0, 0, 0]	n/a	FR1	0	R1018P
1551.238	2.484	940269	WORD	n/a	wordpools/wordpool_EN.txt	BALL	9	13	[0, 0, 0]	n/a	FR1	0	R1018P
1553.722	2.451	941511	WORD	n/a	wordpools/wordpool_EN.txt	BAT	10	13	[0, 0, 0]	n/a	FR1	0	R1018P
1556.173	2.55	942736	WORD	n/a	wordpools/wordpool_EN.txt	WOLF	11	13	[0, 0, 0]	n/a	FR1	0	R1018P
1558.723	1.617	944011	WORD	n/a	wordpools/wordpool_EN.txt	FUR	12	13	[0, 0, 0]	n/a	FR1	0	R1018P
1560.34	0.001	944819	DISTRACT_START	n/a	n/a	n/a	-999	13	[0, 0, 0]	n/a	FR1	0	R1018P
1560.341	0.016	944820	START	n/a	n/a	n/a	-999	13	[-999, -999, -999]	n/a	FR1	0	R1018P
1560.357	11.185	944828	PROB	11.185	n/a	n/a	-999	13	[4, 9, 1]	15	FR1	0	R1018P
1571.542	18.056	950420	PROB	18.056	n/a	n/a	-999	13	[6, 9, 6]	21	FR1	0	R1018P
1589.598	0.014	959448	STOP	n/a	n/a	n/a	-999	13	[-999, -999, -999]	n/a	FR1	0	R1018P
1589.612	1.218	959455	DISTRACT_END	n/a	n/a	n/a	-999	13	[0, 0, 0]	n/a	FR1	0	R1018P
1590.83	3.221	960064	REC_START	n/a	n/a	n/a	-999	13	[0, 0, 0]	n/a	FR1	0	R1018P
1594.051	0.434	961674	REC_WORD	0.434	n/a	BALL	-999	13	[0, 0, 0]	n/a	FR1	0	R1018P
1594.485	2.797	961891	REC_WORD	2.797	n/a	BAT	-999	13	[0, 0, 0]	n/a	FR1	0	R1018P
1597.282	6.719	963289	REC_WORD	6.719	n/a	WOLF	-999	13	[0, 0, 0]	n/a	FR1	0	R1018P
1604.001	16.839	966649	REC_WORD	16.839	n/a	ZOO	-999	13	[0, 0, 0]	n/a	FR1	0	R1018P
1620.84	3.812	975068	REC_END	n/a	n/a	n/a	-999	13	[0, 0, 0]	n/a	FR1	0	R1018P
1624.652	0.001	976974	COUNTDOWN_START	n/a	n/a	n/a	-999	14	[0, 0, 0]	n/a	FR1	0	R1018P
1624.653	10.427	976974	TRIAL	n/a	n/a	n/a	-999	14	[0, 0, 0]	n/a	FR1	0	R1018P
1635.08	0.008	982187	COUNTDOWN_END	n/a	n/a	n/a	-999	14	[0, 0, 0]	n/a	FR1	0	R1018P
1635.088	2.467	982191	ORIENT	n/a	n/a	n/a	-999	14	[0, 0, 0]	n/a	FR1	0	R1018P
1637.555	2.583	983425	WORD	n/a	wordpools/wordpool_EN.txt	MOLE	1	14	[0, 0, 0]	n/a	FR1	0	R1018P
1640.138	2.434	984716	WORD	n/a	wordpools/wordpool_EN.txt	DUCK	2	14	[0, 0, 0]	n/a	FR1	0	R1018P
1642.572	2.401	985933	WORD	n/a	wordpools/wordpool_EN.txt	TOOTH	3	14	[0, 0, 0]	n/a	FR1	0	R1018P
1644.973	2.384	987134	WORD	n/a	wordpools/wordpool_EN.txt	SHIRT	4	14	[0, 0, 0]	n/a	FR1	0	R1018P
1647.357	2.417	988326	WORD	n/a	wordpools/wordpool_EN.txt	BOAT	5	14	[0, 0, 0]	n/a	FR1	0	R1018P
1649.774	2.617	989534	WORD	n/a	wordpools/wordpool_EN.txt	BOOT	6	14	[0, 0, 0]	n/a	FR1	0	R1018P
1652.391	2.501	990842	WORD	n/a	wordpools/wordpool_EN.txt	SKUNK	7	14	[0, 0, 0]	n/a	FR1	0	R1018P
1654.892	2.466	992093	WORD	n/a	wordpools/wordpool_EN.txt	TEETH	8	14	[0, 0, 0]	n/a	FR1	0	R1018P
1657.358	2.584	993326	WORD	n/a	wordpools/wordpool_EN.txt	LOCK	9	14	[0, 0, 0]	n/a	FR1	0	R1018P
1659.942	2.568	994618	WORD	n/a	wordpools/wordpool_EN.txt	SNAKE	10	14	[0, 0, 0]	n/a	FR1	0	R1018P
1662.51	2.5	995902	WORD	n/a	wordpools/wordpool_EN.txt	ARK	11	14	[0, 0, 0]	n/a	FR1	0	R1018P
1665.01	1.617	997152	WORD	n/a	wordpools/wordpool_EN.txt	CALF	12	14	[0, 0, 0]	n/a	FR1	0	R1018P
1666.627	0.001	997960	DISTRACT_START	n/a	n/a	n/a	-999	14	[0, 0, 0]	n/a	FR1	0	R1018P
1666.628	0.016	997961	START	n/a	n/a	n/a	-999	14	[-999, -999, -999]	n/a	FR1	0	R1018P
1666.644	15.052	997969	PROB	15.052	n/a	n/a	-999	14	[6, 7, 4]	17	FR1	0	R1018P
1681.696	12.168	1005494	PROB	12.168	n/a	n/a	-999	14	[7, 4, 6]	17	FR1	0	R1018P
1693.864	0.019	1011578	STOP	n/a	n/a	n/a	-999	14	[-999, -999, -999]	n/a	FR1	0	R1018P
1693.883	1.167	1011587	DISTRACT_END	n/a	n/a	n/a	-999	14	[0, 0, 0]	n/a	FR1	0	R1018P
1695.05	4.377	1012171	REC_START	n/a	n/a	n/a	-999	14	[0, 0, 0]	n/a	FR1	0	R1018P
1699.427	1.347	1014359	REC_WORD	1.347	n/a	TOOTH	-999	14	[0, 0, 0]	n/a	FR1	0	R1018P
1700.774	1.262	1015033	REC_WORD	1.262	n/a	TEETH	-999	14	[0, 0, 0]	n/a	FR1	0	R1018P
1702.036	1.789	1015664	REC_WORD	1.789	n/a	SNAKE	-999	14	[0, 0, 0]	n/a	FR1	0	R1018P
1703.825	2.795	1016558	REC_WORD	2.795	n/a	BOOT	-999	14	[0, 0, 0]	n/a	FR1	0	R1018P
1706.62	18.44	1017956	REC_WORD	18.44	n/a	ARK	-999	14	[0, 0, 0]	n/a	FR1	0	R1018P
1725.06	15.447	1027175	REC_END	n/a	n/a	n/a	-999	14	[0, 0, 0]	n/a	FR1	0	R1018P
1740.507	0.001	1034898	COUNTDOWN_START	n/a	n/a	n/a	-999	15	[0, 0, 0]	n/a	FR1	0	R1018P
1740.508	10.427	1034899	TRIAL	n/a	n/a	n/a	-999	15	[0, 0, 0]	n/a	FR1	0	R1018P
1750.935	0.008	1040112	COUNTDOWN_END	n/a	n/a	n/a	-999	15	[0, 0, 0]	n/a	FR1	0	R1018P
1750.943	2.4	1040116	ORIENT	n/a	n/a	n/a	-999	15	[0, 0, 0]	n/a	FR1	0	R1018P
1753.343	2.417	1041316	WORD	n/a	wordpools/wordpool_EN.txt	CAPE	1	15	[0, 0, 0]	n/a	FR1	0	R1018P
1755.76	2.484	1042524	WORD	n/a	wordpools/wordpool_EN.txt	FLOOR	2	15	[0, 0, 0]	n/a	FR1	0	R1018P
1758.244	2.434	1043766	WORD	n/a	wordpools/wordpool_EN.txt	ROCK	3	15	[0, 0, 0]	n/a	FR1	0	R1018P
1760.678	2.584	1044983	WORD	n/a	wordpools/wordpool_EN.txt	EEL	4	15	[0, 0, 0]	n/a	FR1	0	R1018P
1763.262	2.417	1046275	WORD	n/a	wordpools/wordpool_EN.txt	NEST	5	15	[0, 0, 0]	n/a	FR1	0	R1018P
1765.679	2.55	1047483	WORD	n/a	wordpools/wordpool_EN.txt	MOTH	6	15	[0, 0, 0]	n/a	FR1	0	R1018P
1768.229	2.484	1048758	WORD	n/a	wordpools/wordpool_EN.txt	WING	7	15	[0, 0, 0]	n/a	FR1	0	R1018P
1770.713	2.451	1050000	WORD	n/a	wordpools/wordpool_EN.txt	ROOM	8	15	[0, 0, 0]	n/a	FR1	0	R1018P
1773.164	2.567	1051226	WORD	n/a	wordpools/wordpool_EN.txt	BEACH	9	15	[0, 0, 0]	n/a	FR1	0	R1018P
1775.731	2.384	1052509	WORD	n/a	wordpools/wordpool_EN.txt	WHEEL	10	15	[0, 0, 0]	n/a	FR1	0	R1018P
1778.115	2.4	1053701	WORD	n/a	wordpools/wordpool_EN.txt	RAIN	11	15	[0, 0, 0]	n/a	FR1	0	R1018P
1780.515	1.617	1054901	WORD	n/a	wordpools/wordpool_EN.txt	GRASS	12	15	[0, 0, 0]	n/a	FR1	0	R1018P
1782.132	0.001	1055710	DISTRACT_START	n/a	n/a	n/a	-999	15	[0, 0, 0]	n/a	FR1	0	R1018P
1782.133	0.016	1055710	START	n/a	n/a	n/a	-999	15	[-999, -999, -999]	n/a	FR1	0	R1018P
1782.149	7.284	1055718	PROB	7.284	n/a	n/a	-999	15	[5, 2, 5]	12	FR1	0	R1018P
1789.433	9.47	1059360	PROB	9.47	n/a	n/a	-999	15	[8, 4, 2]	14	FR1	0	R1018P
1798.903	8.575	1064095	PROB	8.575	n/a	n/a	-999	15	[2, 6, 1]	9	FR1	0	R1018P
1807.478	0.009	1068382	STOP	n/a	n/a	n/a	-999	15	[-999, -999, -999]	n/a	FR1	0	R1018P
1807.487	1.184	1068386	DISTRACT_END	n/a	n/a	n/a	-999	15	[0, 0, 0]	n/a	FR1	0	R1018P
1808.671	30.0	1068978	REC_START	n/a	n/a	n/a	-999	15	[0, 0, 0]	n/a	FR1	0	R1018P
1838.671	0.01	1083978	REC_WORD_VV	0.01	n/a	<>	-999	15	[0, 0, 0]	n/a	FR1	0	R1018P
1838.681	47.287	1083983	REC_END	n/a	n/a	n/a	-999	15	[0, 0, 0]	n/a	FR1	0	R1018P
1885.968	0.0	1107625	TRIAL	n/a	n/a	n/a	-999	16	[0, 0, 0]	n/a	FR1	0	R1018P
1885.968	10.428	1107625	COUNTDOWN_START	n/a	n/a	n/a	-999	16	[0, 0, 0]	n/a	FR1	0	R1018P
1896.396	0.008	1112839	COUNTDOWN_END	n/a	n/a	n/a	-999	16	[0, 0, 0]	n/a	FR1	0	R1018P
1896.404	2.6	1112843	ORIENT	n/a	n/a	n/a	-999	16	[0, 0, 0]	n/a	FR1	0	R1018P
1899.004	2.401	1114142	WORD	n/a	wordpools/wordpool_EN.txt	AXE	1	16	[0, 0, 0]	n/a	FR1	0	R1018P
1901.405	2.383	1115343	WORD	n/a	wordpools/wordpool_EN.txt	ICE	2	16	[0, 0, 0]	n/a	FR1	0	R1018P
1903.788	2.601	1116534	WORD	n/a	wordpools/wordpool_EN.txt	PLATE	3	16	[0, 0, 0]	n/a	FR1	0	R1018P
1906.389	2.6	1117835	WORD	n/a	wordpools/wordpool_EN.txt	SHEET	4	16	[0, 0, 0]	n/a	FR1	0	R1018P
1908.989	2.501	1119135	WORD	n/a	wordpools/wordpool_EN.txt	JAIL	5	16	[0, 0, 0]	n/a	FR1	0	R1018P
1911.49	2.583	1120385	WORD	n/a	wordpools/wordpool_EN.txt	FILM	6	16	[0, 0, 0]	n/a	FR1	0	R1018P
1914.073	2.384	1121677	WORD	n/a	wordpools/wordpool_EN.txt	MOOSE	7	16	[0, 0, 0]	n/a	FR1	0	R1018P
1916.457	2.534	1122868	WORD	n/a	wordpools/wordpool_EN.txt	ROOT	8	16	[0, 0, 0]	n/a	FR1	0	R1018P
1918.991	2.534	1124135	WORD	n/a	wordpools/wordpool_EN.txt	CROWN	9	16	[0, 0, 0]	n/a	FR1	0	R1018P
1921.525	2.4	1125402	WORD	n/a	wordpools/wordpool_EN.txt	NAIL	10	16	[0, 0, 0]	n/a	FR1	0	R1018P
1923.925	2.384	1126602	WORD	n/a	wordpools/wordpool_EN.txt	TOOL	11	16	[0, 0, 0]	n/a	FR1	0	R1018P
1926.309	1.601	1127794	WORD	n/a	wordpools/wordpool_EN.txt	SEED	12	16	[0, 0, 0]	n/a	FR1	0	R1018P
1927.91	0.001	1128595	DISTRACT_START	n/a	n/a	n/a	-999	16	[0, 0, 0]	n/a	FR1	0	R1018P
1927.911	0.015	1128595	START	n/a	n/a	n/a	-999	16	[-999, -999, -999]	n/a	FR1	0	R1018P
1927.926	13.519	1128603	PROB	13.519	n/a	n/a	-999	16	[7, 9, 6]	22	FR1	0	R1018P
1941.445	7.305	1135362	PROB	7.305	n/a	n/a	-999	16	[2, 2, 5]	9	FR1	0	R1018P
1948.75	0.013	1139014	STOP	n/a	n/a	n/a	-999	16	[-999, -999, -999]	n/a	FR1	0	R1018P
1948.763	1.218	1139021	DISTRACT_END	n/a	n/a	n/a	-999	16	[0, 0, 0]	n/a	FR1	0	R1018P
1949.981	2.085	1139630	REC_START	n/a	n/a	n/a	-999	16	[0, 0, 0]	n/a	FR1	0	R1018P
1952.066	2.851	1140672	REC_WORD	2.851	n/a	JAIL	-999	16	[0, 0, 0]	n/a	FR1	0	R1018P
1954.917	7.179	1142097	REC_WORD	7.179	n/a	MOOSE	-999	16	[0, 0, 0]	n/a	FR1	0	R1018P
1962.096	17.896	1145687	REC_WORD	17.896	n/a	SHEET	-999	16	[0, 0, 0]	n/a	FR1	0	R1018P
1979.992	6.528	1154634	REC_END	n/a	n/a	n/a	-999	16	[0, 0, 0]	n/a	FR1	0	R1018P
1986.52	0.001	1157898	COUNTDOWN_START	n/a	n/a	n/a	-999	17	[0, 0, 0]	n/a	FR1	0	R1018P
1986.521	10.427	1157899	TRIAL	n/a	n/a	n/a	-999	17	[0, 0, 0]	n/a	FR1	0	R1018P
1996.948	0.008	1163112	COUNTDOWN_END	n/a	n/a	n/a	-999	17	[0, 0, 0]	n/a	FR1	0	R1018P
1996.956	2.567	1163116	ORIENT	n/a	n/a	n/a	-999	17	[0, 0, 0]	n/a	FR1	0	R1018P
1999.523	2.484	1164399	WORD	n/a	wordpools/wordpool_EN.txt	BUSH	1	17	[0, 0, 0]	n/a	FR1	0	R1018P
2002.007	2.534	1165641	WORD	n/a	wordpools/wordpool_EN.txt	HAND	2	17	[0, 0, 0]	n/a	FR1	0	R1018P
2004.541	2.583	1166908	WORD	n/a	wordpools/wordpool_EN.txt	CHALK	3	17	[0, 0, 0]	n/a	FR1	0	R1018P
2007.124	2.418	1168200	WORD	n/a	wordpools/wordpool_EN.txt	FENCE	4	17	[0, 0, 0]	n/a	FR1	0	R1018P
2009.542	2.533	1169409	WORD	n/a	wordpools/wordpool_EN.txt	DEER	5	17	[0, 0, 0]	n/a	FR1	0	R1018P
2012.075	2.467	1170675	WORD	n/a	wordpools/wordpool_EN.txt	SKI	6	17	[0, 0, 0]	n/a	FR1	0	R1018P
2014.542	2.418	1171908	WORD	n/a	wordpools/wordpool_EN.txt	MULE	7	17	[0, 0, 0]	n/a	FR1	0	R1018P
2016.96	2.5	1173117	WORD	n/a	wordpools/wordpool_EN.txt	STORM	8	17	[0, 0, 0]	n/a	FR1	0	R1018P
2019.46	2.418	1174367	WORD	n/a	wordpools/wordpool_EN.txt	HILL	9	17	[0, 0, 0]	n/a	FR1	0	R1018P
2021.878	2.566	1175576	WORD	n/a	wordpools/wordpool_EN.txt	BRUSH	10	17	[0, 0, 0]	n/a	FR1	0	R1018P
2024.444	2.484	1176859	WORD	n/a	wordpools/wordpool_EN.txt	WAND	11	17	[0, 0, 0]	n/a	FR1	0	R1018P
2026.928	1.617	1178101	WORD	n/a	wordpools/wordpool_EN.txt	FOOT	12	17	[0, 0, 0]	n/a	FR1	0	R1018P
2028.545	0.001	1178910	DISTRACT_START	n/a	n/a	n/a	-999	17	[0, 0, 0]	n/a	FR1	0	R1018P
2028.546	0.016	1178910	START	n/a	n/a	n/a	-999	17	[-999, -999, -999]	n/a	FR1	0	R1018P
2028.562	20.412	1178918	PROB	20.412	n/a	n/a	-999	17	[7, 6, 5]	18	FR1	0	R1018P
2048.974	0.008	1189123	STOP	n/a	n/a	n/a	-999	17	[-999, -999, -999]	n/a	FR1	0	R1018P
2048.982	1.051	1189127	DISTRACT_END	n/a	n/a	n/a	-999	17	[0, 0, 0]	n/a	FR1	0	R1018P
2050.033	5.967	1189653	REC_START	n/a	n/a	n/a	-999	17	[0, 0, 0]	n/a	FR1	0	R1018P
2056.0	4.127	1192636	REC_WORD	4.127	n/a	SKY	-999	17	[0, 0, 0]	n/a	FR1	0	R1018P
2060.127	8.784	1194700	REC_WORD	8.784	n/a	WAVE	-999	17	[0, 0, 0]	n/a	FR1	0	R1018P
2068.911	9.032	1199091	REC_WORD	9.032	n/a	RAIN	-999	17	[0, 0, 0]	n/a	FR1	0	R1018P
2077.943	2.105	1203607	REC_WORD	2.105	n/a	MOOSE	-999	17	[0, 0, 0]	n/a	FR1	0	R1018P
2080.048	5.058	1204660	REC_END	n/a	n/a	n/a	-999	17	[0, 0, 0]	n/a	FR1	0	R1018P
2085.106	0.0	1207189	TRIAL	n/a	n/a	n/a	-999	18	[0, 0, 0]	n/a	FR1	0	R1018P
2085.106	10.428	1207189	COUNTDOWN_START	n/a	n/a	n/a	-999	18	[0, 0, 0]	n/a	FR1	0	R1018P
2095.534	0.007	1212402	COUNTDOWN_END	n/a	n/a	n/a	-999	18	[0, 0, 0]	n/a	FR1	0	R1018P
2095.541	2.584	1212406	ORIENT	n/a	n/a	n/a	-999	18	[0, 0, 0]	n/a	FR1	0	R1018P
2098.125	2.484	1213698	WORD	n/a	wordpools/wordpool_EN.txt	SNOW	1	18	[0, 0, 0]	n/a	FR1	0	R1018P
2100.609	2.55	1214940	WORD	n/a	wordpools/wordpool_EN.txt	BLOOM	2	18	[0, 0, 0]	n/a	FR1	0	R1018P
2103.159	2.417	1216215	WORD	n/a	wordpools/wordpool_EN.txt	FLAME	3	18	[0, 0, 0]	n/a	FR1	0	R1018P
2105.576	2.534	1217423	WORD	n/a	wordpools/wordpool_EN.txt	FOG	4	18	[0, 0, 0]	n/a	FR1	0	R1018P
2108.11	2.45	1218690	WORD	n/a	wordpools/wordpool_EN.txt	CLOUD	5	18	[0, 0, 0]	n/a	FR1	0	R1018P
2110.56	2.601	1219915	WORD	n/a	wordpools/wordpool_EN.txt	PIT	6	18	[0, 0, 0]	n/a	FR1	0	R1018P
2113.161	2.584	1221215	WORD	n/a	wordpools/wordpool_EN.txt	POND	7	18	[0, 0, 0]	n/a	FR1	0	R1018P
2115.745	2.417	1222507	WORD	n/a	wordpools/wordpool_EN.txt	CROW	8	18	[0, 0, 0]	n/a	FR1	0	R1018P
2118.162	2.601	1223716	WORD	n/a	wordpools/wordpool_EN.txt	LAKE	9	18	[0, 0, 0]	n/a	FR1	0	R1018P
2120.763	2.567	1225016	WORD	n/a	wordpools/wordpool_EN.txt	MAT	10	18	[0, 0, 0]	n/a	FR1	0	R1018P
2123.33	2.467	1226300	WORD	n/a	wordpools/wordpool_EN.txt	CUBE	11	18	[0, 0, 0]	n/a	FR1	0	R1018P
2125.797	1.617	1227533	WORD	n/a	wordpools/wordpool_EN.txt	JEEP	12	18	[0, 0, 0]	n/a	FR1	0	R1018P
2127.414	0.001	1228341	DISTRACT_START	n/a	n/a	n/a	-999	18	[0, 0, 0]	n/a	FR1	0	R1018P
2127.415	0.016	1228342	START	n/a	n/a	n/a	-999	18	[-999, -999, -999]	n/a	FR1	0	R1018P
2127.431	9.518	1228350	PROB	9.518	n/a	n/a	-999	18	[9, 6, 2]	17	FR1	0	R1018P
2136.949	8.985	1233109	PROB	8.985	n/a	n/a	-999	18	[9, 2, 7]	17	FR1	0	R1018P
2145.934	8.904	1237601	PROB	8.904	n/a	n/a	-999	18	[1, 3, 7]	11	FR1	0	R1018P
2154.838	0.015	1242053	STOP	n/a	n/a	n/a	-999	18	[-999, -999, -999]	n/a	FR1	0	R1018P
2154.853	1.201	1242060	DISTRACT_END	n/a	n/a	n/a	-999	18	[0, 0, 0]	n/a	FR1	0	R1018P
2156.054	8.792	1242661	REC_START	n/a	n/a	n/a	-999	18	[0, 0, 0]	n/a	FR1	0	R1018P
2164.846	9.703	1247056	REC_WORD	9.703	n/a	JEEP	-999	18	[0, 0, 0]	n/a	FR1	0	R1018P
2174.549	7.491	1251908	REC_WORD	7.491	n/a	SKY	-999	18	[0, 0, 0]	n/a	FR1	0	R1018P
2182.04	4.023	1255653	REC_WORD	4.023	n/a	LAKE	-999	18	[0, 0, 0]	n/a	FR1	0	R1018P
2186.063	5.163	1257664	REC_END	n/a	n/a	n/a	-999	18	[0, 0, 0]	n/a	FR1	0	R1018P
2191.226	0.0	1260246	TRIAL	n/a	n/a	n/a	-999	19	[0, 0, 0]	n/a	FR1	0	R1018P
2191.226	10.428	1260246	COUNTDOWN_START	n/a	n/a	n/a	-999	19	[0, 0, 0]	n/a	FR1	0	R1018P
2201.654	0.007	1265459	COUNTDOWN_END	n/a	n/a	n/a	-999	19	[0, 0, 0]	n/a	FR1	0	R1018P
2201.661	2.517	1265463	ORIENT	n/a	n/a	n/a	-999	19	[0, 0, 0]	n/a	FR1	0	R1018P
2204.178	2.634	1266721	WORD	n/a	wordpools/wordpool_EN.txt	GRAPE	1	19	[0, 0, 0]	n/a	FR1	0	R1018P
2206.812	2.617	1268038	WORD	n/a	wordpools/wordpool_EN.txt	SOAP	2	19	[0, 0, 0]	n/a	FR1	0	R1018P
2209.429	2.418	1269347	WORD	n/a	wordpools/wordpool_EN.txt	FISH	3	19	[0, 0, 0]	n/a	FR1	0	R1018P
2211.847	2.533	1270556	WORD	n/a	wordpools/wordpool_EN.txt	SHRIMP	4	19	[0, 0, 0]	n/a	FR1	0	R1018P
2214.38	2.451	1271822	WORD	n/a	wordpools/wordpool_EN.txt	BEAN	5	19	[0, 0, 0]	n/a	FR1	0	R1018P
2216.831	2.45	1273048	WORD	n/a	wordpools/wordpool_EN.txt	SPRING	6	19	[0, 0, 0]	n/a	FR1	0	R1018P
2219.281	2.4	1274272	WORD	n/a	wordpools/wordpool_EN.txt	LIP	7	19	[0, 0, 0]	n/a	FR1	0	R1018P
2221.681	2.384	1275472	WORD	n/a	wordpools/wordpool_EN.txt	RIB	8	19	[0, 0, 0]	n/a	FR1	0	R1018P
2224.065	2.451	1276664	WORD	n/a	wordpools/wordpool_EN.txt	RICE	9	19	[0, 0, 0]	n/a	FR1	0	R1018P
2226.516	2.617	1277890	WORD	n/a	wordpools/wordpool_EN.txt	DIME	10	19	[0, 0, 0]	n/a	FR1	0	R1018P
2229.133	2.634	1279198	WORD	n/a	wordpools/wordpool_EN.txt	STEM	11	19	[0, 0, 0]	n/a	FR1	0	R1018P
2231.767	1.617	1280515	WORD	n/a	wordpools/wordpool_EN.txt	LEAF	12	19	[0, 0, 0]	n/a	FR1	0	R1018P
2233.384	0.001	1281324	DISTRACT_START	n/a	n/a	n/a	-999	19	[0, 0, 0]	n/a	FR1	0	R1018P
2233.385	0.015	1281324	START	n/a	n/a	n/a	-999	19	[-999, -999, -999]	n/a	FR1	0	R1018P
2233.4	12.136	1281332	PROB	12.136	n/a	n/a	-999	19	[3, 3, 7]	13	FR1	0	R1018P
2245.536	8.654	1287399	PROB	8.654	n/a	n/a	-999	19	[4, 8, 2]	14	FR1	0	R1018P
2254.19	0.014	1291726	STOP	n/a	n/a	n/a	-999	19	[-999, -999, -999]	n/a	FR1	0	R1018P
2254.204	1.118	1291733	DISTRACT_END	n/a	n/a	n/a	-999	19	[0, 0, 0]	n/a	FR1	0	R1018P
2255.322	5.13	1292292	REC_START	n/a	n/a	n/a	-999	19	[0, 0, 0]	n/a	FR1	0	R1018P
2260.452	2.291	1294857	REC_WORD	2.291	n/a	RICE	-999	19	[0, 0, 0]	n/a	FR1	0	R1018P
2262.743	3.216	1296002	REC_WORD	3.216	n/a	STEAK	-999	19	[0, 0, 0]	n/a	FR1	0	R1018P
2265.959	5.185	1297610	REC_WORD	5.185	n/a	LEAF	-999	19	[0, 0, 0]	n/a	FR1	0	R1018P
2271.144	14.188	1300203	REC_WORD	14.188	n/a	STEM	-999	19	[0, 0, 0]	n/a	FR1	0	R1018P
2285.332	3.062	1307296	REC_END	n/a	n/a	n/a	-999	19	[0, 0, 0]	n/a	FR1	0	R1018P
2288.394	0.0	1308827	TRIAL	n/a	n/a	n/a	-999	20	[0, 0, 0]	n/a	FR1	0	R1018P
2288.394	10.428	1308827	COUNTDOWN_START	n/a	n/a	n/a	-999	20	[0, 0, 0]	n/a	FR1	0	R1018P
2298.822	0.007	1314041	COUNTDOWN_END	n/a	n/a	n/a	-999	20	[0, 0, 0]	n/a	FR1	0	R1018P
2298.829	2.468	1314044	ORIENT	n/a	n/a	n/a	-999	20	[0, 0, 0]	n/a	FR1	0	R1018P
2301.297	2.517	1315278	WORD	n/a	wordpools/wordpool_EN.txt	SUIT	1	20	[0, 0, 0]	n/a	FR1	0	R1018P
2303.814	2.417	1316537	WORD	n/a	wordpools/wordpool_EN.txt	EAR	2	20	[0, 0, 0]	n/a	FR1	0	R1018P
2306.231	2.534	1317745	WORD	n/a	wordpools/wordpool_EN.txt	SWORD	3	20	[0, 0, 0]	n/a	FR1	0	R1018P
2308.765	2.483	1319012	WORD	n/a	wordpools/wordpool_EN.txt	CLOCK	4	20	[0, 0, 0]	n/a	FR1	0	R1018P
2311.248	2.534	1320254	WORD	n/a	wordpools/wordpool_EN.txt	PHONE	5	20	[0, 0, 0]	n/a	FR1	0	R1018P
2313.782	2.601	1321520	WORD	n/a	wordpools/wordpool_EN.txt	GATE	6	20	[0, 0, 0]	n/a	FR1	0	R1018P
2316.383	2.567	1322821	WORD	n/a	wordpools/wordpool_EN.txt	BOOK	7	20	[0, 0, 0]	n/a	FR1	0	R1018P
2318.95	2.5	1324104	WORD	n/a	wordpools/wordpool_EN.txt	MOUTH	8	20	[0, 0, 0]	n/a	FR1	0	R1018P
2321.45	2.468	1325354	WORD	n/a	wordpools/wordpool_EN.txt	BOY	9	20	[0, 0, 0]	n/a	FR1	0	R1018P
2323.918	2.583	1326588	WORD	n/a	wordpools/wordpool_EN.txt	HOUSE	10	20	[0, 0, 0]	n/a	FR1	0	R1018P
2326.501	2.467	1327880	WORD	n/a	wordpools/wordpool_EN.txt	BLUSH	11	20	[0, 0, 0]	n/a	FR1	0	R1018P
2328.968	1.617	1329113	WORD	n/a	wordpools/wordpool_EN.txt	VAN	12	20	[0, 0, 0]	n/a	FR1	0	R1018P
2330.585	0.001	1329922	DISTRACT_START	n/a	n/a	n/a	-999	20	[0, 0, 0]	n/a	FR1	0	R1018P
2330.586	0.016	1329922	START	n/a	n/a	n/a	-999	20	[-999, -999, -999]	n/a	FR1	0	R1018P
2330.602	6.935	1329930	PROB	6.935	n/a	n/a	-999	20	[6, 2, 8]	16	FR1	0	R1018P
2337.537	7.818	1333397	PROB	7.818	n/a	n/a	-999	20	[1, 5, 2]	8	FR1	0	R1018P
2345.355	11.715	1337306	PROB	11.715	n/a	n/a	-999	20	[6, 5, 2]	13	FR1	0	R1018P
2357.07	0.004	1343163	STOP	n/a	n/a	n/a	-999	20	[-999, -999, -999]	n/a	FR1	0	R1018P
2357.074	1.101	1343165	DISTRACT_END	n/a	n/a	n/a	-999	20	[0, 0, 0]	n/a	FR1	0	R1018P
2358.175	9.036	1343716	REC_START	n/a	n/a	n/a	-999	20	[0, 0, 0]	n/a	FR1	0	R1018P
2367.211	20.974	1348234	REC_WORD	20.974	n/a	HOUSE	-999	20	[0, 0, 0]	n/a	FR1	0	R1018P
2388.185	3.945	1358720	REC_END	n/a	n/a	n/a	-999	20	[0, 0, 0]	n/a	FR1	0	R1018P
2392.13	0.0	1360692	TRIAL	n/a	n/a	n/a	-999	21	[0, 0, 0]	n/a	FR1	0	R1018P
2392.13	10.428	1360692	COUNTDOWN_START	n/a	n/a	n/a	-999	21	[0, 0, 0]	n/a	FR1	0	R1018P
2402.558	0.008	1365906	COUNTDOWN_END	n/a	n/a	n/a	-999	21	[0, 0, 0]	n/a	FR1	0	R1018P
2402.566	2.533	1365910	ORIENT	n/a	n/a	n/a	-999	21	[0, 0, 0]	n/a	FR1	0	R1018P
2405.099	2.467	1367177	WORD	n/a	wordpools/wordpool_EN.txt	BEE	1	21	[0, 0, 0]	n/a	FR1	0	R1018P
2407.566	2.401	1368410	WORD	n/a	wordpools/wordpool_EN.txt	STORE	2	21	[0, 0, 0]	n/a	FR1	0	R1018P
2409.967	2.584	1369610	WORD	n/a	wordpools/wordpool_EN.txt	TRASH	3	21	[0, 0, 0]	n/a	FR1	0	R1018P
2412.551	2.617	1370902	WORD	n/a	wordpools/wordpool_EN.txt	APE	4	21	[0, 0, 0]	n/a	FR1	0	R1018P
2415.168	2.467	1372211	WORD	n/a	wordpools/wordpool_EN.txt	SMOKE	5	21	[0, 0, 0]	n/a	FR1	0	R1018P
2417.635	2.467	1373444	WORD	n/a	wordpools/wordpool_EN.txt	MOUSE	6	21	[0, 0, 0]	n/a	FR1	0	R1018P
2420.102	2.534	1374678	WORD	n/a	wordpools/wordpool_EN.txt	BANK	7	21	[0, 0, 0]	n/a	FR1	0	R1018P
2422.636	2.501	1375945	WORD	n/a	wordpools/wordpool_EN.txt	NET	8	21	[0, 0, 0]	n/a	FR1	0	R1018P
2425.137	2.417	1377195	WORD	n/a	wordpools/wordpool_EN.txt	MILK	9	21	[0, 0, 0]	n/a	FR1	0	R1018P
2427.554	2.5	1378403	WORD	n/a	wordpools/wordpool_EN.txt	CAT	10	21	[0, 0, 0]	n/a	FR1	0	R1018P
2430.054	2.467	1379653	WORD	n/a	wordpools/wordpool_EN.txt	CASH	11	21	[0, 0, 0]	n/a	FR1	0	R1018P
2432.521	1.617	1380887	WORD	n/a	wordpools/wordpool_EN.txt	HEART	12	21	[0, 0, 0]	n/a	FR1	0	R1018P
2434.138	0.001	1381695	DISTRACT_START	n/a	n/a	n/a	-999	21	[0, 0, 0]	n/a	FR1	0	R1018P
2434.139	0.016	1381696	START	n/a	n/a	n/a	-999	21	[-999, -999, -999]	n/a	FR1	0	R1018P
2434.155	8.368	1381704	PROB	8.368	n/a	n/a	-999	21	[2, 5, 2]	9	FR1	0	R1018P
2442.523	7.918	1385888	PROB	7.918	n/a	n/a	-999	21	[6, 3, 2]	11	FR1	0	R1018P
2450.441	8.645	1389846	PROB	8.645	n/a	n/a	-999	21	[5, 3, 1]	9	FR1	0	R1018P
2459.086	0.007	1394169	STOP	n/a	n/a	n/a	-999	21	[-999, -999, -999]	n/a	FR1	0	R1018P
2459.093	1.184	1394172	DISTRACT_END	n/a	n/a	n/a	-999	21	[0, 0, 0]	n/a	FR1	0	R1018P
2460.277	4.593	1394764	REC_START	n/a	n/a	n/a	-999	21	[0, 0, 0]	n/a	FR1	0	R1018P
2464.87	14.283	1397060	REC_WORD	14.283	n/a	MOUSE	-999	21	[0, 0, 0]	n/a	FR1	0	R1018P
2479.153	3.528	1404202	REC_WORD	3.528	n/a	JUICE	-999	21	[0, 0, 0]	n/a	FR1	0	R1018P
2482.681	7.607	1405966	REC_WORD	7.607	n/a	MILK	-999	21	[0, 0, 0]	n/a	FR1	0	R1018P
2490.288	2.895	1409769	REC_END	n/a	n/a	n/a	-999	21	[0, 0, 0]	n/a	FR1	0	R1018P
2493.183	0.0	1411216	TRIAL	n/a	n/a	n/a	-999	22	[0, 0, 0]	n/a	FR1	0	R1018P
2493.183	10.428	1411216	COUNTDOWN_START	n/a	n/a	n/a	-999	22	[0, 0, 0]	n/a	FR1	0	R1018P
2503.611	0.007	1416430	COUNTDOWN_END	n/a	n/a	n/a	-999	22	[0, 0, 0]	n/a	FR1	0	R1018P
2503.618	2.534	1416433	ORIENT	n/a	n/a	n/a	-999	22	[0, 0, 0]	n/a	FR1	0	R1018P
2506.152	2.567	1417700	WORD	n/a	wordpools/wordpool_EN.txt	STOOL	1	22	[0, 0, 0]	n/a	FR1	0	R1018P
2508.719	2.551	1418984	WORD	n/a	wordpools/wordpool_EN.txt	TEA	2	22	[0, 0, 0]	n/a	FR1	0	R1018P
2511.27	2.383	1420259	WORD	n/a	wordpools/wordpool_EN.txt	GEESE	3	22	[0, 0, 0]	n/a	FR1	0	R1018P
2513.653	2.501	1421451	WORD	n/a	wordpools/wordpool_EN.txt	SOCK	4	22	[0, 0, 0]	n/a	FR1	0	R1018P
2516.154	2.45	1422701	WORD	n/a	wordpools/wordpool_EN.txt	CLOWN	5	22	[0, 0, 0]	n/a	FR1	0	R1018P
2518.604	2.567	1423926	WORD	n/a	wordpools/wordpool_EN.txt	PIG	6	22	[0, 0, 0]	n/a	FR1	0	R1018P
2521.171	2.501	1425210	WORD	n/a	wordpools/wordpool_EN.txt	FLUTE	7	22	[0, 0, 0]	n/a	FR1	0	R1018P
2523.672	2.617	1426460	WORD	n/a	wordpools/wordpool_EN.txt	BARN	8	22	[0, 0, 0]	n/a	FR1	0	R1018P
2526.289	2.417	1427768	WORD	n/a	wordpools/wordpool_EN.txt	TRUCK	9	22	[0, 0, 0]	n/a	FR1	0	R1018P
2528.706	2.384	1428977	WORD	n/a	wordpools/wordpool_EN.txt	FAN	10	22	[0, 0, 0]	n/a	FR1	0	R1018P
2531.09	2.417	1430169	WORD	n/a	wordpools/wordpool_EN.txt	HAT	11	22	[0, 0, 0]	n/a	FR1	0	R1018P
2533.507	1.617	1431377	WORD	n/a	wordpools/wordpool_EN.txt	MUG	12	22	[0, 0, 0]	n/a	FR1	0	R1018P
2535.124	0.001	1432186	DISTRACT_START	n/a	n/a	n/a	-999	22	[0, 0, 0]	n/a	FR1	0	R1018P
2535.125	0.016	1432186	START	n/a	n/a	n/a	-999	22	[-999, -999, -999]	n/a	FR1	0	R1018P
2535.141	9.518	1432194	PROB	9.518	n/a	n/a	-999	22	[9, 8, 3]	21	FR1	0	R1018P
2544.659	12.876	1436953	PROB	12.876	n/a	n/a	-999	22	[6, 4, 6]	16	FR1	0	R1018P
2557.535	0.01	1443391	STOP	n/a	n/a	n/a	-999	22	[-999, -999, -999]	n/a	FR1	0	R1018P
2557.545	1.034	1443396	DISTRACT_END	n/a	n/a	n/a	-999	22	[0, 0, 0]	n/a	FR1	0	R1018P
2558.579	1.248	1443913	REC_START	n/a	n/a	n/a	-999	22	[0, 0, 0]	n/a	FR1	0	R1018P
2559.827	1.318	1444536	REC_WORD	1.318	n/a	FAN	-999	22	[0, 0, 0]	n/a	FR1	0	R1018P
2561.145	2.614	1445195	REC_WORD	2.614	n/a	HAT	-999	22	[0, 0, 0]	n/a	FR1	0	R1018P
2563.759	1.037	1446502	REC_WORD	1.037	n/a	TRUCK	-999	22	[0, 0, 0]	n/a	FR1	0	R1018P
2564.796	0.576	1447021	REC_WORD	0.576	n/a	BARN	-999	22	[0, 0, 0]	n/a	FR1	0	R1018P
2565.372	23.217	1447309	REC_WORD	23.217	n/a	PIG	-999	22	[0, 0, 0]	n/a	FR1	0	R1018P
2588.589	2.712	1458917	REC_END	n/a	n/a	n/a	-999	22	[0, 0, 0]	n/a	FR1	0	R1018P
2591.301	0.001	1460273	COUNTDOWN_START	n/a	n/a	n/a	-999	23	[0, 0, 0]	n/a	FR1	0	R1018P
2591.302	10.427	1460273	TRIAL	n/a	n/a	n/a	-999	23	[0, 0, 0]	n/a	FR1	0	R1018P
2601.729	0.008	1465486	COUNTDOWN_END	n/a	n/a	n/a	-999	23	[0, 0, 0]	n/a	FR1	0	R1018P
2601.737	2.566	1465490	ORIENT	n/a	n/a	n/a	-999	23	[0, 0, 0]	n/a	FR1	0	R1018P
2604.303	2.501	1466773	WORD	n/a	wordpools/wordpool_EN.txt	TOAD	1	23	[0, 0, 0]	n/a	FR1	0	R1018P
2606.804	2.384	1468024	WORD	n/a	wordpools/wordpool_EN.txt	MUD	2	23	[0, 0, 0]	n/a	FR1	0	R1018P
2609.188	2.617	1469216	WORD	n/a	wordpools/wordpool_EN.txt	PLANT	3	23	[0, 0, 0]	n/a	FR1	0	R1018P
2611.805	2.401	1470524	WORD	n/a	wordpools/wordpool_EN.txt	FUDGE	4	23	[0, 0, 0]	n/a	FR1	0	R1018P
2614.206	2.467	1471725	WORD	n/a	wordpools/wordpool_EN.txt	TANK	5	23	[0, 0, 0]	n/a	FR1	0	R1018P
2616.673	2.534	1472958	WORD	n/a	wordpools/wordpool_EN.txt	BOARD	6	23	[0, 0, 0]	n/a	FR1	0	R1018P
2619.207	2.567	1474225	WORD	n/a	wordpools/wordpool_EN.txt	SAIL	7	23	[0, 0, 0]	n/a	FR1	0	R1018P
2621.774	2.45	1475508	WORD	n/a	wordpools/wordpool_EN.txt	SPONGE	8	23	[0, 0, 0]	n/a	FR1	0	R1018P
2624.224	2.384	1476733	WORD	n/a	wordpools/wordpool_EN.txt	JET	9	23	[0, 0, 0]	n/a	FR1	0	R1018P
2626.608	2.45	1477925	WORD	n/a	wordpools/wordpool_EN.txt	SPARK	10	23	[0, 0, 0]	n/a	FR1	0	R1018P
2629.058	2.384	1479150	WORD	n/a	wordpools/wordpool_EN.txt	SEA	11	23	[0, 0, 0]	n/a	FR1	0	R1018P
2631.442	1.617	1480342	WORD	n/a	wordpools/wordpool_EN.txt	STEAM	12	23	[0, 0, 0]	n/a	FR1	0	R1018P
2633.059	0.001	1481151	DISTRACT_START	n/a	n/a	n/a	-999	23	[0, 0, 0]	n/a	FR1	0	R1018P
2633.06	0.016	1481151	START	n/a	n/a	n/a	-999	23	[-999, -999, -999]	n/a	FR1	0	R1018P
2633.076	11.752	1481159	PROB	11.752	n/a	n/a	-999	23	[9, 3, 2]	14	FR1	0	R1018P
2644.828	10.178	1487035	PROB	10.178	n/a	n/a	-999	23	[1, 7, 4]	12	FR1	0	R1018P
2655.006	0.007	1492123	STOP	n/a	n/a	n/a	-999	23	[-999, -999, -999]	n/a	FR1	0	R1018P
2655.013	1.101	1492127	DISTRACT_END	n/a	n/a	n/a	-999	23	[0, 0, 0]	n/a	FR1	0	R1018P
2656.114	3.554	1492677	REC_START	n/a	n/a	n/a	-999	23	[0, 0, 0]	n/a	FR1	0	R1018P
2659.668	5.436	1494454	REC_WORD	5.436	n/a	BOARD	-999	23	[0, 0, 0]	n/a	FR1	0	R1018P
2665.104	21.022	1497172	REC_WORD	21.022	n/a	SNAIL	-999	23	[0, 0, 0]	n/a	FR1	0	R1018P
2686.126	3.044	1507683	REC_END	n/a	n/a	n/a	-999	23	[0, 0, 0]	n/a	FR1	0	R1018P
2689.17	0.0	1509205	TRIAL	n/a	n/a	n/a	-999	24	[0, 0, 0]	n/a	FR1	0	R1018P
2689.17	10.428	1509205	COUNTDOWN_START	n/a	n/a	n/a	-999	24	[0, 0, 0]	n/a	FR1	0	R1018P
2699.598	0.007	1514418	COUNTDOWN_END	n/a	n/a	n/a	-999	24	[0, 0, 0]	n/a	FR1	0	R1018P
2699.605	2.467	1514422	ORIENT	n/a	n/a	n/a	-999	24	[0, 0, 0]	n/a	FR1	0	R1018P
2702.072	2.534	1515655	WORD	n/a	wordpools/wordpool_EN.txt	COW	1	24	[0, 0, 0]	n/a	FR1	0	R1018P
2704.606	2.484	1516922	WORD	n/a	wordpools/wordpool_EN.txt	DOLL	2	24	[0, 0, 0]	n/a	FR1	0	R1018P
2707.09	2.55	1518164	WORD	n/a	wordpools/wordpool_EN.txt	HOOF	3	24	[0, 0, 0]	n/a	FR1	0	R1018P
2709.64	2.484	1519439	WORD	n/a	wordpools/wordpool_EN.txt	SOUP	4	24	[0, 0, 0]	n/a	FR1	0	R1018P
2712.124	2.501	1520681	WORD	n/a	wordpools/wordpool_EN.txt	STRAW	5	24	[0, 0, 0]	n/a	FR1	0	R1018P
2714.625	2.6	1521931	WORD	n/a	wordpools/wordpool_EN.txt	PASTE	6	24	[0, 0, 0]	n/a	FR1	0	R1018P
2717.225	2.484	1523231	WORD	n/a	wordpools/wordpool_EN.txt	OAK	7	24	[0, 0, 0]	n/a	FR1	0	R1018P
2719.709	2.617	1524473	WORD	n/a	wordpools/wordpool_EN.txt	CUP	8	24	[0, 0, 0]	n/a	FR1	0	R1018P
2722.326	2.6	1525782	WORD	n/a	wordpools/wordpool_EN.txt	TOAST	9	24	[0, 0, 0]	n/a	FR1	0	R1018P
2724.926	2.401	1527082	WORD	n/a	wordpools/wordpool_EN.txt	VINE	10	24	[0, 0, 0]	n/a	FR1	0	R1018P
2727.327	2.535	1528282	WORD	n/a	wordpools/wordpool_EN.txt	DOOR	11	24	[0, 0, 0]	n/a	FR1	0	R1018P
2729.862	1.616	1529549	WORD	n/a	wordpools/wordpool_EN.txt	PEAR	12	24	[0, 0, 0]	n/a	FR1	0	R1018P
2731.478	0.001	1530357	DISTRACT_START	n/a	n/a	n/a	-999	24	[0, 0, 0]	n/a	FR1	0	R1018P
2731.479	0.015	1530358	START	n/a	n/a	n/a	-999	24	[-999, -999, -999]	n/a	FR1	0	R1018P
2731.494	10.403	1530365	PROB	10.403	n/a	n/a	-999	24	[2, 6, 7]	15	FR1	0	R1018P
2741.897	14.59	1535567	PROB	14.59	n/a	n/a	-999	24	[2, 6, 5]	13	FR1	0	R1018P
2756.487	0.012	1542861	STOP	n/a	n/a	n/a	-999	24	[-999, -999, -999]	n/a	FR1	0	R1018P
2756.499	1.202	1542867	DISTRACT_END	n/a	n/a	n/a	-999	24	[0, 0, 0]	n/a	FR1	0	R1018P
2757.701	2.413	1543468	REC_START	n/a	n/a	n/a	-999	24	[0, 0, 0]	n/a	FR1	0	R1018P
2760.114	0.796	1544675	REC_WORD	0.796	n/a	CUP	-999	24	[0, 0, 0]	n/a	FR1	0	R1018P
2760.91	1.091	1545073	REC_WORD	1.091	n/a	VINE	-999	24	[0, 0, 0]	n/a	FR1	0	R1018P
2762.001	5.832	1545618	REC_WORD	5.832	n/a	DOOR	-999	24	[0, 0, 0]	n/a	FR1	0	R1018P
2767.833	1.166	1548534	REC_WORD	1.166	n/a	HOOF	-999	24	[0, 0, 0]	n/a	FR1	0	R1018P
2768.999	6.777	1549117	REC_WORD	6.777	n/a	STRAW	-999	24	[0, 0, 0]	n/a	FR1	0	R1018P
2775.776	0.586	1552505	REC_WORD	0.586	n/a	CALF	-999	24	[0, 0, 0]	n/a	FR1	0	R1018P
2776.362	10.789	1552798	REC_WORD_VV	10.789	n/a	<>	-999	24	[0, 0, 0]	n/a	FR1	0	R1018P
2787.151	0.182	1558192	REC_WORD_VV	0.182	n/a	<>	-999	24	[0, 0, 0]	n/a	FR1	0	R1018P
2787.333	0.379	1558283	REC_WORD	0.379	n/a	BARN	-999	24	[0, 0, 0]	n/a	FR1	0	R1018P
2787.712	4.61	1558473	REC_END	n/a	n/a	n/a	-999	24	[0, 0, 0]	n/a	FR1	0	R1018P
2792.322	0.001	1560778	COUNTDOWN_START	n/a	n/a	n/a	-999	25	[0, 0, 0]	n/a	FR1	0	R1018P
2792.323	10.427	1560778	TRIAL	n/a	n/a	n/a	-999	25	[0, 0, 0]	n/a	FR1	0	R1018P
2802.75	0.008	1565992	COUNTDOWN_END	n/a	n/a	n/a	-999	25	[0, 0, 0]	n/a	FR1	0	R1018P
2802.758	2.417	1565996	ORIENT	n/a	n/a	n/a	-999	25	[0, 0, 0]	n/a	FR1	0	R1018P
2805.175	2.434	1567204	WORD	n/a	wordpools/wordpool_EN.txt	SLEEVE	1	25	[0, 0, 0]	n/a	FR1	0	R1018P
2807.609	2.5	1568421	WORD	n/a	wordpools/wordpool_EN.txt	TIE	2	25	[0, 0, 0]	n/a	FR1	0	R1018P
2810.109	2.467	1569671	WORD	n/a	wordpools/wordpool_EN.txt	HOSE	3	25	[0, 0, 0]	n/a	FR1	0	R1018P
2812.576	2.501	1570904	WORD	n/a	wordpools/wordpool_EN.txt	CANE	4	25	[0, 0, 0]	n/a	FR1	0	R1018P
2815.077	2.5	1572155	WORD	n/a	wordpools/wordpool_EN.txt	TRAY	5	25	[0, 0, 0]	n/a	FR1	0	R1018P
2817.577	2.467	1573405	WORD	n/a	wordpools/wordpool_EN.txt	FARM	6	25	[0, 0, 0]	n/a	FR1	0	R1018P
2820.044	2.451	1574638	WORD	n/a	wordpools/wordpool_EN.txt	WEED	7	25	[0, 0, 0]	n/a	FR1	0	R1018P
2822.495	2.534	1575864	WORD	n/a	wordpools/wordpool_EN.txt	CAKE	8	25	[0, 0, 0]	n/a	FR1	0	R1018P
2825.029	2.483	1577130	WORD	n/a	wordpools/wordpool_EN.txt	STICK	9	25	[0, 0, 0]	n/a	FR1	0	R1018P
2827.512	2.551	1578372	WORD	n/a	wordpools/wordpool_EN.txt	SEAL	10	25	[0, 0, 0]	n/a	FR1	0	R1018P
2830.063	2.584	1579647	WORD	n/a	wordpools/wordpool_EN.txt	LAMB	11	25	[0, 0, 0]	n/a	FR1	0	R1018P
2832.647	1.617	1580939	WORD	n/a	wordpools/wordpool_EN.txt	POOL	12	25	[0, 0, 0]	n/a	FR1	0	R1018P
2834.264	0.0	1581748	DISTRACT_START	n/a	n/a	n/a	-999	25	[0, 0, 0]	n/a	FR1	0	R1018P
2834.264	0.016	1581748	START	n/a	n/a	n/a	-999	25	[-999, -999, -999]	n/a	FR1	0	R1018P
2834.28	10.886	1581756	PROB	10.886	n/a	n/a	-999	25	[5, 7, 7]	19	FR1	0	R1018P
2845.166	10.088	1587198	PROB	10.088	n/a	n/a	-999	25	[9, 8, 3]	20	FR1	0	R1018P
2855.254	0.014	1592242	STOP	n/a	n/a	n/a	-999	25	[-999, -999, -999]	n/a	FR1	0	R1018P
2855.268	1.217	1592249	DISTRACT_END	n/a	n/a	n/a	-999	25	[0, 0, 0]	n/a	FR1	0	R1018P
2856.485	2.682	1592858	REC_START	n/a	n/a	n/a	-999	25	[0, 0, 0]	n/a	FR1	0	R1018P
2859.167	1.298	1594199	REC_WORD	1.298	n/a	POOL	-999	25	[0, 0, 0]	n/a	FR1	0	R1018P
2860.465	1.771	1594848	REC_WORD	1.771	n/a	FARM	-999	25	[0, 0, 0]	n/a	FR1	0	R1018P
2862.236	24.266	1595733	REC_WORD	24.266	n/a	TRAY	-999	25	[0, 0, 0]	n/a	FR1	0	R1018P
2886.502	231.417	1607865	REC_END	n/a	n/a	n/a	-999	25	[0, 0, 0]	n/a	FR1	0	R1018P
3117.919	0.0	1723568	SESS_END	n/a	n/a	n/a	-999	25	[0, 0, 0]	n/a	FR1	0	R1018P
