onset	duration	sample	trial_type	response_time	stim_file	item_name	serialpos	list	test	answer	experiment	session	subject
0.0	55.652	80220	SESS_START	n/a	n/a	n/a	-999	-999	[0, 0, 0]	n/a	FR1	2	R1125T
55.652	10.428	135869	COUNTDOWN_START	n/a	n/a	n/a	-999	-999	[0, 0, 0]	n/a	FR1	2	R1125T
66.08	3.876	146296	COUNTDOWN_END	n/a	n/a	n/a	-999	-999	[0, 0, 0]	n/a	FR1	2	R1125T
69.956	2.534	150172	PRACTICE_WORD	n/a	n/a	TONGUE	1	-1	[0, 0, 0]	n/a	FR1	2	R1125T
72.49	2.6	152706	PRACTICE_WORD	n/a	n/a	CAMEL	2	-1	[0, 0, 0]	n/a	FR1	2	R1125T
75.09	2.6	155306	PRACTICE_WORD	n/a	n/a	ATTIC	3	-1	[0, 0, 0]	n/a	FR1	2	R1125T
77.69	2.401	157906	PRACTICE_WORD	n/a	n/a	WAGON	4	-1	[0, 0, 0]	n/a	FR1	2	R1125T
80.091	2.6	160307	PRACTICE_WORD	n/a	n/a	WATCH	5	-1	[0, 0, 0]	n/a	FR1	2	R1125T
82.691	2.468	162907	PRACTICE_WORD	n/a	n/a	IRON	6	-1	[0, 0, 0]	n/a	FR1	2	R1125T
85.159	2.4	165374	PRACTICE_WORD	n/a	n/a	COTTON	7	-1	[0, 0, 0]	n/a	FR1	2	R1125T
87.559	2.467	167774	PRACTICE_WORD	n/a	n/a	CHEST	8	-1	[0, 0, 0]	n/a	FR1	2	R1125T
90.026	2.467	170241	PRACTICE_WORD	n/a	n/a	RHINO	9	-1	[0, 0, 0]	n/a	FR1	2	R1125T
92.493	2.601	172708	PRACTICE_WORD	n/a	n/a	RING	10	-1	[0, 0, 0]	n/a	FR1	2	R1125T
95.094	2.583	175309	PRACTICE_WORD	n/a	n/a	BEAM	11	-1	[0, 0, 0]	n/a	FR1	2	R1125T
97.677	1.618	177892	PRACTICE_WORD	n/a	n/a	FLOOD	12	-1	[0, 0, 0]	n/a	FR1	2	R1125T
99.295	0.0	179510	PRACTICE_DISTRACT_START	n/a	n/a	n/a	-999	-1	[0, 0, 0]	n/a	FR1	2	R1125T
99.295	0.016	179510	START	n/a	n/a	n/a	-999	-1	[-999, -999, -999]	n/a	FR1	2	R1125T
99.311	11.501	179526	PROB	11.501	n/a	n/a	-999	-1	[2, 5, 9]	18	FR1	2	R1125T
110.812	6.902	191026	PROB	6.902	n/a	n/a	-999	-1	[9, 1, 8]	18	FR1	2	R1125T
117.714	7.293	197928	PROB	7.293	n/a	n/a	-999	-1	[4, 4, 3]	11	FR1	2	R1125T
125.007	0.009	205221	STOP	n/a	n/a	n/a	-999	-1	[-999, -999, -999]	n/a	FR1	2	R1125T
125.016	0.635	205230	PRACTICE_DISTRACT_END	n/a	n/a	n/a	-999	-1	[0, 0, 0]	n/a	FR1	2	R1125T
125.651	30.515	205864	PRACTICE_REC_START	n/a	n/a	n/a	-999	-1	[0, 0, 0]	n/a	FR1	2	R1125T
156.166	9.991	236378	PRACTICE_REC_END	n/a	n/a	n/a	-999	-1	[0, 0, 0]	n/a	FR1	2	R1125T
166.157	0.0	246369	TRIAL	n/a	n/a	n/a	-999	1	[0, 0, 0]	n/a	FR1	2	R1125T
166.157	10.428	246369	COUNTDOWN_START	n/a	n/a	n/a	-999	1	[0, 0, 0]	n/a	FR1	2	R1125T
176.585	0.007	256796	COUNTDOWN_END	n/a	n/a	n/a	-999	1	[0, 0, 0]	n/a	FR1	2	R1125T
176.592	2.417	256803	ORIENT	n/a	n/a	n/a	-999	1	[0, 0, 0]	n/a	FR1	2	R1125T
179.009	2.417	259220	WORD	n/a	wordpools/wordpool_EN.txt	BRICK	1	1	[0, 0, 0]	n/a	FR1	2	R1125T
181.426	2.451	261637	WORD	n/a	wordpools/wordpool_EN.txt	POLE	2	1	[0, 0, 0]	n/a	FR1	2	R1125T
183.877	2.4	264088	WORD	n/a	wordpools/wordpool_EN.txt	JAIL	3	1	[0, 0, 0]	n/a	FR1	2	R1125T
186.277	2.533	266488	WORD	n/a	wordpools/wordpool_EN.txt	MAP	4	1	[0, 0, 0]	n/a	FR1	2	R1125T
188.81	2.435	269020	WORD	n/a	wordpools/wordpool_EN.txt	MOON	5	1	[0, 0, 0]	n/a	FR1	2	R1125T
191.245	2.383	271455	WORD	n/a	wordpools/wordpool_EN.txt	CORD	6	1	[0, 0, 0]	n/a	FR1	2	R1125T
193.628	2.501	273838	WORD	n/a	wordpools/wordpool_EN.txt	BOMB	7	1	[0, 0, 0]	n/a	FR1	2	R1125T
196.129	2.499	276339	WORD	n/a	wordpools/wordpool_EN.txt	OAR	8	1	[0, 0, 0]	n/a	FR1	2	R1125T
198.628	2.485	278838	WORD	n/a	wordpools/wordpool_EN.txt	STAR	9	1	[0, 0, 0]	n/a	FR1	2	R1125T
201.113	2.533	281323	WORD	n/a	wordpools/wordpool_EN.txt	STEM	10	1	[0, 0, 0]	n/a	FR1	2	R1125T
203.646	2.452	283856	WORD	n/a	wordpools/wordpool_EN.txt	BAT	11	1	[0, 0, 0]	n/a	FR1	2	R1125T
206.098	1.615	286308	WORD	n/a	wordpools/wordpool_EN.txt	TOOTH	12	1	[0, 0, 0]	n/a	FR1	2	R1125T
207.713	0.001	287923	DISTRACT_START	n/a	n/a	n/a	-999	1	[0, 0, 0]	n/a	FR1	2	R1125T
207.714	0.016	287924	START	n/a	n/a	n/a	-999	1	[-999, -999, -999]	n/a	FR1	2	R1125T
207.73	9.319	287940	PROB	9.319	n/a	n/a	-999	1	[6, 8, 2]	16	FR1	2	R1125T
217.049	9.969	297258	PROB	9.969	n/a	n/a	-999	1	[3, 4, 9]	16	FR1	2	R1125T
227.018	12.021	307227	PROB	12.021	n/a	n/a	-999	1	[7, 5, 3]	15	FR1	2	R1125T
239.039	0.014	319247	STOP	n/a	n/a	n/a	-999	1	[-999, -999, -999]	n/a	FR1	2	R1125T
239.053	1.039	319261	DISTRACT_END	n/a	n/a	n/a	-999	1	[0, 0, 0]	n/a	FR1	2	R1125T
240.092	0.922	320300	REC_START	n/a	n/a	n/a	-999	1	[0, 0, 0]	n/a	FR1	2	R1125T
241.014	11.38	321222	REC_WORD	11.38	n/a	CAMERA	-999	1	[0, 0, 0]	n/a	FR1	2	R1125T
252.394	16.64	332601	REC_WORD	16.64	n/a	JAIL	-999	1	[0, 0, 0]	n/a	FR1	2	R1125T
269.034	1.064	349241	REC_WORD	1.064	n/a	INTRUSION	-999	1	[0, 0, 0]	n/a	FR1	2	R1125T
270.098	3.145	350305	REC_END	n/a	n/a	n/a	-999	1	[0, 0, 0]	n/a	FR1	2	R1125T
273.243	0.0	353449	TRIAL	n/a	n/a	n/a	-999	2	[0, 0, 0]	n/a	FR1	2	R1125T
273.243	10.428	353449	COUNTDOWN_START	n/a	n/a	n/a	-999	2	[0, 0, 0]	n/a	FR1	2	R1125T
283.671	0.006	363877	COUNTDOWN_END	n/a	n/a	n/a	-999	2	[0, 0, 0]	n/a	FR1	2	R1125T
283.677	2.518	363883	ORIENT	n/a	n/a	n/a	-999	2	[0, 0, 0]	n/a	FR1	2	R1125T
286.195	2.417	366401	WORD	n/a	wordpools/wordpool_EN.txt	SUN	1	2	[0, 0, 0]	n/a	FR1	2	R1125T
288.612	2.434	368818	WORD	n/a	wordpools/wordpool_EN.txt	TOAD	2	2	[0, 0, 0]	n/a	FR1	2	R1125T
291.046	2.434	371252	WORD	n/a	wordpools/wordpool_EN.txt	SEA	3	2	[0, 0, 0]	n/a	FR1	2	R1125T
293.48	2.467	373685	WORD	n/a	wordpools/wordpool_EN.txt	SNOW	4	2	[0, 0, 0]	n/a	FR1	2	R1125T
295.947	2.517	376152	WORD	n/a	wordpools/wordpool_EN.txt	WOLF	5	2	[0, 0, 0]	n/a	FR1	2	R1125T
298.464	2.618	378669	WORD	n/a	wordpools/wordpool_EN.txt	SHIP	6	2	[0, 0, 0]	n/a	FR1	2	R1125T
301.082	2.599	381287	WORD	n/a	wordpools/wordpool_EN.txt	RIB	7	2	[0, 0, 0]	n/a	FR1	2	R1125T
303.681	2.401	383886	WORD	n/a	wordpools/wordpool_EN.txt	MOLE	8	2	[0, 0, 0]	n/a	FR1	2	R1125T
306.082	2.533	386287	WORD	n/a	wordpools/wordpool_EN.txt	MOTH	9	2	[0, 0, 0]	n/a	FR1	2	R1125T
308.615	2.552	388820	WORD	n/a	wordpools/wordpool_EN.txt	TEETH	10	2	[0, 0, 0]	n/a	FR1	2	R1125T
311.167	2.449	391372	WORD	n/a	wordpools/wordpool_EN.txt	FOX	11	2	[0, 0, 0]	n/a	FR1	2	R1125T
313.616	1.618	393820	WORD	n/a	wordpools/wordpool_EN.txt	BEAR	12	2	[0, 0, 0]	n/a	FR1	2	R1125T
315.234	0.001	395438	DISTRACT_START	n/a	n/a	n/a	-999	2	[0, 0, 0]	n/a	FR1	2	R1125T
315.235	0.016	395439	START	n/a	n/a	n/a	-999	2	[-999, -999, -999]	n/a	FR1	2	R1125T
315.251	12.102	395455	PROB	12.102	n/a	n/a	-999	2	[7, 5, 3]	15	FR1	2	R1125T
327.353	7.4	407557	PROB	7.4	n/a	n/a	-999	2	[6, 9, 9]	24	FR1	2	R1125T
334.753	8.005	414956	PROB	8.005	n/a	n/a	-999	2	[4, 3, 3]	10	FR1	2	R1125T
342.758	0.013	422961	STOP	n/a	n/a	n/a	-999	2	[-999, -999, -999]	n/a	FR1	2	R1125T
342.771	1.086	422974	DISTRACT_END	n/a	n/a	n/a	-999	2	[0, 0, 0]	n/a	FR1	2	R1125T
343.857	0.87	424060	REC_START	n/a	n/a	n/a	-999	2	[0, 0, 0]	n/a	FR1	2	R1125T
344.727	2.127	424930	REC_WORD	2.127	n/a	SUN	-999	2	[0, 0, 0]	n/a	FR1	2	R1125T
346.854	6.296	427057	REC_WORD	6.296	n/a	SNOW	-999	2	[0, 0, 0]	n/a	FR1	2	R1125T
353.15	2.286	433353	REC_WORD	2.286	n/a	TEETH	-999	2	[0, 0, 0]	n/a	FR1	2	R1125T
355.436	18.431	435638	REC_WORD	18.431	n/a	MOTH	-999	2	[0, 0, 0]	n/a	FR1	2	R1125T
373.867	3.311	454068	REC_END	n/a	n/a	n/a	-999	2	[0, 0, 0]	n/a	FR1	2	R1125T
377.178	0.001	457379	COUNTDOWN_START	n/a	n/a	n/a	-999	3	[0, 0, 0]	n/a	FR1	2	R1125T
377.179	10.427	457380	TRIAL	n/a	n/a	n/a	-999	3	[0, 0, 0]	n/a	FR1	2	R1125T
387.606	0.007	467807	COUNTDOWN_END	n/a	n/a	n/a	-999	3	[0, 0, 0]	n/a	FR1	2	R1125T
387.613	2.468	467814	ORIENT	n/a	n/a	n/a	-999	3	[0, 0, 0]	n/a	FR1	2	R1125T
390.081	2.583	470282	WORD	n/a	wordpools/wordpool_EN.txt	STEAM	1	3	[0, 0, 0]	n/a	FR1	2	R1125T
392.664	2.451	472865	WORD	n/a	wordpools/wordpool_EN.txt	SIGN	2	3	[0, 0, 0]	n/a	FR1	2	R1125T
395.115	2.6	475315	WORD	n/a	wordpools/wordpool_EN.txt	WHALE	3	3	[0, 0, 0]	n/a	FR1	2	R1125T
397.715	2.401	477915	WORD	n/a	wordpools/wordpool_EN.txt	SHIELD	4	3	[0, 0, 0]	n/a	FR1	2	R1125T
400.116	2.55	480316	WORD	n/a	wordpools/wordpool_EN.txt	ICE	5	3	[0, 0, 0]	n/a	FR1	2	R1125T
402.666	2.618	482866	WORD	n/a	wordpools/wordpool_EN.txt	CROW	6	3	[0, 0, 0]	n/a	FR1	2	R1125T
405.284	2.55	485484	WORD	n/a	wordpools/wordpool_EN.txt	AXE	7	3	[0, 0, 0]	n/a	FR1	2	R1125T
407.834	2.501	488034	WORD	n/a	wordpools/wordpool_EN.txt	JEEP	8	3	[0, 0, 0]	n/a	FR1	2	R1125T
410.335	2.416	490535	WORD	n/a	wordpools/wordpool_EN.txt	SPRING	9	3	[0, 0, 0]	n/a	FR1	2	R1125T
412.751	2.635	492951	WORD	n/a	wordpools/wordpool_EN.txt	SLEEVE	10	3	[0, 0, 0]	n/a	FR1	2	R1125T
415.386	2.583	495585	WORD	n/a	wordpools/wordpool_EN.txt	GEESE	11	3	[0, 0, 0]	n/a	FR1	2	R1125T
417.969	1.617	498168	WORD	n/a	wordpools/wordpool_EN.txt	GATE	12	3	[0, 0, 0]	n/a	FR1	2	R1125T
419.586	0.001	499785	DISTRACT_START	n/a	n/a	n/a	-999	3	[0, 0, 0]	n/a	FR1	2	R1125T
419.587	0.016	499786	START	n/a	n/a	n/a	-999	3	[-999, -999, -999]	n/a	FR1	2	R1125T
419.603	7.768	499802	PROB	7.768	n/a	n/a	-999	3	[5, 6, 4]	15	FR1	2	R1125T
427.371	8.468	507570	PROB	8.468	n/a	n/a	-999	3	[5, 5, 4]	14	FR1	2	R1125T
435.839	7.919	516038	PROB	7.919	n/a	n/a	-999	3	[3, 1, 3]	7	FR1	2	R1125T
443.758	0.015	523956	STOP	n/a	n/a	n/a	-999	3	[-999, -999, -999]	n/a	FR1	2	R1125T
443.773	1.219	523971	DISTRACT_END	n/a	n/a	n/a	-999	3	[0, 0, 0]	n/a	FR1	2	R1125T
444.992	1.269	525190	REC_START	n/a	n/a	n/a	-999	3	[0, 0, 0]	n/a	FR1	2	R1125T
446.261	5.403	526459	REC_WORD	5.403	n/a	STEAM	-999	3	[0, 0, 0]	n/a	FR1	2	R1125T
451.664	10.752	531862	REC_WORD	10.752	n/a	STEEL	-999	3	[0, 0, 0]	n/a	FR1	2	R1125T
462.416	12.586	542613	REC_WORD	12.586	n/a	SOUL	-999	3	[0, 0, 0]	n/a	FR1	2	R1125T
475.002	3.312	555199	REC_END	n/a	n/a	n/a	-999	3	[0, 0, 0]	n/a	FR1	2	R1125T
478.314	0.0	558510	TRIAL	n/a	n/a	n/a	-999	4	[0, 0, 0]	n/a	FR1	2	R1125T
478.314	10.428	558510	COUNTDOWN_START	n/a	n/a	n/a	-999	4	[0, 0, 0]	n/a	FR1	2	R1125T
488.742	0.006	568938	COUNTDOWN_END	n/a	n/a	n/a	-999	4	[0, 0, 0]	n/a	FR1	2	R1125T
488.748	2.418	568944	ORIENT	n/a	n/a	n/a	-999	4	[0, 0, 0]	n/a	FR1	2	R1125T
491.166	2.55	571362	WORD	n/a	wordpools/wordpool_EN.txt	HILL	1	4	[0, 0, 0]	n/a	FR1	2	R1125T
493.716	2.518	573912	WORD	n/a	wordpools/wordpool_EN.txt	CLOUD	2	4	[0, 0, 0]	n/a	FR1	2	R1125T
496.234	2.482	576430	WORD	n/a	wordpools/wordpool_EN.txt	SHOE	3	4	[0, 0, 0]	n/a	FR1	2	R1125T
498.716	2.385	578911	WORD	n/a	wordpools/wordpool_EN.txt	BOX	4	4	[0, 0, 0]	n/a	FR1	2	R1125T
501.101	2.516	581296	WORD	n/a	wordpools/wordpool_EN.txt	RICE	5	4	[0, 0, 0]	n/a	FR1	2	R1125T
503.617	2.402	583812	WORD	n/a	wordpools/wordpool_EN.txt	TOAST	6	4	[0, 0, 0]	n/a	FR1	2	R1125T
506.019	2.599	586214	WORD	n/a	wordpools/wordpool_EN.txt	RAIN	7	4	[0, 0, 0]	n/a	FR1	2	R1125T
508.618	2.585	588813	WORD	n/a	wordpools/wordpool_EN.txt	ELF	8	4	[0, 0, 0]	n/a	FR1	2	R1125T
511.203	2.433	591398	WORD	n/a	wordpools/wordpool_EN.txt	FILM	9	4	[0, 0, 0]	n/a	FR1	2	R1125T
513.636	2.501	593831	WORD	n/a	wordpools/wordpool_EN.txt	CHIN	10	4	[0, 0, 0]	n/a	FR1	2	R1125T
516.137	2.483	596332	WORD	n/a	wordpools/wordpool_EN.txt	SWAMP	11	4	[0, 0, 0]	n/a	FR1	2	R1125T
518.62	1.601	598815	WORD	n/a	wordpools/wordpool_EN.txt	SALT	12	4	[0, 0, 0]	n/a	FR1	2	R1125T
520.221	0.001	600415	DISTRACT_START	n/a	n/a	n/a	-999	4	[0, 0, 0]	n/a	FR1	2	R1125T
520.222	0.016	600416	START	n/a	n/a	n/a	-999	4	[-999, -999, -999]	n/a	FR1	2	R1125T
520.238	7.318	600432	PROB	7.318	n/a	n/a	-999	4	[8, 4, 4]	16	FR1	2	R1125T
527.556	5.784	607750	PROB	5.784	n/a	n/a	-999	4	[6, 4, 1]	11	FR1	2	R1125T
533.34	9.603	613534	PROB	9.603	n/a	n/a	-999	4	[3, 4, 8]	15	FR1	2	R1125T
542.943	0.016	623136	STOP	n/a	n/a	n/a	-999	4	[-999, -999, -999]	n/a	FR1	2	R1125T
542.959	1.118	623152	DISTRACT_END	n/a	n/a	n/a	-999	4	[0, 0, 0]	n/a	FR1	2	R1125T
544.077	1.185	624270	REC_START	n/a	n/a	n/a	-999	4	[0, 0, 0]	n/a	FR1	2	R1125T
545.262	2.395	625455	REC_WORD	2.395	n/a	SHOE	-999	4	[0, 0, 0]	n/a	FR1	2	R1125T
547.657	3.604	627850	REC_WORD	3.604	n/a	BOX	-999	4	[0, 0, 0]	n/a	FR1	2	R1125T
551.261	13.694	631454	REC_WORD	13.694	n/a	RICE	-999	4	[0, 0, 0]	n/a	FR1	2	R1125T
564.955	9.132	645147	REC_WORD	9.132	n/a	STEEL	-999	4	[0, 0, 0]	n/a	FR1	2	R1125T
574.087	3.644	654279	REC_END	n/a	n/a	n/a	-999	4	[0, 0, 0]	n/a	FR1	2	R1125T
577.731	0.0	657923	TRIAL	n/a	n/a	n/a	-999	5	[0, 0, 0]	n/a	FR1	2	R1125T
577.731	10.428	657923	COUNTDOWN_START	n/a	n/a	n/a	-999	5	[0, 0, 0]	n/a	FR1	2	R1125T
588.159	0.008	668350	COUNTDOWN_END	n/a	n/a	n/a	-999	5	[0, 0, 0]	n/a	FR1	2	R1125T
588.167	2.6	668358	ORIENT	n/a	n/a	n/a	-999	5	[0, 0, 0]	n/a	FR1	2	R1125T
590.767	2.434	670958	WORD	n/a	wordpools/wordpool_EN.txt	MUG	1	5	[0, 0, 0]	n/a	FR1	2	R1125T
593.201	2.384	673392	WORD	n/a	wordpools/wordpool_EN.txt	TRUCK	2	5	[0, 0, 0]	n/a	FR1	2	R1125T
595.585	2.401	675776	WORD	n/a	wordpools/wordpool_EN.txt	STOOL	3	5	[0, 0, 0]	n/a	FR1	2	R1125T
597.986	2.433	678177	WORD	n/a	wordpools/wordpool_EN.txt	PURSE	4	5	[0, 0, 0]	n/a	FR1	2	R1125T
600.419	2.551	680610	WORD	n/a	wordpools/wordpool_EN.txt	SHELL	5	5	[0, 0, 0]	n/a	FR1	2	R1125T
602.97	2.617	683160	WORD	n/a	wordpools/wordpool_EN.txt	PEARL	6	5	[0, 0, 0]	n/a	FR1	2	R1125T
605.587	2.484	685777	WORD	n/a	wordpools/wordpool_EN.txt	MAZE	7	5	[0, 0, 0]	n/a	FR1	2	R1125T
608.071	2.616	688261	WORD	n/a	wordpools/wordpool_EN.txt	FLOOR	8	5	[0, 0, 0]	n/a	FR1	2	R1125T
610.687	2.451	690877	WORD	n/a	wordpools/wordpool_EN.txt	VAN	9	5	[0, 0, 0]	n/a	FR1	2	R1125T
613.138	2.55	693328	WORD	n/a	wordpools/wordpool_EN.txt	HOOK	10	5	[0, 0, 0]	n/a	FR1	2	R1125T
615.688	2.585	695878	WORD	n/a	wordpools/wordpool_EN.txt	PEA	11	5	[0, 0, 0]	n/a	FR1	2	R1125T
618.273	1.617	698463	WORD	n/a	wordpools/wordpool_EN.txt	CLOWN	12	5	[0, 0, 0]	n/a	FR1	2	R1125T
619.89	0.0	700080	DISTRACT_START	n/a	n/a	n/a	-999	5	[0, 0, 0]	n/a	FR1	2	R1125T
619.89	0.016	700080	START	n/a	n/a	n/a	-999	5	[-999, -999, -999]	n/a	FR1	2	R1125T
619.906	11.419	700096	PROB	11.419	n/a	n/a	-999	5	[9, 4, 4]	17	FR1	2	R1125T
631.325	8.434	711514	PROB	8.434	n/a	n/a	-999	5	[4, 6, 9]	19	FR1	2	R1125T
639.759	5.871	719948	PROB	5.871	n/a	n/a	-999	5	[2, 1, 6]	9	FR1	2	R1125T
645.63	0.013	725818	STOP	n/a	n/a	n/a	-999	5	[-999, -999, -999]	n/a	FR1	2	R1125T
645.643	1.135	725831	DISTRACT_END	n/a	n/a	n/a	-999	5	[0, 0, 0]	n/a	FR1	2	R1125T
646.778	1.211	726966	REC_START	n/a	n/a	n/a	-999	5	[0, 0, 0]	n/a	FR1	2	R1125T
647.989	1.675	728177	REC_WORD	1.675	n/a	CLOWN	-999	5	[0, 0, 0]	n/a	FR1	2	R1125T
649.664	1.668	729852	REC_WORD	1.668	n/a	TRUCK	-999	5	[0, 0, 0]	n/a	FR1	2	R1125T
651.332	15.066	731520	REC_WORD	15.066	n/a	VAN	-999	5	[0, 0, 0]	n/a	FR1	2	R1125T
666.398	10.39	746585	REC_WORD	10.39	n/a	STOOL	-999	5	[0, 0, 0]	n/a	FR1	2	R1125T
676.788	3.412	756975	REC_END	n/a	n/a	n/a	-999	5	[0, 0, 0]	n/a	FR1	2	R1125T
680.2	0.001	760387	COUNTDOWN_START	n/a	n/a	n/a	-999	6	[0, 0, 0]	n/a	FR1	2	R1125T
680.201	10.427	760388	TRIAL	n/a	n/a	n/a	-999	6	[0, 0, 0]	n/a	FR1	2	R1125T
690.628	0.007	770814	COUNTDOWN_END	n/a	n/a	n/a	-999	6	[0, 0, 0]	n/a	FR1	2	R1125T
690.635	2.568	770821	ORIENT	n/a	n/a	n/a	-999	6	[0, 0, 0]	n/a	FR1	2	R1125T
693.203	2.383	773389	WORD	n/a	wordpools/wordpool_EN.txt	BADGE	1	6	[0, 0, 0]	n/a	FR1	2	R1125T
695.586	2.484	775772	WORD	n/a	wordpools/wordpool_EN.txt	JUDGE	2	6	[0, 0, 0]	n/a	FR1	2	R1125T
698.07	2.434	778256	WORD	n/a	wordpools/wordpool_EN.txt	BOOK	3	6	[0, 0, 0]	n/a	FR1	2	R1125T
700.504	2.551	780690	WORD	n/a	wordpools/wordpool_EN.txt	PIG	4	6	[0, 0, 0]	n/a	FR1	2	R1125T
703.055	2.4	783241	WORD	n/a	wordpools/wordpool_EN.txt	PLANE	5	6	[0, 0, 0]	n/a	FR1	2	R1125T
705.455	2.467	785640	WORD	n/a	wordpools/wordpool_EN.txt	SHEET	6	6	[0, 0, 0]	n/a	FR1	2	R1125T
707.922	2.601	788107	WORD	n/a	wordpools/wordpool_EN.txt	CAR	7	6	[0, 0, 0]	n/a	FR1	2	R1125T
710.523	2.383	790708	WORD	n/a	wordpools/wordpool_EN.txt	SMOKE	8	6	[0, 0, 0]	n/a	FR1	2	R1125T
712.906	2.534	793091	WORD	n/a	wordpools/wordpool_EN.txt	SHEEP	9	6	[0, 0, 0]	n/a	FR1	2	R1125T
715.44	2.634	795625	WORD	n/a	wordpools/wordpool_EN.txt	WAVE	10	6	[0, 0, 0]	n/a	FR1	2	R1125T
718.074	2.417	798259	WORD	n/a	wordpools/wordpool_EN.txt	ARK	11	6	[0, 0, 0]	n/a	FR1	2	R1125T
720.491	1.617	800676	WORD	n/a	wordpools/wordpool_EN.txt	JET	12	6	[0, 0, 0]	n/a	FR1	2	R1125T
722.108	0.001	802293	DISTRACT_START	n/a	n/a	n/a	-999	6	[0, 0, 0]	n/a	FR1	2	R1125T
722.109	0.016	802294	START	n/a	n/a	n/a	-999	6	[-999, -999, -999]	n/a	FR1	2	R1125T
722.125	15.585	802310	PROB	15.585	n/a	n/a	-999	6	[8, 5, 3]	16	FR1	2	R1125T
737.71	7.096	817894	PROB	7.096	n/a	n/a	-999	6	[6, 2, 1]	9	FR1	2	R1125T
744.806	0.005	824990	STOP	n/a	n/a	n/a	-999	6	[-999, -999, -999]	n/a	FR1	2	R1125T
744.811	1.202	824995	DISTRACT_END	n/a	n/a	n/a	-999	6	[0, 0, 0]	n/a	FR1	2	R1125T
746.013	3.077	826197	REC_START	n/a	n/a	n/a	-999	6	[0, 0, 0]	n/a	FR1	2	R1125T
749.09	1.689	829273	REC_WORD	1.689	n/a	PIG	-999	6	[0, 0, 0]	n/a	FR1	2	R1125T
750.779	10.867	830962	REC_WORD	10.867	n/a	STEEL	-999	6	[0, 0, 0]	n/a	FR1	2	R1125T
761.646	14.377	841829	REC_WORD	14.377	n/a	ARK	-999	6	[0, 0, 0]	n/a	FR1	2	R1125T
776.023	3.512	856205	REC_END	n/a	n/a	n/a	-999	6	[0, 0, 0]	n/a	FR1	2	R1125T
779.535	0.0	859717	COUNTDOWN_START	n/a	n/a	n/a	-999	7	[0, 0, 0]	n/a	FR1	2	R1125T
779.535	10.428	859717	TRIAL	n/a	n/a	n/a	-999	7	[0, 0, 0]	n/a	FR1	2	R1125T
789.963	0.007	870144	COUNTDOWN_END	n/a	n/a	n/a	-999	7	[0, 0, 0]	n/a	FR1	2	R1125T
789.97	2.384	870151	ORIENT	n/a	n/a	n/a	-999	7	[0, 0, 0]	n/a	FR1	2	R1125T
792.354	2.416	872535	WORD	n/a	wordpools/wordpool_EN.txt	TEA	1	7	[0, 0, 0]	n/a	FR1	2	R1125T
794.77	2.585	874951	WORD	n/a	wordpools/wordpool_EN.txt	SHRIMP	2	7	[0, 0, 0]	n/a	FR1	2	R1125T
797.355	2.433	877536	WORD	n/a	wordpools/wordpool_EN.txt	LAMP	3	7	[0, 0, 0]	n/a	FR1	2	R1125T
799.788	2.368	879969	WORD	n/a	wordpools/wordpool_EN.txt	SUIT	4	7	[0, 0, 0]	n/a	FR1	2	R1125T
802.156	2.483	882337	WORD	n/a	wordpools/wordpool_EN.txt	FOOD	5	7	[0, 0, 0]	n/a	FR1	2	R1125T
804.639	2.568	884820	WORD	n/a	wordpools/wordpool_EN.txt	TOE	6	7	[0, 0, 0]	n/a	FR1	2	R1125T
807.207	2.433	887388	WORD	n/a	wordpools/wordpool_EN.txt	HOOF	7	7	[0, 0, 0]	n/a	FR1	2	R1125T
809.64	2.418	889820	WORD	n/a	wordpools/wordpool_EN.txt	ROOT	8	7	[0, 0, 0]	n/a	FR1	2	R1125T
812.058	2.616	892238	WORD	n/a	wordpools/wordpool_EN.txt	BEAN	9	7	[0, 0, 0]	n/a	FR1	2	R1125T
814.674	2.485	894854	WORD	n/a	wordpools/wordpool_EN.txt	RAKE	10	7	[0, 0, 0]	n/a	FR1	2	R1125T
817.159	2.383	897339	WORD	n/a	wordpools/wordpool_EN.txt	SOCK	11	7	[0, 0, 0]	n/a	FR1	2	R1125T
819.542	1.617	899722	WORD	n/a	wordpools/wordpool_EN.txt	BATH	12	7	[0, 0, 0]	n/a	FR1	2	R1125T
821.159	0.001	901339	DISTRACT_START	n/a	n/a	n/a	-999	7	[0, 0, 0]	n/a	FR1	2	R1125T
821.16	0.016	901340	START	n/a	n/a	n/a	-999	7	[-999, -999, -999]	n/a	FR1	2	R1125T
821.176	10.335	901356	PROB	10.335	n/a	n/a	-999	7	[5, 5, 7]	17	FR1	2	R1125T
831.511	7.785	911690	PROB	7.785	n/a	n/a	-999	7	[5, 7, 2]	14	FR1	2	R1125T
839.296	10.39	919475	PROB	10.39	n/a	n/a	-999	7	[2, 6, 5]	13	FR1	2	R1125T
849.686	0.011	929865	STOP	n/a	n/a	n/a	-999	7	[-999, -999, -999]	n/a	FR1	2	R1125T
849.697	1.034	929876	DISTRACT_END	n/a	n/a	n/a	-999	7	[0, 0, 0]	n/a	FR1	2	R1125T
850.731	3.355	930909	REC_START	n/a	n/a	n/a	-999	7	[0, 0, 0]	n/a	FR1	2	R1125T
854.086	2.262	934264	REC_WORD	2.262	n/a	SHRIMP	-999	7	[0, 0, 0]	n/a	FR1	2	R1125T
856.348	7.043	936526	REC_WORD	7.043	n/a	FOOD	-999	7	[0, 0, 0]	n/a	FR1	2	R1125T
863.391	11.823	943569	REC_WORD	11.823	n/a	SOCK	-999	7	[0, 0, 0]	n/a	FR1	2	R1125T
875.214	3.427	955391	REC_WORD	3.427	n/a	CLOTH	-999	7	[0, 0, 0]	n/a	FR1	2	R1125T
878.641	2.1	958818	REC_WORD	2.1	n/a	WASH	-999	7	[0, 0, 0]	n/a	FR1	2	R1125T
880.741	4.079	960918	REC_END	n/a	n/a	n/a	-999	7	[0, 0, 0]	n/a	FR1	2	R1125T
884.82	0.0	964997	TRIAL	n/a	n/a	n/a	-999	8	[0, 0, 0]	n/a	FR1	2	R1125T
884.82	10.428	964997	COUNTDOWN_START	n/a	n/a	n/a	-999	8	[0, 0, 0]	n/a	FR1	2	R1125T
895.248	0.008	975424	COUNTDOWN_END	n/a	n/a	n/a	-999	8	[0, 0, 0]	n/a	FR1	2	R1125T
895.256	2.55	975432	ORIENT	n/a	n/a	n/a	-999	8	[0, 0, 0]	n/a	FR1	2	R1125T
897.806	2.384	977982	WORD	n/a	wordpools/wordpool_EN.txt	CAT	1	8	[0, 0, 0]	n/a	FR1	2	R1125T
900.19	2.5	980366	WORD	n/a	wordpools/wordpool_EN.txt	TANK	2	8	[0, 0, 0]	n/a	FR1	2	R1125T
902.69	2.435	982866	WORD	n/a	wordpools/wordpool_EN.txt	BOAT	3	8	[0, 0, 0]	n/a	FR1	2	R1125T
905.125	2.516	985301	WORD	n/a	wordpools/wordpool_EN.txt	SPARK	4	8	[0, 0, 0]	n/a	FR1	2	R1125T
907.641	2.551	987817	WORD	n/a	wordpools/wordpool_EN.txt	WORM	5	8	[0, 0, 0]	n/a	FR1	2	R1125T
910.192	2.466	990368	WORD	n/a	wordpools/wordpool_EN.txt	HOSE	6	8	[0, 0, 0]	n/a	FR1	2	R1125T
912.658	2.518	992833	WORD	n/a	wordpools/wordpool_EN.txt	TRASH	7	8	[0, 0, 0]	n/a	FR1	2	R1125T
915.176	2.401	995351	WORD	n/a	wordpools/wordpool_EN.txt	KITE	8	8	[0, 0, 0]	n/a	FR1	2	R1125T
917.577	2.534	997752	WORD	n/a	wordpools/wordpool_EN.txt	FISH	9	8	[0, 0, 0]	n/a	FR1	2	R1125T
920.111	2.599	1000286	WORD	n/a	wordpools/wordpool_EN.txt	WHEEL	10	8	[0, 0, 0]	n/a	FR1	2	R1125T
922.71	2.385	1002885	WORD	n/a	wordpools/wordpool_EN.txt	DOG	11	8	[0, 0, 0]	n/a	FR1	2	R1125T
925.095	1.616	1005270	WORD	n/a	wordpools/wordpool_EN.txt	LAND	12	8	[0, 0, 0]	n/a	FR1	2	R1125T
926.711	0.001	1006886	DISTRACT_START	n/a	n/a	n/a	-999	8	[0, 0, 0]	n/a	FR1	2	R1125T
926.712	0.016	1006887	START	n/a	n/a	n/a	-999	8	[-999, -999, -999]	n/a	FR1	2	R1125T
926.728	8.786	1006903	PROB	8.786	n/a	n/a	-999	8	[6, 7, 1]	14	FR1	2	R1125T
935.514	8.918	1015688	PROB	8.918	n/a	n/a	-999	8	[9, 9, 6]	24	FR1	2	R1125T
944.432	7.616	1024606	PROB	7.616	n/a	n/a	-999	8	[3, 6, 2]	11	FR1	2	R1125T
952.048	0.019	1032222	STOP	n/a	n/a	n/a	-999	8	[-999, -999, -999]	n/a	FR1	2	R1125T
952.067	1.117	1032241	DISTRACT_END	n/a	n/a	n/a	-999	8	[0, 0, 0]	n/a	FR1	2	R1125T
953.184	0.943	1033358	REC_START	n/a	n/a	n/a	-999	8	[0, 0, 0]	n/a	FR1	2	R1125T
954.127	3.874	1034300	REC_WORD	3.874	n/a	DOG	-999	8	[0, 0, 0]	n/a	FR1	2	R1125T
958.001	5.945	1038174	REC_WORD	5.945	n/a	TRAIN	-999	8	[0, 0, 0]	n/a	FR1	2	R1125T
963.946	8.39	1044119	REC_WORD	8.39	n/a	CAT	-999	8	[0, 0, 0]	n/a	FR1	2	R1125T
972.336	5.505	1052509	REC_WORD	5.505	n/a	HAIR	-999	8	[0, 0, 0]	n/a	FR1	2	R1125T
977.841	5.353	1058013	REC_WORD	5.353	n/a	BATH	-999	8	[0, 0, 0]	n/a	FR1	2	R1125T
983.194	2.679	1063366	REC_END	n/a	n/a	n/a	-999	8	[0, 0, 0]	n/a	FR1	2	R1125T
985.873	0.0	1066045	COUNTDOWN_START	n/a	n/a	n/a	-999	9	[0, 0, 0]	n/a	FR1	2	R1125T
985.873	10.428	1066045	TRIAL	n/a	n/a	n/a	-999	9	[0, 0, 0]	n/a	FR1	2	R1125T
996.301	0.007	1076472	COUNTDOWN_END	n/a	n/a	n/a	-999	9	[0, 0, 0]	n/a	FR1	2	R1125T
996.308	2.617	1076479	ORIENT	n/a	n/a	n/a	-999	9	[0, 0, 0]	n/a	FR1	2	R1125T
998.925	2.4	1079096	WORD	n/a	wordpools/wordpool_EN.txt	PASTE	1	9	[0, 0, 0]	n/a	FR1	2	R1125T
1001.325	2.483	1081496	WORD	n/a	wordpools/wordpool_EN.txt	PEAR	2	9	[0, 0, 0]	n/a	FR1	2	R1125T
1003.808	2.518	1083979	WORD	n/a	wordpools/wordpool_EN.txt	LEG	3	9	[0, 0, 0]	n/a	FR1	2	R1125T
1006.326	2.601	1086497	WORD	n/a	wordpools/wordpool_EN.txt	APE	4	9	[0, 0, 0]	n/a	FR1	2	R1125T
1008.927	2.567	1089098	WORD	n/a	wordpools/wordpool_EN.txt	CONE	5	9	[0, 0, 0]	n/a	FR1	2	R1125T
1011.494	2.484	1091665	WORD	n/a	wordpools/wordpool_EN.txt	SEED	6	9	[0, 0, 0]	n/a	FR1	2	R1125T
1013.978	2.484	1094149	WORD	n/a	wordpools/wordpool_EN.txt	CLOTH	7	9	[0, 0, 0]	n/a	FR1	2	R1125T
1016.462	2.567	1096632	WORD	n/a	wordpools/wordpool_EN.txt	LEAF	8	9	[0, 0, 0]	n/a	FR1	2	R1125T
1019.029	2.45	1099199	WORD	n/a	wordpools/wordpool_EN.txt	RAT	9	9	[0, 0, 0]	n/a	FR1	2	R1125T
1021.479	2.617	1101649	WORD	n/a	wordpools/wordpool_EN.txt	WING	10	9	[0, 0, 0]	n/a	FR1	2	R1125T
1024.096	2.451	1104266	WORD	n/a	wordpools/wordpool_EN.txt	CHIEF	11	9	[0, 0, 0]	n/a	FR1	2	R1125T
1026.547	1.617	1106717	WORD	n/a	wordpools/wordpool_EN.txt	PLANT	12	9	[0, 0, 0]	n/a	FR1	2	R1125T
1028.164	0.001	1108334	DISTRACT_START	n/a	n/a	n/a	-999	9	[0, 0, 0]	n/a	FR1	2	R1125T
1028.165	0.015	1108335	START	n/a	n/a	n/a	-999	9	[-999, -999, -999]	n/a	FR1	2	R1125T
1028.18	9.634	1108350	PROB	9.634	n/a	n/a	-999	9	[5, 4, 9]	18	FR1	2	R1125T
1037.814	13.193	1117983	PROB	13.193	n/a	n/a	-999	9	[6, 8, 7]	19	FR1	2	R1125T
1051.007	0.011	1131176	STOP	n/a	n/a	n/a	-999	9	[-999, -999, -999]	n/a	FR1	2	R1125T
1051.018	1.051	1131187	DISTRACT_END	n/a	n/a	n/a	-999	9	[0, 0, 0]	n/a	FR1	2	R1125T
1052.069	5.854	1132238	REC_START	n/a	n/a	n/a	-999	9	[0, 0, 0]	n/a	FR1	2	R1125T
1057.923	1.968	1138091	REC_WORD	1.968	n/a	CLOTH	-999	9	[0, 0, 0]	n/a	FR1	2	R1125T
1059.891	2.786	1140059	REC_WORD	2.786	n/a	BATH	-999	9	[0, 0, 0]	n/a	FR1	2	R1125T
1062.677	7.394	1142845	REC_WORD	7.394	n/a	LEAF	-999	9	[0, 0, 0]	n/a	FR1	2	R1125T
1070.071	12.009	1150239	REC_WORD	12.009	n/a	PEAR	-999	9	[0, 0, 0]	n/a	FR1	2	R1125T
1082.08	6.328	1162247	REC_END	n/a	n/a	n/a	-999	9	[0, 0, 0]	n/a	FR1	2	R1125T
1088.408	0.0	1168575	TRIAL	n/a	n/a	n/a	-999	10	[0, 0, 0]	n/a	FR1	2	R1125T
1088.408	10.428	1168575	COUNTDOWN_START	n/a	n/a	n/a	-999	10	[0, 0, 0]	n/a	FR1	2	R1125T
1098.836	0.007	1179002	COUNTDOWN_END	n/a	n/a	n/a	-999	10	[0, 0, 0]	n/a	FR1	2	R1125T
1098.843	2.517	1179009	ORIENT	n/a	n/a	n/a	-999	10	[0, 0, 0]	n/a	FR1	2	R1125T
1101.36	2.45	1181526	WORD	n/a	wordpools/wordpool_EN.txt	SOAP	1	10	[0, 0, 0]	n/a	FR1	2	R1125T
1103.81	2.385	1183976	WORD	n/a	wordpools/wordpool_EN.txt	GRAPE	2	10	[0, 0, 0]	n/a	FR1	2	R1125T
1106.195	2.532	1186361	WORD	n/a	wordpools/wordpool_EN.txt	FLUTE	3	10	[0, 0, 0]	n/a	FR1	2	R1125T
1108.727	2.568	1188893	WORD	n/a	wordpools/wordpool_EN.txt	BENCH	4	10	[0, 0, 0]	n/a	FR1	2	R1125T
1111.295	2.45	1191461	WORD	n/a	wordpools/wordpool_EN.txt	FAN	5	10	[0, 0, 0]	n/a	FR1	2	R1125T
1113.745	2.435	1193911	WORD	n/a	wordpools/wordpool_EN.txt	JUICE	6	10	[0, 0, 0]	n/a	FR1	2	R1125T
1116.18	2.417	1196346	WORD	n/a	wordpools/wordpool_EN.txt	FRUIT	7	10	[0, 0, 0]	n/a	FR1	2	R1125T
1118.597	2.584	1198763	WORD	n/a	wordpools/wordpool_EN.txt	COUCH	8	10	[0, 0, 0]	n/a	FR1	2	R1125T
1121.181	2.566	1201346	WORD	n/a	wordpools/wordpool_EN.txt	GLASS	9	10	[0, 0, 0]	n/a	FR1	2	R1125T
1123.747	2.385	1203912	WORD	n/a	wordpools/wordpool_EN.txt	BOWL	10	10	[0, 0, 0]	n/a	FR1	2	R1125T
1126.132	2.566	1206297	WORD	n/a	wordpools/wordpool_EN.txt	BOOT	11	10	[0, 0, 0]	n/a	FR1	2	R1125T
1128.698	1.618	1208863	WORD	n/a	wordpools/wordpool_EN.txt	CANE	12	10	[0, 0, 0]	n/a	FR1	2	R1125T
1130.316	0.001	1210481	DISTRACT_START	n/a	n/a	n/a	-999	10	[0, 0, 0]	n/a	FR1	2	R1125T
1130.317	0.015	1210482	START	n/a	n/a	n/a	-999	10	[-999, -999, -999]	n/a	FR1	2	R1125T
1130.332	6.3	1210497	PROB	6.3	n/a	n/a	-999	10	[5, 5, 8]	18	FR1	2	R1125T
1136.632	8.135	1216797	PROB	8.135	n/a	n/a	-999	10	[6, 9, 4]	19	FR1	2	R1125T
1144.767	8.12	1224931	PROB	8.12	n/a	n/a	-999	10	[1, 3, 6]	10	FR1	2	R1125T
1152.887	0.016	1233051	STOP	n/a	n/a	n/a	-999	10	[-999, -999, -999]	n/a	FR1	2	R1125T
1152.903	1.218	1233067	DISTRACT_END	n/a	n/a	n/a	-999	10	[0, 0, 0]	n/a	FR1	2	R1125T
1154.121	0.743	1234285	REC_START	n/a	n/a	n/a	-999	10	[0, 0, 0]	n/a	FR1	2	R1125T
1154.864	3.266	1235028	REC_WORD	3.266	n/a	FAN	-999	10	[0, 0, 0]	n/a	FR1	2	R1125T
1158.13	2.424	1238294	REC_WORD	2.424	n/a	FLUTE	-999	10	[0, 0, 0]	n/a	FR1	2	R1125T
1160.554	17.734	1240717	REC_WORD	17.734	n/a	JUICE	-999	10	[0, 0, 0]	n/a	FR1	2	R1125T
1178.288	5.843	1258451	REC_WORD	5.843	n/a	FAN	-999	10	[0, 0, 0]	n/a	FR1	2	R1125T
1184.131	41.735	1264293	REC_END	n/a	n/a	n/a	-999	10	[0, 0, 0]	n/a	FR1	2	R1125T
1225.866	0.0	1306026	TRIAL	n/a	n/a	n/a	-999	11	[0, 0, 0]	n/a	FR1	2	R1125T
1225.866	0.0	1306026	COUNTDOWN_START	n/a	n/a	n/a	-999	11	[0, 0, 0]	n/a	FR1	2	R1125T
