onset	duration	sample	trial_type	response_time	stim_file	item_name	serialpos	list	test	answer	experiment	session	subject
0.0	45.895	39075	SESS_START	n/a	n/a	n/a	-999	-999	[0, 0, 0]	n/a	FR1	0	R1177M
45.895	10.428	62021	COUNTDOWN_START	n/a	n/a	n/a	-999	-999	[0, 0, 0]	n/a	FR1	0	R1177M
56.323	3.641	67235	COUNTDOWN_END	n/a	n/a	n/a	-999	-999	[0, 0, 0]	n/a	FR1	0	R1177M
59.964	2.601	69055	PRACTICE_WORD	n/a	n/a	COTTON	1	-1	[0, 0, 0]	n/a	FR1	0	R1177M
62.565	2.534	70355	PRACTICE_WORD	n/a	n/a	RHINO	2	-1	[0, 0, 0]	n/a	FR1	0	R1177M
65.099	2.582	71622	PRACTICE_WORD	n/a	n/a	WAGON	3	-1	[0, 0, 0]	n/a	FR1	0	R1177M
67.681	2.435	72913	PRACTICE_WORD	n/a	n/a	CAMEL	4	-1	[0, 0, 0]	n/a	FR1	0	R1177M
70.116	2.467	74131	PRACTICE_WORD	n/a	n/a	BEAM	5	-1	[0, 0, 0]	n/a	FR1	0	R1177M
72.583	2.434	75364	PRACTICE_WORD	n/a	n/a	IRON	6	-1	[0, 0, 0]	n/a	FR1	0	R1177M
75.017	2.584	76581	PRACTICE_WORD	n/a	n/a	FLOOD	7	-1	[0, 0, 0]	n/a	FR1	0	R1177M
77.601	2.484	77873	PRACTICE_WORD	n/a	n/a	CHEST	8	-1	[0, 0, 0]	n/a	FR1	0	R1177M
80.085	2.599	79115	PRACTICE_WORD	n/a	n/a	ATTIC	9	-1	[0, 0, 0]	n/a	FR1	0	R1177M
82.684	2.602	80414	PRACTICE_WORD	n/a	n/a	TONGUE	10	-1	[0, 0, 0]	n/a	FR1	0	R1177M
85.286	2.499	81715	PRACTICE_WORD	n/a	n/a	RING	11	-1	[0, 0, 0]	n/a	FR1	0	R1177M
87.785	1.601	82964	PRACTICE_WORD	n/a	n/a	WATCH	12	-1	[0, 0, 0]	n/a	FR1	0	R1177M
89.386	0.001	83765	PRACTICE_DISTRACT_START	n/a	n/a	n/a	-999	-1	[0, 0, 0]	n/a	FR1	0	R1177M
89.387	0.016	83765	START	n/a	n/a	n/a	-999	-1	[-999, -999, -999]	n/a	FR1	0	R1177M
89.403	28.891	83773	PROB	28.891	n/a	n/a	-999	-1	[6, 9, 7]	22	FR1	0	R1177M
118.294	0.015	98218	STOP	n/a	n/a	n/a	-999	-1	[-999, -999, -999]	n/a	FR1	0	R1177M
118.309	0.534	98225	PRACTICE_DISTRACT_END	n/a	n/a	n/a	-999	-1	[0, 0, 0]	n/a	FR1	0	R1177M
118.843	30.527	98492	PRACTICE_REC_START	n/a	n/a	n/a	-999	-1	[0, 0, 0]	n/a	FR1	0	R1177M
149.37	56.371	113754	PRACTICE_REC_END	n/a	n/a	n/a	-999	-1	[0, 0, 0]	n/a	FR1	0	R1177M
205.741	0.001	141938	COUNTDOWN_START	n/a	n/a	n/a	-999	1	[0, 0, 0]	n/a	FR1	0	R1177M
205.742	10.427	141938	TRIAL	n/a	n/a	n/a	-999	1	[0, 0, 0]	n/a	FR1	0	R1177M
216.169	0.009	147151	COUNTDOWN_END	n/a	n/a	n/a	-999	1	[0, 0, 0]	n/a	FR1	0	R1177M
216.178	2.549	147156	ORIENT	n/a	n/a	n/a	-999	1	[0, 0, 0]	n/a	FR1	0	R1177M
218.727	2.418	148430	WORD	n/a	wordpools/wordpool_EN.txt	GOLD	1	1	[0, 0, 0]	n/a	FR1	0	R1177M
221.145	2.417	149639	WORD	n/a	wordpools/wordpool_EN.txt	SHEEP	2	1	[0, 0, 0]	n/a	FR1	0	R1177M
223.562	2.401	150847	WORD	n/a	wordpools/wordpool_EN.txt	CAPE	3	1	[0, 0, 0]	n/a	FR1	0	R1177M
225.963	2.567	152048	WORD	n/a	wordpools/wordpool_EN.txt	MOOSE	4	1	[0, 0, 0]	n/a	FR1	0	R1177M
228.53	2.617	153331	WORD	n/a	wordpools/wordpool_EN.txt	TOOTH	5	1	[0, 0, 0]	n/a	FR1	0	R1177M
231.147	2.516	154640	WORD	n/a	wordpools/wordpool_EN.txt	TEETH	6	1	[0, 0, 0]	n/a	FR1	0	R1177M
233.663	2.469	155897	WORD	n/a	wordpools/wordpool_EN.txt	SAIL	7	1	[0, 0, 0]	n/a	FR1	0	R1177M
236.132	2.417	157132	WORD	n/a	wordpools/wordpool_EN.txt	FOX	8	1	[0, 0, 0]	n/a	FR1	0	R1177M
238.549	2.434	158340	WORD	n/a	wordpools/wordpool_EN.txt	LEAF	9	1	[0, 0, 0]	n/a	FR1	0	R1177M
240.983	2.483	159557	WORD	n/a	wordpools/wordpool_EN.txt	ANT	10	1	[0, 0, 0]	n/a	FR1	0	R1177M
243.466	2.568	160799	WORD	n/a	wordpools/wordpool_EN.txt	STEM	11	1	[0, 0, 0]	n/a	FR1	0	R1177M
246.034	1.615	162082	WORD	n/a	wordpools/wordpool_EN.txt	MOUSE	12	1	[0, 0, 0]	n/a	FR1	0	R1177M
247.649	0.001	162890	DISTRACT_START	n/a	n/a	n/a	-999	1	[0, 0, 0]	n/a	FR1	0	R1177M
247.65	0.016	162890	START	n/a	n/a	n/a	-999	1	[-999, -999, -999]	n/a	FR1	0	R1177M
247.666	18.388	162898	PROB	18.388	n/a	n/a	-999	1	[7, 5, 7]	19	FR1	0	R1177M
266.054	9.735	172092	PROB	9.735	n/a	n/a	-999	1	[9, 5, 7]	19	FR1	0	R1177M
275.789	0.016	176959	STOP	n/a	n/a	n/a	-999	1	[-999, -999, -999]	n/a	FR1	0	R1177M
275.805	1.169	176967	DISTRACT_END	n/a	n/a	n/a	-999	1	[0, 0, 0]	n/a	FR1	0	R1177M
276.974	15.857	177551	REC_START	n/a	n/a	n/a	-999	1	[0, 0, 0]	n/a	FR1	0	R1177M
292.831	0.881	185479	REC_WORD_VV	0.881	n/a	<>	-999	1	[0, 0, 0]	n/a	FR1	0	R1177M
293.712	1.298	185920	REC_WORD_VV	1.298	n/a	<>	-999	1	[0, 0, 0]	n/a	FR1	0	R1177M
295.01	0.757	186568	REC_WORD	0.757	n/a	GOLD	-999	1	[0, 0, 0]	n/a	FR1	0	R1177M
295.767	1.644	186947	REC_WORD	1.644	n/a	SHEEP	-999	1	[0, 0, 0]	n/a	FR1	0	R1177M
297.411	4.711	187769	REC_WORD	4.711	n/a	ANT	-999	1	[0, 0, 0]	n/a	FR1	0	R1177M
302.122	4.862	190124	REC_WORD	4.862	n/a	STEM	-999	1	[0, 0, 0]	n/a	FR1	0	R1177M
306.984	35.617	192555	REC_END	n/a	n/a	n/a	-999	1	[0, 0, 0]	n/a	FR1	0	R1177M
342.601	0.0	210362	TRIAL	n/a	n/a	n/a	-999	2	[0, 0, 0]	n/a	FR1	0	R1177M
342.601	10.428	210362	COUNTDOWN_START	n/a	n/a	n/a	-999	2	[0, 0, 0]	n/a	FR1	0	R1177M
353.029	0.008	215576	COUNTDOWN_END	n/a	n/a	n/a	-999	2	[0, 0, 0]	n/a	FR1	0	R1177M
353.037	2.484	215580	ORIENT	n/a	n/a	n/a	-999	2	[0, 0, 0]	n/a	FR1	0	R1177M
355.521	2.601	216822	WORD	n/a	wordpools/wordpool_EN.txt	HOOK	1	2	[0, 0, 0]	n/a	FR1	0	R1177M
358.122	2.566	218122	WORD	n/a	wordpools/wordpool_EN.txt	SEAL	2	2	[0, 0, 0]	n/a	FR1	0	R1177M
360.688	2.485	219405	WORD	n/a	wordpools/wordpool_EN.txt	SHRIMP	3	2	[0, 0, 0]	n/a	FR1	0	R1177M
363.173	2.566	220647	WORD	n/a	wordpools/wordpool_EN.txt	CHAIR	4	2	[0, 0, 0]	n/a	FR1	0	R1177M
365.739	2.385	221930	WORD	n/a	wordpools/wordpool_EN.txt	GLOVE	5	2	[0, 0, 0]	n/a	FR1	0	R1177M
368.124	2.383	223123	WORD	n/a	wordpools/wordpool_EN.txt	GATE	6	2	[0, 0, 0]	n/a	FR1	0	R1177M
370.507	2.618	224314	WORD	n/a	wordpools/wordpool_EN.txt	PALM	7	2	[0, 0, 0]	n/a	FR1	0	R1177M
373.125	2.599	225623	WORD	n/a	wordpools/wordpool_EN.txt	HAT	8	2	[0, 0, 0]	n/a	FR1	0	R1177M
375.724	2.385	226922	WORD	n/a	wordpools/wordpool_EN.txt	MOUTH	9	2	[0, 0, 0]	n/a	FR1	0	R1177M
378.109	2.45	228115	WORD	n/a	wordpools/wordpool_EN.txt	THUMB	10	2	[0, 0, 0]	n/a	FR1	0	R1177M
380.559	2.618	229340	WORD	n/a	wordpools/wordpool_EN.txt	BATH	11	2	[0, 0, 0]	n/a	FR1	0	R1177M
383.177	1.616	230648	WORD	n/a	wordpools/wordpool_EN.txt	WORLD	12	2	[0, 0, 0]	n/a	FR1	0	R1177M
384.793	0.0	231456	DISTRACT_START	n/a	n/a	n/a	-999	2	[0, 0, 0]	n/a	FR1	0	R1177M
384.793	0.016	231456	START	n/a	n/a	n/a	-999	2	[-999, -999, -999]	n/a	FR1	0	R1177M
384.809	35.996	231464	PROB	35.996	n/a	n/a	-999	2	[4, 7, 8]	19	FR1	0	R1177M
420.805	0.011	249461	STOP	n/a	n/a	n/a	-999	2	[-999, -999, -999]	n/a	FR1	0	R1177M
420.816	1.119	249466	DISTRACT_END	n/a	n/a	n/a	-999	2	[0, 0, 0]	n/a	FR1	0	R1177M
421.935	4.457	250026	REC_START	n/a	n/a	n/a	-999	2	[0, 0, 0]	n/a	FR1	0	R1177M
426.392	3.282	252254	REC_WORD	3.282	n/a	GATE	-999	2	[0, 0, 0]	n/a	FR1	0	R1177M
429.674	4.45	253895	REC_WORD	4.45	n/a	HOOK	-999	2	[0, 0, 0]	n/a	FR1	0	R1177M
434.124	17.821	256120	REC_WORD	17.821	n/a	SHRIMP	-999	2	[0, 0, 0]	n/a	FR1	0	R1177M
451.945	17.381	265030	REC_END	n/a	n/a	n/a	-999	2	[0, 0, 0]	n/a	FR1	0	R1177M
469.326	0.001	273719	COUNTDOWN_START	n/a	n/a	n/a	-999	3	[0, 0, 0]	n/a	FR1	0	R1177M
469.327	10.427	273720	TRIAL	n/a	n/a	n/a	-999	3	[0, 0, 0]	n/a	FR1	0	R1177M
479.754	0.007	278933	COUNTDOWN_END	n/a	n/a	n/a	-999	3	[0, 0, 0]	n/a	FR1	0	R1177M
479.761	2.485	278937	ORIENT	n/a	n/a	n/a	-999	3	[0, 0, 0]	n/a	FR1	0	R1177M
482.246	2.532	280179	WORD	n/a	wordpools/wordpool_EN.txt	DUCK	1	3	[0, 0, 0]	n/a	FR1	0	R1177M
484.778	2.452	281445	WORD	n/a	wordpools/wordpool_EN.txt	MUG	2	3	[0, 0, 0]	n/a	FR1	0	R1177M
487.23	2.433	282671	WORD	n/a	wordpools/wordpool_EN.txt	PIPE	3	3	[0, 0, 0]	n/a	FR1	0	R1177M
489.663	2.385	283887	WORD	n/a	wordpools/wordpool_EN.txt	APE	4	3	[0, 0, 0]	n/a	FR1	0	R1177M
492.048	2.45	285080	WORD	n/a	wordpools/wordpool_EN.txt	WORM	5	3	[0, 0, 0]	n/a	FR1	0	R1177M
494.498	2.534	286304	WORD	n/a	wordpools/wordpool_EN.txt	PLATE	6	3	[0, 0, 0]	n/a	FR1	0	R1177M
497.032	2.567	287571	WORD	n/a	wordpools/wordpool_EN.txt	WEB	7	3	[0, 0, 0]	n/a	FR1	0	R1177M
499.599	2.584	288855	WORD	n/a	wordpools/wordpool_EN.txt	DEER	8	3	[0, 0, 0]	n/a	FR1	0	R1177M
502.183	2.483	290147	WORD	n/a	wordpools/wordpool_EN.txt	BEAN	9	3	[0, 0, 0]	n/a	FR1	0	R1177M
504.666	2.384	291388	WORD	n/a	wordpools/wordpool_EN.txt	MOTH	10	3	[0, 0, 0]	n/a	FR1	0	R1177M
507.05	2.484	292580	WORD	n/a	wordpools/wordpool_EN.txt	SEED	11	3	[0, 0, 0]	n/a	FR1	0	R1177M
509.534	1.617	293822	WORD	n/a	wordpools/wordpool_EN.txt	MAT	12	3	[0, 0, 0]	n/a	FR1	0	R1177M
511.151	0.001	294630	DISTRACT_START	n/a	n/a	n/a	-999	3	[0, 0, 0]	n/a	FR1	0	R1177M
511.152	0.016	294631	START	n/a	n/a	n/a	-999	3	[-999, -999, -999]	n/a	FR1	0	R1177M
511.168	17.353	294639	PROB	17.353	n/a	n/a	-999	3	[9, 3, 5]	17	FR1	0	R1177M
528.521	24.005	303315	PROB	24.005	n/a	n/a	-999	3	[5, 7, 1]	15	FR1	0	R1177M
552.526	0.016	315316	STOP	n/a	n/a	n/a	-999	3	[-999, -999, -999]	n/a	FR1	0	R1177M
552.542	1.117	315324	DISTRACT_END	n/a	n/a	n/a	-999	3	[0, 0, 0]	n/a	FR1	0	R1177M
553.659	5.016	315883	REC_START	n/a	n/a	n/a	-999	3	[0, 0, 0]	n/a	FR1	0	R1177M
558.675	2.474	318390	REC_WORD	2.474	n/a	MUG	-999	3	[0, 0, 0]	n/a	FR1	0	R1177M
561.149	9.321	319627	REC_WORD_VV	9.321	n/a	<>	-999	3	[0, 0, 0]	n/a	FR1	0	R1177M
570.47	4.092	324287	REC_WORD	4.092	n/a	APE	-999	3	[0, 0, 0]	n/a	FR1	0	R1177M
574.562	7.029	326333	REC_WORD	7.029	n/a	BEAN	-999	3	[0, 0, 0]	n/a	FR1	0	R1177M
581.591	2.078	329847	REC_WORD	2.078	n/a	MAT	-999	3	[0, 0, 0]	n/a	FR1	0	R1177M
583.669	271.981	330886	REC_END	n/a	n/a	n/a	-999	3	[0, 0, 0]	n/a	FR1	0	R1177M
855.65	0.0	466866	TRIAL	n/a	n/a	n/a	-999	4	[0, 0, 0]	n/a	FR1	0	R1177M
855.65	10.428	466866	COUNTDOWN_START	n/a	n/a	n/a	-999	4	[0, 0, 0]	n/a	FR1	0	R1177M
866.078	0.008	472079	COUNTDOWN_END	n/a	n/a	n/a	-999	4	[0, 0, 0]	n/a	FR1	0	R1177M
866.086	2.5	472083	ORIENT	n/a	n/a	n/a	-999	4	[0, 0, 0]	n/a	FR1	0	R1177M
868.586	2.384	473333	WORD	n/a	wordpools/wordpool_EN.txt	TENT	1	4	[0, 0, 0]	n/a	FR1	0	R1177M
870.97	2.434	474525	WORD	n/a	wordpools/wordpool_EN.txt	SEA	2	4	[0, 0, 0]	n/a	FR1	0	R1177M
873.404	2.6	475742	WORD	n/a	wordpools/wordpool_EN.txt	TOY	3	4	[0, 0, 0]	n/a	FR1	0	R1177M
876.004	2.551	477042	WORD	n/a	wordpools/wordpool_EN.txt	HORN	4	4	[0, 0, 0]	n/a	FR1	0	R1177M
878.555	2.417	478317	WORD	n/a	wordpools/wordpool_EN.txt	OAK	5	4	[0, 0, 0]	n/a	FR1	0	R1177M
880.972	2.451	479526	WORD	n/a	wordpools/wordpool_EN.txt	BEACH	6	4	[0, 0, 0]	n/a	FR1	0	R1177M
883.423	2.383	480751	WORD	n/a	wordpools/wordpool_EN.txt	ROOF	7	4	[0, 0, 0]	n/a	FR1	0	R1177M
885.806	2.434	481943	WORD	n/a	wordpools/wordpool_EN.txt	WAVE	8	4	[0, 0, 0]	n/a	FR1	0	R1177M
888.24	2.516	483159	WORD	n/a	wordpools/wordpool_EN.txt	BOAT	9	4	[0, 0, 0]	n/a	FR1	0	R1177M
890.756	2.419	484417	WORD	n/a	wordpools/wordpool_EN.txt	CAVE	10	4	[0, 0, 0]	n/a	FR1	0	R1177M
893.175	2.4	485627	WORD	n/a	wordpools/wordpool_EN.txt	SKY	11	4	[0, 0, 0]	n/a	FR1	0	R1177M
895.575	1.617	486827	WORD	n/a	wordpools/wordpool_EN.txt	BRUSH	12	4	[0, 0, 0]	n/a	FR1	0	R1177M
897.192	0.001	487635	DISTRACT_START	n/a	n/a	n/a	-999	4	[0, 0, 0]	n/a	FR1	0	R1177M
897.193	0.016	487636	START	n/a	n/a	n/a	-999	4	[-999, -999, -999]	n/a	FR1	0	R1177M
897.209	11.802	487644	PROB	11.802	n/a	n/a	-999	4	[2, 1, 5]	8	FR1	0	R1177M
909.011	13.634	493544	PROB	13.634	n/a	n/a	-999	4	[5, 4, 2]	11	FR1	0	R1177M
922.645	0.018	500361	STOP	n/a	n/a	n/a	-999	4	[-999, -999, -999]	n/a	FR1	0	R1177M
922.663	1.051	500370	DISTRACT_END	n/a	n/a	n/a	-999	4	[0, 0, 0]	n/a	FR1	0	R1177M
923.714	11.295	500895	REC_START	n/a	n/a	n/a	-999	4	[0, 0, 0]	n/a	FR1	0	R1177M
935.009	13.885	506542	REC_WORD	13.885	n/a	DUCK	-999	4	[0, 0, 0]	n/a	FR1	0	R1177M
948.894	0.823	513484	REC_WORD	0.823	n/a	TOY	-999	4	[0, 0, 0]	n/a	FR1	0	R1177M
949.717	4.005	513896	REC_WORD	4.005	n/a	TENT	-999	4	[0, 0, 0]	n/a	FR1	0	R1177M
953.722	56.375	515898	REC_END	n/a	n/a	n/a	-999	4	[0, 0, 0]	n/a	FR1	0	R1177M
1010.097	0.0	544083	TRIAL	n/a	n/a	n/a	-999	5	[0, 0, 0]	n/a	FR1	0	R1177M
1010.097	10.428	544083	COUNTDOWN_START	n/a	n/a	n/a	-999	5	[0, 0, 0]	n/a	FR1	0	R1177M
1020.525	0.007	549297	COUNTDOWN_END	n/a	n/a	n/a	-999	5	[0, 0, 0]	n/a	FR1	0	R1177M
1020.532	2.584	549300	ORIENT	n/a	n/a	n/a	-999	5	[0, 0, 0]	n/a	FR1	0	R1177M
1023.116	2.401	550592	WORD	n/a	wordpools/wordpool_EN.txt	CORN	1	5	[0, 0, 0]	n/a	FR1	0	R1177M
1025.517	2.484	551792	WORD	n/a	wordpools/wordpool_EN.txt	STRAW	2	5	[0, 0, 0]	n/a	FR1	0	R1177M
1028.001	2.5	553034	WORD	n/a	wordpools/wordpool_EN.txt	STEAK	3	5	[0, 0, 0]	n/a	FR1	0	R1177M
1030.501	2.4	554284	WORD	n/a	wordpools/wordpool_EN.txt	STOVE	4	5	[0, 0, 0]	n/a	FR1	0	R1177M
1032.901	2.484	555484	WORD	n/a	wordpools/wordpool_EN.txt	COW	5	5	[0, 0, 0]	n/a	FR1	0	R1177M
1035.385	2.601	556726	WORD	n/a	wordpools/wordpool_EN.txt	PANTS	6	5	[0, 0, 0]	n/a	FR1	0	R1177M
1037.986	2.467	558026	WORD	n/a	wordpools/wordpool_EN.txt	BARN	7	5	[0, 0, 0]	n/a	FR1	0	R1177M
1040.453	2.55	559260	WORD	n/a	wordpools/wordpool_EN.txt	PURSE	8	5	[0, 0, 0]	n/a	FR1	0	R1177M
1043.003	2.468	560535	WORD	n/a	wordpools/wordpool_EN.txt	SEAT	9	5	[0, 0, 0]	n/a	FR1	0	R1177M
1045.471	2.483	561769	WORD	n/a	wordpools/wordpool_EN.txt	GUARD	10	5	[0, 0, 0]	n/a	FR1	0	R1177M
1047.954	2.501	563010	WORD	n/a	wordpools/wordpool_EN.txt	PEN	11	5	[0, 0, 0]	n/a	FR1	0	R1177M
1050.455	1.617	564260	WORD	n/a	wordpools/wordpool_EN.txt	RIB	12	5	[0, 0, 0]	n/a	FR1	0	R1177M
1052.072	0.001	565069	DISTRACT_START	n/a	n/a	n/a	-999	5	[0, 0, 0]	n/a	FR1	0	R1177M
1052.073	0.015	565069	START	n/a	n/a	n/a	-999	5	[-999, -999, -999]	n/a	FR1	0	R1177M
1052.088	9.786	565077	PROB	9.786	n/a	n/a	-999	5	[2, 7, 7]	16	FR1	0	R1177M
1061.874	13.34	569969	PROB	13.34	n/a	n/a	-999	5	[6, 1, 5]	12	FR1	0	R1177M
1075.214	0.012	576639	STOP	n/a	n/a	n/a	-999	5	[-999, -999, -999]	n/a	FR1	0	R1177M
1075.226	1.168	576645	DISTRACT_END	n/a	n/a	n/a	-999	5	[0, 0, 0]	n/a	FR1	0	R1177M
1076.394	3.391	577229	REC_START	n/a	n/a	n/a	-999	5	[0, 0, 0]	n/a	FR1	0	R1177M
1079.785	1.085	578924	REC_WORD	1.085	n/a	CORN	-999	5	[0, 0, 0]	n/a	FR1	0	R1177M
1080.87	1.499	579467	REC_WORD	1.499	n/a	STRAW	-999	5	[0, 0, 0]	n/a	FR1	0	R1177M
1082.369	1.558	580216	REC_WORD	1.558	n/a	STOVE	-999	5	[0, 0, 0]	n/a	FR1	0	R1177M
1083.927	3.648	580995	REC_WORD	3.648	n/a	STEAK	-999	5	[0, 0, 0]	n/a	FR1	0	R1177M
1087.575	18.829	582819	REC_WORD	18.829	n/a	GUARD	-999	5	[0, 0, 0]	n/a	FR1	0	R1177M
1106.404	19.449	592233	REC_END	n/a	n/a	n/a	-999	5	[0, 0, 0]	n/a	FR1	0	R1177M
1125.853	0.0	601956	TRIAL	n/a	n/a	n/a	-999	6	[0, 0, 0]	n/a	FR1	0	R1177M
1125.853	10.428	601956	COUNTDOWN_START	n/a	n/a	n/a	-999	6	[0, 0, 0]	n/a	FR1	0	R1177M
1136.281	0.007	607170	COUNTDOWN_END	n/a	n/a	n/a	-999	6	[0, 0, 0]	n/a	FR1	0	R1177M
1136.288	2.449	607173	ORIENT	n/a	n/a	n/a	-999	6	[0, 0, 0]	n/a	FR1	0	R1177M
1138.737	2.519	608398	WORD	n/a	wordpools/wordpool_EN.txt	KEY	1	6	[0, 0, 0]	n/a	FR1	0	R1177M
1141.256	2.533	609657	WORD	n/a	wordpools/wordpool_EN.txt	SHIELD	2	6	[0, 0, 0]	n/a	FR1	0	R1177M
1143.789	2.551	610924	WORD	n/a	wordpools/wordpool_EN.txt	HOUSE	3	6	[0, 0, 0]	n/a	FR1	0	R1177M
1146.34	2.584	612199	WORD	n/a	wordpools/wordpool_EN.txt	CHALK	4	6	[0, 0, 0]	n/a	FR1	0	R1177M
1148.924	2.6	613491	WORD	n/a	wordpools/wordpool_EN.txt	WING	5	6	[0, 0, 0]	n/a	FR1	0	R1177M
1151.524	2.384	614791	WORD	n/a	wordpools/wordpool_EN.txt	STREET	6	6	[0, 0, 0]	n/a	FR1	0	R1177M
1153.908	2.451	615983	WORD	n/a	wordpools/wordpool_EN.txt	FORT	7	6	[0, 0, 0]	n/a	FR1	0	R1177M
1156.359	2.533	617208	WORD	n/a	wordpools/wordpool_EN.txt	DOLL	8	6	[0, 0, 0]	n/a	FR1	0	R1177M
1158.892	2.434	618475	WORD	n/a	wordpools/wordpool_EN.txt	DOCK	9	6	[0, 0, 0]	n/a	FR1	0	R1177M
1161.326	2.4	619691	WORD	n/a	wordpools/wordpool_EN.txt	MAP	10	6	[0, 0, 0]	n/a	FR1	0	R1177M
1163.726	2.501	620891	WORD	n/a	wordpools/wordpool_EN.txt	ELF	11	6	[0, 0, 0]	n/a	FR1	0	R1177M
1166.227	1.616	622142	WORD	n/a	wordpools/wordpool_EN.txt	SHOE	12	6	[0, 0, 0]	n/a	FR1	0	R1177M
1167.843	0.001	622950	DISTRACT_START	n/a	n/a	n/a	-999	6	[0, 0, 0]	n/a	FR1	0	R1177M
1167.844	0.017	622950	START	n/a	n/a	n/a	-999	6	[-999, -999, -999]	n/a	FR1	0	R1177M
1167.861	16.985	622959	PROB	16.985	n/a	n/a	-999	6	[6, 3, 7]	15	FR1	0	R1177M
1184.846	12.232	631450	PROB	12.232	n/a	n/a	-999	6	[6, 8, 8]	22	FR1	0	R1177M
1197.078	0.005	637566	STOP	n/a	n/a	n/a	-999	6	[-999, -999, -999]	n/a	FR1	0	R1177M
1197.083	1.117	637568	DISTRACT_END	n/a	n/a	n/a	-999	6	[0, 0, 0]	n/a	FR1	0	R1177M
1198.2	4.011	638127	REC_START	n/a	n/a	n/a	-999	6	[0, 0, 0]	n/a	FR1	0	R1177M
1202.211	3.915	640132	REC_WORD	3.915	n/a	DOCK	-999	6	[0, 0, 0]	n/a	FR1	0	R1177M
1206.126	1.638	642090	REC_WORD	1.638	n/a	ELF	-999	6	[0, 0, 0]	n/a	FR1	0	R1177M
1207.764	10.754	642909	REC_WORD	10.754	n/a	KEY	-999	6	[0, 0, 0]	n/a	FR1	0	R1177M
1218.518	9.693	648285	REC_WORD	9.693	n/a	MAP	-999	6	[0, 0, 0]	n/a	FR1	0	R1177M
1228.211	112.833	653131	REC_END	n/a	n/a	n/a	-999	6	[0, 0, 0]	n/a	FR1	0	R1177M
1341.044	0.0	709543	TRIAL	n/a	n/a	n/a	-999	7	[0, 0, 0]	n/a	FR1	0	R1177M
1341.044	10.428	709543	COUNTDOWN_START	n/a	n/a	n/a	-999	7	[0, 0, 0]	n/a	FR1	0	R1177M
1351.472	0.007	714757	COUNTDOWN_END	n/a	n/a	n/a	-999	7	[0, 0, 0]	n/a	FR1	0	R1177M
1351.479	2.618	714760	ORIENT	n/a	n/a	n/a	-999	7	[0, 0, 0]	n/a	FR1	0	R1177M
1354.097	2.566	716069	WORD	n/a	wordpools/wordpool_EN.txt	BOWL	1	7	[0, 0, 0]	n/a	FR1	0	R1177M
1356.663	2.418	717352	WORD	n/a	wordpools/wordpool_EN.txt	CART	2	7	[0, 0, 0]	n/a	FR1	0	R1177M
1359.081	2.633	718561	WORD	n/a	wordpools/wordpool_EN.txt	LOCK	3	7	[0, 0, 0]	n/a	FR1	0	R1177M
1361.714	2.551	719877	WORD	n/a	wordpools/wordpool_EN.txt	PEA	4	7	[0, 0, 0]	n/a	FR1	0	R1177M
1364.265	2.433	721153	WORD	n/a	wordpools/wordpool_EN.txt	BROOM	5	7	[0, 0, 0]	n/a	FR1	0	R1177M
1366.698	2.468	722369	WORD	n/a	wordpools/wordpool_EN.txt	FLOOR	6	7	[0, 0, 0]	n/a	FR1	0	R1177M
1369.166	2.434	723603	WORD	n/a	wordpools/wordpool_EN.txt	BENCH	7	7	[0, 0, 0]	n/a	FR1	0	R1177M
1371.6	2.4	724820	WORD	n/a	wordpools/wordpool_EN.txt	CHIN	8	7	[0, 0, 0]	n/a	FR1	0	R1177M
1374.0	2.584	726020	WORD	n/a	wordpools/wordpool_EN.txt	TEA	9	7	[0, 0, 0]	n/a	FR1	0	R1177M
1376.584	2.567	727312	WORD	n/a	wordpools/wordpool_EN.txt	SUIT	10	7	[0, 0, 0]	n/a	FR1	0	R1177M
1379.151	2.467	728595	WORD	n/a	wordpools/wordpool_EN.txt	BED	11	7	[0, 0, 0]	n/a	FR1	0	R1177M
1381.618	1.618	729829	WORD	n/a	wordpools/wordpool_EN.txt	POOL	12	7	[0, 0, 0]	n/a	FR1	0	R1177M
1383.236	0.0	730637	DISTRACT_START	n/a	n/a	n/a	-999	7	[0, 0, 0]	n/a	FR1	0	R1177M
1383.236	0.016	730637	START	n/a	n/a	n/a	-999	7	[-999, -999, -999]	n/a	FR1	0	R1177M
1383.252	15.486	730645	PROB	15.486	n/a	n/a	-999	7	[2, 9, 4]	14	FR1	0	R1177M
1398.738	20.484	738388	PROB	20.484	n/a	n/a	-999	7	[9, 3, 2]	12	FR1	0	R1177M
1419.222	0.004	748629	STOP	n/a	n/a	n/a	-999	7	[-999, -999, -999]	n/a	FR1	0	R1177M
1419.226	1.101	748631	DISTRACT_END	n/a	n/a	n/a	-999	7	[0, 0, 0]	n/a	FR1	0	R1177M
1420.327	3.879	749181	REC_START	n/a	n/a	n/a	-999	7	[0, 0, 0]	n/a	FR1	0	R1177M
1424.206	1.181	751121	REC_WORD	1.181	n/a	POOL	-999	7	[0, 0, 0]	n/a	FR1	0	R1177M
1425.387	24.95	751711	REC_WORD	24.95	n/a	BED	-999	7	[0, 0, 0]	n/a	FR1	0	R1177M
1450.337	6.846	764185	REC_END	n/a	n/a	n/a	-999	7	[0, 0, 0]	n/a	FR1	0	R1177M
1457.183	0.0	767608	TRIAL	n/a	n/a	n/a	-999	8	[0, 0, 0]	n/a	FR1	0	R1177M
1457.183	10.428	767608	COUNTDOWN_START	n/a	n/a	n/a	-999	8	[0, 0, 0]	n/a	FR1	0	R1177M
1467.611	0.006	772822	COUNTDOWN_END	n/a	n/a	n/a	-999	8	[0, 0, 0]	n/a	FR1	0	R1177M
1467.617	2.535	772825	ORIENT	n/a	n/a	n/a	-999	8	[0, 0, 0]	n/a	FR1	0	R1177M
1470.152	2.401	774092	WORD	n/a	wordpools/wordpool_EN.txt	BOOK	1	8	[0, 0, 0]	n/a	FR1	0	R1177M
1472.553	2.434	775292	WORD	n/a	wordpools/wordpool_EN.txt	WHEEL	2	8	[0, 0, 0]	n/a	FR1	0	R1177M
1474.987	2.417	776509	WORD	n/a	wordpools/wordpool_EN.txt	CLOCK	3	8	[0, 0, 0]	n/a	FR1	0	R1177M
1477.404	2.432	777718	WORD	n/a	wordpools/wordpool_EN.txt	TOOL	4	8	[0, 0, 0]	n/a	FR1	0	R1177M
1479.836	2.519	778934	WORD	n/a	wordpools/wordpool_EN.txt	MOLE	5	8	[0, 0, 0]	n/a	FR1	0	R1177M
1482.355	2.432	780193	WORD	n/a	wordpools/wordpool_EN.txt	RAT	6	8	[0, 0, 0]	n/a	FR1	0	R1177M
1484.787	2.519	781409	WORD	n/a	wordpools/wordpool_EN.txt	FUDGE	7	8	[0, 0, 0]	n/a	FR1	0	R1177M
1487.306	2.532	782668	WORD	n/a	wordpools/wordpool_EN.txt	GLASS	8	8	[0, 0, 0]	n/a	FR1	0	R1177M
1489.838	2.602	783934	WORD	n/a	wordpools/wordpool_EN.txt	CLOWN	9	8	[0, 0, 0]	n/a	FR1	0	R1177M
1492.44	2.467	785235	WORD	n/a	wordpools/wordpool_EN.txt	LAMP	10	8	[0, 0, 0]	n/a	FR1	0	R1177M
1494.907	2.567	786468	WORD	n/a	wordpools/wordpool_EN.txt	JEEP	11	8	[0, 0, 0]	n/a	FR1	0	R1177M
1497.474	1.617	787752	WORD	n/a	wordpools/wordpool_EN.txt	TRAY	12	8	[0, 0, 0]	n/a	FR1	0	R1177M
1499.091	0.001	788560	DISTRACT_START	n/a	n/a	n/a	-999	8	[0, 0, 0]	n/a	FR1	0	R1177M
1499.092	0.016	788561	START	n/a	n/a	n/a	-999	8	[-999, -999, -999]	n/a	FR1	0	R1177M
1499.108	11.684	788569	PROB	11.684	n/a	n/a	-999	8	[3, 1, 6]	7	FR1	0	R1177M
1510.792	19.366	794410	PROB	19.366	n/a	n/a	-999	8	[7, 9, 3]	17	FR1	0	R1177M
1530.158	0.006	804093	STOP	n/a	n/a	n/a	-999	8	[-999, -999, -999]	n/a	FR1	0	R1177M
1530.164	1.085	804096	DISTRACT_END	n/a	n/a	n/a	-999	8	[0, 0, 0]	n/a	FR1	0	R1177M
1531.249	5.161	804638	REC_START	n/a	n/a	n/a	-999	8	[0, 0, 0]	n/a	FR1	0	R1177M
1536.41	2.587	807218	REC_WORD	2.587	n/a	FUDGE	-999	8	[0, 0, 0]	n/a	FR1	0	R1177M
1538.997	6.22	808512	REC_WORD	6.22	n/a	CLOCK	-999	8	[0, 0, 0]	n/a	FR1	0	R1177M
1545.217	16.041	811621	REC_WORD	16.041	n/a	BOOK	-999	8	[0, 0, 0]	n/a	FR1	0	R1177M
1561.258	12.563	819641	REC_END	n/a	n/a	n/a	-999	8	[0, 0, 0]	n/a	FR1	0	R1177M
1573.821	0.0	825922	COUNTDOWN_START	n/a	n/a	n/a	-999	9	[0, 0, 0]	n/a	FR1	0	R1177M
1573.821	10.428	825922	TRIAL	n/a	n/a	n/a	-999	9	[0, 0, 0]	n/a	FR1	0	R1177M
1584.249	0.009	831136	COUNTDOWN_END	n/a	n/a	n/a	-999	9	[0, 0, 0]	n/a	FR1	0	R1177M
1584.258	2.482	831140	ORIENT	n/a	n/a	n/a	-999	9	[0, 0, 0]	n/a	FR1	0	R1177M
1586.74	2.385	832381	WORD	n/a	wordpools/wordpool_EN.txt	SMOKE	1	9	[0, 0, 0]	n/a	FR1	0	R1177M
1589.125	2.483	833574	WORD	n/a	wordpools/wordpool_EN.txt	SIGN	2	9	[0, 0, 0]	n/a	FR1	0	R1177M
1591.608	2.468	834815	WORD	n/a	wordpools/wordpool_EN.txt	JAIL	3	9	[0, 0, 0]	n/a	FR1	0	R1177M
1594.076	2.616	836049	WORD	n/a	wordpools/wordpool_EN.txt	JUDGE	4	9	[0, 0, 0]	n/a	FR1	0	R1177M
1596.692	2.618	837357	WORD	n/a	wordpools/wordpool_EN.txt	TOAST	5	9	[0, 0, 0]	n/a	FR1	0	R1177M
1599.31	2.483	838666	WORD	n/a	wordpools/wordpool_EN.txt	SOUP	6	9	[0, 0, 0]	n/a	FR1	0	R1177M
1601.793	2.468	839907	WORD	n/a	wordpools/wordpool_EN.txt	DESK	7	9	[0, 0, 0]	n/a	FR1	0	R1177M
1604.261	2.601	841141	WORD	n/a	wordpools/wordpool_EN.txt	SLEEVE	8	9	[0, 0, 0]	n/a	FR1	0	R1177M
1606.862	2.467	842441	WORD	n/a	wordpools/wordpool_EN.txt	FACE	9	9	[0, 0, 0]	n/a	FR1	0	R1177M
1609.329	2.534	843675	WORD	n/a	wordpools/wordpool_EN.txt	PIN	10	9	[0, 0, 0]	n/a	FR1	0	R1177M
1611.863	2.617	844942	WORD	n/a	wordpools/wordpool_EN.txt	SMILE	11	9	[0, 0, 0]	n/a	FR1	0	R1177M
1614.48	1.617	846250	WORD	n/a	wordpools/wordpool_EN.txt	ARK	12	9	[0, 0, 0]	n/a	FR1	0	R1177M
1616.097	0.001	847059	DISTRACT_START	n/a	n/a	n/a	-999	9	[0, 0, 0]	n/a	FR1	0	R1177M
1616.098	0.016	847059	START	n/a	n/a	n/a	-999	9	[-999, -999, -999]	n/a	FR1	0	R1177M
1616.114	15.069	847067	PROB	15.069	n/a	n/a	-999	9	[6, 5, 6]	16	FR1	0	R1177M
1631.183	8.59	854601	PROB	8.59	n/a	n/a	-999	9	[2, 8, 4]	13	FR1	0	R1177M
1639.773	0.011	858896	STOP	n/a	n/a	n/a	-999	9	[-999, -999, -999]	n/a	FR1	0	R1177M
1639.784	1.152	858901	DISTRACT_END	n/a	n/a	n/a	-999	9	[0, 0, 0]	n/a	FR1	0	R1177M
1640.936	2.121	859477	REC_START	n/a	n/a	n/a	-999	9	[0, 0, 0]	n/a	FR1	0	R1177M
1643.057	10.419	860537	REC_WORD	10.419	n/a	SMILE	-999	9	[0, 0, 0]	n/a	FR1	0	R1177M
1653.476	6.179	865747	REC_WORD	6.179	n/a	PIN	-999	9	[0, 0, 0]	n/a	FR1	0	R1177M
1659.655	11.291	868836	REC_WORD	11.291	n/a	JUDGE	-999	9	[0, 0, 0]	n/a	FR1	0	R1177M
1670.946	9.28	874481	REC_END	n/a	n/a	n/a	-999	9	[0, 0, 0]	n/a	FR1	0	R1177M
1680.226	0.0	879120	TRIAL	n/a	n/a	n/a	-999	10	[0, 0, 0]	n/a	FR1	0	R1177M
1680.226	10.428	879120	COUNTDOWN_START	n/a	n/a	n/a	-999	10	[0, 0, 0]	n/a	FR1	0	R1177M
1690.654	0.006	884334	COUNTDOWN_END	n/a	n/a	n/a	-999	10	[0, 0, 0]	n/a	FR1	0	R1177M
1690.66	2.485	884337	ORIENT	n/a	n/a	n/a	-999	10	[0, 0, 0]	n/a	FR1	0	R1177M
1693.145	2.45	885579	WORD	n/a	wordpools/wordpool_EN.txt	MULE	1	10	[0, 0, 0]	n/a	FR1	0	R1177M
1695.595	2.468	886804	WORD	n/a	wordpools/wordpool_EN.txt	HORSE	2	10	[0, 0, 0]	n/a	FR1	0	R1177M
1698.063	2.616	888038	WORD	n/a	wordpools/wordpool_EN.txt	SLIME	3	10	[0, 0, 0]	n/a	FR1	0	R1177M
1700.679	2.568	889346	WORD	n/a	wordpools/wordpool_EN.txt	STAIR	4	10	[0, 0, 0]	n/a	FR1	0	R1177M
1703.247	2.583	890630	WORD	n/a	wordpools/wordpool_EN.txt	MILK	5	10	[0, 0, 0]	n/a	FR1	0	R1177M
1705.83	2.401	891921	WORD	n/a	wordpools/wordpool_EN.txt	CLOUD	6	10	[0, 0, 0]	n/a	FR1	0	R1177M
1708.231	2.6	893122	WORD	n/a	wordpools/wordpool_EN.txt	NAIL	7	10	[0, 0, 0]	n/a	FR1	0	R1177M
1710.831	2.601	894422	WORD	n/a	wordpools/wordpool_EN.txt	RAIN	8	10	[0, 0, 0]	n/a	FR1	0	R1177M
1713.432	2.501	895722	WORD	n/a	wordpools/wordpool_EN.txt	CUP	9	10	[0, 0, 0]	n/a	FR1	0	R1177M
1715.933	2.45	896973	WORD	n/a	wordpools/wordpool_EN.txt	RICE	10	10	[0, 0, 0]	n/a	FR1	0	R1177M
1718.383	2.416	898197	WORD	n/a	wordpools/wordpool_EN.txt	FOOT	11	10	[0, 0, 0]	n/a	FR1	0	R1177M
1720.799	1.602	899405	WORD	n/a	wordpools/wordpool_EN.txt	SALT	12	10	[0, 0, 0]	n/a	FR1	0	R1177M
1722.401	0.0	900206	DISTRACT_START	n/a	n/a	n/a	-999	10	[0, 0, 0]	n/a	FR1	0	R1177M
1722.401	0.016	900206	START	n/a	n/a	n/a	-999	10	[-999, -999, -999]	n/a	FR1	0	R1177M
1722.417	11.119	900214	PROB	11.119	n/a	n/a	-999	10	[1, 7, 2]	10	FR1	0	R1177M
1733.536	8.519	905773	PROB	8.519	n/a	n/a	-999	10	[5, 5, 5]	15	FR1	0	R1177M
1742.055	9.239	910032	PROB	9.239	n/a	n/a	-999	10	[4, 3, 5]	12	FR1	0	R1177M
1751.294	0.012	914652	STOP	n/a	n/a	n/a	-999	10	[-999, -999, -999]	n/a	FR1	0	R1177M
1751.306	1.201	914658	DISTRACT_END	n/a	n/a	n/a	-999	10	[0, 0, 0]	n/a	FR1	0	R1177M
1752.507	2.526	915258	REC_START	n/a	n/a	n/a	-999	10	[0, 0, 0]	n/a	FR1	0	R1177M
1755.033	14.2	916521	REC_WORD	14.2	n/a	MULE	-999	10	[0, 0, 0]	n/a	FR1	0	R1177M
1769.233	13.286	923620	REC_WORD	13.286	n/a	RICE	-999	10	[0, 0, 0]	n/a	FR1	0	R1177M
1782.519	13.429	930263	REC_END	n/a	n/a	n/a	-999	10	[0, 0, 0]	n/a	FR1	0	R1177M
1795.948	0.0	936977	TRIAL	n/a	n/a	n/a	-999	11	[0, 0, 0]	n/a	FR1	0	R1177M
1795.948	10.428	936977	COUNTDOWN_START	n/a	n/a	n/a	-999	11	[0, 0, 0]	n/a	FR1	0	R1177M
1806.376	0.008	942190	COUNTDOWN_END	n/a	n/a	n/a	-999	11	[0, 0, 0]	n/a	FR1	0	R1177M
1806.384	2.617	942194	ORIENT	n/a	n/a	n/a	-999	11	[0, 0, 0]	n/a	FR1	0	R1177M
1809.001	2.534	943503	WORD	n/a	wordpools/wordpool_EN.txt	SWAMP	1	11	[0, 0, 0]	n/a	FR1	0	R1177M
1811.535	2.383	944770	WORD	n/a	wordpools/wordpool_EN.txt	TRASH	2	11	[0, 0, 0]	n/a	FR1	0	R1177M
1813.918	2.401	945961	WORD	n/a	wordpools/wordpool_EN.txt	JAR	3	11	[0, 0, 0]	n/a	FR1	0	R1177M
1816.319	2.483	947161	WORD	n/a	wordpools/wordpool_EN.txt	DITCH	4	11	[0, 0, 0]	n/a	FR1	0	R1177M
1818.802	2.568	948403	WORD	n/a	wordpools/wordpool_EN.txt	ROSE	5	11	[0, 0, 0]	n/a	FR1	0	R1177M
1821.37	2.5	949687	WORD	n/a	wordpools/wordpool_EN.txt	PIT	6	11	[0, 0, 0]	n/a	FR1	0	R1177M
1823.87	2.417	950937	WORD	n/a	wordpools/wordpool_EN.txt	PARK	7	11	[0, 0, 0]	n/a	FR1	0	R1177M
1826.287	2.417	952145	WORD	n/a	wordpools/wordpool_EN.txt	FLUTE	8	11	[0, 0, 0]	n/a	FR1	0	R1177M
1828.704	2.634	953353	WORD	n/a	wordpools/wordpool_EN.txt	BREAD	9	11	[0, 0, 0]	n/a	FR1	0	R1177M
1831.338	2.45	954670	WORD	n/a	wordpools/wordpool_EN.txt	PIE	10	11	[0, 0, 0]	n/a	FR1	0	R1177M
1833.788	2.451	955895	WORD	n/a	wordpools/wordpool_EN.txt	CAKE	11	11	[0, 0, 0]	n/a	FR1	0	R1177M
1836.239	1.617	957121	WORD	n/a	wordpools/wordpool_EN.txt	FENCE	12	11	[0, 0, 0]	n/a	FR1	0	R1177M
1837.856	0.001	957929	DISTRACT_START	n/a	n/a	n/a	-999	11	[0, 0, 0]	n/a	FR1	0	R1177M
1837.857	0.016	957930	START	n/a	n/a	n/a	-999	11	[-999, -999, -999]	n/a	FR1	0	R1177M
1837.873	5.334	957938	PROB	5.334	n/a	n/a	-999	11	[6, 6, 1]	13	FR1	0	R1177M
1843.207	8.285	960604	PROB	8.285	n/a	n/a	-999	11	[1, 4, 8]	13	FR1	0	R1177M
1851.492	12.177	964747	PROB	12.177	n/a	n/a	-999	11	[5, 9, 4]	19	FR1	0	R1177M
1863.669	0.008	970835	STOP	n/a	n/a	n/a	-999	11	[-999, -999, -999]	n/a	FR1	0	R1177M
1863.677	1.117	970839	DISTRACT_END	n/a	n/a	n/a	-999	11	[0, 0, 0]	n/a	FR1	0	R1177M
1864.794	4.229	971397	REC_START	n/a	n/a	n/a	-999	11	[0, 0, 0]	n/a	FR1	0	R1177M
1869.023	25.785	973511	REC_WORD	25.785	n/a	ROSE	-999	11	[0, 0, 0]	n/a	FR1	0	R1177M
1894.808	22.297	986403	REC_END	n/a	n/a	n/a	-999	11	[0, 0, 0]	n/a	FR1	0	R1177M
1917.105	0.0	997550	TRIAL	n/a	n/a	n/a	-999	12	[0, 0, 0]	n/a	FR1	0	R1177M
1917.105	10.428	997550	COUNTDOWN_START	n/a	n/a	n/a	-999	12	[0, 0, 0]	n/a	FR1	0	R1177M
1927.533	0.007	1002764	COUNTDOWN_END	n/a	n/a	n/a	-999	12	[0, 0, 0]	n/a	FR1	0	R1177M
1927.54	2.567	1002767	ORIENT	n/a	n/a	n/a	-999	12	[0, 0, 0]	n/a	FR1	0	R1177M
1930.107	2.583	1004051	WORD	n/a	wordpools/wordpool_EN.txt	CAR	1	12	[0, 0, 0]	n/a	FR1	0	R1177M
1932.69	2.552	1005342	WORD	n/a	wordpools/wordpool_EN.txt	EGG	2	12	[0, 0, 0]	n/a	FR1	0	R1177M
1935.242	2.617	1006618	WORD	n/a	wordpools/wordpool_EN.txt	TOAD	3	12	[0, 0, 0]	n/a	FR1	0	R1177M
1937.859	2.55	1007927	WORD	n/a	wordpools/wordpool_EN.txt	HEART	4	12	[0, 0, 0]	n/a	FR1	0	R1177M
1940.409	2.617	1009201	WORD	n/a	wordpools/wordpool_EN.txt	ICE	5	12	[0, 0, 0]	n/a	FR1	0	R1177M
1943.026	2.551	1010510	WORD	n/a	wordpools/wordpool_EN.txt	PLANT	6	12	[0, 0, 0]	n/a	FR1	0	R1177M
1945.577	2.567	1011785	WORD	n/a	wordpools/wordpool_EN.txt	SHARK	7	12	[0, 0, 0]	n/a	FR1	0	R1177M
1948.144	2.516	1013069	WORD	n/a	wordpools/wordpool_EN.txt	BOMB	8	12	[0, 0, 0]	n/a	FR1	0	R1177M
1950.66	2.452	1014327	WORD	n/a	wordpools/wordpool_EN.txt	ROOT	9	12	[0, 0, 0]	n/a	FR1	0	R1177M
1953.112	2.484	1015552	WORD	n/a	wordpools/wordpool_EN.txt	SHIP	10	12	[0, 0, 0]	n/a	FR1	0	R1177M
1955.596	2.6	1016794	WORD	n/a	wordpools/wordpool_EN.txt	FILM	11	12	[0, 0, 0]	n/a	FR1	0	R1177M
1958.196	1.616	1018094	WORD	n/a	wordpools/wordpool_EN.txt	STAR	12	12	[0, 0, 0]	n/a	FR1	0	R1177M
1959.812	0.001	1018902	DISTRACT_START	n/a	n/a	n/a	-999	12	[0, 0, 0]	n/a	FR1	0	R1177M
1959.813	0.016	1018903	START	n/a	n/a	n/a	-999	12	[-999, -999, -999]	n/a	FR1	0	R1177M
1959.829	8.686	1018911	PROB	8.686	n/a	n/a	-999	12	[7, 1, 5]	13	FR1	0	R1177M
1968.515	9.635	1023253	PROB	9.635	n/a	n/a	-999	12	[7, 9, 6]	12	FR1	0	R1177M
1978.15	13.344	1028070	PROB	13.344	n/a	n/a	-999	12	[7, 7, 5]	19	FR1	0	R1177M
1991.494	0.009	1034742	STOP	n/a	n/a	n/a	-999	12	[-999, -999, -999]	n/a	FR1	0	R1177M
1991.503	1.067	1034746	DISTRACT_END	n/a	n/a	n/a	-999	12	[0, 0, 0]	n/a	FR1	0	R1177M
1992.57	1.528	1035280	REC_START	n/a	n/a	n/a	-999	12	[0, 0, 0]	n/a	FR1	0	R1177M
1994.098	3.017	1036044	REC_WORD	3.017	n/a	CAR	-999	12	[0, 0, 0]	n/a	FR1	0	R1177M
1997.115	25.465	1037552	REC_WORD	25.465	n/a	SHIP	-999	12	[0, 0, 0]	n/a	FR1	0	R1177M
2022.58	16.965	1050284	REC_END	n/a	n/a	n/a	-999	12	[0, 0, 0]	n/a	FR1	0	R1177M
2039.545	0.0	1058765	TRIAL	n/a	n/a	n/a	-999	13	[0, 0, 0]	n/a	FR1	0	R1177M
2039.545	10.428	1058765	COUNTDOWN_START	n/a	n/a	n/a	-999	13	[0, 0, 0]	n/a	FR1	0	R1177M
2049.973	0.008	1063979	COUNTDOWN_END	n/a	n/a	n/a	-999	13	[0, 0, 0]	n/a	FR1	0	R1177M
2049.981	2.4	1063983	ORIENT	n/a	n/a	n/a	-999	13	[0, 0, 0]	n/a	FR1	0	R1177M
2052.381	2.433	1065183	WORD	n/a	wordpools/wordpool_EN.txt	JET	1	13	[0, 0, 0]	n/a	FR1	0	R1177M
2054.814	2.451	1066399	WORD	n/a	wordpools/wordpool_EN.txt	PLANE	2	13	[0, 0, 0]	n/a	FR1	0	R1177M
2057.265	2.634	1067625	WORD	n/a	wordpools/wordpool_EN.txt	OAR	3	13	[0, 0, 0]	n/a	FR1	0	R1177M
2059.899	2.384	1068942	WORD	n/a	wordpools/wordpool_EN.txt	SHEET	4	13	[0, 0, 0]	n/a	FR1	0	R1177M
2062.283	2.466	1070133	WORD	n/a	wordpools/wordpool_EN.txt	TRAIN	5	13	[0, 0, 0]	n/a	FR1	0	R1177M
2064.749	2.518	1071366	WORD	n/a	wordpools/wordpool_EN.txt	PEARL	6	13	[0, 0, 0]	n/a	FR1	0	R1177M
2067.267	2.5	1072625	WORD	n/a	wordpools/wordpool_EN.txt	BANK	7	13	[0, 0, 0]	n/a	FR1	0	R1177M
2069.767	2.518	1073875	WORD	n/a	wordpools/wordpool_EN.txt	STEAM	8	13	[0, 0, 0]	n/a	FR1	0	R1177M
2072.285	2.466	1075134	WORD	n/a	wordpools/wordpool_EN.txt	STORE	9	13	[0, 0, 0]	n/a	FR1	0	R1177M
2074.751	2.585	1076367	WORD	n/a	wordpools/wordpool_EN.txt	MAIL	10	13	[0, 0, 0]	n/a	FR1	0	R1177M
2077.336	2.584	1077659	WORD	n/a	wordpools/wordpool_EN.txt	CASH	11	13	[0, 0, 0]	n/a	FR1	0	R1177M
2079.92	1.617	1078951	WORD	n/a	wordpools/wordpool_EN.txt	SCHOOL	12	13	[0, 0, 0]	n/a	FR1	0	R1177M
2081.537	0.001	1079760	DISTRACT_START	n/a	n/a	n/a	-999	13	[0, 0, 0]	n/a	FR1	0	R1177M
2081.538	0.015	1079760	START	n/a	n/a	n/a	-999	13	[-999, -999, -999]	n/a	FR1	0	R1177M
2081.553	8.485	1079768	PROB	8.485	n/a	n/a	-999	13	[2, 3, 1]	6	FR1	0	R1177M
2090.038	7.584	1084010	PROB	7.584	n/a	n/a	-999	13	[4, 6, 3]	13	FR1	0	R1177M
2097.622	5.24	1087802	PROB	5.24	n/a	n/a	-999	13	[4, 6, 7]	17	FR1	0	R1177M
2102.862	0.012	1090421	STOP	n/a	n/a	n/a	-999	13	[-999, -999, -999]	n/a	FR1	0	R1177M
2102.874	1.051	1090427	DISTRACT_END	n/a	n/a	n/a	-999	13	[0, 0, 0]	n/a	FR1	0	R1177M
2103.925	1.344	1090953	REC_START	n/a	n/a	n/a	-999	13	[0, 0, 0]	n/a	FR1	0	R1177M
2105.269	0.866	1091625	REC_WORD	0.866	n/a	JET	-999	13	[0, 0, 0]	n/a	FR1	0	R1177M
2106.135	21.756	1092058	REC_WORD	21.756	n/a	PLANE	-999	13	[0, 0, 0]	n/a	FR1	0	R1177M
2127.891	6.044	1102935	REC_WORD	6.044	n/a	OAR	-999	13	[0, 0, 0]	n/a	FR1	0	R1177M
2133.935	14.381	1105957	REC_END	n/a	n/a	n/a	-999	13	[0, 0, 0]	n/a	FR1	0	R1177M
2148.316	0.0	1113147	COUNTDOWN_START	n/a	n/a	n/a	-999	14	[0, 0, 0]	n/a	FR1	0	R1177M
2148.316	10.428	1113147	TRIAL	n/a	n/a	n/a	-999	14	[0, 0, 0]	n/a	FR1	0	R1177M
2158.744	0.006	1118360	COUNTDOWN_END	n/a	n/a	n/a	-999	14	[0, 0, 0]	n/a	FR1	0	R1177M
2158.75	2.502	1118363	ORIENT	n/a	n/a	n/a	-999	14	[0, 0, 0]	n/a	FR1	0	R1177M
2161.252	2.533	1119614	WORD	n/a	wordpools/wordpool_EN.txt	FISH	1	14	[0, 0, 0]	n/a	FR1	0	R1177M
2163.785	2.385	1120880	WORD	n/a	wordpools/wordpool_EN.txt	FUR	2	14	[0, 0, 0]	n/a	FR1	0	R1177M
2166.17	2.582	1122073	WORD	n/a	wordpools/wordpool_EN.txt	SINK	3	14	[0, 0, 0]	n/a	FR1	0	R1177M
2168.752	2.485	1123364	WORD	n/a	wordpools/wordpool_EN.txt	MUD	4	14	[0, 0, 0]	n/a	FR1	0	R1177M
2171.237	2.416	1124606	WORD	n/a	wordpools/wordpool_EN.txt	CROW	5	14	[0, 0, 0]	n/a	FR1	0	R1177M
2173.653	2.585	1125814	WORD	n/a	wordpools/wordpool_EN.txt	STICK	6	14	[0, 0, 0]	n/a	FR1	0	R1177M
2176.238	2.433	1127106	WORD	n/a	wordpools/wordpool_EN.txt	WAND	7	14	[0, 0, 0]	n/a	FR1	0	R1177M
2178.671	2.501	1128323	WORD	n/a	wordpools/wordpool_EN.txt	GEESE	8	14	[0, 0, 0]	n/a	FR1	0	R1177M
2181.172	2.467	1129573	WORD	n/a	wordpools/wordpool_EN.txt	SNAIL	9	14	[0, 0, 0]	n/a	FR1	0	R1177M
2183.639	2.534	1130807	WORD	n/a	wordpools/wordpool_EN.txt	CAGE	10	14	[0, 0, 0]	n/a	FR1	0	R1177M
2186.173	2.55	1132073	WORD	n/a	wordpools/wordpool_EN.txt	ZOO	11	14	[0, 0, 0]	n/a	FR1	0	R1177M
2188.723	1.618	1133348	WORD	n/a	wordpools/wordpool_EN.txt	STOOL	12	14	[0, 0, 0]	n/a	FR1	0	R1177M
2190.341	0.001	1134157	DISTRACT_START	n/a	n/a	n/a	-999	14	[0, 0, 0]	n/a	FR1	0	R1177M
2190.342	0.016	1134158	START	n/a	n/a	n/a	-999	14	[-999, -999, -999]	n/a	FR1	0	R1177M
2190.358	11.752	1134166	PROB	11.752	n/a	n/a	-999	14	[5, 7, 3]	14	FR1	0	R1177M
2202.11	12.96	1140041	PROB	12.96	n/a	n/a	-999	14	[1, 4, 7]	12	FR1	0	R1177M
2215.07	0.009	1146521	STOP	n/a	n/a	n/a	-999	14	[-999, -999, -999]	n/a	FR1	0	R1177M
2215.079	1.134	1146525	DISTRACT_END	n/a	n/a	n/a	-999	14	[0, 0, 0]	n/a	FR1	0	R1177M
2216.213	5.046	1147092	REC_START	n/a	n/a	n/a	-999	14	[0, 0, 0]	n/a	FR1	0	R1177M
2221.259	1.785	1149615	REC_WORD	1.785	n/a	GEESE	-999	14	[0, 0, 0]	n/a	FR1	0	R1177M
2223.044	23.179	1150507	REC_WORD	23.179	n/a	STOOL	-999	14	[0, 0, 0]	n/a	FR1	0	R1177M
2246.223	12.48	1162096	REC_END	n/a	n/a	n/a	-999	14	[0, 0, 0]	n/a	FR1	0	R1177M
2258.703	0.0	1168336	TRIAL	n/a	n/a	n/a	-999	15	[0, 0, 0]	n/a	FR1	0	R1177M
2258.703	10.428	1168336	COUNTDOWN_START	n/a	n/a	n/a	-999	15	[0, 0, 0]	n/a	FR1	0	R1177M
2269.131	0.025	1173549	COUNTDOWN_END	n/a	n/a	n/a	-999	15	[0, 0, 0]	n/a	FR1	0	R1177M
2269.156	2.483	1173562	ORIENT	n/a	n/a	n/a	-999	15	[0, 0, 0]	n/a	FR1	0	R1177M
2271.639	2.501	1174803	WORD	n/a	wordpools/wordpool_EN.txt	RAKE	1	15	[0, 0, 0]	n/a	FR1	0	R1177M
2274.14	2.567	1176053	WORD	n/a	wordpools/wordpool_EN.txt	EAR	2	15	[0, 0, 0]	n/a	FR1	0	R1177M
2276.707	2.418	1177337	WORD	n/a	wordpools/wordpool_EN.txt	HOLE	3	15	[0, 0, 0]	n/a	FR1	0	R1177M
2279.125	2.499	1178546	WORD	n/a	wordpools/wordpool_EN.txt	LEG	4	15	[0, 0, 0]	n/a	FR1	0	R1177M
2281.624	2.402	1179795	WORD	n/a	wordpools/wordpool_EN.txt	CORD	5	15	[0, 0, 0]	n/a	FR1	0	R1177M
2284.026	2.483	1180996	WORD	n/a	wordpools/wordpool_EN.txt	YARD	6	15	[0, 0, 0]	n/a	FR1	0	R1177M
2286.509	2.401	1182237	WORD	n/a	wordpools/wordpool_EN.txt	COUCH	7	15	[0, 0, 0]	n/a	FR1	0	R1177M
2288.91	2.584	1183438	WORD	n/a	wordpools/wordpool_EN.txt	ROPE	8	15	[0, 0, 0]	n/a	FR1	0	R1177M
2291.494	2.6	1184730	WORD	n/a	wordpools/wordpool_EN.txt	TAIL	9	15	[0, 0, 0]	n/a	FR1	0	R1177M
2294.094	2.616	1186030	WORD	n/a	wordpools/wordpool_EN.txt	LAWN	10	15	[0, 0, 0]	n/a	FR1	0	R1177M
2296.71	2.602	1187338	WORD	n/a	wordpools/wordpool_EN.txt	BAND	11	15	[0, 0, 0]	n/a	FR1	0	R1177M
2299.312	1.617	1188638	WORD	n/a	wordpools/wordpool_EN.txt	DART	12	15	[0, 0, 0]	n/a	FR1	0	R1177M
2300.929	0.001	1189447	DISTRACT_START	n/a	n/a	n/a	-999	15	[0, 0, 0]	n/a	FR1	0	R1177M
2300.93	0.015	1189447	START	n/a	n/a	n/a	-999	15	[-999, -999, -999]	n/a	FR1	0	R1177M
2300.945	7.684	1189455	PROB	7.684	n/a	n/a	-999	15	[7, 3, 1]	11	FR1	0	R1177M
2308.629	13.713	1193297	PROB	13.713	n/a	n/a	-999	15	[7, 9, 4]	19	FR1	0	R1177M
2322.342	0.008	1200152	STOP	n/a	n/a	n/a	-999	15	[-999, -999, -999]	n/a	FR1	0	R1177M
2322.35	1.217	1200156	DISTRACT_END	n/a	n/a	n/a	-999	15	[0, 0, 0]	n/a	FR1	0	R1177M
2323.567	3.494	1200765	REC_START	n/a	n/a	n/a	-999	15	[0, 0, 0]	n/a	FR1	0	R1177M
2327.061	4.104	1202512	REC_WORD	4.104	n/a	DART	-999	15	[0, 0, 0]	n/a	FR1	0	R1177M
2331.165	8.369	1204564	REC_WORD	8.369	n/a	BAND	-999	15	[0, 0, 0]	n/a	FR1	0	R1177M
2339.534	14.055	1208748	REC_WORD	14.055	n/a	EAR	-999	15	[0, 0, 0]	n/a	FR1	0	R1177M
2353.589	8.435	1215775	REC_END	n/a	n/a	n/a	-999	15	[0, 0, 0]	n/a	FR1	0	R1177M
2362.024	0.0	1219992	TRIAL	n/a	n/a	n/a	-999	16	[0, 0, 0]	n/a	FR1	0	R1177M
2362.024	10.428	1219992	COUNTDOWN_START	n/a	n/a	n/a	-999	16	[0, 0, 0]	n/a	FR1	0	R1177M
2372.452	0.007	1225205	COUNTDOWN_END	n/a	n/a	n/a	-999	16	[0, 0, 0]	n/a	FR1	0	R1177M
2372.459	2.5	1225209	ORIENT	n/a	n/a	n/a	-999	16	[0, 0, 0]	n/a	FR1	0	R1177M
2374.959	2.635	1226459	WORD	n/a	wordpools/wordpool_EN.txt	FLAME	1	16	[0, 0, 0]	n/a	FR1	0	R1177M
2377.594	2.45	1227776	WORD	n/a	wordpools/wordpool_EN.txt	STORM	2	16	[0, 0, 0]	n/a	FR1	0	R1177M
2380.044	2.484	1229001	WORD	n/a	wordpools/wordpool_EN.txt	SPARK	3	16	[0, 0, 0]	n/a	FR1	0	R1177M
2382.528	2.5	1230243	WORD	n/a	wordpools/wordpool_EN.txt	PASTE	4	16	[0, 0, 0]	n/a	FR1	0	R1177M
2385.028	2.567	1231493	WORD	n/a	wordpools/wordpool_EN.txt	INK	5	16	[0, 0, 0]	n/a	FR1	0	R1177M
2387.595	2.451	1232776	WORD	n/a	wordpools/wordpool_EN.txt	PEAR	6	16	[0, 0, 0]	n/a	FR1	0	R1177M
2390.046	2.434	1234002	WORD	n/a	wordpools/wordpool_EN.txt	BEAK	7	16	[0, 0, 0]	n/a	FR1	0	R1177M
2392.48	2.484	1235219	WORD	n/a	wordpools/wordpool_EN.txt	JUICE	8	16	[0, 0, 0]	n/a	FR1	0	R1177M
2394.964	2.567	1236461	WORD	n/a	wordpools/wordpool_EN.txt	FLAG	9	16	[0, 0, 0]	n/a	FR1	0	R1177M
2397.531	2.517	1237744	WORD	n/a	wordpools/wordpool_EN.txt	CLOTH	10	16	[0, 0, 0]	n/a	FR1	0	R1177M
2400.048	2.384	1239002	WORD	n/a	wordpools/wordpool_EN.txt	TANK	11	16	[0, 0, 0]	n/a	FR1	0	R1177M
2402.432	1.617	1240194	WORD	n/a	wordpools/wordpool_EN.txt	BOARD	12	16	[0, 0, 0]	n/a	FR1	0	R1177M
2404.049	0.001	1241003	DISTRACT_START	n/a	n/a	n/a	-999	16	[0, 0, 0]	n/a	FR1	0	R1177M
2404.05	0.015	1241003	START	n/a	n/a	n/a	-999	16	[-999, -999, -999]	n/a	FR1	0	R1177M
2404.065	7.118	1241011	PROB	7.118	n/a	n/a	-999	16	[3, 5, 1]	9	FR1	0	R1177M
2411.183	11.219	1244569	PROB	11.219	n/a	n/a	-999	16	[4, 9, 4]	17	FR1	0	R1177M
2422.402	10.884	1250178	PROB	10.884	n/a	n/a	-999	16	[7, 7, 5]	18	FR1	0	R1177M
2433.286	0.018	1255620	STOP	n/a	n/a	n/a	-999	16	[-999, -999, -999]	n/a	FR1	0	R1177M
2433.304	1.034	1255629	DISTRACT_END	n/a	n/a	n/a	-999	16	[0, 0, 0]	n/a	FR1	0	R1177M
2434.338	30.015	1256146	REC_START	n/a	n/a	n/a	-999	16	[0, 0, 0]	n/a	FR1	0	R1177M
2464.353	57.952	1271152	REC_END	n/a	n/a	n/a	-999	16	[0, 0, 0]	n/a	FR1	0	R1177M
2522.305	0.0	1300126	COUNTDOWN_START	n/a	n/a	n/a	-999	17	[0, 0, 0]	n/a	FR1	0	R1177M
2522.305	10.428	1300126	TRIAL	n/a	n/a	n/a	-999	17	[0, 0, 0]	n/a	FR1	0	R1177M
2532.733	0.006	1305339	COUNTDOWN_END	n/a	n/a	n/a	-999	17	[0, 0, 0]	n/a	FR1	0	R1177M
2532.739	2.485	1305342	ORIENT	n/a	n/a	n/a	-999	17	[0, 0, 0]	n/a	FR1	0	R1177M
2535.224	2.516	1306585	WORD	n/a	wordpools/wordpool_EN.txt	GRASS	1	17	[0, 0, 0]	n/a	FR1	0	R1177M
2537.74	2.502	1307843	WORD	n/a	wordpools/wordpool_EN.txt	MOON	2	17	[0, 0, 0]	n/a	FR1	0	R1177M
2540.242	2.399	1309094	WORD	n/a	wordpools/wordpool_EN.txt	SLUSH	3	17	[0, 0, 0]	n/a	FR1	0	R1177M
2542.641	2.435	1310293	WORD	n/a	wordpools/wordpool_EN.txt	NEST	4	17	[0, 0, 0]	n/a	FR1	0	R1177M
2545.076	2.549	1311510	WORD	n/a	wordpools/wordpool_EN.txt	BALL	5	17	[0, 0, 0]	n/a	FR1	0	R1177M
2547.625	2.385	1312785	WORD	n/a	wordpools/wordpool_EN.txt	GOAT	6	17	[0, 0, 0]	n/a	FR1	0	R1177M
2550.01	2.584	1313977	WORD	n/a	wordpools/wordpool_EN.txt	BIRD	7	17	[0, 0, 0]	n/a	FR1	0	R1177M
2552.594	2.617	1315269	WORD	n/a	wordpools/wordpool_EN.txt	VINE	8	17	[0, 0, 0]	n/a	FR1	0	R1177M
2555.211	2.4	1316578	WORD	n/a	wordpools/wordpool_EN.txt	PRINCE	9	17	[0, 0, 0]	n/a	FR1	0	R1177M
2557.611	2.384	1317777	WORD	n/a	wordpools/wordpool_EN.txt	BAT	10	17	[0, 0, 0]	n/a	FR1	0	R1177M
2559.995	2.616	1318969	WORD	n/a	wordpools/wordpool_EN.txt	CAT	11	17	[0, 0, 0]	n/a	FR1	0	R1177M
2562.611	1.602	1320277	WORD	n/a	wordpools/wordpool_EN.txt	NET	12	17	[0, 0, 0]	n/a	FR1	0	R1177M
2564.213	0.001	1321078	DISTRACT_START	n/a	n/a	n/a	-999	17	[0, 0, 0]	n/a	FR1	0	R1177M
2564.214	0.016	1321079	START	n/a	n/a	n/a	-999	17	[-999, -999, -999]	n/a	FR1	0	R1177M
2564.23	5.5	1321087	PROB	5.5	n/a	n/a	-999	17	[1, 4, 4]	9	FR1	0	R1177M
2569.73	12.653	1323836	PROB	12.653	n/a	n/a	-999	17	[3, 5, 9]	17	FR1	0	R1177M
2582.383	6.318	1330162	PROB	6.318	n/a	n/a	-999	17	[9, 4, 6]	19	FR1	0	R1177M
2588.701	0.016	1333321	STOP	n/a	n/a	n/a	-999	17	[-999, -999, -999]	n/a	FR1	0	R1177M
2588.717	1.117	1333329	DISTRACT_END	n/a	n/a	n/a	-999	17	[0, 0, 0]	n/a	FR1	0	R1177M
2589.834	1.023	1333888	REC_START	n/a	n/a	n/a	-999	17	[0, 0, 0]	n/a	FR1	0	R1177M
2590.857	0.985	1334399	REC_WORD	0.985	n/a	GRASS	-999	17	[0, 0, 0]	n/a	FR1	0	R1177M
2591.842	0.93	1334892	REC_WORD	0.93	n/a	MOON	-999	17	[0, 0, 0]	n/a	FR1	0	R1177M
2592.772	18.713	1335357	REC_WORD	18.713	n/a	CAT	-999	17	[0, 0, 0]	n/a	FR1	0	R1177M
2611.485	8.361	1344712	REC_WORD	8.361	n/a	PRINCE	-999	17	[0, 0, 0]	n/a	FR1	0	R1177M
2619.846	11.313	1348892	REC_END	n/a	n/a	n/a	-999	17	[0, 0, 0]	n/a	FR1	0	R1177M
2631.159	0.0	1354548	TRIAL	n/a	n/a	n/a	-999	18	[0, 0, 0]	n/a	FR1	0	R1177M
2631.159	10.428	1354548	COUNTDOWN_START	n/a	n/a	n/a	-999	18	[0, 0, 0]	n/a	FR1	0	R1177M
2641.587	0.007	1359762	COUNTDOWN_END	n/a	n/a	n/a	-999	18	[0, 0, 0]	n/a	FR1	0	R1177M
2641.594	2.401	1359766	ORIENT	n/a	n/a	n/a	-999	18	[0, 0, 0]	n/a	FR1	0	R1177M
2643.995	2.45	1360966	WORD	n/a	wordpools/wordpool_EN.txt	SKI	1	18	[0, 0, 0]	n/a	FR1	0	R1177M
2646.445	2.618	1362191	WORD	n/a	wordpools/wordpool_EN.txt	CRANE	2	18	[0, 0, 0]	n/a	FR1	0	R1177M
2649.063	2.417	1363500	WORD	n/a	wordpools/wordpool_EN.txt	OWL	3	18	[0, 0, 0]	n/a	FR1	0	R1177M
2651.48	2.617	1364708	WORD	n/a	wordpools/wordpool_EN.txt	WALL	4	18	[0, 0, 0]	n/a	FR1	0	R1177M
2654.097	2.45	1366017	WORD	n/a	wordpools/wordpool_EN.txt	BOOT	5	18	[0, 0, 0]	n/a	FR1	0	R1177M
2656.547	2.434	1367241	WORD	n/a	wordpools/wordpool_EN.txt	SNOW	6	18	[0, 0, 0]	n/a	FR1	0	R1177M
2658.981	2.417	1368458	WORD	n/a	wordpools/wordpool_EN.txt	THREAD	7	18	[0, 0, 0]	n/a	FR1	0	R1177M
2661.398	2.467	1369667	WORD	n/a	wordpools/wordpool_EN.txt	HOOF	8	18	[0, 0, 0]	n/a	FR1	0	R1177M
2663.865	2.417	1370900	WORD	n/a	wordpools/wordpool_EN.txt	TOE	9	18	[0, 0, 0]	n/a	FR1	0	R1177M
2666.282	2.584	1372109	WORD	n/a	wordpools/wordpool_EN.txt	DOOR	10	18	[0, 0, 0]	n/a	FR1	0	R1177M
2668.866	2.434	1373400	WORD	n/a	wordpools/wordpool_EN.txt	RUG	11	18	[0, 0, 0]	n/a	FR1	0	R1177M
2671.3	1.617	1374617	WORD	n/a	wordpools/wordpool_EN.txt	SPRING	12	18	[0, 0, 0]	n/a	FR1	0	R1177M
2672.917	0.001	1375426	DISTRACT_START	n/a	n/a	n/a	-999	18	[0, 0, 0]	n/a	FR1	0	R1177M
2672.918	0.016	1375426	START	n/a	n/a	n/a	-999	18	[-999, -999, -999]	n/a	FR1	0	R1177M
2672.934	16.336	1375434	PROB	16.336	n/a	n/a	-999	18	[4, 8, 2]	14	FR1	0	R1177M
2689.27	12.656	1383602	PROB	12.656	n/a	n/a	-999	18	[2, 2, 3]	7	FR1	0	R1177M
2701.926	0.013	1389929	STOP	n/a	n/a	n/a	-999	18	[-999, -999, -999]	n/a	FR1	0	R1177M
2701.939	1.152	1389936	DISTRACT_END	n/a	n/a	n/a	-999	18	[0, 0, 0]	n/a	FR1	0	R1177M
2703.091	30.011	1390512	REC_START	n/a	n/a	n/a	-999	18	[0, 0, 0]	n/a	FR1	0	R1177M
2733.102	11.528	1405516	REC_END	n/a	n/a	n/a	-999	18	[0, 0, 0]	n/a	FR1	0	R1177M
2744.63	0.0	1411279	TRIAL	n/a	n/a	n/a	-999	19	[0, 0, 0]	n/a	FR1	0	R1177M
2744.63	10.428	1411279	COUNTDOWN_START	n/a	n/a	n/a	-999	19	[0, 0, 0]	n/a	FR1	0	R1177M
2755.058	0.008	1416493	COUNTDOWN_END	n/a	n/a	n/a	-999	19	[0, 0, 0]	n/a	FR1	0	R1177M
2755.066	2.434	1416497	ORIENT	n/a	n/a	n/a	-999	19	[0, 0, 0]	n/a	FR1	0	R1177M
2757.5	2.534	1417714	WORD	n/a	wordpools/wordpool_EN.txt	VEST	1	19	[0, 0, 0]	n/a	FR1	0	R1177M
2760.034	2.616	1418981	WORD	n/a	wordpools/wordpool_EN.txt	CANE	2	19	[0, 0, 0]	n/a	FR1	0	R1177M
2762.65	2.435	1420289	WORD	n/a	wordpools/wordpool_EN.txt	DRESS	3	19	[0, 0, 0]	n/a	FR1	0	R1177M
2765.085	2.516	1421506	WORD	n/a	wordpools/wordpool_EN.txt	BLUSH	4	19	[0, 0, 0]	n/a	FR1	0	R1177M
2767.601	2.518	1422764	WORD	n/a	wordpools/wordpool_EN.txt	BLOOM	5	19	[0, 0, 0]	n/a	FR1	0	R1177M
2770.119	2.549	1424023	WORD	n/a	wordpools/wordpool_EN.txt	LIP	6	19	[0, 0, 0]	n/a	FR1	0	R1177M
2772.668	2.586	1425297	WORD	n/a	wordpools/wordpool_EN.txt	AXE	7	19	[0, 0, 0]	n/a	FR1	0	R1177M
2775.254	2.582	1426590	WORD	n/a	wordpools/wordpool_EN.txt	TIE	8	19	[0, 0, 0]	n/a	FR1	0	R1177M
2777.836	2.552	1427881	WORD	n/a	wordpools/wordpool_EN.txt	SOCK	9	19	[0, 0, 0]	n/a	FR1	0	R1177M
2780.388	2.5	1429157	WORD	n/a	wordpools/wordpool_EN.txt	POND	10	19	[0, 0, 0]	n/a	FR1	0	R1177M
2782.888	2.618	1430407	WORD	n/a	wordpools/wordpool_EN.txt	HAND	11	19	[0, 0, 0]	n/a	FR1	0	R1177M
2785.506	1.616	1431716	WORD	n/a	wordpools/wordpool_EN.txt	VASE	12	19	[0, 0, 0]	n/a	FR1	0	R1177M
2787.122	0.001	1432524	DISTRACT_START	n/a	n/a	n/a	-999	19	[0, 0, 0]	n/a	FR1	0	R1177M
2787.123	0.016	1432524	START	n/a	n/a	n/a	-999	19	[-999, -999, -999]	n/a	FR1	0	R1177M
2787.139	11.019	1432532	PROB	11.019	n/a	n/a	-999	19	[5, 5, 9]	19	FR1	0	R1177M
2798.158	6.368	1438041	PROB	6.368	n/a	n/a	-999	19	[4, 5, 1]	10	FR1	0	R1177M
2804.526	9.592	1441225	PROB	9.592	n/a	n/a	-999	19	[5, 3, 8]	16	FR1	0	R1177M
2814.118	0.01	1446021	STOP	n/a	n/a	n/a	-999	19	[-999, -999, -999]	n/a	FR1	0	R1177M
2814.128	1.184	1446026	DISTRACT_END	n/a	n/a	n/a	-999	19	[0, 0, 0]	n/a	FR1	0	R1177M
2815.312	1.574	1446618	REC_START	n/a	n/a	n/a	-999	19	[0, 0, 0]	n/a	FR1	0	R1177M
2816.886	2.47	1447404	REC_WORD	2.47	n/a	POND	-999	19	[0, 0, 0]	n/a	FR1	0	R1177M
2819.356	2.129	1448639	REC_WORD	2.129	n/a	LIP	-999	19	[0, 0, 0]	n/a	FR1	0	R1177M
2821.485	23.838	1449704	REC_WORD	23.838	n/a	VEST	-999	19	[0, 0, 0]	n/a	FR1	0	R1177M
2845.323	6.878	1461622	REC_END	n/a	n/a	n/a	-999	19	[0, 0, 0]	n/a	FR1	0	R1177M
2852.201	0.001	1465061	COUNTDOWN_START	n/a	n/a	n/a	-999	20	[0, 0, 0]	n/a	FR1	0	R1177M
2852.202	10.427	1465061	TRIAL	n/a	n/a	n/a	-999	20	[0, 0, 0]	n/a	FR1	0	R1177M
2862.629	0.007	1470274	COUNTDOWN_END	n/a	n/a	n/a	-999	20	[0, 0, 0]	n/a	FR1	0	R1177M
2862.636	2.401	1470278	ORIENT	n/a	n/a	n/a	-999	20	[0, 0, 0]	n/a	FR1	0	R1177M
2865.037	2.518	1471478	WORD	n/a	wordpools/wordpool_EN.txt	FLEA	1	20	[0, 0, 0]	n/a	FR1	0	R1177M
2867.555	2.567	1472737	WORD	n/a	wordpools/wordpool_EN.txt	SNAKE	2	20	[0, 0, 0]	n/a	FR1	0	R1177M
2870.122	2.582	1474020	WORD	n/a	wordpools/wordpool_EN.txt	HAWK	3	20	[0, 0, 0]	n/a	FR1	0	R1177M
2872.704	2.552	1475311	WORD	n/a	wordpools/wordpool_EN.txt	BEE	4	20	[0, 0, 0]	n/a	FR1	0	R1177M
2875.256	2.566	1476587	WORD	n/a	wordpools/wordpool_EN.txt	FORK	5	20	[0, 0, 0]	n/a	FR1	0	R1177M
2877.822	2.568	1477870	WORD	n/a	wordpools/wordpool_EN.txt	BRICK	6	20	[0, 0, 0]	n/a	FR1	0	R1177M
2880.39	2.4	1479154	WORD	n/a	wordpools/wordpool_EN.txt	SHELL	7	20	[0, 0, 0]	n/a	FR1	0	R1177M
2882.79	2.501	1480354	WORD	n/a	wordpools/wordpool_EN.txt	SPONGE	8	20	[0, 0, 0]	n/a	FR1	0	R1177M
2885.291	2.417	1481604	WORD	n/a	wordpools/wordpool_EN.txt	CLAY	9	20	[0, 0, 0]	n/a	FR1	0	R1177M
2887.708	2.568	1482813	WORD	n/a	wordpools/wordpool_EN.txt	STONE	10	20	[0, 0, 0]	n/a	FR1	0	R1177M
2890.276	2.583	1484096	WORD	n/a	wordpools/wordpool_EN.txt	CUBE	11	20	[0, 0, 0]	n/a	FR1	0	R1177M
2892.859	1.617	1485388	WORD	n/a	wordpools/wordpool_EN.txt	PEACH	12	20	[0, 0, 0]	n/a	FR1	0	R1177M
2894.476	0.001	1486196	DISTRACT_START	n/a	n/a	n/a	-999	20	[0, 0, 0]	n/a	FR1	0	R1177M
2894.477	0.016	1486197	START	n/a	n/a	n/a	-999	20	[-999, -999, -999]	n/a	FR1	0	R1177M
2894.493	8.201	1486205	PROB	8.201	n/a	n/a	-999	20	[1, 4, 4]	9	FR1	0	R1177M
2902.694	15.111	1490305	PROB	15.111	n/a	n/a	-999	20	[4, 8, 9]	17	FR1	0	R1177M
2917.805	0.008	1497860	STOP	n/a	n/a	n/a	-999	20	[-999, -999, -999]	n/a	FR1	0	R1177M
2917.813	1.169	1497864	DISTRACT_END	n/a	n/a	n/a	-999	20	[0, 0, 0]	n/a	FR1	0	R1177M
2918.982	2.232	1498448	REC_START	n/a	n/a	n/a	-999	20	[0, 0, 0]	n/a	FR1	0	R1177M
2921.214	10.103	1499564	REC_WORD	10.103	n/a	SPONGE	-999	20	[0, 0, 0]	n/a	FR1	0	R1177M
2931.317	17.678	1504615	REC_WORD	17.678	n/a	CLAY	-999	20	[0, 0, 0]	n/a	FR1	0	R1177M
2948.995	5.143	1513454	REC_END	n/a	n/a	n/a	-999	20	[0, 0, 0]	n/a	FR1	0	R1177M
2954.138	0.0	1516025	TRIAL	n/a	n/a	n/a	-999	21	[0, 0, 0]	n/a	FR1	0	R1177M
2954.138	10.428	1516025	COUNTDOWN_START	n/a	n/a	n/a	-999	21	[0, 0, 0]	n/a	FR1	0	R1177M
2964.566	0.007	1521238	COUNTDOWN_END	n/a	n/a	n/a	-999	21	[0, 0, 0]	n/a	FR1	0	R1177M
2964.573	2.568	1521242	ORIENT	n/a	n/a	n/a	-999	21	[0, 0, 0]	n/a	FR1	0	R1177M
2967.141	2.516	1522526	WORD	n/a	wordpools/wordpool_EN.txt	ROAD	1	21	[0, 0, 0]	n/a	FR1	0	R1177M
2969.657	2.401	1523784	WORD	n/a	wordpools/wordpool_EN.txt	DOG	2	21	[0, 0, 0]	n/a	FR1	0	R1177M
2972.058	2.501	1524984	WORD	n/a	wordpools/wordpool_EN.txt	SKUNK	3	21	[0, 0, 0]	n/a	FR1	0	R1177M
2974.559	2.45	1526235	WORD	n/a	wordpools/wordpool_EN.txt	FOG	4	21	[0, 0, 0]	n/a	FR1	0	R1177M
2977.009	2.551	1527459	WORD	n/a	wordpools/wordpool_EN.txt	HEN	5	21	[0, 0, 0]	n/a	FR1	0	R1177M
2979.56	2.533	1528735	WORD	n/a	wordpools/wordpool_EN.txt	LAMB	6	21	[0, 0, 0]	n/a	FR1	0	R1177M
2982.093	2.384	1530001	WORD	n/a	wordpools/wordpool_EN.txt	FARM	7	21	[0, 0, 0]	n/a	FR1	0	R1177M
2984.477	2.434	1531193	WORD	n/a	wordpools/wordpool_EN.txt	EEL	8	21	[0, 0, 0]	n/a	FR1	0	R1177M
2986.911	2.417	1532410	WORD	n/a	wordpools/wordpool_EN.txt	CALF	9	21	[0, 0, 0]	n/a	FR1	0	R1177M
2989.328	2.534	1533618	WORD	n/a	wordpools/wordpool_EN.txt	TRUCK	10	21	[0, 0, 0]	n/a	FR1	0	R1177M
2991.862	2.484	1534885	WORD	n/a	wordpools/wordpool_EN.txt	VAN	11	21	[0, 0, 0]	n/a	FR1	0	R1177M
2994.346	1.617	1536127	WORD	n/a	wordpools/wordpool_EN.txt	BRIDGE	12	21	[0, 0, 0]	n/a	FR1	0	R1177M
2995.963	0.001	1536936	DISTRACT_START	n/a	n/a	n/a	-999	21	[0, 0, 0]	n/a	FR1	0	R1177M
2995.964	0.015	1536936	START	n/a	n/a	n/a	-999	21	[-999, -999, -999]	n/a	FR1	0	R1177M
2995.979	13.57	1536944	PROB	13.57	n/a	n/a	-999	21	[5, 8, 8]	20	FR1	0	R1177M
3009.549	11.513	1543728	PROB	11.513	n/a	n/a	-999	21	[9, 3, 1]	13	FR1	0	R1177M
3021.062	0.005	1549484	STOP	n/a	n/a	n/a	-999	21	[-999, -999, -999]	n/a	FR1	0	R1177M
3021.067	1.218	1549487	DISTRACT_END	n/a	n/a	n/a	-999	21	[0, 0, 0]	n/a	FR1	0	R1177M
3022.285	0.791	1550096	REC_START	n/a	n/a	n/a	-999	21	[0, 0, 0]	n/a	FR1	0	R1177M
3023.076	1.29	1550491	REC_WORD	1.29	n/a	DOG	-999	21	[0, 0, 0]	n/a	FR1	0	R1177M
3024.366	1.147	1551136	REC_WORD	1.147	n/a	FARM	-999	21	[0, 0, 0]	n/a	FR1	0	R1177M
3025.513	2.204	1551710	REC_WORD	2.204	n/a	SKUNK	-999	21	[0, 0, 0]	n/a	FR1	0	R1177M
3027.717	2.261	1552811	REC_WORD	2.261	n/a	TRUCK	-999	21	[0, 0, 0]	n/a	FR1	0	R1177M
3029.978	22.319	1553942	REC_WORD	22.319	n/a	EEL	-999	21	[0, 0, 0]	n/a	FR1	0	R1177M
3052.297	12.511	1565100	REC_END	n/a	n/a	n/a	-999	21	[0, 0, 0]	n/a	FR1	0	R1177M
3064.808	0.0	1571355	TRIAL	n/a	n/a	n/a	-999	22	[0, 0, 0]	n/a	FR1	0	R1177M
3064.808	10.428	1571355	COUNTDOWN_START	n/a	n/a	n/a	-999	22	[0, 0, 0]	n/a	FR1	0	R1177M
3075.236	0.009	1576569	COUNTDOWN_END	n/a	n/a	n/a	-999	22	[0, 0, 0]	n/a	FR1	0	R1177M
3075.245	2.516	1576574	ORIENT	n/a	n/a	n/a	-999	22	[0, 0, 0]	n/a	FR1	0	R1177M
3077.761	2.418	1577831	WORD	n/a	wordpools/wordpool_EN.txt	SUN	1	22	[0, 0, 0]	n/a	FR1	0	R1177M
3080.179	2.417	1579040	WORD	n/a	wordpools/wordpool_EN.txt	ROOM	2	22	[0, 0, 0]	n/a	FR1	0	R1177M
3082.596	2.451	1580249	WORD	n/a	wordpools/wordpool_EN.txt	BADGE	3	22	[0, 0, 0]	n/a	FR1	0	R1177M
3085.047	2.55	1581474	WORD	n/a	wordpools/wordpool_EN.txt	BOX	4	22	[0, 0, 0]	n/a	FR1	0	R1177M
3087.597	2.434	1582749	WORD	n/a	wordpools/wordpool_EN.txt	SOAP	5	22	[0, 0, 0]	n/a	FR1	0	R1177M
3090.031	2.583	1583966	WORD	n/a	wordpools/wordpool_EN.txt	FOAM	6	22	[0, 0, 0]	n/a	FR1	0	R1177M
3092.614	2.618	1585257	WORD	n/a	wordpools/wordpool_EN.txt	SHIRT	7	22	[0, 0, 0]	n/a	FR1	0	R1177M
3095.232	2.466	1586566	WORD	n/a	wordpools/wordpool_EN.txt	BAG	8	22	[0, 0, 0]	n/a	FR1	0	R1177M
3097.698	2.418	1587799	WORD	n/a	wordpools/wordpool_EN.txt	CROWN	9	22	[0, 0, 0]	n/a	FR1	0	R1177M
3100.116	2.467	1589008	WORD	n/a	wordpools/wordpool_EN.txt	STRING	10	22	[0, 0, 0]	n/a	FR1	0	R1177M
3102.583	2.401	1590241	WORD	n/a	wordpools/wordpool_EN.txt	FAN	11	22	[0, 0, 0]	n/a	FR1	0	R1177M
3104.984	1.617	1591442	WORD	n/a	wordpools/wordpool_EN.txt	WHALE	12	22	[0, 0, 0]	n/a	FR1	0	R1177M
3106.601	0.0	1592250	DISTRACT_START	n/a	n/a	n/a	-999	22	[0, 0, 0]	n/a	FR1	0	R1177M
3106.601	0.015	1592250	START	n/a	n/a	n/a	-999	22	[-999, -999, -999]	n/a	FR1	0	R1177M
3106.616	8.985	1592258	PROB	8.985	n/a	n/a	-999	22	[3, 2, 5]	10	FR1	0	R1177M
3115.601	9.086	1596750	PROB	9.086	n/a	n/a	-999	22	[4, 3, 4]	11	FR1	0	R1177M
3124.687	10.094	1601293	PROB	10.094	n/a	n/a	-999	22	[7, 9, 8]	14	FR1	0	R1177M
3134.781	0.008	1606339	STOP	n/a	n/a	n/a	-999	22	[-999, -999, -999]	n/a	FR1	0	R1177M
3134.789	1.085	1606343	DISTRACT_END	n/a	n/a	n/a	-999	22	[0, 0, 0]	n/a	FR1	0	R1177M
3135.874	3.512	1606886	REC_START	n/a	n/a	n/a	-999	22	[0, 0, 0]	n/a	FR1	0	R1177M
3139.386	1.176	1608641	REC_WORD	1.176	n/a	BADGE	-999	22	[0, 0, 0]	n/a	FR1	0	R1177M
3140.562	6.283	1609229	REC_WORD	6.283	n/a	SHIRT	-999	22	[0, 0, 0]	n/a	FR1	0	R1177M
3146.845	19.041	1612371	REC_WORD	19.041	n/a	SUN	-999	22	[0, 0, 0]	n/a	FR1	0	R1177M
3165.886	9.295	1621890	REC_END	n/a	n/a	n/a	-999	22	[0, 0, 0]	n/a	FR1	0	R1177M
3175.181	0.0	1626537	TRIAL	n/a	n/a	n/a	-999	23	[0, 0, 0]	n/a	FR1	0	R1177M
3175.181	10.428	1626537	COUNTDOWN_START	n/a	n/a	n/a	-999	23	[0, 0, 0]	n/a	FR1	0	R1177M
3185.609	0.006	1631751	COUNTDOWN_END	n/a	n/a	n/a	-999	23	[0, 0, 0]	n/a	FR1	0	R1177M
3185.615	2.568	1631754	ORIENT	n/a	n/a	n/a	-999	23	[0, 0, 0]	n/a	FR1	0	R1177M
3188.183	2.417	1633038	WORD	n/a	wordpools/wordpool_EN.txt	NOSE	1	23	[0, 0, 0]	n/a	FR1	0	R1177M
3190.6	2.517	1634246	WORD	n/a	wordpools/wordpool_EN.txt	MAZE	2	23	[0, 0, 0]	n/a	FR1	0	R1177M
3193.117	2.583	1635505	WORD	n/a	wordpools/wordpool_EN.txt	BUSH	3	23	[0, 0, 0]	n/a	FR1	0	R1177M
3195.7	2.535	1636796	WORD	n/a	wordpools/wordpool_EN.txt	WEED	4	23	[0, 0, 0]	n/a	FR1	0	R1177M
3198.235	2.416	1638064	WORD	n/a	wordpools/wordpool_EN.txt	SWORD	5	23	[0, 0, 0]	n/a	FR1	0	R1177M
3200.651	2.452	1639271	WORD	n/a	wordpools/wordpool_EN.txt	SQUARE	6	23	[0, 0, 0]	n/a	FR1	0	R1177M
3203.103	2.499	1640497	WORD	n/a	wordpools/wordpool_EN.txt	LAND	7	23	[0, 0, 0]	n/a	FR1	0	R1177M
3205.602	2.418	1641747	WORD	n/a	wordpools/wordpool_EN.txt	HILL	8	23	[0, 0, 0]	n/a	FR1	0	R1177M
3208.02	2.417	1642956	WORD	n/a	wordpools/wordpool_EN.txt	CLIFF	9	23	[0, 0, 0]	n/a	FR1	0	R1177M
3210.437	2.551	1644164	WORD	n/a	wordpools/wordpool_EN.txt	BOY	10	23	[0, 0, 0]	n/a	FR1	0	R1177M
3212.988	2.584	1645439	WORD	n/a	wordpools/wordpool_EN.txt	LAKE	11	23	[0, 0, 0]	n/a	FR1	0	R1177M
3215.572	1.617	1646731	WORD	n/a	wordpools/wordpool_EN.txt	ROCK	12	23	[0, 0, 0]	n/a	FR1	0	R1177M
3217.189	0.001	1647540	DISTRACT_START	n/a	n/a	n/a	-999	23	[0, 0, 0]	n/a	FR1	0	R1177M
3217.19	0.015	1647540	START	n/a	n/a	n/a	-999	23	[-999, -999, -999]	n/a	FR1	0	R1177M
3217.205	9.736	1647548	PROB	9.736	n/a	n/a	-999	23	[9, 3, 1]	13	FR1	0	R1177M
3226.941	11.728	1652415	PROB	11.728	n/a	n/a	-999	23	[9, 4, 7]	19	FR1	0	R1177M
3238.669	0.006	1658279	STOP	n/a	n/a	n/a	-999	23	[-999, -999, -999]	n/a	FR1	0	R1177M
3238.675	1.151	1658282	DISTRACT_END	n/a	n/a	n/a	-999	23	[0, 0, 0]	n/a	FR1	0	R1177M
3239.826	21.79	1658857	REC_START	n/a	n/a	n/a	-999	23	[0, 0, 0]	n/a	FR1	0	R1177M
3261.616	8.222	1669751	REC_WORD	8.222	n/a	SQUARE	-999	23	[0, 0, 0]	n/a	FR1	0	R1177M
3269.838	8.712	1673862	REC_END	n/a	n/a	n/a	-999	23	[0, 0, 0]	n/a	FR1	0	R1177M
3278.55	0.001	1678218	COUNTDOWN_START	n/a	n/a	n/a	-999	24	[0, 0, 0]	n/a	FR1	0	R1177M
3278.551	10.427	1678218	TRIAL	n/a	n/a	n/a	-999	24	[0, 0, 0]	n/a	FR1	0	R1177M
3288.978	0.008	1683431	COUNTDOWN_END	n/a	n/a	n/a	-999	24	[0, 0, 0]	n/a	FR1	0	R1177M
3288.986	2.517	1683435	ORIENT	n/a	n/a	n/a	-999	24	[0, 0, 0]	n/a	FR1	0	R1177M
3291.503	2.4	1684694	WORD	n/a	wordpools/wordpool_EN.txt	WOLF	1	24	[0, 0, 0]	n/a	FR1	0	R1177M
3293.903	2.418	1685894	WORD	n/a	wordpools/wordpool_EN.txt	SPOON	2	24	[0, 0, 0]	n/a	FR1	0	R1177M
3296.321	2.432	1687103	WORD	n/a	wordpools/wordpool_EN.txt	FOOD	3	24	[0, 0, 0]	n/a	FR1	0	R1177M
3298.753	2.569	1688318	WORD	n/a	wordpools/wordpool_EN.txt	KITE	4	24	[0, 0, 0]	n/a	FR1	0	R1177M
3301.322	2.617	1689603	WORD	n/a	wordpools/wordpool_EN.txt	PIG	5	24	[0, 0, 0]	n/a	FR1	0	R1177M
3303.939	2.567	1690911	WORD	n/a	wordpools/wordpool_EN.txt	WOOD	6	24	[0, 0, 0]	n/a	FR1	0	R1177M
3306.506	2.484	1692195	WORD	n/a	wordpools/wordpool_EN.txt	PET	7	24	[0, 0, 0]	n/a	FR1	0	R1177M
3308.99	2.383	1693437	WORD	n/a	wordpools/wordpool_EN.txt	BRANCH	8	24	[0, 0, 0]	n/a	FR1	0	R1177M
3311.373	2.517	1694628	WORD	n/a	wordpools/wordpool_EN.txt	BEAR	9	24	[0, 0, 0]	n/a	FR1	0	R1177M
3313.89	2.568	1695886	WORD	n/a	wordpools/wordpool_EN.txt	FRUIT	10	24	[0, 0, 0]	n/a	FR1	0	R1177M
3316.458	2.567	1697170	WORD	n/a	wordpools/wordpool_EN.txt	TREE	11	24	[0, 0, 0]	n/a	FR1	0	R1177M
3319.025	1.616	1698454	WORD	n/a	wordpools/wordpool_EN.txt	CHIEF	12	24	[0, 0, 0]	n/a	FR1	0	R1177M
3320.641	0.001	1699262	DISTRACT_START	n/a	n/a	n/a	-999	24	[0, 0, 0]	n/a	FR1	0	R1177M
3320.642	0.016	1699262	START	n/a	n/a	n/a	-999	24	[-999, -999, -999]	n/a	FR1	0	R1177M
3320.658	7.352	1699270	PROB	7.352	n/a	n/a	-999	24	[1, 8, 8]	17	FR1	0	R1177M
3328.01	6.485	1702946	PROB	6.485	n/a	n/a	-999	24	[1, 4, 1]	6	FR1	0	R1177M
3334.495	7.631	1706188	PROB	7.631	n/a	n/a	-999	24	[2, 2, 9]	13	FR1	0	R1177M
3342.126	0.003	1710003	STOP	n/a	n/a	n/a	-999	24	[-999, -999, -999]	n/a	FR1	0	R1177M
3342.129	1.085	1710005	DISTRACT_END	n/a	n/a	n/a	-999	24	[0, 0, 0]	n/a	FR1	0	R1177M
3343.214	2.274	1710547	REC_START	n/a	n/a	n/a	-999	24	[0, 0, 0]	n/a	FR1	0	R1177M
3345.488	1.477	1711684	REC_WORD	1.477	n/a	WOLF	-999	24	[0, 0, 0]	n/a	FR1	0	R1177M
3346.965	1.297	1712423	REC_WORD	1.297	n/a	BEAR	-999	24	[0, 0, 0]	n/a	FR1	0	R1177M
3348.262	24.964	1713071	REC_WORD	24.964	n/a	SPOON	-999	24	[0, 0, 0]	n/a	FR1	0	R1177M
3373.226	5.576	1725552	REC_END	n/a	n/a	n/a	-999	24	[0, 0, 0]	n/a	FR1	0	R1177M
3378.802	0.0	1728340	TRIAL	n/a	n/a	n/a	-999	25	[0, 0, 0]	n/a	FR1	0	R1177M
3378.802	10.428	1728340	COUNTDOWN_START	n/a	n/a	n/a	-999	25	[0, 0, 0]	n/a	FR1	0	R1177M
3389.23	0.009	1733553	COUNTDOWN_END	n/a	n/a	n/a	-999	25	[0, 0, 0]	n/a	FR1	0	R1177M
3389.239	2.382	1733558	ORIENT	n/a	n/a	n/a	-999	25	[0, 0, 0]	n/a	FR1	0	R1177M
3391.621	2.435	1734749	WORD	n/a	wordpools/wordpool_EN.txt	POLE	1	25	[0, 0, 0]	n/a	FR1	0	R1177M
3394.056	2.484	1735966	WORD	n/a	wordpools/wordpool_EN.txt	CHEEK	2	25	[0, 0, 0]	n/a	FR1	0	R1177M
3396.54	2.483	1737208	WORD	n/a	wordpools/wordpool_EN.txt	PHONE	3	25	[0, 0, 0]	n/a	FR1	0	R1177M
3399.023	2.435	1738449	WORD	n/a	wordpools/wordpool_EN.txt	DIME	4	25	[0, 0, 0]	n/a	FR1	0	R1177M
3401.458	2.533	1739667	WORD	n/a	wordpools/wordpool_EN.txt	COIN	5	25	[0, 0, 0]	n/a	FR1	0	R1177M
3403.991	2.501	1740933	WORD	n/a	wordpools/wordpool_EN.txt	SPEAR	6	25	[0, 0, 0]	n/a	FR1	0	R1177M
3406.492	2.467	1742184	WORD	n/a	wordpools/wordpool_EN.txt	CONE	7	25	[0, 0, 0]	n/a	FR1	0	R1177M
3408.959	2.45	1743417	WORD	n/a	wordpools/wordpool_EN.txt	ARM	8	25	[0, 0, 0]	n/a	FR1	0	R1177M
3411.409	2.433	1744642	WORD	n/a	wordpools/wordpool_EN.txt	DRUM	9	25	[0, 0, 0]	n/a	FR1	0	R1177M
3413.842	2.535	1745858	WORD	n/a	wordpools/wordpool_EN.txt	GRAPE	10	25	[0, 0, 0]	n/a	FR1	0	R1177M
3416.377	2.584	1747126	WORD	n/a	wordpools/wordpool_EN.txt	HOSE	11	25	[0, 0, 0]	n/a	FR1	0	R1177M
3418.961	1.617	1748418	WORD	n/a	wordpools/wordpool_EN.txt	FROG	12	25	[0, 0, 0]	n/a	FR1	0	R1177M
3420.578	0.001	1749226	DISTRACT_START	n/a	n/a	n/a	-999	25	[0, 0, 0]	n/a	FR1	0	R1177M
3420.579	0.015	1749227	START	n/a	n/a	n/a	-999	25	[-999, -999, -999]	n/a	FR1	0	R1177M
3420.594	6.735	1749234	PROB	6.735	n/a	n/a	-999	25	[1, 2, 1]	4	FR1	0	R1177M
3427.329	9.368	1752601	PROB	9.368	n/a	n/a	-999	25	[9, 4, 8]	21	FR1	0	R1177M
3436.697	13.261	1757285	PROB	13.261	n/a	n/a	-999	25	[9, 5, 5]	18	FR1	0	R1177M
3449.958	0.009	1763915	STOP	n/a	n/a	n/a	-999	25	[-999, -999, -999]	n/a	FR1	0	R1177M
3449.967	1.167	1763919	DISTRACT_END	n/a	n/a	n/a	-999	25	[0, 0, 0]	n/a	FR1	0	R1177M
3451.134	4.689	1764503	REC_START	n/a	n/a	n/a	-999	25	[0, 0, 0]	n/a	FR1	0	R1177M
3455.823	18.953	1766847	REC_WORD	18.953	n/a	HOSE	-999	25	[0, 0, 0]	n/a	FR1	0	R1177M
3474.776	6.375	1776323	REC_WORD	6.375	n/a	PHONE	-999	25	[0, 0, 0]	n/a	FR1	0	R1177M
3481.151	24.293	1779510	REC_END	n/a	n/a	n/a	-999	25	[0, 0, 0]	n/a	FR1	0	R1177M
3505.444	0.0	1791656	SESS_END	n/a	n/a	n/a	-999	25	[0, 0, 0]	n/a	FR1	0	R1177M
