onset	duration	sample	trial_type	response_time	stim_file	item_name	serialpos	list	test	answer	experiment	session	subject
0.0	0.0	9566	INSTRUCT_START	n/a	n/a	n/a	-999	-999	[0, 0, 0]	n/a	FR1	0	R1167M
0.0	11.132	9566	INSTRUCT_END	n/a	n/a	n/a	-999	-999	[0, 0, 0]	n/a	FR1	0	R1167M
11.132	0.0	20698	SESS_START	n/a	n/a	n/a	-999	-999	[0, 0, 0]	n/a	FR1	0	R1167M
11.132	22.5	20698	MIC_TEST	n/a	n/a	n/a	-999	-999	[0, 0, 0]	n/a	FR1	0	R1167M
33.632	10.776	43196	PRACTICE_TRIAL	n/a	n/a	n/a	-999	-1	[0, 0, 0]	n/a	FR1	0	R1167M
44.408	10.428	53972	COUNTDOWN_START	n/a	n/a	n/a	-999	-1	[0, 0, 0]	n/a	FR1	0	R1167M
54.836	0.007	64399	COUNTDOWN_END	n/a	n/a	n/a	-999	-1	[0, 0, 0]	n/a	FR1	0	R1167M
54.843	1.618	64406	PRACTICE_ORIENT	n/a	n/a	n/a	-999	-1	[0, 0, 0]	n/a	FR1	0	R1167M
56.461	2.084	66024	PRACTICE_ORIENT_OFF	n/a	n/a	n/a	-999	-1	[0, 0, 0]	n/a	FR1	0	R1167M
58.545	1.617	68108	PRACTICE_WORD	n/a	n/a	WATCH	1	-1	[0, 0, 0]	n/a	FR1	0	R1167M
60.162	0.849	69725	PRACTICE_WORD_OFF	n/a	n/a	WATCH	-999	-1	[0, 0, 0]	n/a	FR1	0	R1167M
61.011	1.618	70574	PRACTICE_WORD	n/a	n/a	FLOOD	2	-1	[0, 0, 0]	n/a	FR1	0	R1167M
62.629	0.951	72192	PRACTICE_WORD_OFF	n/a	n/a	FLOOD	-999	-1	[0, 0, 0]	n/a	FR1	0	R1167M
63.58	1.617	73143	PRACTICE_WORD	n/a	n/a	ATTIC	3	-1	[0, 0, 0]	n/a	FR1	0	R1167M
65.197	0.882	74759	PRACTICE_WORD_OFF	n/a	n/a	ATTIC	-999	-1	[0, 0, 0]	n/a	FR1	0	R1167M
66.079	1.618	75641	PRACTICE_WORD	n/a	n/a	WAGON	4	-1	[0, 0, 0]	n/a	FR1	0	R1167M
67.697	0.95	77259	PRACTICE_WORD_OFF	n/a	n/a	WAGON	-999	-1	[0, 0, 0]	n/a	FR1	0	R1167M
68.647	1.617	78209	PRACTICE_WORD	n/a	n/a	IRON	5	-1	[0, 0, 0]	n/a	FR1	0	R1167M
70.264	0.934	79826	PRACTICE_WORD_OFF	n/a	n/a	IRON	-999	-1	[0, 0, 0]	n/a	FR1	0	R1167M
71.198	1.616	80760	PRACTICE_WORD	n/a	n/a	CAMEL	6	-1	[0, 0, 0]	n/a	FR1	0	R1167M
72.814	0.817	82376	PRACTICE_WORD_OFF	n/a	n/a	CAMEL	-999	-1	[0, 0, 0]	n/a	FR1	0	R1167M
73.631	1.617	83193	PRACTICE_WORD	n/a	n/a	RHINO	7	-1	[0, 0, 0]	n/a	FR1	0	R1167M
75.248	0.984	84810	PRACTICE_WORD_OFF	n/a	n/a	RHINO	-999	-1	[0, 0, 0]	n/a	FR1	0	R1167M
76.232	1.616	85794	PRACTICE_WORD	n/a	n/a	RING	8	-1	[0, 0, 0]	n/a	FR1	0	R1167M
77.848	0.967	87410	PRACTICE_WORD_OFF	n/a	n/a	RING	-999	-1	[0, 0, 0]	n/a	FR1	0	R1167M
78.815	1.618	88377	PRACTICE_WORD	n/a	n/a	CHEST	9	-1	[0, 0, 0]	n/a	FR1	0	R1167M
80.433	0.783	89995	PRACTICE_WORD_OFF	n/a	n/a	CHEST	-999	-1	[0, 0, 0]	n/a	FR1	0	R1167M
81.216	1.616	90778	PRACTICE_WORD	n/a	n/a	BEAM	10	-1	[0, 0, 0]	n/a	FR1	0	R1167M
82.832	0.768	92393	PRACTICE_WORD_OFF	n/a	n/a	BEAM	-999	-1	[0, 0, 0]	n/a	FR1	0	R1167M
83.6	1.617	93161	PRACTICE_WORD	n/a	n/a	COTTON	11	-1	[0, 0, 0]	n/a	FR1	0	R1167M
85.217	0.967	94778	PRACTICE_WORD_OFF	n/a	n/a	COTTON	-999	-1	[0, 0, 0]	n/a	FR1	0	R1167M
86.184	1.616	95745	PRACTICE_WORD	n/a	n/a	TONGUE	12	-1	[0, 0, 0]	n/a	FR1	0	R1167M
87.8	0.0	97361	PRACTICE_WORD_OFF	n/a	n/a	TONGUE	-999	-1	[0, 0, 0]	n/a	FR1	0	R1167M
87.8	0.001	97361	DISTRACT_START	n/a	n/a	n/a	-999	-1	[0, 0, 0]	n/a	FR1	0	R1167M
87.801	0.016	97362	START	n/a	n/a	n/a	-999	-1	[-999, -999, -999]	n/a	FR1	0	R1167M
87.817	6.685	97378	PROB	6.685	n/a	n/a	-999	-1	[2, 1, 9]	12	FR1	0	R1167M
94.502	3.984	104063	PROB	3.984	n/a	n/a	-999	-1	[3, 3, 1]	7	FR1	0	R1167M
98.486	3.951	108047	PROB	3.951	n/a	n/a	-999	-1	[2, 3, 2]	7	FR1	0	R1167M
102.437	4.533	111997	PROB	4.533	n/a	n/a	-999	-1	[9, 1, 5]	15	FR1	0	R1167M
106.97	5.669	116530	PROB	5.669	n/a	n/a	-999	-1	[4, 7, 4]	15	FR1	0	R1167M
112.639	0.017	122199	STOP	n/a	n/a	n/a	-999	-1	[-999, -999, -999]	n/a	FR1	0	R1167M
112.656	0.7	122216	DISTRACT_END	n/a	n/a	n/a	-999	-1	[0, 0, 0]	n/a	FR1	0	R1167M
113.356	0.52	122916	RETRIEVAL_ORIENT	n/a	n/a	n/a	-999	-1	[0, 0, 0]	n/a	FR1	0	R1167M
113.876	30.01	123436	PRACTICE_REC_START	n/a	n/a	n/a	-999	-1	[0, 0, 0]	n/a	FR1	0	R1167M
143.886	23.347	153444	PRACTICE_REC_END	n/a	n/a	n/a	-999	-1	[0, 0, 0]	n/a	FR1	0	R1167M
167.233	0.5	176790	TRIAL	n/a	n/a	n/a	-999	1	[0, 0, 0]	n/a	FR1	0	R1167M
167.733	10.428	177290	COUNTDOWN_START	n/a	n/a	n/a	-999	1	[0, 0, 0]	n/a	FR1	0	R1167M
178.161	0.007	187717	COUNTDOWN_END	n/a	n/a	n/a	-999	1	[0, 0, 0]	n/a	FR1	0	R1167M
178.168	1.616	187724	ORIENT	n/a	n/a	n/a	-999	1	[0, 0, 0]	n/a	FR1	0	R1167M
179.784	2.084	189340	ORIENT_OFF	n/a	n/a	n/a	-999	1	[0, 0, 0]	n/a	FR1	0	R1167M
181.868	1.601	191424	WORD	n/a	wordpools/wordpool_EN.txt	ROOT	1	1	[0, 0, 0]	n/a	FR1	0	R1167M
183.469	0.9	193025	WORD_OFF	n/a	n/a	ROOT	1	1	[0, 0, 0]	n/a	FR1	0	R1167M
184.369	1.617	193925	WORD	n/a	wordpools/wordpool_EN.txt	SEED	2	1	[0, 0, 0]	n/a	FR1	0	R1167M
185.986	1.0	195542	WORD_OFF	n/a	n/a	SEED	2	1	[0, 0, 0]	n/a	FR1	0	R1167M
186.986	1.601	196542	WORD	n/a	wordpools/wordpool_EN.txt	MILK	3	1	[0, 0, 0]	n/a	FR1	0	R1167M
188.587	0.867	198142	WORD_OFF	n/a	n/a	MILK	3	1	[0, 0, 0]	n/a	FR1	0	R1167M
189.454	1.616	199009	WORD	n/a	wordpools/wordpool_EN.txt	SHRIMP	4	1	[0, 0, 0]	n/a	FR1	0	R1167M
191.07	0.767	200625	WORD_OFF	n/a	n/a	SHRIMP	4	1	[0, 0, 0]	n/a	FR1	0	R1167M
191.837	1.601	201392	WORD	n/a	wordpools/wordpool_EN.txt	STAIR	5	1	[0, 0, 0]	n/a	FR1	0	R1167M
193.438	0.817	202993	WORD_OFF	n/a	n/a	STAIR	5	1	[0, 0, 0]	n/a	FR1	0	R1167M
194.255	1.616	203810	WORD	n/a	wordpools/wordpool_EN.txt	MAP	6	1	[0, 0, 0]	n/a	FR1	0	R1167M
195.871	0.917	205426	WORD_OFF	n/a	n/a	MAP	6	1	[0, 0, 0]	n/a	FR1	0	R1167M
196.788	1.618	206343	WORD	n/a	wordpools/wordpool_EN.txt	CORN	7	1	[0, 0, 0]	n/a	FR1	0	R1167M
198.406	0.95	207961	WORD_OFF	n/a	n/a	CORN	7	1	[0, 0, 0]	n/a	FR1	0	R1167M
199.356	1.616	208911	WORD	n/a	wordpools/wordpool_EN.txt	ANT	8	1	[0, 0, 0]	n/a	FR1	0	R1167M
200.972	0.8	210527	WORD_OFF	n/a	n/a	ANT	8	1	[0, 0, 0]	n/a	FR1	0	R1167M
201.772	1.618	211327	WORD	n/a	wordpools/wordpool_EN.txt	SHELL	9	1	[0, 0, 0]	n/a	FR1	0	R1167M
203.39	0.984	212945	WORD_OFF	n/a	n/a	SHELL	9	1	[0, 0, 0]	n/a	FR1	0	R1167M
204.374	1.615	213929	WORD	n/a	wordpools/wordpool_EN.txt	LEAF	10	1	[0, 0, 0]	n/a	FR1	0	R1167M
205.989	0.967	215543	WORD_OFF	n/a	n/a	LEAF	10	1	[0, 0, 0]	n/a	FR1	0	R1167M
206.956	1.618	216510	WORD	n/a	wordpools/wordpool_EN.txt	SNAIL	11	1	[0, 0, 0]	n/a	FR1	0	R1167M
208.574	0.917	218128	WORD_OFF	n/a	n/a	SNAIL	11	1	[0, 0, 0]	n/a	FR1	0	R1167M
209.491	1.616	219045	WORD	n/a	wordpools/wordpool_EN.txt	HOOF	12	1	[0, 0, 0]	n/a	FR1	0	R1167M
211.107	0.0	220661	WORD_OFF	n/a	n/a	HOOF	12	1	[0, 0, 0]	n/a	FR1	0	R1167M
211.107	0.001	220661	DISTRACT_START	n/a	n/a	n/a	-999	1	[0, 0, 0]	n/a	FR1	0	R1167M
211.108	0.016	220662	START	n/a	n/a	n/a	-999	1	[-999, -999, -999]	n/a	FR1	0	R1167M
211.124	4.651	220678	PROB	4.651	n/a	n/a	-999	1	[4, 8, 7]	19	FR1	0	R1167M
215.775	4.317	225329	PROB	4.317	n/a	n/a	-999	1	[7, 6, 1]	14	FR1	0	R1167M
220.092	3.684	229646	PROB	3.684	n/a	n/a	-999	1	[6, 7, 9]	22	FR1	0	R1167M
223.776	3.084	233329	PROB	3.084	n/a	n/a	-999	1	[1, 2, 3]	6	FR1	0	R1167M
226.86	4.788	236413	PROB	4.788	n/a	n/a	-999	1	[3, 5, 2]	10	FR1	0	R1167M
231.648	0.014	241201	STOP	n/a	n/a	n/a	-999	1	[-999, -999, -999]	n/a	FR1	0	R1167M
231.662	0.633	241215	DISTRACT_END	n/a	n/a	n/a	-999	1	[0, 0, 0]	n/a	FR1	0	R1167M
232.295	0.517	241848	RETRIEVAL_ORIENT	n/a	n/a	n/a	-999	1	[0, 0, 0]	n/a	FR1	0	R1167M
232.812	1.556	242365	REC_START	n/a	n/a	n/a	-999	1	[0, 0, 0]	n/a	FR1	0	R1167M
234.368	1.354	243921	REC_WORD	1.354	n/a	ROOT	-999	1	[0, 0, 0]	n/a	FR1	0	R1167M
235.722	1.286	245275	REC_WORD	1.286	n/a	LEAF	-999	1	[0, 0, 0]	n/a	FR1	0	R1167M
237.008	1.934	246561	REC_WORD	1.934	n/a	SHELL	-999	1	[0, 0, 0]	n/a	FR1	0	R1167M
238.942	23.882	248495	REC_WORD	23.882	n/a	SHRIMP	-999	1	[0, 0, 0]	n/a	FR1	0	R1167M
262.824	5.862	272375	REC_END	n/a	n/a	n/a	-999	1	[0, 0, 0]	n/a	FR1	0	R1167M
268.686	0.5	278237	TRIAL	n/a	n/a	n/a	-999	2	[0, 0, 0]	n/a	FR1	0	R1167M
269.186	10.428	278737	COUNTDOWN_START	n/a	n/a	n/a	-999	2	[0, 0, 0]	n/a	FR1	0	R1167M
279.614	0.007	289164	COUNTDOWN_END	n/a	n/a	n/a	-999	2	[0, 0, 0]	n/a	FR1	0	R1167M
279.621	1.617	289171	ORIENT	n/a	n/a	n/a	-999	2	[0, 0, 0]	n/a	FR1	0	R1167M
281.238	1.984	290788	ORIENT_OFF	n/a	n/a	n/a	-999	2	[0, 0, 0]	n/a	FR1	0	R1167M
283.222	1.616	292772	WORD	n/a	wordpools/wordpool_EN.txt	TOAST	1	2	[0, 0, 0]	n/a	FR1	0	R1167M
284.838	0.934	294388	WORD_OFF	n/a	n/a	TOAST	1	2	[0, 0, 0]	n/a	FR1	0	R1167M
285.772	1.618	295322	WORD	n/a	wordpools/wordpool_EN.txt	FRUIT	2	2	[0, 0, 0]	n/a	FR1	0	R1167M
287.39	0.833	296940	WORD_OFF	n/a	n/a	FRUIT	2	2	[0, 0, 0]	n/a	FR1	0	R1167M
288.223	1.616	297773	WORD	n/a	wordpools/wordpool_EN.txt	LIP	3	2	[0, 0, 0]	n/a	FR1	0	R1167M
289.839	0.9	299389	WORD_OFF	n/a	n/a	LIP	3	2	[0, 0, 0]	n/a	FR1	0	R1167M
290.739	1.618	300289	WORD	n/a	wordpools/wordpool_EN.txt	PIN	4	2	[0, 0, 0]	n/a	FR1	0	R1167M
292.357	0.934	301907	WORD_OFF	n/a	n/a	PIN	4	2	[0, 0, 0]	n/a	FR1	0	R1167M
293.291	1.616	302841	WORD	n/a	wordpools/wordpool_EN.txt	GLASS	5	2	[0, 0, 0]	n/a	FR1	0	R1167M
294.907	0.967	304456	WORD_OFF	n/a	n/a	GLASS	5	2	[0, 0, 0]	n/a	FR1	0	R1167M
295.874	1.618	305423	WORD	n/a	wordpools/wordpool_EN.txt	FOOT	6	2	[0, 0, 0]	n/a	FR1	0	R1167M
297.492	0.983	307041	WORD_OFF	n/a	n/a	FOOT	6	2	[0, 0, 0]	n/a	FR1	0	R1167M
298.475	1.616	308024	WORD	n/a	wordpools/wordpool_EN.txt	ELF	7	2	[0, 0, 0]	n/a	FR1	0	R1167M
300.091	0.9	309640	WORD_OFF	n/a	n/a	ELF	7	2	[0, 0, 0]	n/a	FR1	0	R1167M
300.991	1.601	310540	WORD	n/a	wordpools/wordpool_EN.txt	CHAIR	8	2	[0, 0, 0]	n/a	FR1	0	R1167M
302.592	0.884	312141	WORD_OFF	n/a	n/a	CHAIR	8	2	[0, 0, 0]	n/a	FR1	0	R1167M
303.476	1.616	313025	WORD	n/a	wordpools/wordpool_EN.txt	PLATE	9	2	[0, 0, 0]	n/a	FR1	0	R1167M
305.092	0.833	314641	WORD_OFF	n/a	n/a	PLATE	9	2	[0, 0, 0]	n/a	FR1	0	R1167M
305.925	1.602	315474	WORD	n/a	wordpools/wordpool_EN.txt	CUP	10	2	[0, 0, 0]	n/a	FR1	0	R1167M
307.527	0.867	317076	WORD_OFF	n/a	n/a	CUP	10	2	[0, 0, 0]	n/a	FR1	0	R1167M
308.394	1.616	317943	WORD	n/a	wordpools/wordpool_EN.txt	STOOL	11	2	[0, 0, 0]	n/a	FR1	0	R1167M
310.01	0.766	319559	WORD_OFF	n/a	n/a	STOOL	11	2	[0, 0, 0]	n/a	FR1	0	R1167M
310.776	1.601	320325	WORD	n/a	wordpools/wordpool_EN.txt	CHIN	12	2	[0, 0, 0]	n/a	FR1	0	R1167M
312.377	0.0	321925	DISTRACT_START	n/a	n/a	n/a	-999	2	[0, 0, 0]	n/a	FR1	0	R1167M
312.377	0.001	321925	WORD_OFF	n/a	n/a	CHIN	12	2	[0, 0, 0]	n/a	FR1	0	R1167M
312.378	0.016	321926	START	n/a	n/a	n/a	-999	2	[-999, -999, -999]	n/a	FR1	0	R1167M
312.394	4.318	321942	PROB	4.318	n/a	n/a	-999	2	[4, 2, 7]	13	FR1	0	R1167M
316.712	4.534	326260	PROB	4.534	n/a	n/a	-999	2	[5, 6, 6]	17	FR1	0	R1167M
321.246	4.018	330794	PROB	4.018	n/a	n/a	-999	2	[6, 3, 8]	17	FR1	0	R1167M
325.264	3.666	334812	PROB	3.666	n/a	n/a	-999	2	[6, 1, 4]	11	FR1	0	R1167M
328.93	4.39	338478	PROB	4.39	n/a	n/a	-999	2	[6, 6, 3]	15	FR1	0	R1167M
333.32	0.012	342867	STOP	n/a	n/a	n/a	-999	2	[-999, -999, -999]	n/a	FR1	0	R1167M
333.332	0.599	342879	DISTRACT_END	n/a	n/a	n/a	-999	2	[0, 0, 0]	n/a	FR1	0	R1167M
333.931	0.518	343478	RETRIEVAL_ORIENT	n/a	n/a	n/a	-999	2	[0, 0, 0]	n/a	FR1	0	R1167M
334.449	1.181	343996	REC_START	n/a	n/a	n/a	-999	2	[0, 0, 0]	n/a	FR1	0	R1167M
335.63	1.382	345177	REC_WORD	1.382	n/a	LIP	-999	2	[0, 0, 0]	n/a	FR1	0	R1167M
337.012	1.285	346559	REC_WORD	1.285	n/a	CHAIR	-999	2	[0, 0, 0]	n/a	FR1	0	R1167M
338.297	1.23	347844	REC_WORD	1.23	n/a	CUP	-999	2	[0, 0, 0]	n/a	FR1	0	R1167M
339.527	2.645	349074	REC_WORD	2.645	n/a	PIN	-999	2	[0, 0, 0]	n/a	FR1	0	R1167M
342.172	1.673	351719	REC_WORD	1.673	n/a	PLATE	-999	2	[0, 0, 0]	n/a	FR1	0	R1167M
343.845	2.298	353392	REC_WORD	2.298	n/a	TOAST	-999	2	[0, 0, 0]	n/a	FR1	0	R1167M
346.143	16.002	355690	REC_WORD	16.002	n/a	FRUIT	-999	2	[0, 0, 0]	n/a	FR1	0	R1167M
362.145	1.41	371691	REC_WORD	1.41	n/a	LIP	-999	2	[0, 0, 0]	n/a	FR1	0	R1167M
363.555	0.905	373101	REC_WORD_VV	0.905	n/a	<>	-999	2	[0, 0, 0]	n/a	FR1	0	R1167M
364.46	14.563	374005	REC_END	n/a	n/a	n/a	-999	2	[0, 0, 0]	n/a	FR1	0	R1167M
379.023	0.5	388568	TRIAL	n/a	n/a	n/a	-999	3	[0, 0, 0]	n/a	FR1	0	R1167M
379.523	10.428	389068	COUNTDOWN_START	n/a	n/a	n/a	-999	3	[0, 0, 0]	n/a	FR1	0	R1167M
389.951	0.007	399495	COUNTDOWN_END	n/a	n/a	n/a	-999	3	[0, 0, 0]	n/a	FR1	0	R1167M
389.958	1.602	399502	ORIENT	n/a	n/a	n/a	-999	3	[0, 0, 0]	n/a	FR1	0	R1167M
391.56	2.134	401104	ORIENT_OFF	n/a	n/a	n/a	-999	3	[0, 0, 0]	n/a	FR1	0	R1167M
393.694	1.617	403238	WORD	n/a	wordpools/wordpool_EN.txt	RICE	1	3	[0, 0, 0]	n/a	FR1	0	R1167M
395.311	0.866	404855	WORD_OFF	n/a	n/a	RICE	1	3	[0, 0, 0]	n/a	FR1	0	R1167M
396.177	1.616	405721	WORD	n/a	wordpools/wordpool_EN.txt	STAR	2	3	[0, 0, 0]	n/a	FR1	0	R1167M
397.793	0.902	407337	WORD_OFF	n/a	n/a	STAR	2	3	[0, 0, 0]	n/a	FR1	0	R1167M
398.695	1.617	408239	WORD	n/a	wordpools/wordpool_EN.txt	SEAL	3	3	[0, 0, 0]	n/a	FR1	0	R1167M
400.312	0.983	409855	WORD_OFF	n/a	n/a	SEAL	3	3	[0, 0, 0]	n/a	FR1	0	R1167M
401.295	1.616	410838	WORD	n/a	wordpools/wordpool_EN.txt	LAND	4	3	[0, 0, 0]	n/a	FR1	0	R1167M
402.911	0.933	412454	WORD_OFF	n/a	n/a	LAND	4	3	[0, 0, 0]	n/a	FR1	0	R1167M
403.844	1.618	413387	WORD	n/a	wordpools/wordpool_EN.txt	FOOD	5	3	[0, 0, 0]	n/a	FR1	0	R1167M
405.462	0.984	415005	WORD_OFF	n/a	n/a	FOOD	5	3	[0, 0, 0]	n/a	FR1	0	R1167M
406.446	1.616	415989	WORD	n/a	wordpools/wordpool_EN.txt	BLOOM	6	3	[0, 0, 0]	n/a	FR1	0	R1167M
408.062	0.917	417605	WORD_OFF	n/a	n/a	BLOOM	6	3	[0, 0, 0]	n/a	FR1	0	R1167M
408.979	1.618	418522	WORD	n/a	wordpools/wordpool_EN.txt	WHALE	7	3	[0, 0, 0]	n/a	FR1	0	R1167M
410.597	0.967	420140	WORD_OFF	n/a	n/a	WHALE	7	3	[0, 0, 0]	n/a	FR1	0	R1167M
411.564	1.617	421107	WORD	n/a	wordpools/wordpool_EN.txt	BEACH	8	3	[0, 0, 0]	n/a	FR1	0	R1167M
413.181	0.882	422724	WORD_OFF	n/a	n/a	BEACH	8	3	[0, 0, 0]	n/a	FR1	0	R1167M
414.063	1.618	423606	WORD	n/a	wordpools/wordpool_EN.txt	MOON	9	3	[0, 0, 0]	n/a	FR1	0	R1167M
415.681	0.884	425224	WORD_OFF	n/a	n/a	MOON	9	3	[0, 0, 0]	n/a	FR1	0	R1167M
416.565	1.617	426108	WORD	n/a	wordpools/wordpool_EN.txt	PLANT	10	3	[0, 0, 0]	n/a	FR1	0	R1167M
418.182	0.865	427724	WORD_OFF	n/a	n/a	PLANT	10	3	[0, 0, 0]	n/a	FR1	0	R1167M
419.047	1.618	428589	WORD	n/a	wordpools/wordpool_EN.txt	SUN	11	3	[0, 0, 0]	n/a	FR1	0	R1167M
420.665	0.767	430207	WORD_OFF	n/a	n/a	SUN	11	3	[0, 0, 0]	n/a	FR1	0	R1167M
421.432	1.616	430974	WORD	n/a	wordpools/wordpool_EN.txt	CAPE	12	3	[0, 0, 0]	n/a	FR1	0	R1167M
423.048	0.0	432590	WORD_OFF	n/a	n/a	CAPE	12	3	[0, 0, 0]	n/a	FR1	0	R1167M
423.048	0.001	432590	DISTRACT_START	n/a	n/a	n/a	-999	3	[0, 0, 0]	n/a	FR1	0	R1167M
423.049	0.016	432591	START	n/a	n/a	n/a	-999	3	[-999, -999, -999]	n/a	FR1	0	R1167M
423.065	3.468	432607	PROB	3.468	n/a	n/a	-999	3	[5, 5, 4]	14	FR1	0	R1167M
426.533	4.4	436075	PROB	4.4	n/a	n/a	-999	3	[3, 1, 8]	12	FR1	0	R1167M
430.933	3.951	440475	PROB	3.951	n/a	n/a	-999	3	[3, 9, 3]	15	FR1	0	R1167M
434.884	3.0	444426	PROB	3.0	n/a	n/a	-999	3	[7, 2, 2]	11	FR1	0	R1167M
437.884	4.001	447425	PROB	4.001	n/a	n/a	-999	3	[3, 6, 5]	14	FR1	0	R1167M
441.885	4.698	451426	PROB	4.698	n/a	n/a	-999	3	[8, 8, 9]	25	FR1	0	R1167M
446.583	0.021	456124	STOP	n/a	n/a	n/a	-999	3	[-999, -999, -999]	n/a	FR1	0	R1167M
446.604	0.65	456145	DISTRACT_END	n/a	n/a	n/a	-999	3	[0, 0, 0]	n/a	FR1	0	R1167M
447.254	0.516	456795	RETRIEVAL_ORIENT	n/a	n/a	n/a	-999	3	[0, 0, 0]	n/a	FR1	0	R1167M
447.77	1.091	457311	REC_START	n/a	n/a	n/a	-999	3	[0, 0, 0]	n/a	FR1	0	R1167M
448.861	0.691	458402	REC_WORD_VV	0.691	n/a	<>	-999	3	[0, 0, 0]	n/a	FR1	0	R1167M
449.552	0.967	459093	REC_WORD	0.967	n/a	MOON	-999	3	[0, 0, 0]	n/a	FR1	0	R1167M
450.519	1.981	460060	REC_WORD	1.981	n/a	STAR	-999	3	[0, 0, 0]	n/a	FR1	0	R1167M
452.5	0.793	462041	REC_WORD	0.793	n/a	BLOOM	-999	3	[0, 0, 0]	n/a	FR1	0	R1167M
453.293	1.691	462833	REC_WORD	1.691	n/a	ROOM	-999	3	[0, 0, 0]	n/a	FR1	0	R1167M
454.984	3.784	464524	REC_WORD	3.784	n/a	CAPE	-999	3	[0, 0, 0]	n/a	FR1	0	R1167M
458.768	19.016	468308	REC_WORD	19.016	n/a	RICE	-999	3	[0, 0, 0]	n/a	FR1	0	R1167M
477.784	153.656	487323	REC_END	n/a	n/a	n/a	-999	3	[0, 0, 0]	n/a	FR1	0	R1167M
631.44	0.5	640970	TRIAL	n/a	n/a	n/a	-999	4	[0, 0, 0]	n/a	FR1	0	R1167M
631.94	10.428	641470	COUNTDOWN_START	n/a	n/a	n/a	-999	4	[0, 0, 0]	n/a	FR1	0	R1167M
642.368	0.007	651898	COUNTDOWN_END	n/a	n/a	n/a	-999	4	[0, 0, 0]	n/a	FR1	0	R1167M
642.375	1.616	651905	ORIENT	n/a	n/a	n/a	-999	4	[0, 0, 0]	n/a	FR1	0	R1167M
643.991	2.05	653521	ORIENT_OFF	n/a	n/a	n/a	-999	4	[0, 0, 0]	n/a	FR1	0	R1167M
646.041	1.618	655571	WORD	n/a	wordpools/wordpool_EN.txt	CAKE	1	4	[0, 0, 0]	n/a	FR1	0	R1167M
647.659	0.934	657188	WORD_OFF	n/a	n/a	CAKE	1	4	[0, 0, 0]	n/a	FR1	0	R1167M
648.593	1.617	658122	WORD	n/a	wordpools/wordpool_EN.txt	TEA	2	4	[0, 0, 0]	n/a	FR1	0	R1167M
650.21	0.799	659739	WORD_OFF	n/a	n/a	TEA	2	4	[0, 0, 0]	n/a	FR1	0	R1167M
651.009	1.601	660538	WORD	n/a	wordpools/wordpool_EN.txt	BOX	3	4	[0, 0, 0]	n/a	FR1	0	R1167M
652.61	0.851	662139	WORD_OFF	n/a	n/a	BOX	3	4	[0, 0, 0]	n/a	FR1	0	R1167M
653.461	1.615	662990	WORD	n/a	wordpools/wordpool_EN.txt	BAG	4	4	[0, 0, 0]	n/a	FR1	0	R1167M
655.076	1.001	664605	WORD_OFF	n/a	n/a	BAG	4	4	[0, 0, 0]	n/a	FR1	0	R1167M
656.077	1.618	665606	WORD	n/a	wordpools/wordpool_EN.txt	SINK	5	4	[0, 0, 0]	n/a	FR1	0	R1167M
657.695	0.95	667224	WORD_OFF	n/a	n/a	SINK	5	4	[0, 0, 0]	n/a	FR1	0	R1167M
658.645	1.617	668174	WORD	n/a	wordpools/wordpool_EN.txt	CAGE	6	4	[0, 0, 0]	n/a	FR1	0	R1167M
660.262	0.917	669791	WORD_OFF	n/a	n/a	CAGE	6	4	[0, 0, 0]	n/a	FR1	0	R1167M
661.179	1.616	670708	WORD	n/a	wordpools/wordpool_EN.txt	LEG	7	4	[0, 0, 0]	n/a	FR1	0	R1167M
662.795	0.934	672324	WORD_OFF	n/a	n/a	LEG	7	4	[0, 0, 0]	n/a	FR1	0	R1167M
663.729	1.617	673258	WORD	n/a	wordpools/wordpool_EN.txt	HAND	8	4	[0, 0, 0]	n/a	FR1	0	R1167M
665.346	0.833	674874	WORD_OFF	n/a	n/a	HAND	8	4	[0, 0, 0]	n/a	FR1	0	R1167M
666.179	1.617	675707	WORD	n/a	wordpools/wordpool_EN.txt	SLEEVE	9	4	[0, 0, 0]	n/a	FR1	0	R1167M
667.796	0.966	677324	WORD_OFF	n/a	n/a	SLEEVE	9	4	[0, 0, 0]	n/a	FR1	0	R1167M
668.762	1.602	678290	WORD	n/a	wordpools/wordpool_EN.txt	MUG	10	4	[0, 0, 0]	n/a	FR1	0	R1167M
670.364	0.9	679892	WORD_OFF	n/a	n/a	MUG	10	4	[0, 0, 0]	n/a	FR1	0	R1167M
671.264	1.616	680792	WORD	n/a	wordpools/wordpool_EN.txt	TIE	11	4	[0, 0, 0]	n/a	FR1	0	R1167M
672.88	0.785	682408	WORD_OFF	n/a	n/a	TIE	11	4	[0, 0, 0]	n/a	FR1	0	R1167M
673.665	1.616	683193	WORD	n/a	wordpools/wordpool_EN.txt	BEAK	12	4	[0, 0, 0]	n/a	FR1	0	R1167M
675.281	0.0	684809	DISTRACT_START	n/a	n/a	n/a	-999	4	[0, 0, 0]	n/a	FR1	0	R1167M
675.281	0.001	684809	WORD_OFF	n/a	n/a	BEAK	12	4	[0, 0, 0]	n/a	FR1	0	R1167M
675.282	0.016	684810	START	n/a	n/a	n/a	-999	4	[-999, -999, -999]	n/a	FR1	0	R1167M
675.298	3.167	684826	PROB	3.167	n/a	n/a	-999	4	[1, 3, 3]	7	FR1	0	R1167M
678.465	4.55	687993	PROB	4.55	n/a	n/a	-999	4	[4, 6, 3]	13	FR1	0	R1167M
683.015	3.719	692542	PROB	3.719	n/a	n/a	-999	4	[1, 7, 9]	17	FR1	0	R1167M
686.734	2.383	696261	PROB	2.383	n/a	n/a	-999	4	[2, 2, 2]	6	FR1	0	R1167M
689.117	3.134	698644	PROB	3.134	n/a	n/a	-999	4	[6, 4, 4]	14	FR1	0	R1167M
692.251	4.003	701778	PROB	4.003	n/a	n/a	-999	4	[3, 4, 1]	8	FR1	0	R1167M
696.254	0.015	705781	STOP	n/a	n/a	n/a	-999	4	[-999, -999, -999]	n/a	FR1	0	R1167M
696.269	0.632	705796	DISTRACT_END	n/a	n/a	n/a	-999	4	[0, 0, 0]	n/a	FR1	0	R1167M
696.901	0.519	706428	RETRIEVAL_ORIENT	n/a	n/a	n/a	-999	4	[0, 0, 0]	n/a	FR1	0	R1167M
697.42	1.135	706947	REC_START	n/a	n/a	n/a	-999	4	[0, 0, 0]	n/a	FR1	0	R1167M
698.555	0.978	708082	REC_WORD	0.978	n/a	TEA	-999	4	[0, 0, 0]	n/a	FR1	0	R1167M
699.533	1.172	709060	REC_WORD	1.172	n/a	TIE	-999	4	[0, 0, 0]	n/a	FR1	0	R1167M
700.705	1.148	710231	REC_WORD	1.148	n/a	BEAK	-999	4	[0, 0, 0]	n/a	FR1	0	R1167M
701.853	1.212	711379	REC_WORD	1.212	n/a	BOX	-999	4	[0, 0, 0]	n/a	FR1	0	R1167M
703.065	1.279	712591	REC_WORD	1.279	n/a	BAG	-999	4	[0, 0, 0]	n/a	FR1	0	R1167M
704.344	4.762	713870	REC_WORD	4.762	n/a	SINK	-999	4	[0, 0, 0]	n/a	FR1	0	R1167M
709.106	18.324	718632	REC_WORD	18.324	n/a	CUP	-999	4	[0, 0, 0]	n/a	FR1	0	R1167M
727.43	8.997	736955	REC_END	n/a	n/a	n/a	-999	4	[0, 0, 0]	n/a	FR1	0	R1167M
736.427	0.5	745951	TRIAL	n/a	n/a	n/a	-999	5	[0, 0, 0]	n/a	FR1	0	R1167M
736.927	10.428	746451	COUNTDOWN_START	n/a	n/a	n/a	-999	5	[0, 0, 0]	n/a	FR1	0	R1167M
747.355	0.007	756879	COUNTDOWN_END	n/a	n/a	n/a	-999	5	[0, 0, 0]	n/a	FR1	0	R1167M
747.362	1.616	756886	ORIENT	n/a	n/a	n/a	-999	5	[0, 0, 0]	n/a	FR1	0	R1167M
748.978	2.034	758502	ORIENT_OFF	n/a	n/a	n/a	-999	5	[0, 0, 0]	n/a	FR1	0	R1167M
751.012	1.618	760536	WORD	n/a	wordpools/wordpool_EN.txt	ROAD	1	5	[0, 0, 0]	n/a	FR1	0	R1167M
752.63	0.85	762154	WORD_OFF	n/a	n/a	ROAD	1	5	[0, 0, 0]	n/a	FR1	0	R1167M
753.48	1.616	763003	WORD	n/a	wordpools/wordpool_EN.txt	FARM	2	5	[0, 0, 0]	n/a	FR1	0	R1167M
755.096	0.9	764619	WORD_OFF	n/a	n/a	FARM	2	5	[0, 0, 0]	n/a	FR1	0	R1167M
755.996	1.618	765519	WORD	n/a	wordpools/wordpool_EN.txt	TRAIN	3	5	[0, 0, 0]	n/a	FR1	0	R1167M
757.614	0.884	767137	WORD_OFF	n/a	n/a	TRAIN	3	5	[0, 0, 0]	n/a	FR1	0	R1167M
758.498	1.616	768021	WORD	n/a	wordpools/wordpool_EN.txt	JEEP	4	5	[0, 0, 0]	n/a	FR1	0	R1167M
760.114	0.816	769637	WORD_OFF	n/a	n/a	JEEP	4	5	[0, 0, 0]	n/a	FR1	0	R1167M
760.93	1.618	770453	WORD	n/a	wordpools/wordpool_EN.txt	RAT	5	5	[0, 0, 0]	n/a	FR1	0	R1167M
762.548	0.801	772071	WORD_OFF	n/a	n/a	RAT	5	5	[0, 0, 0]	n/a	FR1	0	R1167M
763.349	1.615	772872	WORD	n/a	wordpools/wordpool_EN.txt	STORE	6	5	[0, 0, 0]	n/a	FR1	0	R1167M
764.964	0.951	774487	WORD_OFF	n/a	n/a	STORE	6	5	[0, 0, 0]	n/a	FR1	0	R1167M
765.915	1.618	775438	WORD	n/a	wordpools/wordpool_EN.txt	HORSE	7	5	[0, 0, 0]	n/a	FR1	0	R1167M
767.533	0.917	777056	WORD_OFF	n/a	n/a	HORSE	7	5	[0, 0, 0]	n/a	FR1	0	R1167M
768.45	1.615	777973	WORD	n/a	wordpools/wordpool_EN.txt	DART	8	5	[0, 0, 0]	n/a	FR1	0	R1167M
770.065	0.884	779588	WORD_OFF	n/a	n/a	DART	8	5	[0, 0, 0]	n/a	FR1	0	R1167M
770.949	1.618	780471	WORD	n/a	wordpools/wordpool_EN.txt	HEN	9	5	[0, 0, 0]	n/a	FR1	0	R1167M
772.567	0.9	782089	WORD_OFF	n/a	n/a	HEN	9	5	[0, 0, 0]	n/a	FR1	0	R1167M
773.467	1.616	782989	WORD	n/a	wordpools/wordpool_EN.txt	CHALK	10	5	[0, 0, 0]	n/a	FR1	0	R1167M
775.083	0.917	784605	WORD_OFF	n/a	n/a	CHALK	10	5	[0, 0, 0]	n/a	FR1	0	R1167M
776.0	1.618	785522	WORD	n/a	wordpools/wordpool_EN.txt	PET	11	5	[0, 0, 0]	n/a	FR1	0	R1167M
777.618	0.95	787140	WORD_OFF	n/a	n/a	PET	11	5	[0, 0, 0]	n/a	FR1	0	R1167M
778.568	1.617	788090	WORD	n/a	wordpools/wordpool_EN.txt	LAWN	12	5	[0, 0, 0]	n/a	FR1	0	R1167M
780.185	0.0	789707	WORD_OFF	n/a	n/a	LAWN	12	5	[0, 0, 0]	n/a	FR1	0	R1167M
780.185	0.001	789707	DISTRACT_START	n/a	n/a	n/a	-999	5	[0, 0, 0]	n/a	FR1	0	R1167M
780.186	0.016	789708	START	n/a	n/a	n/a	-999	5	[-999, -999, -999]	n/a	FR1	0	R1167M
780.202	3.951	789724	PROB	3.951	n/a	n/a	-999	5	[9, 8, 4]	21	FR1	0	R1167M
784.153	3.633	793675	PROB	3.633	n/a	n/a	-999	5	[7, 7, 9]	23	FR1	0	R1167M
787.786	3.451	797308	PROB	3.451	n/a	n/a	-999	5	[5, 6, 7]	18	FR1	0	R1167M
791.237	3.951	800758	PROB	3.951	n/a	n/a	-999	5	[4, 9, 7]	20	FR1	0	R1167M
795.188	5.115	804709	PROB	5.115	n/a	n/a	-999	5	[6, 5, 7]	18	FR1	0	R1167M
800.303	0.019	809824	STOP	n/a	n/a	n/a	-999	5	[-999, -999, -999]	n/a	FR1	0	R1167M
800.322	0.549	809843	DISTRACT_END	n/a	n/a	n/a	-999	5	[0, 0, 0]	n/a	FR1	0	R1167M
800.871	0.519	810392	RETRIEVAL_ORIENT	n/a	n/a	n/a	-999	5	[0, 0, 0]	n/a	FR1	0	R1167M
801.39	0.839	810911	REC_START	n/a	n/a	n/a	-999	5	[0, 0, 0]	n/a	FR1	0	R1167M
802.229	1.262	811750	REC_WORD	1.262	n/a	ROAD	-999	5	[0, 0, 0]	n/a	FR1	0	R1167M
803.491	1.519	813012	REC_WORD	1.519	n/a	FARM	-999	5	[0, 0, 0]	n/a	FR1	0	R1167M
805.01	1.19	814531	REC_WORD	1.19	n/a	HORSE	-999	5	[0, 0, 0]	n/a	FR1	0	R1167M
806.2	1.4	815720	REC_WORD	1.4	n/a	HEN	-999	5	[0, 0, 0]	n/a	FR1	0	R1167M
807.6	3.048	817120	REC_WORD	3.048	n/a	RAT	-999	5	[0, 0, 0]	n/a	FR1	0	R1167M
810.648	3.25	820168	REC_WORD	3.25	n/a	CHALK	-999	5	[0, 0, 0]	n/a	FR1	0	R1167M
813.898	17.503	823418	REC_WORD	17.503	n/a	LAWN	-999	5	[0, 0, 0]	n/a	FR1	0	R1167M
831.401	5.644	840920	REC_END	n/a	n/a	n/a	-999	5	[0, 0, 0]	n/a	FR1	0	R1167M
837.045	0.5	846564	TRIAL	n/a	n/a	n/a	-999	6	[0, 0, 0]	n/a	FR1	0	R1167M
837.545	10.428	847064	COUNTDOWN_START	n/a	n/a	n/a	-999	6	[0, 0, 0]	n/a	FR1	0	R1167M
847.973	0.008	857491	COUNTDOWN_END	n/a	n/a	n/a	-999	6	[0, 0, 0]	n/a	FR1	0	R1167M
847.981	1.618	857499	ORIENT	n/a	n/a	n/a	-999	6	[0, 0, 0]	n/a	FR1	0	R1167M
849.599	2.016	859117	ORIENT_OFF	n/a	n/a	n/a	-999	6	[0, 0, 0]	n/a	FR1	0	R1167M
851.615	1.618	861133	WORD	n/a	wordpools/wordpool_EN.txt	MOLE	1	6	[0, 0, 0]	n/a	FR1	0	R1167M
853.233	0.983	862751	WORD_OFF	n/a	n/a	MOLE	1	6	[0, 0, 0]	n/a	FR1	0	R1167M
854.216	1.616	863734	WORD	n/a	wordpools/wordpool_EN.txt	ROOF	2	6	[0, 0, 0]	n/a	FR1	0	R1167M
855.832	0.851	865350	WORD_OFF	n/a	n/a	ROOF	2	6	[0, 0, 0]	n/a	FR1	0	R1167M
856.683	1.617	866201	WORD	n/a	wordpools/wordpool_EN.txt	CAVE	3	6	[0, 0, 0]	n/a	FR1	0	R1167M
858.3	0.967	867818	WORD_OFF	n/a	n/a	CAVE	3	6	[0, 0, 0]	n/a	FR1	0	R1167M
859.267	1.616	868784	WORD	n/a	wordpools/wordpool_EN.txt	CANE	4	6	[0, 0, 0]	n/a	FR1	0	R1167M
860.883	0.9	870400	WORD_OFF	n/a	n/a	CANE	4	6	[0, 0, 0]	n/a	FR1	0	R1167M
861.783	1.601	871300	WORD	n/a	wordpools/wordpool_EN.txt	AXE	5	6	[0, 0, 0]	n/a	FR1	0	R1167M
863.384	0.917	872901	WORD_OFF	n/a	n/a	AXE	5	6	[0, 0, 0]	n/a	FR1	0	R1167M
864.301	1.616	873818	WORD	n/a	wordpools/wordpool_EN.txt	BEE	6	6	[0, 0, 0]	n/a	FR1	0	R1167M
865.917	0.834	875434	WORD_OFF	n/a	n/a	BEE	6	6	[0, 0, 0]	n/a	FR1	0	R1167M
866.751	1.618	876268	WORD	n/a	wordpools/wordpool_EN.txt	FLOOR	7	6	[0, 0, 0]	n/a	FR1	0	R1167M
868.369	0.883	877886	WORD_OFF	n/a	n/a	FLOOR	7	6	[0, 0, 0]	n/a	FR1	0	R1167M
869.252	1.616	878769	WORD	n/a	wordpools/wordpool_EN.txt	SHIELD	8	6	[0, 0, 0]	n/a	FR1	0	R1167M
870.868	0.934	880385	WORD_OFF	n/a	n/a	SHIELD	8	6	[0, 0, 0]	n/a	FR1	0	R1167M
871.802	1.618	881319	WORD	n/a	wordpools/wordpool_EN.txt	HOLE	9	6	[0, 0, 0]	n/a	FR1	0	R1167M
873.42	0.8	882937	WORD_OFF	n/a	n/a	HOLE	9	6	[0, 0, 0]	n/a	FR1	0	R1167M
874.22	1.616	883737	WORD	n/a	wordpools/wordpool_EN.txt	STORM	10	6	[0, 0, 0]	n/a	FR1	0	R1167M
875.836	0.885	885353	WORD_OFF	n/a	n/a	STORM	10	6	[0, 0, 0]	n/a	FR1	0	R1167M
876.721	1.616	886237	WORD	n/a	wordpools/wordpool_EN.txt	RIB	11	6	[0, 0, 0]	n/a	FR1	0	R1167M
878.337	0.901	887853	WORD_OFF	n/a	n/a	RIB	11	6	[0, 0, 0]	n/a	FR1	0	R1167M
879.238	1.616	888754	WORD	n/a	wordpools/wordpool_EN.txt	GATE	12	6	[0, 0, 0]	n/a	FR1	0	R1167M
880.854	0.0	890370	WORD_OFF	n/a	n/a	GATE	12	6	[0, 0, 0]	n/a	FR1	0	R1167M
880.854	0.0	890370	DISTRACT_START	n/a	n/a	n/a	-999	6	[0, 0, 0]	n/a	FR1	0	R1167M
880.854	0.016	890370	START	n/a	n/a	n/a	-999	6	[-999, -999, -999]	n/a	FR1	0	R1167M
880.87	4.436	890386	PROB	4.436	n/a	n/a	-999	6	[6, 1, 7]	14	FR1	0	R1167M
885.306	4.749	894822	PROB	4.749	n/a	n/a	-999	6	[3, 7, 4]	14	FR1	0	R1167M
890.055	4.152	899571	PROB	4.152	n/a	n/a	-999	6	[8, 3, 3]	14	FR1	0	R1167M
894.207	5.251	903722	PROB	5.251	n/a	n/a	-999	6	[6, 9, 2]	17	FR1	0	R1167M
899.458	3.509	908973	PROB	3.509	n/a	n/a	-999	6	[4, 7, 3]	14	FR1	0	R1167M
902.967	0.008	912482	STOP	n/a	n/a	n/a	-999	6	[-999, -999, -999]	n/a	FR1	0	R1167M
902.975	0.617	912490	DISTRACT_END	n/a	n/a	n/a	-999	6	[0, 0, 0]	n/a	FR1	0	R1167M
903.592	0.517	913107	RETRIEVAL_ORIENT	n/a	n/a	n/a	-999	6	[0, 0, 0]	n/a	FR1	0	R1167M
904.109	1.104	913624	REC_START	n/a	n/a	n/a	-999	6	[0, 0, 0]	n/a	FR1	0	R1167M
905.213	0.76	914728	REC_WORD	0.76	n/a	MOLE	-999	6	[0, 0, 0]	n/a	FR1	0	R1167M
905.973	2.122	915488	REC_WORD	2.122	n/a	HOLE	-999	6	[0, 0, 0]	n/a	FR1	0	R1167M
908.095	6.129	917610	REC_WORD	6.129	n/a	SHIELD	-999	6	[0, 0, 0]	n/a	FR1	0	R1167M
914.224	1.929	923738	REC_WORD	1.929	n/a	AXE	-999	6	[0, 0, 0]	n/a	FR1	0	R1167M
916.153	15.26	925667	REC_WORD	15.26	n/a	CANE	-999	6	[0, 0, 0]	n/a	FR1	0	R1167M
931.413	2.709	940926	REC_WORD	2.709	n/a	DART	-999	6	[0, 0, 0]	n/a	FR1	0	R1167M
934.122	17.23	943635	REC_END	n/a	n/a	n/a	-999	6	[0, 0, 0]	n/a	FR1	0	R1167M
951.352	0.5	960864	TRIAL	n/a	n/a	n/a	-999	7	[0, 0, 0]	n/a	FR1	0	R1167M
951.852	10.428	961364	COUNTDOWN_START	n/a	n/a	n/a	-999	7	[0, 0, 0]	n/a	FR1	0	R1167M
962.28	0.007	971792	COUNTDOWN_END	n/a	n/a	n/a	-999	7	[0, 0, 0]	n/a	FR1	0	R1167M
962.287	1.616	971799	ORIENT	n/a	n/a	n/a	-999	7	[0, 0, 0]	n/a	FR1	0	R1167M
963.903	2.051	973415	ORIENT_OFF	n/a	n/a	n/a	-999	7	[0, 0, 0]	n/a	FR1	0	R1167M
965.954	1.617	975465	WORD	n/a	wordpools/wordpool_EN.txt	CLOTH	1	7	[0, 0, 0]	n/a	FR1	0	R1167M
967.571	1.001	977082	WORD_OFF	n/a	n/a	CLOTH	1	7	[0, 0, 0]	n/a	FR1	0	R1167M
968.572	1.617	978083	WORD	n/a	wordpools/wordpool_EN.txt	PIE	2	7	[0, 0, 0]	n/a	FR1	0	R1167M
970.189	0.849	979700	WORD_OFF	n/a	n/a	PIE	2	7	[0, 0, 0]	n/a	FR1	0	R1167M
971.038	1.618	980549	WORD	n/a	wordpools/wordpool_EN.txt	GRASS	3	7	[0, 0, 0]	n/a	FR1	0	R1167M
972.656	0.833	982167	WORD_OFF	n/a	n/a	GRASS	3	7	[0, 0, 0]	n/a	FR1	0	R1167M
973.489	1.616	983000	WORD	n/a	wordpools/wordpool_EN.txt	WOOD	4	7	[0, 0, 0]	n/a	FR1	0	R1167M
975.105	0.967	984616	WORD_OFF	n/a	n/a	WOOD	4	7	[0, 0, 0]	n/a	FR1	0	R1167M
976.072	1.601	985583	WORD	n/a	wordpools/wordpool_EN.txt	STEAK	5	7	[0, 0, 0]	n/a	FR1	0	R1167M
977.673	0.917	987184	WORD_OFF	n/a	n/a	STEAK	5	7	[0, 0, 0]	n/a	FR1	0	R1167M
978.59	1.617	988101	WORD	n/a	wordpools/wordpool_EN.txt	PEACH	6	7	[0, 0, 0]	n/a	FR1	0	R1167M
980.207	0.833	989718	WORD_OFF	n/a	n/a	PEACH	6	7	[0, 0, 0]	n/a	FR1	0	R1167M
981.04	1.618	990551	WORD	n/a	wordpools/wordpool_EN.txt	HORN	7	7	[0, 0, 0]	n/a	FR1	0	R1167M
982.658	0.85	992168	WORD_OFF	n/a	n/a	HORN	7	7	[0, 0, 0]	n/a	FR1	0	R1167M
983.508	1.616	993018	WORD	n/a	wordpools/wordpool_EN.txt	MOOSE	8	7	[0, 0, 0]	n/a	FR1	0	R1167M
985.124	0.983	994634	WORD_OFF	n/a	n/a	MOOSE	8	7	[0, 0, 0]	n/a	FR1	0	R1167M
986.107	1.618	995617	WORD	n/a	wordpools/wordpool_EN.txt	SIGN	9	7	[0, 0, 0]	n/a	FR1	0	R1167M
987.725	0.8	997235	WORD_OFF	n/a	n/a	SIGN	9	7	[0, 0, 0]	n/a	FR1	0	R1167M
988.525	1.618	998035	WORD	n/a	wordpools/wordpool_EN.txt	OAK	10	7	[0, 0, 0]	n/a	FR1	0	R1167M
990.143	0.832	999653	WORD_OFF	n/a	n/a	OAK	10	7	[0, 0, 0]	n/a	FR1	0	R1167M
990.975	1.618	1000485	WORD	n/a	wordpools/wordpool_EN.txt	FENCE	11	7	[0, 0, 0]	n/a	FR1	0	R1167M
992.593	0.833	1002103	WORD_OFF	n/a	n/a	FENCE	11	7	[0, 0, 0]	n/a	FR1	0	R1167M
993.426	1.616	1002936	WORD	n/a	wordpools/wordpool_EN.txt	BATH	12	7	[0, 0, 0]	n/a	FR1	0	R1167M
995.042	0.0	1004552	WORD_OFF	n/a	n/a	BATH	12	7	[0, 0, 0]	n/a	FR1	0	R1167M
995.042	0.001	1004552	DISTRACT_START	n/a	n/a	n/a	-999	7	[0, 0, 0]	n/a	FR1	0	R1167M
995.043	0.016	1004553	START	n/a	n/a	n/a	-999	7	[-999, -999, -999]	n/a	FR1	0	R1167M
995.059	5.085	1004569	PROB	5.085	n/a	n/a	-999	7	[1, 8, 2]	11	FR1	0	R1167M
1000.144	3.434	1009653	PROB	3.434	n/a	n/a	-999	7	[8, 6, 9]	23	FR1	0	R1167M
1003.578	3.768	1013087	PROB	3.768	n/a	n/a	-999	7	[7, 8, 4]	19	FR1	0	R1167M
1007.346	3.917	1016855	PROB	3.917	n/a	n/a	-999	7	[6, 4, 6]	16	FR1	0	R1167M
1011.263	3.936	1020772	PROB	3.936	n/a	n/a	-999	7	[3, 4, 9]	16	FR1	0	R1167M
1015.199	0.015	1024708	STOP	n/a	n/a	n/a	-999	7	[-999, -999, -999]	n/a	FR1	0	R1167M
1015.214	0.616	1024723	DISTRACT_END	n/a	n/a	n/a	-999	7	[0, 0, 0]	n/a	FR1	0	R1167M
1015.83	0.518	1025339	RETRIEVAL_ORIENT	n/a	n/a	n/a	-999	7	[0, 0, 0]	n/a	FR1	0	R1167M
1016.348	1.135	1025857	REC_START	n/a	n/a	n/a	-999	7	[0, 0, 0]	n/a	FR1	0	R1167M
1017.483	1.39	1026992	REC_WORD	1.39	n/a	GRASS	-999	7	[0, 0, 0]	n/a	FR1	0	R1167M
1018.873	1.338	1028381	REC_WORD	1.338	n/a	WOOD	-999	7	[0, 0, 0]	n/a	FR1	0	R1167M
1020.211	1.486	1029719	REC_WORD	1.486	n/a	FENCE	-999	7	[0, 0, 0]	n/a	FR1	0	R1167M
1021.697	1.357	1031205	REC_WORD	1.357	n/a	OAK	-999	7	[0, 0, 0]	n/a	FR1	0	R1167M
1023.054	1.493	1032562	REC_WORD	1.493	n/a	STEAK	-999	7	[0, 0, 0]	n/a	FR1	0	R1167M
1024.547	2.433	1034055	REC_WORD	2.433	n/a	PEACH	-999	7	[0, 0, 0]	n/a	FR1	0	R1167M
1026.98	19.379	1036488	REC_WORD	19.379	n/a	SIGN	-999	7	[0, 0, 0]	n/a	FR1	0	R1167M
1046.359	6.046	1055866	REC_END	n/a	n/a	n/a	-999	7	[0, 0, 0]	n/a	FR1	0	R1167M
1052.405	0.5	1061912	TRIAL	n/a	n/a	n/a	-999	8	[0, 0, 0]	n/a	FR1	0	R1167M
1052.905	10.428	1062412	COUNTDOWN_START	n/a	n/a	n/a	-999	8	[0, 0, 0]	n/a	FR1	0	R1167M
1063.333	0.007	1072839	COUNTDOWN_END	n/a	n/a	n/a	-999	8	[0, 0, 0]	n/a	FR1	0	R1167M
1063.34	1.616	1072846	ORIENT	n/a	n/a	n/a	-999	8	[0, 0, 0]	n/a	FR1	0	R1167M
1064.956	2.134	1074462	ORIENT_OFF	n/a	n/a	n/a	-999	8	[0, 0, 0]	n/a	FR1	0	R1167M
1067.09	1.618	1076596	WORD	n/a	wordpools/wordpool_EN.txt	POND	1	8	[0, 0, 0]	n/a	FR1	0	R1167M
1068.708	0.967	1078214	WORD_OFF	n/a	n/a	POND	1	8	[0, 0, 0]	n/a	FR1	0	R1167M
1069.675	1.617	1079181	WORD	n/a	wordpools/wordpool_EN.txt	GOAT	2	8	[0, 0, 0]	n/a	FR1	0	R1167M
1071.292	0.916	1080797	WORD_OFF	n/a	n/a	GOAT	2	8	[0, 0, 0]	n/a	FR1	0	R1167M
1072.208	1.616	1081713	WORD	n/a	wordpools/wordpool_EN.txt	SKY	3	8	[0, 0, 0]	n/a	FR1	0	R1167M
1073.824	0.785	1083329	WORD_OFF	n/a	n/a	SKY	3	8	[0, 0, 0]	n/a	FR1	0	R1167M
1074.609	1.617	1084114	WORD	n/a	wordpools/wordpool_EN.txt	NEST	4	8	[0, 0, 0]	n/a	FR1	0	R1167M
1076.226	0.866	1085731	WORD_OFF	n/a	n/a	NEST	4	8	[0, 0, 0]	n/a	FR1	0	R1167M
1077.092	1.618	1086597	WORD	n/a	wordpools/wordpool_EN.txt	BARN	5	8	[0, 0, 0]	n/a	FR1	0	R1167M
1078.71	0.916	1088215	WORD_OFF	n/a	n/a	BARN	5	8	[0, 0, 0]	n/a	FR1	0	R1167M
1079.626	1.617	1089131	WORD	n/a	wordpools/wordpool_EN.txt	FROG	6	8	[0, 0, 0]	n/a	FR1	0	R1167M
1081.243	0.816	1090748	WORD_OFF	n/a	n/a	FROG	6	8	[0, 0, 0]	n/a	FR1	0	R1167M
1082.059	1.601	1091564	WORD	n/a	wordpools/wordpool_EN.txt	CLOUD	7	8	[0, 0, 0]	n/a	FR1	0	R1167M
1083.66	1.001	1093165	WORD_OFF	n/a	n/a	CLOUD	7	8	[0, 0, 0]	n/a	FR1	0	R1167M
1084.661	1.617	1094166	WORD	n/a	wordpools/wordpool_EN.txt	VEST	8	8	[0, 0, 0]	n/a	FR1	0	R1167M
1086.278	0.832	1095783	WORD_OFF	n/a	n/a	VEST	8	8	[0, 0, 0]	n/a	FR1	0	R1167M
1087.11	1.618	1096615	WORD	n/a	wordpools/wordpool_EN.txt	HILL	9	8	[0, 0, 0]	n/a	FR1	0	R1167M
1088.728	0.951	1098232	WORD_OFF	n/a	n/a	HILL	9	8	[0, 0, 0]	n/a	FR1	0	R1167M
1089.679	1.616	1099183	WORD	n/a	wordpools/wordpool_EN.txt	HOUSE	10	8	[0, 0, 0]	n/a	FR1	0	R1167M
1091.295	0.766	1100799	WORD_OFF	n/a	n/a	HOUSE	10	8	[0, 0, 0]	n/a	FR1	0	R1167M
1092.061	1.618	1101565	WORD	n/a	wordpools/wordpool_EN.txt	HAWK	11	8	[0, 0, 0]	n/a	FR1	0	R1167M
1093.679	0.884	1103183	WORD_OFF	n/a	n/a	HAWK	11	8	[0, 0, 0]	n/a	FR1	0	R1167M
1094.563	1.617	1104067	WORD	n/a	wordpools/wordpool_EN.txt	OWL	12	8	[0, 0, 0]	n/a	FR1	0	R1167M
1096.18	0.0	1105684	WORD_OFF	n/a	n/a	OWL	12	8	[0, 0, 0]	n/a	FR1	0	R1167M
1096.18	0.0	1105684	DISTRACT_START	n/a	n/a	n/a	-999	8	[0, 0, 0]	n/a	FR1	0	R1167M
1096.18	0.016	1105684	START	n/a	n/a	n/a	-999	8	[-999, -999, -999]	n/a	FR1	0	R1167M
1096.196	4.617	1105700	PROB	4.617	n/a	n/a	-999	8	[8, 8, 9]	26	FR1	0	R1167M
1100.813	5.569	1110317	PROB	5.569	n/a	n/a	-999	8	[6, 7, 3]	16	FR1	0	R1167M
1106.382	3.917	1115885	PROB	3.917	n/a	n/a	-999	8	[5, 8, 5]	18	FR1	0	R1167M
1110.299	3.6	1119802	PROB	3.6	n/a	n/a	-999	8	[4, 1, 8]	13	FR1	0	R1167M
1113.899	3.508	1123402	PROB	3.508	n/a	n/a	-999	8	[1, 5, 8]	14	FR1	0	R1167M
1117.407	0.01	1126910	STOP	n/a	n/a	n/a	-999	8	[-999, -999, -999]	n/a	FR1	0	R1167M
1117.417	0.549	1126920	DISTRACT_END	n/a	n/a	n/a	-999	8	[0, 0, 0]	n/a	FR1	0	R1167M
1117.966	0.519	1127469	RETRIEVAL_ORIENT	n/a	n/a	n/a	-999	8	[0, 0, 0]	n/a	FR1	0	R1167M
1118.485	1.074	1127988	REC_START	n/a	n/a	n/a	-999	8	[0, 0, 0]	n/a	FR1	0	R1167M
1119.559	1.017	1129062	REC_WORD	1.017	n/a	HAWK	-999	8	[0, 0, 0]	n/a	FR1	0	R1167M
1120.576	1.328	1130079	REC_WORD	1.328	n/a	NEST	-999	8	[0, 0, 0]	n/a	FR1	0	R1167M
1121.904	1.47	1131407	REC_WORD	1.47	n/a	OWL	-999	8	[0, 0, 0]	n/a	FR1	0	R1167M
1123.374	1.419	1132877	REC_WORD	1.419	n/a	VEST	-999	8	[0, 0, 0]	n/a	FR1	0	R1167M
1124.793	10.133	1134295	REC_WORD	10.133	n/a	BARN	-999	8	[0, 0, 0]	n/a	FR1	0	R1167M
1134.926	13.57	1144428	REC_WORD	13.57	n/a	SKY	-999	8	[0, 0, 0]	n/a	FR1	0	R1167M
1148.496	5.845	1157997	REC_END	n/a	n/a	n/a	-999	8	[0, 0, 0]	n/a	FR1	0	R1167M
1154.341	0.5	1163842	TRIAL	n/a	n/a	n/a	-999	9	[0, 0, 0]	n/a	FR1	0	R1167M
1154.841	10.428	1164342	COUNTDOWN_START	n/a	n/a	n/a	-999	9	[0, 0, 0]	n/a	FR1	0	R1167M
1165.269	0.008	1174769	COUNTDOWN_END	n/a	n/a	n/a	-999	9	[0, 0, 0]	n/a	FR1	0	R1167M
1165.277	1.615	1174777	ORIENT	n/a	n/a	n/a	-999	9	[0, 0, 0]	n/a	FR1	0	R1167M
1166.892	2.151	1176392	ORIENT_OFF	n/a	n/a	n/a	-999	9	[0, 0, 0]	n/a	FR1	0	R1167M
1169.043	1.618	1178543	WORD	n/a	wordpools/wordpool_EN.txt	BOY	1	9	[0, 0, 0]	n/a	FR1	0	R1167M
1170.661	0.967	1180161	WORD_OFF	n/a	n/a	BOY	1	9	[0, 0, 0]	n/a	FR1	0	R1167M
1171.628	1.617	1181128	WORD	n/a	wordpools/wordpool_EN.txt	BOAT	2	9	[0, 0, 0]	n/a	FR1	0	R1167M
1173.245	0.917	1182745	WORD_OFF	n/a	n/a	BOAT	2	9	[0, 0, 0]	n/a	FR1	0	R1167M
1174.162	1.615	1183662	WORD	n/a	wordpools/wordpool_EN.txt	PEARL	3	9	[0, 0, 0]	n/a	FR1	0	R1167M
1175.777	0.952	1185277	WORD_OFF	n/a	n/a	PEARL	3	9	[0, 0, 0]	n/a	FR1	0	R1167M
1176.729	1.617	1186228	WORD	n/a	wordpools/wordpool_EN.txt	SHIP	4	9	[0, 0, 0]	n/a	FR1	0	R1167M
1178.346	0.817	1187845	WORD_OFF	n/a	n/a	SHIP	4	9	[0, 0, 0]	n/a	FR1	0	R1167M
1179.163	1.616	1188662	WORD	n/a	wordpools/wordpool_EN.txt	BOARD	5	9	[0, 0, 0]	n/a	FR1	0	R1167M
1180.779	0.801	1190278	WORD_OFF	n/a	n/a	BOARD	5	9	[0, 0, 0]	n/a	FR1	0	R1167M
1181.58	1.617	1191079	WORD	n/a	wordpools/wordpool_EN.txt	NET	6	9	[0, 0, 0]	n/a	FR1	0	R1167M
1183.197	0.899	1192696	WORD_OFF	n/a	n/a	NET	6	9	[0, 0, 0]	n/a	FR1	0	R1167M
1184.096	1.618	1193595	WORD	n/a	wordpools/wordpool_EN.txt	GLOVE	7	9	[0, 0, 0]	n/a	FR1	0	R1167M
1185.714	0.8	1195213	WORD_OFF	n/a	n/a	GLOVE	7	9	[0, 0, 0]	n/a	FR1	0	R1167M
1186.514	1.616	1196013	WORD	n/a	wordpools/wordpool_EN.txt	TANK	8	9	[0, 0, 0]	n/a	FR1	0	R1167M
1188.13	0.883	1197629	WORD_OFF	n/a	n/a	TANK	8	9	[0, 0, 0]	n/a	FR1	0	R1167M
1189.013	1.602	1198512	WORD	n/a	wordpools/wordpool_EN.txt	TOY	9	9	[0, 0, 0]	n/a	FR1	0	R1167M
1190.615	0.783	1200114	WORD_OFF	n/a	n/a	TOY	9	9	[0, 0, 0]	n/a	FR1	0	R1167M
1191.398	1.616	1200897	WORD	n/a	wordpools/wordpool_EN.txt	SPONGE	10	9	[0, 0, 0]	n/a	FR1	0	R1167M
1193.014	0.934	1202513	WORD_OFF	n/a	n/a	SPONGE	10	9	[0, 0, 0]	n/a	FR1	0	R1167M
1193.948	1.618	1203447	WORD	n/a	wordpools/wordpool_EN.txt	SEA	11	9	[0, 0, 0]	n/a	FR1	0	R1167M
1195.566	0.9	1205064	WORD_OFF	n/a	n/a	SEA	11	9	[0, 0, 0]	n/a	FR1	0	R1167M
1196.466	1.616	1205964	WORD	n/a	wordpools/wordpool_EN.txt	ARM	12	9	[0, 0, 0]	n/a	FR1	0	R1167M
1198.082	0.0	1207580	WORD_OFF	n/a	n/a	ARM	12	9	[0, 0, 0]	n/a	FR1	0	R1167M
1198.082	0.001	1207580	DISTRACT_START	n/a	n/a	n/a	-999	9	[0, 0, 0]	n/a	FR1	0	R1167M
1198.083	0.016	1207581	START	n/a	n/a	n/a	-999	9	[-999, -999, -999]	n/a	FR1	0	R1167M
1198.099	4.485	1207597	PROB	4.485	n/a	n/a	-999	9	[6, 8, 5]	19	FR1	0	R1167M
1202.584	4.216	1212082	PROB	4.216	n/a	n/a	-999	9	[4, 9, 3]	21	FR1	0	R1167M
1206.8	2.768	1216298	PROB	2.768	n/a	n/a	-999	9	[1, 3, 2]	6	FR1	0	R1167M
1209.568	4.868	1219066	PROB	4.868	n/a	n/a	-999	9	[9, 2, 4]	15	FR1	0	R1167M
1214.436	3.483	1223933	PROB	3.483	n/a	n/a	-999	9	[3, 4, 1]	8	FR1	0	R1167M
1217.919	3.697	1227416	PROB	3.697	n/a	n/a	-999	9	[1, 6, 2]	9	FR1	0	R1167M
1221.616	0.021	1231113	STOP	n/a	n/a	n/a	-999	9	[-999, -999, -999]	n/a	FR1	0	R1167M
1221.637	0.601	1231134	DISTRACT_END	n/a	n/a	n/a	-999	9	[0, 0, 0]	n/a	FR1	0	R1167M
1222.238	0.517	1231735	RETRIEVAL_ORIENT	n/a	n/a	n/a	-999	9	[0, 0, 0]	n/a	FR1	0	R1167M
1222.755	1.651	1232252	REC_START	n/a	n/a	n/a	-999	9	[0, 0, 0]	n/a	FR1	0	R1167M
1224.406	1.638	1233903	REC_WORD	1.638	n/a	TOY	-999	9	[0, 0, 0]	n/a	FR1	0	R1167M
1226.044	1.732	1235541	REC_WORD	1.732	n/a	BOAT	-999	9	[0, 0, 0]	n/a	FR1	0	R1167M
1227.776	5.618	1237273	REC_WORD	5.618	n/a	ARM	-999	9	[0, 0, 0]	n/a	FR1	0	R1167M
1233.394	7.708	1242890	REC_WORD	7.708	n/a	TANK	-999	9	[0, 0, 0]	n/a	FR1	0	R1167M
1241.102	11.664	1250598	REC_WORD_VV	11.664	n/a	<>	-999	9	[0, 0, 0]	n/a	FR1	0	R1167M
1252.766	10.379	1262261	REC_END	n/a	n/a	n/a	-999	9	[0, 0, 0]	n/a	FR1	0	R1167M
1263.145	0.5	1272640	TRIAL	n/a	n/a	n/a	-999	10	[0, 0, 0]	n/a	FR1	0	R1167M
1263.645	10.428	1273140	COUNTDOWN_START	n/a	n/a	n/a	-999	10	[0, 0, 0]	n/a	FR1	0	R1167M
1274.073	0.007	1283567	COUNTDOWN_END	n/a	n/a	n/a	-999	10	[0, 0, 0]	n/a	FR1	0	R1167M
1274.08	1.618	1283574	ORIENT	n/a	n/a	n/a	-999	10	[0, 0, 0]	n/a	FR1	0	R1167M
1275.698	1.867	1285192	ORIENT_OFF	n/a	n/a	n/a	-999	10	[0, 0, 0]	n/a	FR1	0	R1167M
1277.565	1.617	1287059	WORD	n/a	wordpools/wordpool_EN.txt	PHONE	1	10	[0, 0, 0]	n/a	FR1	0	R1167M
1279.182	0.832	1288676	WORD_OFF	n/a	n/a	PHONE	1	10	[0, 0, 0]	n/a	FR1	0	R1167M
1280.014	1.602	1289508	WORD	n/a	wordpools/wordpool_EN.txt	BOWL	2	10	[0, 0, 0]	n/a	FR1	0	R1167M
1281.616	0.783	1291110	WORD_OFF	n/a	n/a	BOWL	2	10	[0, 0, 0]	n/a	FR1	0	R1167M
1282.399	1.616	1291893	WORD	n/a	wordpools/wordpool_EN.txt	LAMB	3	10	[0, 0, 0]	n/a	FR1	0	R1167M
1284.015	0.9	1293508	WORD_OFF	n/a	n/a	LAMB	3	10	[0, 0, 0]	n/a	FR1	0	R1167M
1284.915	1.601	1294408	WORD	n/a	wordpools/wordpool_EN.txt	STICK	4	10	[0, 0, 0]	n/a	FR1	0	R1167M
1286.516	0.967	1296009	WORD_OFF	n/a	n/a	STICK	4	10	[0, 0, 0]	n/a	FR1	0	R1167M
1287.483	1.616	1296976	WORD	n/a	wordpools/wordpool_EN.txt	BRUSH	5	10	[0, 0, 0]	n/a	FR1	0	R1167M
1289.099	0.967	1298592	WORD_OFF	n/a	n/a	BRUSH	5	10	[0, 0, 0]	n/a	FR1	0	R1167M
1290.066	1.618	1299559	WORD	n/a	wordpools/wordpool_EN.txt	INK	6	10	[0, 0, 0]	n/a	FR1	0	R1167M
1291.684	0.851	1301177	WORD_OFF	n/a	n/a	INK	6	10	[0, 0, 0]	n/a	FR1	0	R1167M
1292.535	1.616	1302028	WORD	n/a	wordpools/wordpool_EN.txt	DESK	7	10	[0, 0, 0]	n/a	FR1	0	R1167M
1294.151	0.883	1303644	WORD_OFF	n/a	n/a	DESK	7	10	[0, 0, 0]	n/a	FR1	0	R1167M
1295.034	1.618	1304527	WORD	n/a	wordpools/wordpool_EN.txt	FOAM	8	10	[0, 0, 0]	n/a	FR1	0	R1167M
1296.652	0.95	1306145	WORD_OFF	n/a	n/a	FOAM	8	10	[0, 0, 0]	n/a	FR1	0	R1167M
1297.602	1.617	1307095	WORD	n/a	wordpools/wordpool_EN.txt	OAR	9	10	[0, 0, 0]	n/a	FR1	0	R1167M
1299.219	0.933	1308712	WORD_OFF	n/a	n/a	OAR	9	10	[0, 0, 0]	n/a	FR1	0	R1167M
1300.152	1.617	1309645	WORD	n/a	wordpools/wordpool_EN.txt	STOVE	10	10	[0, 0, 0]	n/a	FR1	0	R1167M
1301.769	0.767	1311261	WORD_OFF	n/a	n/a	STOVE	10	10	[0, 0, 0]	n/a	FR1	0	R1167M
1302.536	1.617	1312028	WORD	n/a	wordpools/wordpool_EN.txt	TOE	11	10	[0, 0, 0]	n/a	FR1	0	R1167M
1304.153	0.816	1313645	WORD_OFF	n/a	n/a	TOE	11	10	[0, 0, 0]	n/a	FR1	0	R1167M
1304.969	1.601	1314461	WORD	n/a	wordpools/wordpool_EN.txt	SMILE	12	10	[0, 0, 0]	n/a	FR1	0	R1167M
1306.57	0.0	1316062	WORD_OFF	n/a	n/a	SMILE	12	10	[0, 0, 0]	n/a	FR1	0	R1167M
1306.57	0.001	1316062	DISTRACT_START	n/a	n/a	n/a	-999	10	[0, 0, 0]	n/a	FR1	0	R1167M
1306.571	0.016	1316063	START	n/a	n/a	n/a	-999	10	[-999, -999, -999]	n/a	FR1	0	R1167M
1306.587	5.384	1316079	PROB	5.384	n/a	n/a	-999	10	[4, 9, 3]	16	FR1	0	R1167M
1311.971	3.518	1321463	PROB	3.518	n/a	n/a	-999	10	[3, 4, 9]	16	FR1	0	R1167M
1315.489	3.533	1324981	PROB	3.533	n/a	n/a	-999	10	[4, 3, 6]	13	FR1	0	R1167M
1319.022	3.418	1328513	PROB	3.418	n/a	n/a	-999	10	[5, 5, 4]	14	FR1	0	R1167M
1322.44	4.248	1331931	PROB	4.248	n/a	n/a	-999	10	[7, 6, 2]	15	FR1	0	R1167M
1326.688	0.02	1336179	STOP	n/a	n/a	n/a	-999	10	[-999, -999, -999]	n/a	FR1	0	R1167M
1326.708	0.6	1336199	DISTRACT_END	n/a	n/a	n/a	-999	10	[0, 0, 0]	n/a	FR1	0	R1167M
1327.308	0.516	1336799	RETRIEVAL_ORIENT	n/a	n/a	n/a	-999	10	[0, 0, 0]	n/a	FR1	0	R1167M
1327.824	1.062	1337315	REC_START	n/a	n/a	n/a	-999	10	[0, 0, 0]	n/a	FR1	0	R1167M
1328.886	2.23	1338377	REC_WORD	2.23	n/a	PHONE	-999	10	[0, 0, 0]	n/a	FR1	0	R1167M
1331.116	1.202	1340607	REC_WORD	1.202	n/a	SMILE	-999	10	[0, 0, 0]	n/a	FR1	0	R1167M
1332.318	14.429	1341809	REC_WORD	14.429	n/a	OAR	-999	10	[0, 0, 0]	n/a	FR1	0	R1167M
1346.747	11.088	1356237	REC_WORD	11.088	n/a	FOIL	-999	10	[0, 0, 0]	n/a	FR1	0	R1167M
1357.835	24.966	1367324	REC_END	n/a	n/a	n/a	-999	10	[0, 0, 0]	n/a	FR1	0	R1167M
1382.801	0.5	1392289	TRIAL	n/a	n/a	n/a	-999	11	[0, 0, 0]	n/a	FR1	0	R1167M
1383.301	10.428	1392789	COUNTDOWN_START	n/a	n/a	n/a	-999	11	[0, 0, 0]	n/a	FR1	0	R1167M
1393.729	0.008	1403216	COUNTDOWN_END	n/a	n/a	n/a	-999	11	[0, 0, 0]	n/a	FR1	0	R1167M
1393.737	1.617	1403224	ORIENT	n/a	n/a	n/a	-999	11	[0, 0, 0]	n/a	FR1	0	R1167M
1395.354	2.318	1404841	ORIENT_OFF	n/a	n/a	n/a	-999	11	[0, 0, 0]	n/a	FR1	0	R1167M
1397.672	1.617	1407159	WORD	n/a	wordpools/wordpool_EN.txt	BREAD	1	11	[0, 0, 0]	n/a	FR1	0	R1167M
1399.289	0.916	1408776	WORD_OFF	n/a	n/a	BREAD	1	11	[0, 0, 0]	n/a	FR1	0	R1167M
1400.205	1.616	1409692	WORD	n/a	wordpools/wordpool_EN.txt	CROWN	2	11	[0, 0, 0]	n/a	FR1	0	R1167M
1401.821	0.917	1411308	WORD_OFF	n/a	n/a	CROWN	2	11	[0, 0, 0]	n/a	FR1	0	R1167M
1402.738	1.618	1412225	WORD	n/a	wordpools/wordpool_EN.txt	DOLL	3	11	[0, 0, 0]	n/a	FR1	0	R1167M
1404.356	0.817	1413843	WORD_OFF	n/a	n/a	DOLL	3	11	[0, 0, 0]	n/a	FR1	0	R1167M
1405.173	1.616	1414660	WORD	n/a	wordpools/wordpool_EN.txt	THREAD	4	11	[0, 0, 0]	n/a	FR1	0	R1167M
1406.789	0.768	1416275	WORD_OFF	n/a	n/a	THREAD	4	11	[0, 0, 0]	n/a	FR1	0	R1167M
1407.557	1.617	1417043	WORD	n/a	wordpools/wordpool_EN.txt	JUICE	5	11	[0, 0, 0]	n/a	FR1	0	R1167M
1409.174	0.816	1418660	WORD_OFF	n/a	n/a	JUICE	5	11	[0, 0, 0]	n/a	FR1	0	R1167M
1409.99	1.618	1419476	WORD	n/a	wordpools/wordpool_EN.txt	VASE	6	11	[0, 0, 0]	n/a	FR1	0	R1167M
1411.608	0.983	1421094	WORD_OFF	n/a	n/a	VASE	6	11	[0, 0, 0]	n/a	FR1	0	R1167M
1412.591	1.617	1422077	WORD	n/a	wordpools/wordpool_EN.txt	MOUTH	7	11	[0, 0, 0]	n/a	FR1	0	R1167M
1414.208	0.934	1423694	WORD_OFF	n/a	n/a	MOUTH	7	11	[0, 0, 0]	n/a	FR1	0	R1167M
1415.142	1.616	1424628	WORD	n/a	wordpools/wordpool_EN.txt	SALT	8	11	[0, 0, 0]	n/a	FR1	0	R1167M
1416.758	0.901	1426244	WORD_OFF	n/a	n/a	SALT	8	11	[0, 0, 0]	n/a	FR1	0	R1167M
1417.659	1.617	1427145	WORD	n/a	wordpools/wordpool_EN.txt	GOLD	9	11	[0, 0, 0]	n/a	FR1	0	R1167M
1419.276	0.799	1428762	WORD_OFF	n/a	n/a	GOLD	9	11	[0, 0, 0]	n/a	FR1	0	R1167M
1420.075	1.618	1429561	WORD	n/a	wordpools/wordpool_EN.txt	WORM	10	11	[0, 0, 0]	n/a	FR1	0	R1167M
1421.693	0.967	1431179	WORD_OFF	n/a	n/a	WORM	10	11	[0, 0, 0]	n/a	FR1	0	R1167M
1422.66	1.617	1432146	WORD	n/a	wordpools/wordpool_EN.txt	ROOM	11	11	[0, 0, 0]	n/a	FR1	0	R1167M
1424.277	1.0	1433762	WORD_OFF	n/a	n/a	ROOM	11	11	[0, 0, 0]	n/a	FR1	0	R1167M
1425.277	1.616	1434762	WORD	n/a	wordpools/wordpool_EN.txt	SLUSH	12	11	[0, 0, 0]	n/a	FR1	0	R1167M
1426.893	0.0	1436378	WORD_OFF	n/a	n/a	SLUSH	12	11	[0, 0, 0]	n/a	FR1	0	R1167M
1426.893	0.0	1436378	DISTRACT_START	n/a	n/a	n/a	-999	11	[0, 0, 0]	n/a	FR1	0	R1167M
1426.893	0.017	1436378	START	n/a	n/a	n/a	-999	11	[-999, -999, -999]	n/a	FR1	0	R1167M
1426.91	5.117	1436395	PROB	5.117	n/a	n/a	-999	11	[9, 7, 3]	19	FR1	0	R1167M
1432.027	4.485	1441512	PROB	4.485	n/a	n/a	-999	11	[8, 3, 3]	14	FR1	0	R1167M
1436.512	3.668	1445997	PROB	3.668	n/a	n/a	-999	11	[1, 8, 9]	18	FR1	0	R1167M
1440.18	3.85	1449665	PROB	3.85	n/a	n/a	-999	11	[2, 3, 3]	8	FR1	0	R1167M
1444.03	3.593	1453514	PROB	3.593	n/a	n/a	-999	11	[6, 2, 4]	12	FR1	0	R1167M
1447.623	0.008	1457107	STOP	n/a	n/a	n/a	-999	11	[-999, -999, -999]	n/a	FR1	0	R1167M
1447.631	0.684	1457115	DISTRACT_END	n/a	n/a	n/a	-999	11	[0, 0, 0]	n/a	FR1	0	R1167M
1448.315	0.516	1457799	RETRIEVAL_ORIENT	n/a	n/a	n/a	-999	11	[0, 0, 0]	n/a	FR1	0	R1167M
1448.831	1.099	1458315	REC_START	n/a	n/a	n/a	-999	11	[0, 0, 0]	n/a	FR1	0	R1167M
1449.93	1.434	1459414	REC_WORD	1.434	n/a	JUICE	-999	11	[0, 0, 0]	n/a	FR1	0	R1167M
1451.364	3.803	1460848	REC_WORD	3.803	n/a	WASH	-999	11	[0, 0, 0]	n/a	FR1	0	R1167M
1455.167	3.992	1464651	REC_WORD	3.992	n/a	FOAM	-999	11	[0, 0, 0]	n/a	FR1	0	R1167M
1459.159	3.84	1468643	REC_WORD	3.84	n/a	SMILE	-999	11	[0, 0, 0]	n/a	FR1	0	R1167M
1462.999	15.842	1472482	REC_WORD	15.842	n/a	BRUSH	-999	11	[0, 0, 0]	n/a	FR1	0	R1167M
1478.841	20.684	1488323	REC_END	n/a	n/a	n/a	-999	11	[0, 0, 0]	n/a	FR1	0	R1167M
1499.525	0.5	1509006	TRIAL	n/a	n/a	n/a	-999	12	[0, 0, 0]	n/a	FR1	0	R1167M
1500.025	10.428	1509506	COUNTDOWN_START	n/a	n/a	n/a	-999	12	[0, 0, 0]	n/a	FR1	0	R1167M
1510.453	0.007	1519934	COUNTDOWN_END	n/a	n/a	n/a	-999	12	[0, 0, 0]	n/a	FR1	0	R1167M
1510.46	1.616	1519941	ORIENT	n/a	n/a	n/a	-999	12	[0, 0, 0]	n/a	FR1	0	R1167M
1512.076	2.034	1521557	ORIENT_OFF	n/a	n/a	n/a	-999	12	[0, 0, 0]	n/a	FR1	0	R1167M
1514.11	1.618	1523590	WORD	n/a	wordpools/wordpool_EN.txt	CLAY	1	12	[0, 0, 0]	n/a	FR1	0	R1167M
1515.728	0.8	1525208	WORD_OFF	n/a	n/a	CLAY	1	12	[0, 0, 0]	n/a	FR1	0	R1167M
1516.528	1.617	1526008	WORD	n/a	wordpools/wordpool_EN.txt	TOOL	2	12	[0, 0, 0]	n/a	FR1	0	R1167M
1518.145	0.882	1527625	WORD_OFF	n/a	n/a	TOOL	2	12	[0, 0, 0]	n/a	FR1	0	R1167M
1519.027	1.601	1528507	WORD	n/a	wordpools/wordpool_EN.txt	CUBE	3	12	[0, 0, 0]	n/a	FR1	0	R1167M
1520.628	0.968	1530108	WORD_OFF	n/a	n/a	CUBE	3	12	[0, 0, 0]	n/a	FR1	0	R1167M
1521.596	1.617	1531076	WORD	n/a	wordpools/wordpool_EN.txt	SQUARE	4	12	[0, 0, 0]	n/a	FR1	0	R1167M
1523.213	0.966	1532693	WORD_OFF	n/a	n/a	SQUARE	4	12	[0, 0, 0]	n/a	FR1	0	R1167M
1524.179	1.616	1533659	WORD	n/a	wordpools/wordpool_EN.txt	DOCK	5	12	[0, 0, 0]	n/a	FR1	0	R1167M
1525.795	0.802	1535275	WORD_OFF	n/a	n/a	DOCK	5	12	[0, 0, 0]	n/a	FR1	0	R1167M
1526.597	1.617	1536077	WORD	n/a	wordpools/wordpool_EN.txt	NAIL	6	12	[0, 0, 0]	n/a	FR1	0	R1167M
1528.214	0.815	1537694	WORD_OFF	n/a	n/a	NAIL	6	12	[0, 0, 0]	n/a	FR1	0	R1167M
1529.029	1.618	1538509	WORD	n/a	wordpools/wordpool_EN.txt	GUARD	7	12	[0, 0, 0]	n/a	FR1	0	R1167M
1530.647	0.934	1540126	WORD_OFF	n/a	n/a	GUARD	7	12	[0, 0, 0]	n/a	FR1	0	R1167M
1531.581	1.617	1541060	WORD	n/a	wordpools/wordpool_EN.txt	HOSE	8	12	[0, 0, 0]	n/a	FR1	0	R1167M
1533.198	0.799	1542677	WORD_OFF	n/a	n/a	HOSE	8	12	[0, 0, 0]	n/a	FR1	0	R1167M
1533.997	1.601	1543476	WORD	n/a	wordpools/wordpool_EN.txt	STONE	9	12	[0, 0, 0]	n/a	FR1	0	R1167M
1535.598	0.8	1545077	WORD_OFF	n/a	n/a	STONE	9	12	[0, 0, 0]	n/a	FR1	0	R1167M
1536.398	1.616	1545877	WORD	n/a	wordpools/wordpool_EN.txt	PIPE	10	12	[0, 0, 0]	n/a	FR1	0	R1167M
1538.014	0.934	1547493	WORD_OFF	n/a	n/a	PIPE	10	12	[0, 0, 0]	n/a	FR1	0	R1167M
1538.948	1.618	1548427	WORD	n/a	wordpools/wordpool_EN.txt	BRICK	11	12	[0, 0, 0]	n/a	FR1	0	R1167M
1540.566	0.817	1550045	WORD_OFF	n/a	n/a	BRICK	11	12	[0, 0, 0]	n/a	FR1	0	R1167M
1541.383	1.616	1550862	WORD	n/a	wordpools/wordpool_EN.txt	PIT	12	12	[0, 0, 0]	n/a	FR1	0	R1167M
1542.999	0.0	1552478	DISTRACT_START	n/a	n/a	n/a	-999	12	[0, 0, 0]	n/a	FR1	0	R1167M
1542.999	0.0	1552478	WORD_OFF	n/a	n/a	PIT	12	12	[0, 0, 0]	n/a	FR1	0	R1167M
1542.999	0.016	1552478	START	n/a	n/a	n/a	-999	12	[-999, -999, -999]	n/a	FR1	0	R1167M
1543.015	4.818	1552494	PROB	4.818	n/a	n/a	-999	12	[2, 3, 4]	9	FR1	0	R1167M
1547.833	3.051	1557311	PROB	3.051	n/a	n/a	-999	12	[7, 4, 1]	12	FR1	0	R1167M
1550.884	3.15	1560362	PROB	3.15	n/a	n/a	-999	12	[3, 6, 4]	13	FR1	0	R1167M
1554.034	3.968	1563512	PROB	3.968	n/a	n/a	-999	12	[8, 6, 1]	15	FR1	0	R1167M
1558.002	3.368	1567480	PROB	3.368	n/a	n/a	-999	12	[6, 9, 1]	16	FR1	0	R1167M
1561.37	3.627	1570848	PROB	3.627	n/a	n/a	-999	12	[3, 1, 4]	8	FR1	0	R1167M
1564.997	0.006	1574475	STOP	n/a	n/a	n/a	-999	12	[-999, -999, -999]	n/a	FR1	0	R1167M
1565.003	0.668	1574481	DISTRACT_END	n/a	n/a	n/a	-999	12	[0, 0, 0]	n/a	FR1	0	R1167M
1565.671	0.517	1575148	RETRIEVAL_ORIENT	n/a	n/a	n/a	-999	12	[0, 0, 0]	n/a	FR1	0	R1167M
1566.188	0.744	1575665	REC_START	n/a	n/a	n/a	-999	12	[0, 0, 0]	n/a	FR1	0	R1167M
1566.932	1.692	1576409	REC_WORD	1.692	n/a	STONE	-999	12	[0, 0, 0]	n/a	FR1	0	R1167M
1568.624	1.268	1578101	REC_WORD	1.268	n/a	BRICK	-999	12	[0, 0, 0]	n/a	FR1	0	R1167M
1569.892	1.417	1579369	REC_WORD	1.417	n/a	PIT	-999	12	[0, 0, 0]	n/a	FR1	0	R1167M
1571.309	1.612	1580786	REC_WORD	1.612	n/a	CLAY	-999	12	[0, 0, 0]	n/a	FR1	0	R1167M
1572.921	23.278	1582398	REC_WORD	23.278	n/a	HOSE	-999	12	[0, 0, 0]	n/a	FR1	0	R1167M
1596.199	13.214	1605675	REC_END	n/a	n/a	n/a	-999	12	[0, 0, 0]	n/a	FR1	0	R1167M
1609.413	0.5	1618888	TRIAL	n/a	n/a	n/a	-999	13	[0, 0, 0]	n/a	FR1	0	R1167M
1609.913	10.428	1619388	COUNTDOWN_START	n/a	n/a	n/a	-999	13	[0, 0, 0]	n/a	FR1	0	R1167M
1620.341	0.007	1629815	COUNTDOWN_END	n/a	n/a	n/a	-999	13	[0, 0, 0]	n/a	FR1	0	R1167M
1620.348	1.616	1629822	ORIENT	n/a	n/a	n/a	-999	13	[0, 0, 0]	n/a	FR1	0	R1167M
1621.964	1.934	1631438	ORIENT_OFF	n/a	n/a	n/a	-999	13	[0, 0, 0]	n/a	FR1	0	R1167M
1623.898	1.618	1633372	WORD	n/a	wordpools/wordpool_EN.txt	LOCK	1	13	[0, 0, 0]	n/a	FR1	0	R1167M
1625.516	1.0	1634990	WORD_OFF	n/a	n/a	LOCK	1	13	[0, 0, 0]	n/a	FR1	0	R1167M
1626.516	1.616	1635990	WORD	n/a	wordpools/wordpool_EN.txt	BAND	2	13	[0, 0, 0]	n/a	FR1	0	R1167M
1628.132	0.85	1637606	WORD_OFF	n/a	n/a	BAND	2	13	[0, 0, 0]	n/a	FR1	0	R1167M
1628.982	1.618	1638456	WORD	n/a	wordpools/wordpool_EN.txt	SHIRT	3	13	[0, 0, 0]	n/a	FR1	0	R1167M
1630.6	0.967	1640074	WORD_OFF	n/a	n/a	SHIRT	3	13	[0, 0, 0]	n/a	FR1	0	R1167M
1631.567	1.617	1641041	WORD	n/a	wordpools/wordpool_EN.txt	STREET	4	13	[0, 0, 0]	n/a	FR1	0	R1167M
1633.184	0.916	1642658	WORD_OFF	n/a	n/a	STREET	4	13	[0, 0, 0]	n/a	FR1	0	R1167M
1634.1	1.618	1643574	WORD	n/a	wordpools/wordpool_EN.txt	CART	5	13	[0, 0, 0]	n/a	FR1	0	R1167M
1635.718	0.917	1645192	WORD_OFF	n/a	n/a	CART	5	13	[0, 0, 0]	n/a	FR1	0	R1167M
1636.635	1.617	1646108	WORD	n/a	wordpools/wordpool_EN.txt	ARK	6	13	[0, 0, 0]	n/a	FR1	0	R1167M
1638.252	0.916	1647725	WORD_OFF	n/a	n/a	ARK	6	13	[0, 0, 0]	n/a	FR1	0	R1167M
1639.168	1.616	1648641	WORD	n/a	wordpools/wordpool_EN.txt	CLOCK	7	13	[0, 0, 0]	n/a	FR1	0	R1167M
1640.784	0.835	1650257	WORD_OFF	n/a	n/a	CLOCK	7	13	[0, 0, 0]	n/a	FR1	0	R1167M
1641.619	1.617	1651092	WORD	n/a	wordpools/wordpool_EN.txt	DIME	8	13	[0, 0, 0]	n/a	FR1	0	R1167M
1643.236	0.849	1652709	WORD_OFF	n/a	n/a	DIME	8	13	[0, 0, 0]	n/a	FR1	0	R1167M
1644.085	1.601	1653558	WORD	n/a	wordpools/wordpool_EN.txt	FORK	9	13	[0, 0, 0]	n/a	FR1	0	R1167M
1645.686	0.9	1655159	WORD_OFF	n/a	n/a	FORK	9	13	[0, 0, 0]	n/a	FR1	0	R1167M
1646.586	1.618	1656059	WORD	n/a	wordpools/wordpool_EN.txt	COUCH	10	13	[0, 0, 0]	n/a	FR1	0	R1167M
1648.204	0.782	1657677	WORD_OFF	n/a	n/a	COUCH	10	13	[0, 0, 0]	n/a	FR1	0	R1167M
1648.986	1.618	1658459	WORD	n/a	wordpools/wordpool_EN.txt	TRUCK	11	13	[0, 0, 0]	n/a	FR1	0	R1167M
1650.604	0.767	1660077	WORD_OFF	n/a	n/a	TRUCK	11	13	[0, 0, 0]	n/a	FR1	0	R1167M
1651.371	1.616	1660844	WORD	n/a	wordpools/wordpool_EN.txt	CLOWN	12	13	[0, 0, 0]	n/a	FR1	0	R1167M
1652.987	0.0	1662460	WORD_OFF	n/a	n/a	CLOWN	12	13	[0, 0, 0]	n/a	FR1	0	R1167M
1652.987	0.0	1662460	DISTRACT_START	n/a	n/a	n/a	-999	13	[0, 0, 0]	n/a	FR1	0	R1167M
1652.987	0.016	1662460	START	n/a	n/a	n/a	-999	13	[-999, -999, -999]	n/a	FR1	0	R1167M
1653.003	7.153	1662476	PROB	7.153	n/a	n/a	-999	13	[8, 5, 9]	22	FR1	0	R1167M
1660.156	3.749	1669628	PROB	3.749	n/a	n/a	-999	13	[1, 8, 3]	12	FR1	0	R1167M
1663.905	3.001	1673377	PROB	3.001	n/a	n/a	-999	13	[2, 3, 4]	9	FR1	0	R1167M
1666.906	2.435	1676378	PROB	2.435	n/a	n/a	-999	13	[3, 1, 2]	9	FR1	0	R1167M
1669.341	5.241	1678813	PROB	5.241	n/a	n/a	-999	13	[7, 5, 8]	20	FR1	0	R1167M
1674.582	0.01	1684053	STOP	n/a	n/a	n/a	-999	13	[-999, -999, -999]	n/a	FR1	0	R1167M
1674.592	0.567	1684063	DISTRACT_END	n/a	n/a	n/a	-999	13	[0, 0, 0]	n/a	FR1	0	R1167M
1675.159	0.518	1684630	RETRIEVAL_ORIENT	n/a	n/a	n/a	-999	13	[0, 0, 0]	n/a	FR1	0	R1167M
1675.677	1.337	1685148	REC_START	n/a	n/a	n/a	-999	13	[0, 0, 0]	n/a	FR1	0	R1167M
1677.014	1.279	1686485	REC_WORD	1.279	n/a	ARK	-999	13	[0, 0, 0]	n/a	FR1	0	R1167M
1678.293	1.208	1687764	REC_WORD	1.208	n/a	CLOWN	-999	13	[0, 0, 0]	n/a	FR1	0	R1167M
1679.501	3.371	1688972	REC_WORD	3.371	n/a	TRUCK	-999	13	[0, 0, 0]	n/a	FR1	0	R1167M
1682.872	18.835	1692343	REC_WORD	18.835	n/a	SHIRT	-999	13	[0, 0, 0]	n/a	FR1	0	R1167M
1701.707	3.979	1711177	REC_WORD	3.979	n/a	SHIRT	-999	13	[0, 0, 0]	n/a	FR1	0	R1167M
1705.686	5.646	1715156	REC_END	n/a	n/a	n/a	-999	13	[0, 0, 0]	n/a	FR1	0	R1167M
1711.332	0.5	1720801	TRIAL	n/a	n/a	n/a	-999	14	[0, 0, 0]	n/a	FR1	0	R1167M
1711.832	10.428	1721301	COUNTDOWN_START	n/a	n/a	n/a	-999	14	[0, 0, 0]	n/a	FR1	0	R1167M
1722.26	0.008	1731729	COUNTDOWN_END	n/a	n/a	n/a	-999	14	[0, 0, 0]	n/a	FR1	0	R1167M
1722.268	1.616	1731737	ORIENT	n/a	n/a	n/a	-999	14	[0, 0, 0]	n/a	FR1	0	R1167M
1723.884	2.067	1733353	ORIENT_OFF	n/a	n/a	n/a	-999	14	[0, 0, 0]	n/a	FR1	0	R1167M
1725.951	1.618	1735419	WORD	n/a	wordpools/wordpool_EN.txt	SPARK	1	14	[0, 0, 0]	n/a	FR1	0	R1167M
1727.569	0.883	1737037	WORD_OFF	n/a	n/a	SPARK	1	14	[0, 0, 0]	n/a	FR1	0	R1167M
1728.452	1.616	1737920	WORD	n/a	wordpools/wordpool_EN.txt	LAKE	2	14	[0, 0, 0]	n/a	FR1	0	R1167M
1730.068	0.834	1739536	WORD_OFF	n/a	n/a	LAKE	2	14	[0, 0, 0]	n/a	FR1	0	R1167M
1730.902	1.601	1740370	WORD	n/a	wordpools/wordpool_EN.txt	SKI	3	14	[0, 0, 0]	n/a	FR1	0	R1167M
1732.503	0.784	1741971	WORD_OFF	n/a	n/a	SKI	3	14	[0, 0, 0]	n/a	FR1	0	R1167M
1733.287	1.616	1742755	WORD	n/a	wordpools/wordpool_EN.txt	SCHOOL	4	14	[0, 0, 0]	n/a	FR1	0	R1167M
1734.903	0.834	1744371	WORD_OFF	n/a	n/a	SCHOOL	4	14	[0, 0, 0]	n/a	FR1	0	R1167M
1735.737	1.617	1745205	WORD	n/a	wordpools/wordpool_EN.txt	FUR	5	14	[0, 0, 0]	n/a	FR1	0	R1167M
1737.354	0.817	1746822	WORD_OFF	n/a	n/a	FUR	5	14	[0, 0, 0]	n/a	FR1	0	R1167M
1738.171	1.616	1747639	WORD	n/a	wordpools/wordpool_EN.txt	BED	6	14	[0, 0, 0]	n/a	FR1	0	R1167M
1739.787	0.967	1749255	WORD_OFF	n/a	n/a	BED	6	14	[0, 0, 0]	n/a	FR1	0	R1167M
1740.754	1.618	1750222	WORD	n/a	wordpools/wordpool_EN.txt	SPOON	7	14	[0, 0, 0]	n/a	FR1	0	R1167M
1742.372	0.967	1751839	WORD_OFF	n/a	n/a	SPOON	7	14	[0, 0, 0]	n/a	FR1	0	R1167M
1743.339	1.616	1752806	WORD	n/a	wordpools/wordpool_EN.txt	FOG	8	14	[0, 0, 0]	n/a	FR1	0	R1167M
1744.955	0.95	1754422	WORD_OFF	n/a	n/a	FOG	8	14	[0, 0, 0]	n/a	FR1	0	R1167M
1745.905	1.618	1755372	WORD	n/a	wordpools/wordpool_EN.txt	SEAT	9	14	[0, 0, 0]	n/a	FR1	0	R1167M
1747.523	0.9	1756990	WORD_OFF	n/a	n/a	SEAT	9	14	[0, 0, 0]	n/a	FR1	0	R1167M
1748.423	1.616	1757890	WORD	n/a	wordpools/wordpool_EN.txt	JET	10	14	[0, 0, 0]	n/a	FR1	0	R1167M
1750.039	0.767	1759506	WORD_OFF	n/a	n/a	JET	10	14	[0, 0, 0]	n/a	FR1	0	R1167M
1750.806	1.601	1760273	WORD	n/a	wordpools/wordpool_EN.txt	WORLD	11	14	[0, 0, 0]	n/a	FR1	0	R1167M
1752.407	0.984	1761874	WORD_OFF	n/a	n/a	WORLD	11	14	[0, 0, 0]	n/a	FR1	0	R1167M
1753.391	1.616	1762858	WORD	n/a	wordpools/wordpool_EN.txt	POOL	12	14	[0, 0, 0]	n/a	FR1	0	R1167M
1755.007	0.0	1764474	WORD_OFF	n/a	n/a	POOL	12	14	[0, 0, 0]	n/a	FR1	0	R1167M
1755.007	0.0	1764474	DISTRACT_START	n/a	n/a	n/a	-999	14	[0, 0, 0]	n/a	FR1	0	R1167M
1755.007	0.016	1764474	START	n/a	n/a	n/a	-999	14	[-999, -999, -999]	n/a	FR1	0	R1167M
1755.023	4.569	1764490	PROB	4.569	n/a	n/a	-999	14	[9, 6, 6]	21	FR1	0	R1167M
1759.592	3.834	1769058	PROB	3.834	n/a	n/a	-999	14	[6, 8, 6]	20	FR1	0	R1167M
1763.426	3.917	1772892	PROB	3.917	n/a	n/a	-999	14	[6, 2, 5]	13	FR1	0	R1167M
1767.343	3.633	1776809	PROB	3.633	n/a	n/a	-999	14	[9, 8, 3]	22	FR1	0	R1167M
1770.976	3.319	1780442	PROB	3.319	n/a	n/a	-999	14	[5, 9, 1]	15	FR1	0	R1167M
1774.295	5.359	1783761	PROB	5.359	n/a	n/a	-999	14	[3, 3, 4]	10	FR1	0	R1167M
1779.654	0.008	1789119	STOP	n/a	n/a	n/a	-999	14	[-999, -999, -999]	n/a	FR1	0	R1167M
1779.662	0.567	1789127	DISTRACT_END	n/a	n/a	n/a	-999	14	[0, 0, 0]	n/a	FR1	0	R1167M
1780.229	0.517	1789694	RETRIEVAL_ORIENT	n/a	n/a	n/a	-999	14	[0, 0, 0]	n/a	FR1	0	R1167M
1780.746	1.945	1790211	REC_START	n/a	n/a	n/a	-999	14	[0, 0, 0]	n/a	FR1	0	R1167M
1782.691	1.001	1792156	REC_WORD	1.001	n/a	JET	-999	14	[0, 0, 0]	n/a	FR1	0	R1167M
1783.692	1.161	1793157	REC_WORD	1.161	n/a	WORLD	-999	14	[0, 0, 0]	n/a	FR1	0	R1167M
1784.853	1.593	1794318	REC_WORD	1.593	n/a	SPARK	-999	14	[0, 0, 0]	n/a	FR1	0	R1167M
1786.446	1.514	1795911	REC_WORD	1.514	n/a	LAKE	-999	14	[0, 0, 0]	n/a	FR1	0	R1167M
1787.96	4.339	1797425	REC_WORD	4.339	n/a	FUR	-999	14	[0, 0, 0]	n/a	FR1	0	R1167M
1792.299	18.457	1801764	REC_WORD	18.457	n/a	BED	-999	14	[0, 0, 0]	n/a	FR1	0	R1167M
1810.756	4.78	1820220	REC_END	n/a	n/a	n/a	-999	14	[0, 0, 0]	n/a	FR1	0	R1167M
1815.536	0.5	1824999	TRIAL	n/a	n/a	n/a	-999	15	[0, 0, 0]	n/a	FR1	0	R1167M
1816.036	10.428	1825499	COUNTDOWN_START	n/a	n/a	n/a	-999	15	[0, 0, 0]	n/a	FR1	0	R1167M
1826.464	0.007	1835927	COUNTDOWN_END	n/a	n/a	n/a	-999	15	[0, 0, 0]	n/a	FR1	0	R1167M
1826.471	1.616	1835934	ORIENT	n/a	n/a	n/a	-999	15	[0, 0, 0]	n/a	FR1	0	R1167M
1828.087	2.152	1837550	ORIENT_OFF	n/a	n/a	n/a	-999	15	[0, 0, 0]	n/a	FR1	0	R1167M
1830.239	1.616	1839701	WORD	n/a	wordpools/wordpool_EN.txt	CROW	1	15	[0, 0, 0]	n/a	FR1	0	R1167M
1831.855	0.95	1841317	WORD_OFF	n/a	n/a	CROW	1	15	[0, 0, 0]	n/a	FR1	0	R1167M
1832.805	1.618	1842267	WORD	n/a	wordpools/wordpool_EN.txt	MOUSE	2	15	[0, 0, 0]	n/a	FR1	0	R1167M
1834.423	0.8	1843885	WORD_OFF	n/a	n/a	MOUSE	2	15	[0, 0, 0]	n/a	FR1	0	R1167M
1835.223	1.616	1844685	WORD	n/a	wordpools/wordpool_EN.txt	BAT	3	15	[0, 0, 0]	n/a	FR1	0	R1167M
1836.839	0.818	1846301	WORD_OFF	n/a	n/a	BAT	3	15	[0, 0, 0]	n/a	FR1	0	R1167M
1837.657	1.617	1847119	WORD	n/a	wordpools/wordpool_EN.txt	CHIEF	4	15	[0, 0, 0]	n/a	FR1	0	R1167M
1839.274	0.799	1848736	WORD_OFF	n/a	n/a	CHIEF	4	15	[0, 0, 0]	n/a	FR1	0	R1167M
1840.073	1.618	1849535	WORD	n/a	wordpools/wordpool_EN.txt	PRINCE	5	15	[0, 0, 0]	n/a	FR1	0	R1167M
1841.691	0.784	1851153	WORD_OFF	n/a	n/a	PRINCE	5	15	[0, 0, 0]	n/a	FR1	0	R1167M
1842.475	1.616	1851937	WORD	n/a	wordpools/wordpool_EN.txt	MOTH	6	15	[0, 0, 0]	n/a	FR1	0	R1167M
1844.091	0.833	1853553	WORD_OFF	n/a	n/a	MOTH	6	15	[0, 0, 0]	n/a	FR1	0	R1167M
1844.924	1.618	1854386	WORD	n/a	wordpools/wordpool_EN.txt	CAT	7	15	[0, 0, 0]	n/a	FR1	0	R1167M
1846.542	1.017	1856004	WORD_OFF	n/a	n/a	CAT	7	15	[0, 0, 0]	n/a	FR1	0	R1167M
1847.559	1.617	1857021	WORD	n/a	wordpools/wordpool_EN.txt	SHEEP	8	15	[0, 0, 0]	n/a	FR1	0	R1167M
1849.176	0.916	1858637	WORD_OFF	n/a	n/a	SHEEP	8	15	[0, 0, 0]	n/a	FR1	0	R1167M
1850.092	1.618	1859553	WORD	n/a	wordpools/wordpool_EN.txt	HOOK	9	15	[0, 0, 0]	n/a	FR1	0	R1167M
1851.71	0.85	1861171	WORD_OFF	n/a	n/a	HOOK	9	15	[0, 0, 0]	n/a	FR1	0	R1167M
1852.56	1.617	1862021	WORD	n/a	wordpools/wordpool_EN.txt	TREE	10	15	[0, 0, 0]	n/a	FR1	0	R1167M
1854.177	0.916	1863638	WORD_OFF	n/a	n/a	TREE	10	15	[0, 0, 0]	n/a	FR1	0	R1167M
1855.093	1.601	1864554	WORD	n/a	wordpools/wordpool_EN.txt	SHARK	11	15	[0, 0, 0]	n/a	FR1	0	R1167M
1856.694	0.833	1866155	WORD_OFF	n/a	n/a	SHARK	11	15	[0, 0, 0]	n/a	FR1	0	R1167M
1857.527	1.617	1866988	WORD	n/a	wordpools/wordpool_EN.txt	WEB	12	15	[0, 0, 0]	n/a	FR1	0	R1167M
1859.144	0.0	1868605	WORD_OFF	n/a	n/a	WEB	12	15	[0, 0, 0]	n/a	FR1	0	R1167M
1859.144	0.001	1868605	DISTRACT_START	n/a	n/a	n/a	-999	15	[0, 0, 0]	n/a	FR1	0	R1167M
1859.145	0.016	1868606	START	n/a	n/a	n/a	-999	15	[-999, -999, -999]	n/a	FR1	0	R1167M
1859.161	3.716	1868622	PROB	3.716	n/a	n/a	-999	15	[8, 4, 3]	15	FR1	0	R1167M
1862.877	3.719	1872338	PROB	3.719	n/a	n/a	-999	15	[7, 4, 3]	14	FR1	0	R1167M
1866.596	3.316	1876056	PROB	3.316	n/a	n/a	-999	15	[9, 6, 7]	22	FR1	0	R1167M
1869.912	4.235	1879372	PROB	4.235	n/a	n/a	-999	15	[4, 6, 9]	19	FR1	0	R1167M
1874.147	4.817	1883607	PROB	4.817	n/a	n/a	-999	15	[4, 9, 5]	18	FR1	0	R1167M
1878.964	2.867	1888424	PROB	2.867	n/a	n/a	-999	15	[7, 1, 1]	9	FR1	0	R1167M
1881.831	0.017	1891291	STOP	n/a	n/a	n/a	-999	15	[-999, -999, -999]	n/a	FR1	0	R1167M
1881.848	0.601	1891308	DISTRACT_END	n/a	n/a	n/a	-999	15	[0, 0, 0]	n/a	FR1	0	R1167M
1882.449	0.516	1891909	RETRIEVAL_ORIENT	n/a	n/a	n/a	-999	15	[0, 0, 0]	n/a	FR1	0	R1167M
1882.965	1.118	1892425	REC_START	n/a	n/a	n/a	-999	15	[0, 0, 0]	n/a	FR1	0	R1167M
1884.083	1.052	1893542	REC_WORD_VV	1.052	n/a	<>	-999	15	[0, 0, 0]	n/a	FR1	0	R1167M
1885.135	0.985	1894594	REC_WORD	0.985	n/a	CHIEF	-999	15	[0, 0, 0]	n/a	FR1	0	R1167M
1886.12	1.71	1895579	REC_WORD	1.71	n/a	PRINCE	-999	15	[0, 0, 0]	n/a	FR1	0	R1167M
1887.83	1.453	1897289	REC_WORD	1.453	n/a	CROW	-999	15	[0, 0, 0]	n/a	FR1	0	R1167M
1889.283	1.206	1898742	REC_WORD	1.206	n/a	BAT	-999	15	[0, 0, 0]	n/a	FR1	0	R1167M
1890.489	2.481	1899948	REC_WORD	2.481	n/a	MOUSE	-999	15	[0, 0, 0]	n/a	FR1	0	R1167M
1892.97	20.008	1902429	REC_WORD	20.008	n/a	SHEEP	-999	15	[0, 0, 0]	n/a	FR1	0	R1167M
1912.978	8.629	1922436	REC_END	n/a	n/a	n/a	-999	15	[0, 0, 0]	n/a	FR1	0	R1167M
1921.607	0.5	1931064	TRIAL	n/a	n/a	n/a	-999	16	[0, 0, 0]	n/a	FR1	0	R1167M
1922.107	10.428	1931564	COUNTDOWN_START	n/a	n/a	n/a	-999	16	[0, 0, 0]	n/a	FR1	0	R1167M
1932.535	0.007	1941992	COUNTDOWN_END	n/a	n/a	n/a	-999	16	[0, 0, 0]	n/a	FR1	0	R1167M
1932.542	1.617	1941999	ORIENT	n/a	n/a	n/a	-999	16	[0, 0, 0]	n/a	FR1	0	R1167M
1934.159	1.984	1943616	ORIENT_OFF	n/a	n/a	n/a	-999	16	[0, 0, 0]	n/a	FR1	0	R1167M
1936.143	1.616	1945599	WORD	n/a	wordpools/wordpool_EN.txt	MAT	1	16	[0, 0, 0]	n/a	FR1	0	R1167M
1937.759	0.917	1947215	WORD_OFF	n/a	n/a	MAT	1	16	[0, 0, 0]	n/a	FR1	0	R1167M
1938.676	1.618	1948132	WORD	n/a	wordpools/wordpool_EN.txt	SUIT	2	16	[0, 0, 0]	n/a	FR1	0	R1167M
1940.294	0.799	1949750	WORD_OFF	n/a	n/a	SUIT	2	16	[0, 0, 0]	n/a	FR1	0	R1167M
1941.093	1.618	1950549	WORD	n/a	wordpools/wordpool_EN.txt	PANTS	3	16	[0, 0, 0]	n/a	FR1	0	R1167M
1942.711	0.783	1952167	WORD_OFF	n/a	n/a	PANTS	3	16	[0, 0, 0]	n/a	FR1	0	R1167M
1943.494	1.616	1952950	WORD	n/a	wordpools/wordpool_EN.txt	PALM	4	16	[0, 0, 0]	n/a	FR1	0	R1167M
1945.11	0.8	1954566	WORD_OFF	n/a	n/a	PALM	4	16	[0, 0, 0]	n/a	FR1	0	R1167M
1945.91	1.601	1955366	WORD	n/a	wordpools/wordpool_EN.txt	BENCH	5	16	[0, 0, 0]	n/a	FR1	0	R1167M
1947.511	0.767	1956967	WORD_OFF	n/a	n/a	BENCH	5	16	[0, 0, 0]	n/a	FR1	0	R1167M
1948.278	1.616	1957734	WORD	n/a	wordpools/wordpool_EN.txt	CHEEK	6	16	[0, 0, 0]	n/a	FR1	0	R1167M
1949.894	0.951	1959350	WORD_OFF	n/a	n/a	CHEEK	6	16	[0, 0, 0]	n/a	FR1	0	R1167M
1950.845	1.617	1960301	WORD	n/a	wordpools/wordpool_EN.txt	DRESS	7	16	[0, 0, 0]	n/a	FR1	0	R1167M
1952.462	0.851	1961918	WORD_OFF	n/a	n/a	DRESS	7	16	[0, 0, 0]	n/a	FR1	0	R1167M
1953.313	1.616	1962769	WORD	n/a	wordpools/wordpool_EN.txt	DOOR	8	16	[0, 0, 0]	n/a	FR1	0	R1167M
1954.929	0.801	1964384	WORD_OFF	n/a	n/a	DOOR	8	16	[0, 0, 0]	n/a	FR1	0	R1167M
1955.73	1.617	1965185	WORD	n/a	wordpools/wordpool_EN.txt	PEA	9	16	[0, 0, 0]	n/a	FR1	0	R1167M
1957.347	0.867	1966802	WORD_OFF	n/a	n/a	PEA	9	16	[0, 0, 0]	n/a	FR1	0	R1167M
1958.214	1.616	1967669	WORD	n/a	wordpools/wordpool_EN.txt	FACE	10	16	[0, 0, 0]	n/a	FR1	0	R1167M
1959.83	0.884	1969285	WORD_OFF	n/a	n/a	FACE	10	16	[0, 0, 0]	n/a	FR1	0	R1167M
1960.714	1.617	1970169	WORD	n/a	wordpools/wordpool_EN.txt	SHOE	11	16	[0, 0, 0]	n/a	FR1	0	R1167M
1962.331	0.867	1971786	WORD_OFF	n/a	n/a	SHOE	11	16	[0, 0, 0]	n/a	FR1	0	R1167M
1963.198	1.616	1972653	WORD	n/a	wordpools/wordpool_EN.txt	TRAY	12	16	[0, 0, 0]	n/a	FR1	0	R1167M
1964.814	0.0	1974269	DISTRACT_START	n/a	n/a	n/a	-999	16	[0, 0, 0]	n/a	FR1	0	R1167M
1964.814	0.001	1974269	WORD_OFF	n/a	n/a	TRAY	12	16	[0, 0, 0]	n/a	FR1	0	R1167M
1964.815	0.016	1974270	START	n/a	n/a	n/a	-999	16	[-999, -999, -999]	n/a	FR1	0	R1167M
1964.831	3.901	1974286	PROB	3.901	n/a	n/a	-999	16	[9, 9, 6]	24	FR1	0	R1167M
1968.732	3.951	1978187	PROB	3.951	n/a	n/a	-999	16	[5, 7, 5]	17	FR1	0	R1167M
1972.683	3.051	1982137	PROB	3.051	n/a	n/a	-999	16	[3, 8, 8]	19	FR1	0	R1167M
1975.734	2.166	1985188	PROB	2.166	n/a	n/a	-999	16	[2, 2, 4]	8	FR1	0	R1167M
1977.9	3.335	1987354	PROB	3.335	n/a	n/a	-999	16	[8, 3, 3]	14	FR1	0	R1167M
1981.235	3.45	1990689	PROB	3.45	n/a	n/a	-999	16	[9, 4, 2]	15	FR1	0	R1167M
1984.685	3.074	1994139	PROB	3.074	n/a	n/a	-999	16	[3, 9, 1]	13	FR1	0	R1167M
1987.759	0.009	1997213	STOP	n/a	n/a	n/a	-999	16	[-999, -999, -999]	n/a	FR1	0	R1167M
1987.768	0.702	1997222	DISTRACT_END	n/a	n/a	n/a	-999	16	[0, 0, 0]	n/a	FR1	0	R1167M
1988.47	0.516	1997924	RETRIEVAL_ORIENT	n/a	n/a	n/a	-999	16	[0, 0, 0]	n/a	FR1	0	R1167M
1988.986	0.987	1998440	REC_START	n/a	n/a	n/a	-999	16	[0, 0, 0]	n/a	FR1	0	R1167M
1989.973	1.525	1999426	REC_WORD	1.525	n/a	SUIT	-999	16	[0, 0, 0]	n/a	FR1	0	R1167M
1991.498	1.352	2000951	REC_WORD	1.352	n/a	PANTS	-999	16	[0, 0, 0]	n/a	FR1	0	R1167M
1992.85	1.348	2002303	REC_WORD	1.348	n/a	PALM	-999	16	[0, 0, 0]	n/a	FR1	0	R1167M
1994.198	11.136	2003651	REC_WORD	11.136	n/a	DRESS	-999	16	[0, 0, 0]	n/a	FR1	0	R1167M
2005.334	13.663	2014787	REC_WORD	13.663	n/a	HAND	-999	16	[0, 0, 0]	n/a	FR1	0	R1167M
2018.997	0.0	2028449	REC_END	n/a	n/a	n/a	-999	16	[0, 0, 0]	n/a	FR1	0	R1167M
