onset	duration	sample	trial_type	response_time	stim_file	item_name	serialpos	list	test	answer	experiment	session	subject
0.0	9.781	1353	INSTRUCT_START	n/a	n/a	n/a	-999	-999	[0, 0, 0]	n/a	FR1	1	R1361C
9.781	3.084	11133	INSTRUCT_END	n/a	n/a	n/a	-999	-999	[0, 0, 0]	n/a	FR1	1	R1361C
12.865	8.425	14217	MIC TEST_START	n/a	n/a	n/a	-999	-999	[0, 0, 0]	n/a	FR1	1	R1361C
21.29	0.009	22642	MIC TEST_END	n/a	n/a	n/a	-999	-999	[0, 0, 0]	n/a	FR1	1	R1361C
21.299	0.0	22651	TRIAL_START	n/a	n/a	n/a	-999	-1	[0, 0, 0]	n/a	FR1	1	R1361C
21.299	0.0	22651	TRIAL	n/a	n/a	n/a	-999	-1	[0, 0, 0]	n/a	FR1	1	R1361C
21.299	1.967	22651	WAITING_START	n/a	n/a	n/a	-999	-1	[0, 0, 0]	n/a	FR1	1	R1361C
23.266	0.0	24618	WAITING_END	n/a	n/a	n/a	-999	-1	[0, 0, 0]	n/a	FR1	1	R1361C
23.266	10.43	24618	COUNTDOWN_START	n/a	n/a	n/a	-999	-1	[0, 0, 0]	n/a	FR1	1	R1361C
33.696	0.001	35047	COUNTDOWN_END	n/a	n/a	n/a	-999	-1	[0, 0, 0]	n/a	FR1	1	R1361C
33.697	1.023	35048	ORIENT_START	n/a	n/a	n/a	-999	-1	[0, 0, 0]	n/a	FR1	1	R1361C
34.72	0.001	36071	ORIENT_END	n/a	n/a	n/a	-999	-1	[0, 0, 0]	n/a	FR1	1	R1361C
34.721	0.951	36072	ENCODING_START	n/a	n/a	n/a	-999	-1	[0, 0, 0]	n/a	FR1	1	R1361C
35.672	1.63	37023	WORD	n/a	n/a	FLOOD	1	-1	[0, 0, 0]	n/a	FR1	1	R1361C
37.302	0.852	38653	WORD_OFF	n/a	n/a	FLOOD	1	-1	[0, 0, 0]	n/a	FR1	1	R1361C
38.154	1.633	39505	WORD	n/a	n/a	COTTON	2	-1	[0, 0, 0]	n/a	FR1	1	R1361C
39.787	0.813	41138	WORD_OFF	n/a	n/a	COTTON	2	-1	[0, 0, 0]	n/a	FR1	1	R1361C
40.6	1.637	41951	WORD	n/a	n/a	RING	3	-1	[0, 0, 0]	n/a	FR1	1	R1361C
42.237	1.124	43588	WORD_OFF	n/a	n/a	RING	3	-1	[0, 0, 0]	n/a	FR1	1	R1361C
43.361	1.626	44712	WORD	n/a	n/a	WAGON	4	-1	[0, 0, 0]	n/a	FR1	1	R1361C
44.987	0.848	46338	WORD_OFF	n/a	n/a	WAGON	4	-1	[0, 0, 0]	n/a	FR1	1	R1361C
45.835	1.635	47186	WORD	n/a	n/a	RHINO	5	-1	[0, 0, 0]	n/a	FR1	1	R1361C
47.47	1.006	48821	WORD_OFF	n/a	n/a	RHINO	5	-1	[0, 0, 0]	n/a	FR1	1	R1361C
48.476	1.629	49827	WORD	n/a	n/a	CHEST	6	-1	[0, 0, 0]	n/a	FR1	1	R1361C
50.105	0.82	51456	WORD_OFF	n/a	n/a	CHEST	6	-1	[0, 0, 0]	n/a	FR1	1	R1361C
50.925	1.63	52275	WORD	n/a	n/a	CAMEL	7	-1	[0, 0, 0]	n/a	FR1	1	R1361C
52.555	1.145	53905	WORD_OFF	n/a	n/a	CAMEL	7	-1	[0, 0, 0]	n/a	FR1	1	R1361C
53.7	1.622	55050	WORD	n/a	n/a	BABY	8	-1	[0, 0, 0]	n/a	FR1	1	R1361C
55.322	1.125	56672	WORD_OFF	n/a	n/a	BABY	8	-1	[0, 0, 0]	n/a	FR1	1	R1361C
56.447	1.626	57797	WORD	n/a	n/a	WATCH	9	-1	[0, 0, 0]	n/a	FR1	1	R1361C
58.073	0.919	59423	WORD_OFF	n/a	n/a	WATCH	9	-1	[0, 0, 0]	n/a	FR1	1	R1361C
58.992	1.631	60342	WORD	n/a	n/a	TONGUE	10	-1	[0, 0, 0]	n/a	FR1	1	R1361C
60.623	0.767	61973	WORD_OFF	n/a	n/a	TONGUE	10	-1	[0, 0, 0]	n/a	FR1	1	R1361C
61.39	1.634	62740	WORD	n/a	n/a	IMAGE	11	-1	[0, 0, 0]	n/a	FR1	1	R1361C
63.024	1.09	64374	WORD_OFF	n/a	n/a	IMAGE	11	-1	[0, 0, 0]	n/a	FR1	1	R1361C
64.114	1.627	65464	WORD	n/a	n/a	BEAM	12	-1	[0, 0, 0]	n/a	FR1	1	R1361C
65.741	0.001	67091	WORD_OFF	n/a	n/a	BEAM	12	-1	[0, 0, 0]	n/a	FR1	1	R1361C
65.742	0.0	67092	ENCODING_END	n/a	n/a	n/a	-999	-1	[0, 0, 0]	n/a	FR1	1	R1361C
65.742	0.0	67092	DISTRACT_START	n/a	n/a	n/a	-999	-1	[0, 0, 0]	n/a	FR1	1	R1361C
65.742	0.016	67092	START	n/a	n/a	n/a	-999	-1	[-999, -999, -999]	n/a	FR1	1	R1361C
65.758	237.181	67108	PROB	237.181	n/a	n/a	-999	-1	[8, 3, 3]	14	FR1	1	R1361C
302.939	0.014	304277	STOP	n/a	n/a	n/a	-999	-1	[-999, -999, -999]	n/a	FR1	1	R1361C
302.953	0.642	304291	DISTRACT_END	n/a	n/a	n/a	-999	-1	[0, 0, 0]	n/a	FR1	1	R1361C
303.595	1.674	304933	RETRIEVAL_ORIENT_START	n/a	n/a	n/a	-999	-1	[0, 0, 0]	n/a	FR1	1	R1361C
305.269	0.0	306607	RETRIEVAL_ORIENT_END	n/a	n/a	n/a	-999	-1	[0, 0, 0]	n/a	FR1	1	R1361C
305.269	30.012	306607	REC_START	n/a	n/a	n/a	-999	-1	[0, 0, 0]	n/a	FR1	1	R1361C
335.281	0.0	336618	REC_END	n/a	n/a	n/a	-999	-1	[0, 0, 0]	n/a	FR1	1	R1361C
335.281	8.596	336618	PRACTICE_POST_INSTRUCT_START	n/a	n/a	n/a	-999	-1	[0, 0, 0]	n/a	FR1	1	R1361C
343.877	0.001	345213	PRACTICE_POST_INSTRUCT_END	n/a	n/a	n/a	-999	-1	[0, 0, 0]	n/a	FR1	1	R1361C
343.878	0.021	345214	TRIAL_END	n/a	n/a	n/a	-999	-1	[0, 0, 0]	n/a	FR1	1	R1361C
343.899	0.0	345235	TRIAL	n/a	n/a	n/a	-999	1	[0, 0, 0]	n/a	FR1	1	R1361C
343.899	0.001	345235	TRIAL_START	n/a	n/a	n/a	-999	1	[0, 0, 0]	n/a	FR1	1	R1361C
343.9	7.862	345236	WAITING_START	n/a	n/a	n/a	-999	1	[0, 0, 0]	n/a	FR1	1	R1361C
351.762	0.001	353098	WAITING_END	n/a	n/a	n/a	-999	1	[0, 0, 0]	n/a	FR1	1	R1361C
351.763	10.429	353099	COUNTDOWN_START	n/a	n/a	n/a	-999	1	[0, 0, 0]	n/a	FR1	1	R1361C
362.192	0.001	363528	COUNTDOWN_END	n/a	n/a	n/a	-999	1	[0, 0, 0]	n/a	FR1	1	R1361C
362.193	1.021	363529	ORIENT_START	n/a	n/a	n/a	-999	1	[0, 0, 0]	n/a	FR1	1	R1361C
363.214	0.0	364550	ORIENT_END	n/a	n/a	n/a	-999	1	[0, 0, 0]	n/a	FR1	1	R1361C
363.214	1.042	364550	ENCODING_START	n/a	n/a	n/a	-999	1	[0, 0, 0]	n/a	FR1	1	R1361C
364.256	1.625	365591	WORD	n/a	wordpools/wordpool_EN.txt	DOOR	1	1	[0, 0, 0]	n/a	FR1	1	R1361C
365.881	0.761	367216	WORD_OFF	n/a	n/a	DOOR	1	1	[0, 0, 0]	n/a	FR1	1	R1361C
366.642	1.605	367977	WORD	n/a	wordpools/wordpool_EN.txt	MOUTH	2	1	[0, 0, 0]	n/a	FR1	1	R1361C
368.247	1.065	369582	WORD_OFF	n/a	n/a	MOUTH	2	1	[0, 0, 0]	n/a	FR1	1	R1361C
369.312	1.637	370647	WORD	n/a	wordpools/wordpool_EN.txt	TAIL	3	1	[0, 0, 0]	n/a	FR1	1	R1361C
370.949	1.023	372284	WORD_OFF	n/a	n/a	TAIL	3	1	[0, 0, 0]	n/a	FR1	1	R1361C
371.972	1.626	373307	WORD	n/a	wordpools/wordpool_EN.txt	STEAK	4	1	[0, 0, 0]	n/a	FR1	1	R1361C
373.598	0.789	374933	WORD_OFF	n/a	n/a	STEAK	4	1	[0, 0, 0]	n/a	FR1	1	R1361C
374.387	1.629	375722	WORD	n/a	wordpools/wordpool_EN.txt	JUICE	5	1	[0, 0, 0]	n/a	FR1	1	R1361C
376.016	1.009	377351	WORD_OFF	n/a	n/a	JUICE	5	1	[0, 0, 0]	n/a	FR1	1	R1361C
377.025	1.624	378360	WORD	n/a	wordpools/wordpool_EN.txt	WOLF	6	1	[0, 0, 0]	n/a	FR1	1	R1361C
378.649	0.963	379984	WORD_OFF	n/a	n/a	WOLF	6	1	[0, 0, 0]	n/a	FR1	1	R1361C
379.612	1.639	380947	WORD	n/a	wordpools/wordpool_EN.txt	SEAL	7	1	[0, 0, 0]	n/a	FR1	1	R1361C
381.251	0.844	382586	WORD_OFF	n/a	n/a	SEAL	7	1	[0, 0, 0]	n/a	FR1	1	R1361C
382.095	1.623	383430	WORD	n/a	wordpools/wordpool_EN.txt	WALL	8	1	[0, 0, 0]	n/a	FR1	1	R1361C
383.718	1.046	385053	WORD_OFF	n/a	n/a	WALL	8	1	[0, 0, 0]	n/a	FR1	1	R1361C
384.764	1.637	386098	WORD	n/a	wordpools/wordpool_EN.txt	HORN	9	1	[0, 0, 0]	n/a	FR1	1	R1361C
386.401	0.871	387735	WORD_OFF	n/a	n/a	HORN	9	1	[0, 0, 0]	n/a	FR1	1	R1361C
387.272	1.63	388606	WORD	n/a	wordpools/wordpool_EN.txt	FUDGE	10	1	[0, 0, 0]	n/a	FR1	1	R1361C
388.902	1.104	390236	WORD_OFF	n/a	n/a	FUDGE	10	1	[0, 0, 0]	n/a	FR1	1	R1361C
390.006	1.629	391340	WORD	n/a	wordpools/wordpool_EN.txt	HEN	11	1	[0, 0, 0]	n/a	FR1	1	R1361C
391.635	0.87	392969	WORD_OFF	n/a	n/a	HEN	11	1	[0, 0, 0]	n/a	FR1	1	R1361C
392.505	1.631	393839	WORD	n/a	wordpools/wordpool_EN.txt	CHAIR	12	1	[0, 0, 0]	n/a	FR1	1	R1361C
394.136	0.001	395470	WORD_OFF	n/a	n/a	CHAIR	12	1	[0, 0, 0]	n/a	FR1	1	R1361C
394.137	0.0	395471	ENCODING_END	n/a	n/a	n/a	-999	1	[0, 0, 0]	n/a	FR1	1	R1361C
394.137	0.0	395471	DISTRACT_START	n/a	n/a	n/a	-999	1	[0, 0, 0]	n/a	FR1	1	R1361C
394.137	0.016	395471	START	n/a	n/a	n/a	-999	1	[-999, -999, -999]	n/a	FR1	1	R1361C
394.153	4.249	395487	PROB	4.249	n/a	n/a	-999	1	[6, 5, 1]	12	FR1	1	R1361C
398.402	8.736	399736	PROB	8.736	n/a	n/a	-999	1	[9, 3, 4]	16	FR1	1	R1361C
407.138	3.651	408471	PROB	3.651	n/a	n/a	-999	1	[3, 3, 6]	12	FR1	1	R1361C
410.789	5.307	412122	PROB	5.307	n/a	n/a	-999	1	[2, 4, 8]	14	FR1	1	R1361C
416.096	0.011	417429	STOP	n/a	n/a	n/a	-999	1	[-999, -999, -999]	n/a	FR1	1	R1361C
416.107	0.648	417440	DISTRACT_END	n/a	n/a	n/a	-999	1	[0, 0, 0]	n/a	FR1	1	R1361C
416.755	1.618	418088	RETRIEVAL_ORIENT_START	n/a	n/a	n/a	-999	1	[0, 0, 0]	n/a	FR1	1	R1361C
418.373	0.001	419706	RETRIEVAL_ORIENT_END	n/a	n/a	n/a	-999	1	[0, 0, 0]	n/a	FR1	1	R1361C
418.374	1.084	419707	REC_START	n/a	n/a	n/a	-999	1	[0, 0, 0]	n/a	FR1	1	R1361C
419.458	0.94	420791	REC_WORD	0.94	n/a	DOOR	1	1	[0, 0, 0]	n/a	FR1	1	R1361C
420.398	0.829	421731	REC_WORD	0.829	n/a	MOUTH	2	1	[0, 0, 0]	n/a	FR1	1	R1361C
421.227	0.589	422560	REC_WORD	0.589	n/a	TAIL	3	1	[0, 0, 0]	n/a	FR1	1	R1361C
421.816	1.146	423149	REC_WORD	1.146	n/a	STEAK	4	1	[0, 0, 0]	n/a	FR1	1	R1361C
422.962	0.964	424295	REC_WORD	0.964	n/a	JUICE	5	1	[0, 0, 0]	n/a	FR1	1	R1361C
423.926	24.46	425259	REC_WORD	24.46	n/a	WOLF	6	1	[0, 0, 0]	n/a	FR1	1	R1361C
448.386	0.001	449717	REC_END	n/a	n/a	n/a	-999	1	[0, 0, 0]	n/a	FR1	1	R1361C
448.387	0.014	449718	TRIAL_END	n/a	n/a	n/a	-999	1	[0, 0, 0]	n/a	FR1	1	R1361C
448.401	0.0	449732	WAITING_START	n/a	n/a	n/a	-999	2	[0, 0, 0]	n/a	FR1	1	R1361C
448.401	0.0	449732	TRIAL	n/a	n/a	n/a	-999	2	[0, 0, 0]	n/a	FR1	1	R1361C
448.401	2.429	449732	TRIAL_START	n/a	n/a	n/a	-999	2	[0, 0, 0]	n/a	FR1	1	R1361C
450.83	0.001	452161	WAITING_END	n/a	n/a	n/a	-999	2	[0, 0, 0]	n/a	FR1	1	R1361C
450.831	10.429	452162	COUNTDOWN_START	n/a	n/a	n/a	-999	2	[0, 0, 0]	n/a	FR1	1	R1361C
461.26	0.0	462591	COUNTDOWN_END	n/a	n/a	n/a	-999	2	[0, 0, 0]	n/a	FR1	1	R1361C
461.26	1.205	462591	ORIENT_START	n/a	n/a	n/a	-999	2	[0, 0, 0]	n/a	FR1	1	R1361C
462.465	0.0	463796	ORIENT_END	n/a	n/a	n/a	-999	2	[0, 0, 0]	n/a	FR1	1	R1361C
462.465	0.982	463796	ENCODING_START	n/a	n/a	n/a	-999	2	[0, 0, 0]	n/a	FR1	1	R1361C
463.447	1.636	464778	WORD	n/a	wordpools/wordpool_EN.txt	OAR	1	2	[0, 0, 0]	n/a	FR1	1	R1361C
465.083	1.004	466414	WORD_OFF	n/a	n/a	OAR	1	2	[0, 0, 0]	n/a	FR1	1	R1361C
466.087	1.63	467418	WORD	n/a	wordpools/wordpool_EN.txt	LAMB	2	2	[0, 0, 0]	n/a	FR1	1	R1361C
467.717	0.925	469047	WORD_OFF	n/a	n/a	LAMB	2	2	[0, 0, 0]	n/a	FR1	1	R1361C
468.642	1.608	469972	WORD	n/a	wordpools/wordpool_EN.txt	BENCH	3	2	[0, 0, 0]	n/a	FR1	1	R1361C
470.25	1.076	471580	WORD_OFF	n/a	n/a	BENCH	3	2	[0, 0, 0]	n/a	FR1	1	R1361C
471.326	1.625	472656	WORD	n/a	wordpools/wordpool_EN.txt	LEG	4	2	[0, 0, 0]	n/a	FR1	1	R1361C
472.951	0.932	474281	WORD_OFF	n/a	n/a	LEG	4	2	[0, 0, 0]	n/a	FR1	1	R1361C
473.883	1.634	475213	WORD	n/a	wordpools/wordpool_EN.txt	PURSE	5	2	[0, 0, 0]	n/a	FR1	1	R1361C
475.517	1.093	476847	WORD_OFF	n/a	n/a	PURSE	5	2	[0, 0, 0]	n/a	FR1	1	R1361C
476.61	1.626	477940	WORD	n/a	wordpools/wordpool_EN.txt	BOOK	6	2	[0, 0, 0]	n/a	FR1	1	R1361C
478.236	1.034	479566	WORD_OFF	n/a	n/a	BOOK	6	2	[0, 0, 0]	n/a	FR1	1	R1361C
479.27	1.633	480600	WORD	n/a	wordpools/wordpool_EN.txt	LAND	7	2	[0, 0, 0]	n/a	FR1	1	R1361C
480.903	1.092	482233	WORD_OFF	n/a	n/a	LAND	7	2	[0, 0, 0]	n/a	FR1	1	R1361C
481.995	1.624	483325	WORD	n/a	wordpools/wordpool_EN.txt	PIN	8	2	[0, 0, 0]	n/a	FR1	1	R1361C
483.619	1.083	484949	WORD_OFF	n/a	n/a	PIN	8	2	[0, 0, 0]	n/a	FR1	1	R1361C
484.702	1.634	486032	WORD	n/a	wordpools/wordpool_EN.txt	VAN	9	2	[0, 0, 0]	n/a	FR1	1	R1361C
486.336	0.922	487666	WORD_OFF	n/a	n/a	VAN	9	2	[0, 0, 0]	n/a	FR1	1	R1361C
487.258	1.629	488588	WORD	n/a	wordpools/wordpool_EN.txt	POOL	10	2	[0, 0, 0]	n/a	FR1	1	R1361C
488.887	0.984	490216	WORD_OFF	n/a	n/a	POOL	10	2	[0, 0, 0]	n/a	FR1	1	R1361C
489.871	1.633	491200	WORD	n/a	wordpools/wordpool_EN.txt	TREE	11	2	[0, 0, 0]	n/a	FR1	1	R1361C
491.504	1.103	492833	WORD_OFF	n/a	n/a	TREE	11	2	[0, 0, 0]	n/a	FR1	1	R1361C
492.607	1.631	493936	WORD	n/a	wordpools/wordpool_EN.txt	PLATE	12	2	[0, 0, 0]	n/a	FR1	1	R1361C
494.238	0.001	495567	WORD_OFF	n/a	n/a	PLATE	12	2	[0, 0, 0]	n/a	FR1	1	R1361C
494.239	0.0	495568	ENCODING_END	n/a	n/a	n/a	-999	2	[0, 0, 0]	n/a	FR1	1	R1361C
494.239	0.001	495568	DISTRACT_START	n/a	n/a	n/a	-999	2	[0, 0, 0]	n/a	FR1	1	R1361C
494.24	0.015	495569	START	n/a	n/a	n/a	-999	2	[-999, -999, -999]	n/a	FR1	1	R1361C
494.255	4.433	495584	PROB	4.433	n/a	n/a	-999	2	[2, 1, 1]	4	FR1	1	R1361C
498.688	3.584	500017	PROB	3.584	n/a	n/a	-999	2	[8, 7, 1]	16	FR1	1	R1361C
502.272	8.453	503601	PROB	8.453	n/a	n/a	-999	2	[9, 7, 6]	22	FR1	1	R1361C
510.725	3.792	512053	PROB	3.792	n/a	n/a	-999	2	[2, 5, 1]	8	FR1	1	R1361C
514.517	0.008	515845	STOP	n/a	n/a	n/a	-999	2	[-999, -999, -999]	n/a	FR1	1	R1361C
514.525	0.66	515853	DISTRACT_END	n/a	n/a	n/a	-999	2	[0, 0, 0]	n/a	FR1	1	R1361C
515.185	1.674	516513	RETRIEVAL_ORIENT_START	n/a	n/a	n/a	-999	2	[0, 0, 0]	n/a	FR1	1	R1361C
516.859	0.001	518187	RETRIEVAL_ORIENT_END	n/a	n/a	n/a	-999	2	[0, 0, 0]	n/a	FR1	1	R1361C
516.86	1.121	518188	REC_START	n/a	n/a	n/a	-999	2	[0, 0, 0]	n/a	FR1	1	R1361C
517.981	0.837	519309	REC_WORD	0.837	n/a	OAR	1	2	[0, 0, 0]	n/a	FR1	1	R1361C
518.818	0.947	520146	REC_WORD	0.947	n/a	LAMB	2	2	[0, 0, 0]	n/a	FR1	1	R1361C
519.765	0.826	521093	REC_WORD	0.826	n/a	BOOK	6	2	[0, 0, 0]	n/a	FR1	1	R1361C
520.591	26.28	521919	REC_WORD	26.28	n/a	PIN	8	2	[0, 0, 0]	n/a	FR1	1	R1361C
546.871	0.001	548198	REC_END	n/a	n/a	n/a	-999	2	[0, 0, 0]	n/a	FR1	1	R1361C
546.872	0.015	548199	TRIAL_END	n/a	n/a	n/a	-999	2	[0, 0, 0]	n/a	FR1	1	R1361C
546.887	0.0	548214	TRIAL_START	n/a	n/a	n/a	-999	3	[0, 0, 0]	n/a	FR1	1	R1361C
546.887	0.0	548214	TRIAL	n/a	n/a	n/a	-999	3	[0, 0, 0]	n/a	FR1	1	R1361C
546.887	2.129	548214	WAITING_START	n/a	n/a	n/a	-999	3	[0, 0, 0]	n/a	FR1	1	R1361C
549.016	0.0	550343	COUNTDOWN_START	n/a	n/a	n/a	-999	3	[0, 0, 0]	n/a	FR1	1	R1361C
549.016	10.429	550343	WAITING_END	n/a	n/a	n/a	-999	3	[0, 0, 0]	n/a	FR1	1	R1361C
559.445	0.0	560771	COUNTDOWN_END	n/a	n/a	n/a	-999	3	[0, 0, 0]	n/a	FR1	1	R1361C
559.445	1.256	560771	ORIENT_START	n/a	n/a	n/a	-999	3	[0, 0, 0]	n/a	FR1	1	R1361C
560.701	0.001	562027	ORIENT_END	n/a	n/a	n/a	-999	3	[0, 0, 0]	n/a	FR1	1	R1361C
560.702	1.143	562028	ENCODING_START	n/a	n/a	n/a	-999	3	[0, 0, 0]	n/a	FR1	1	R1361C
561.845	1.622	563171	WORD	n/a	wordpools/wordpool_EN.txt	SLIME	1	3	[0, 0, 0]	n/a	FR1	1	R1361C
563.467	1.009	564793	WORD_OFF	n/a	n/a	SLIME	1	3	[0, 0, 0]	n/a	FR1	1	R1361C
564.476	1.626	565802	WORD	n/a	wordpools/wordpool_EN.txt	FOG	2	3	[0, 0, 0]	n/a	FR1	1	R1361C
566.102	0.795	567428	WORD_OFF	n/a	n/a	FOG	2	3	[0, 0, 0]	n/a	FR1	1	R1361C
566.897	1.621	568223	WORD	n/a	wordpools/wordpool_EN.txt	FLOOR	3	3	[0, 0, 0]	n/a	FR1	1	R1361C
568.518	0.803	569844	WORD_OFF	n/a	n/a	FLOOR	3	3	[0, 0, 0]	n/a	FR1	1	R1361C
569.321	1.632	570647	WORD	n/a	wordpools/wordpool_EN.txt	BREAD	4	3	[0, 0, 0]	n/a	FR1	1	R1361C
570.953	1.058	572279	WORD_OFF	n/a	n/a	BREAD	4	3	[0, 0, 0]	n/a	FR1	1	R1361C
572.011	1.625	573336	WORD	n/a	wordpools/wordpool_EN.txt	DITCH	5	3	[0, 0, 0]	n/a	FR1	1	R1361C
573.636	1.093	574961	WORD_OFF	n/a	n/a	DITCH	5	3	[0, 0, 0]	n/a	FR1	1	R1361C
574.729	1.624	576054	WORD	n/a	wordpools/wordpool_EN.txt	MOON	6	3	[0, 0, 0]	n/a	FR1	1	R1361C
576.353	1.109	577678	WORD_OFF	n/a	n/a	MOON	6	3	[0, 0, 0]	n/a	FR1	1	R1361C
577.462	1.626	578787	WORD	n/a	wordpools/wordpool_EN.txt	TOOTH	7	3	[0, 0, 0]	n/a	FR1	1	R1361C
579.088	1.105	580413	WORD_OFF	n/a	n/a	TOOTH	7	3	[0, 0, 0]	n/a	FR1	1	R1361C
580.193	1.629	581518	WORD	n/a	wordpools/wordpool_EN.txt	RAT	8	3	[0, 0, 0]	n/a	FR1	1	R1361C
581.822	1.075	583147	WORD_OFF	n/a	n/a	RAT	8	3	[0, 0, 0]	n/a	FR1	1	R1361C
582.897	1.624	584222	WORD	n/a	wordpools/wordpool_EN.txt	FROG	9	3	[0, 0, 0]	n/a	FR1	1	R1361C
584.521	0.902	585846	WORD_OFF	n/a	n/a	FROG	9	3	[0, 0, 0]	n/a	FR1	1	R1361C
585.423	1.633	586748	WORD	n/a	wordpools/wordpool_EN.txt	THUMB	10	3	[0, 0, 0]	n/a	FR1	1	R1361C
587.056	1.062	588381	WORD_OFF	n/a	n/a	THUMB	10	3	[0, 0, 0]	n/a	FR1	1	R1361C
588.118	1.622	589443	WORD	n/a	wordpools/wordpool_EN.txt	DART	11	3	[0, 0, 0]	n/a	FR1	1	R1361C
589.74	0.753	591065	WORD_OFF	n/a	n/a	DART	11	3	[0, 0, 0]	n/a	FR1	1	R1361C
590.493	1.631	591818	WORD	n/a	wordpools/wordpool_EN.txt	HAWK	12	3	[0, 0, 0]	n/a	FR1	1	R1361C
592.124	0.0	593449	WORD_OFF	n/a	n/a	HAWK	12	3	[0, 0, 0]	n/a	FR1	1	R1361C
592.124	0.001	593449	ENCODING_END	n/a	n/a	n/a	-999	3	[0, 0, 0]	n/a	FR1	1	R1361C
592.125	0.0	593450	DISTRACT_START	n/a	n/a	n/a	-999	3	[0, 0, 0]	n/a	FR1	1	R1361C
592.125	0.015	593450	START	n/a	n/a	n/a	-999	3	[-999, -999, -999]	n/a	FR1	1	R1361C
592.14	4.4	593465	PROB	4.4	n/a	n/a	-999	3	[1, 3, 7]	11	FR1	1	R1361C
596.54	3.618	597864	PROB	3.618	n/a	n/a	-999	3	[6, 4, 3]	13	FR1	1	R1361C
600.158	7.001	601482	PROB	7.001	n/a	n/a	-999	3	[7, 9, 3]	19	FR1	1	R1361C
607.159	2.984	608483	PROB	2.984	n/a	n/a	-999	3	[1, 8, 1]	10	FR1	1	R1361C
610.143	7.914	611467	PROB	7.914	n/a	n/a	-999	3	[9, 5, 7]	21	FR1	1	R1361C
618.057	0.022	619380	STOP	n/a	n/a	n/a	-999	3	[-999, -999, -999]	n/a	FR1	1	R1361C
618.079	0.649	619402	DISTRACT_END	n/a	n/a	n/a	-999	3	[0, 0, 0]	n/a	FR1	1	R1361C
618.728	1.717	620051	RETRIEVAL_ORIENT_START	n/a	n/a	n/a	-999	3	[0, 0, 0]	n/a	FR1	1	R1361C
620.445	0.0	621768	REC_START	n/a	n/a	n/a	-999	3	[0, 0, 0]	n/a	FR1	1	R1361C
620.445	1.896	621768	RETRIEVAL_ORIENT_END	n/a	n/a	n/a	-999	3	[0, 0, 0]	n/a	FR1	1	R1361C
622.341	0.84	623664	REC_WORD	0.84	n/a	SLIME	1	3	[0, 0, 0]	n/a	FR1	1	R1361C
623.181	27.277	624504	REC_WORD	27.277	n/a	FOG	2	3	[0, 0, 0]	n/a	FR1	1	R1361C
650.458	0.0	651780	REC_END	n/a	n/a	n/a	-999	3	[0, 0, 0]	n/a	FR1	1	R1361C
650.458	0.015	651780	TRIAL_END	n/a	n/a	n/a	-999	3	[0, 0, 0]	n/a	FR1	1	R1361C
650.473	0.0	651795	TRIAL_START	n/a	n/a	n/a	-999	4	[0, 0, 0]	n/a	FR1	1	R1361C
650.473	0.0	651795	TRIAL	n/a	n/a	n/a	-999	4	[0, 0, 0]	n/a	FR1	1	R1361C
650.473	2.111	651795	WAITING_START	n/a	n/a	n/a	-999	4	[0, 0, 0]	n/a	FR1	1	R1361C
652.584	0.0	653906	WAITING_END	n/a	n/a	n/a	-999	4	[0, 0, 0]	n/a	FR1	1	R1361C
652.584	10.429	653906	COUNTDOWN_START	n/a	n/a	n/a	-999	4	[0, 0, 0]	n/a	FR1	1	R1361C
663.013	0.0	664334	COUNTDOWN_END	n/a	n/a	n/a	-999	4	[0, 0, 0]	n/a	FR1	1	R1361C
663.013	1.256	664334	ORIENT_START	n/a	n/a	n/a	-999	4	[0, 0, 0]	n/a	FR1	1	R1361C
664.269	0.001	665590	ORIENT_END	n/a	n/a	n/a	-999	4	[0, 0, 0]	n/a	FR1	1	R1361C
664.27	0.749	665591	ENCODING_START	n/a	n/a	n/a	-999	4	[0, 0, 0]	n/a	FR1	1	R1361C
665.019	1.634	666340	WORD	n/a	wordpools/wordpool_EN.txt	APE	1	4	[0, 0, 0]	n/a	FR1	1	R1361C
666.653	0.812	667974	WORD_OFF	n/a	n/a	APE	1	4	[0, 0, 0]	n/a	FR1	1	R1361C
667.465	1.64	668786	WORD	n/a	wordpools/wordpool_EN.txt	CLOCK	2	4	[0, 0, 0]	n/a	FR1	1	R1361C
669.105	0.976	670426	WORD_OFF	n/a	n/a	CLOCK	2	4	[0, 0, 0]	n/a	FR1	1	R1361C
670.081	1.624	671402	WORD	n/a	wordpools/wordpool_EN.txt	LIP	3	4	[0, 0, 0]	n/a	FR1	1	R1361C
671.705	0.823	673026	WORD_OFF	n/a	n/a	LIP	3	4	[0, 0, 0]	n/a	FR1	1	R1361C
672.528	1.628	673849	WORD	n/a	wordpools/wordpool_EN.txt	SKY	4	4	[0, 0, 0]	n/a	FR1	1	R1361C
674.156	1.144	675477	WORD_OFF	n/a	n/a	SKY	4	4	[0, 0, 0]	n/a	FR1	1	R1361C
675.3	1.639	676621	WORD	n/a	wordpools/wordpool_EN.txt	SHELL	5	4	[0, 0, 0]	n/a	FR1	1	R1361C
676.939	1.063	678259	WORD_OFF	n/a	n/a	SHELL	5	4	[0, 0, 0]	n/a	FR1	1	R1361C
678.002	1.637	679322	WORD	n/a	wordpools/wordpool_EN.txt	SALT	6	4	[0, 0, 0]	n/a	FR1	1	R1361C
679.639	1.121	680959	WORD_OFF	n/a	n/a	SALT	6	4	[0, 0, 0]	n/a	FR1	1	R1361C
680.76	1.629	682080	WORD	n/a	wordpools/wordpool_EN.txt	BLOOM	7	4	[0, 0, 0]	n/a	FR1	1	R1361C
682.389	1.089	683709	WORD_OFF	n/a	n/a	BLOOM	7	4	[0, 0, 0]	n/a	FR1	1	R1361C
683.478	1.613	684798	WORD	n/a	wordpools/wordpool_EN.txt	FLAG	8	4	[0, 0, 0]	n/a	FR1	1	R1361C
685.091	1.084	686411	WORD_OFF	n/a	n/a	FLAG	8	4	[0, 0, 0]	n/a	FR1	1	R1361C
686.175	1.633	687495	WORD	n/a	wordpools/wordpool_EN.txt	VEST	9	4	[0, 0, 0]	n/a	FR1	1	R1361C
687.808	1.009	689128	WORD_OFF	n/a	n/a	VEST	9	4	[0, 0, 0]	n/a	FR1	1	R1361C
688.817	1.624	690137	WORD	n/a	wordpools/wordpool_EN.txt	CROW	10	4	[0, 0, 0]	n/a	FR1	1	R1361C
690.441	1.062	691761	WORD_OFF	n/a	n/a	CROW	10	4	[0, 0, 0]	n/a	FR1	1	R1361C
691.503	1.622	692823	WORD	n/a	wordpools/wordpool_EN.txt	SEA	11	4	[0, 0, 0]	n/a	FR1	1	R1361C
693.125	0.776	694445	WORD_OFF	n/a	n/a	SEA	11	4	[0, 0, 0]	n/a	FR1	1	R1361C
693.901	1.624	695221	WORD	n/a	wordpools/wordpool_EN.txt	PIT	12	4	[0, 0, 0]	n/a	FR1	1	R1361C
695.525	0.001	696845	WORD_OFF	n/a	n/a	PIT	12	4	[0, 0, 0]	n/a	FR1	1	R1361C
695.526	0.0	696846	DISTRACT_START	n/a	n/a	n/a	-999	4	[0, 0, 0]	n/a	FR1	1	R1361C
695.526	0.0	696846	ENCODING_END	n/a	n/a	n/a	-999	4	[0, 0, 0]	n/a	FR1	1	R1361C
695.526	0.016	696846	START	n/a	n/a	n/a	-999	4	[-999, -999, -999]	n/a	FR1	1	R1361C
695.542	7.452	696862	PROB	7.452	n/a	n/a	-999	4	[8, 9, 9]	26	FR1	1	R1361C
702.994	6.333	704313	PROB	6.333	n/a	n/a	-999	4	[4, 5, 7]	16	FR1	1	R1361C
709.327	5.836	710646	PROB	5.836	n/a	n/a	-999	4	[2, 3, 9]	14	FR1	1	R1361C
715.163	3.52	716482	PROB	3.52	n/a	n/a	-999	4	[6, 3, 2]	11	FR1	1	R1361C
718.683	0.013	720001	STOP	n/a	n/a	n/a	-999	4	[-999, -999, -999]	n/a	FR1	1	R1361C
718.696	0.608	720014	DISTRACT_END	n/a	n/a	n/a	-999	4	[0, 0, 0]	n/a	FR1	1	R1361C
719.304	1.577	720622	RETRIEVAL_ORIENT_START	n/a	n/a	n/a	-999	4	[0, 0, 0]	n/a	FR1	1	R1361C
720.881	0.0	722199	RETRIEVAL_ORIENT_END	n/a	n/a	n/a	-999	4	[0, 0, 0]	n/a	FR1	1	R1361C
720.881	1.479	722199	REC_START	n/a	n/a	n/a	-999	4	[0, 0, 0]	n/a	FR1	1	R1361C
722.36	0.9	723678	REC_WORD	0.9	n/a	APE	1	4	[0, 0, 0]	n/a	FR1	1	R1361C
723.26	0.941	724578	REC_WORD	0.941	n/a	CLOCK	2	4	[0, 0, 0]	n/a	FR1	1	R1361C
724.201	1.128	725519	REC_WORD	1.128	n/a	LIP	3	4	[0, 0, 0]	n/a	FR1	1	R1361C
725.329	25.565	726647	REC_WORD	25.565	n/a	CROW	10	4	[0, 0, 0]	n/a	FR1	1	R1361C
750.894	0.0	752211	REC_END	n/a	n/a	n/a	-999	4	[0, 0, 0]	n/a	FR1	1	R1361C
750.894	0.015	752211	TRIAL_END	n/a	n/a	n/a	-999	4	[0, 0, 0]	n/a	FR1	1	R1361C
750.909	0.0	752226	WAITING_START	n/a	n/a	n/a	-999	5	[0, 0, 0]	n/a	FR1	1	R1361C
750.909	0.0	752226	TRIAL_START	n/a	n/a	n/a	-999	5	[0, 0, 0]	n/a	FR1	1	R1361C
750.909	6.079	752226	TRIAL	n/a	n/a	n/a	-999	5	[0, 0, 0]	n/a	FR1	1	R1361C
756.988	0.0	758305	WAITING_END	n/a	n/a	n/a	-999	5	[0, 0, 0]	n/a	FR1	1	R1361C
756.988	10.429	758305	COUNTDOWN_START	n/a	n/a	n/a	-999	5	[0, 0, 0]	n/a	FR1	1	R1361C
767.417	0.001	768733	COUNTDOWN_END	n/a	n/a	n/a	-999	5	[0, 0, 0]	n/a	FR1	1	R1361C
767.418	1.021	768734	ORIENT_START	n/a	n/a	n/a	-999	5	[0, 0, 0]	n/a	FR1	1	R1361C
768.439	0.0	769755	ORIENT_END	n/a	n/a	n/a	-999	5	[0, 0, 0]	n/a	FR1	1	R1361C
768.439	0.829	769755	ENCODING_START	n/a	n/a	n/a	-999	5	[0, 0, 0]	n/a	FR1	1	R1361C
769.268	1.639	770584	WORD	n/a	wordpools/wordpool_EN.txt	SNAKE	1	5	[0, 0, 0]	n/a	FR1	1	R1361C
770.907	0.758	772223	WORD_OFF	n/a	n/a	SNAKE	1	5	[0, 0, 0]	n/a	FR1	1	R1361C
771.665	1.625	772981	WORD	n/a	wordpools/wordpool_EN.txt	PLANT	2	5	[0, 0, 0]	n/a	FR1	1	R1361C
773.29	1.028	774606	WORD_OFF	n/a	n/a	PLANT	2	5	[0, 0, 0]	n/a	FR1	1	R1361C
774.318	1.623	775634	WORD	n/a	wordpools/wordpool_EN.txt	SLUSH	3	5	[0, 0, 0]	n/a	FR1	1	R1361C
775.941	0.862	777257	WORD_OFF	n/a	n/a	SLUSH	3	5	[0, 0, 0]	n/a	FR1	1	R1361C
776.803	1.621	778119	WORD	n/a	wordpools/wordpool_EN.txt	PIG	4	5	[0, 0, 0]	n/a	FR1	1	R1361C
778.424	0.936	779740	WORD_OFF	n/a	n/a	PIG	4	5	[0, 0, 0]	n/a	FR1	1	R1361C
779.36	1.632	780676	WORD	n/a	wordpools/wordpool_EN.txt	SIGN	5	5	[0, 0, 0]	n/a	FR1	1	R1361C
780.992	1.131	782307	WORD_OFF	n/a	n/a	SIGN	5	5	[0, 0, 0]	n/a	FR1	1	R1361C
782.123	1.637	783438	WORD	n/a	wordpools/wordpool_EN.txt	SPEAR	6	5	[0, 0, 0]	n/a	FR1	1	R1361C
783.76	0.786	785075	WORD_OFF	n/a	n/a	SPEAR	6	5	[0, 0, 0]	n/a	FR1	1	R1361C
784.546	1.613	785861	WORD	n/a	wordpools/wordpool_EN.txt	FRUIT	7	5	[0, 0, 0]	n/a	FR1	1	R1361C
786.159	1.13	787474	WORD_OFF	n/a	n/a	FRUIT	7	5	[0, 0, 0]	n/a	FR1	1	R1361C
787.289	1.638	788604	WORD	n/a	wordpools/wordpool_EN.txt	STORE	8	5	[0, 0, 0]	n/a	FR1	1	R1361C
788.927	0.821	790242	WORD_OFF	n/a	n/a	STORE	8	5	[0, 0, 0]	n/a	FR1	1	R1361C
789.748	1.629	791063	WORD	n/a	wordpools/wordpool_EN.txt	KEY	9	5	[0, 0, 0]	n/a	FR1	1	R1361C
791.377	0.808	792692	WORD_OFF	n/a	n/a	KEY	9	5	[0, 0, 0]	n/a	FR1	1	R1361C
792.185	1.626	793500	WORD	n/a	wordpools/wordpool_EN.txt	STAR	10	5	[0, 0, 0]	n/a	FR1	1	R1361C
793.811	1.078	795126	WORD_OFF	n/a	n/a	STAR	10	5	[0, 0, 0]	n/a	FR1	1	R1361C
794.889	1.622	796204	WORD	n/a	wordpools/wordpool_EN.txt	SPOON	11	5	[0, 0, 0]	n/a	FR1	1	R1361C
796.511	0.876	797826	WORD_OFF	n/a	n/a	SPOON	11	5	[0, 0, 0]	n/a	FR1	1	R1361C
797.387	1.625	798702	WORD	n/a	wordpools/wordpool_EN.txt	SOCK	12	5	[0, 0, 0]	n/a	FR1	1	R1361C
799.012	0.001	800327	WORD_OFF	n/a	n/a	SOCK	12	5	[0, 0, 0]	n/a	FR1	1	R1361C
799.013	0.0	800328	ENCODING_END	n/a	n/a	n/a	-999	5	[0, 0, 0]	n/a	FR1	1	R1361C
799.013	0.0	800328	DISTRACT_START	n/a	n/a	n/a	-999	5	[0, 0, 0]	n/a	FR1	1	R1361C
799.013	0.016	800328	START	n/a	n/a	n/a	-999	5	[-999, -999, -999]	n/a	FR1	1	R1361C
799.029	4.717	800344	PROB	4.717	n/a	n/a	-999	5	[3, 7, 2]	12	FR1	1	R1361C
803.746	6.917	805060	PROB	6.917	n/a	n/a	-999	5	[9, 9, 9]	27	FR1	1	R1361C
810.663	3.468	811977	PROB	3.468	n/a	n/a	-999	5	[2, 3, 2]	7	FR1	1	R1361C
814.131	3.101	815445	PROB	3.101	n/a	n/a	-999	5	[1, 6, 5]	12	FR1	1	R1361C
817.232	4.191	818546	PROB	4.191	n/a	n/a	-999	5	[3, 8, 6]	17	FR1	1	R1361C
821.423	0.009	822737	STOP	n/a	n/a	n/a	-999	5	[-999, -999, -999]	n/a	FR1	1	R1361C
821.432	0.588	822746	DISTRACT_END	n/a	n/a	n/a	-999	5	[0, 0, 0]	n/a	FR1	1	R1361C
822.02	1.68	823334	RETRIEVAL_ORIENT_START	n/a	n/a	n/a	-999	5	[0, 0, 0]	n/a	FR1	1	R1361C
823.7	0.001	825013	RETRIEVAL_ORIENT_END	n/a	n/a	n/a	-999	5	[0, 0, 0]	n/a	FR1	1	R1361C
823.701	0.994	825014	REC_START	n/a	n/a	n/a	-999	5	[0, 0, 0]	n/a	FR1	1	R1361C
824.695	0.96	826008	REC_WORD	0.96	n/a	SNAKE	1	5	[0, 0, 0]	n/a	FR1	1	R1361C
825.655	0.525	826968	REC_WORD	0.525	n/a	PLANT	2	5	[0, 0, 0]	n/a	FR1	1	R1361C
826.18	1.209	827493	REC_WORD	1.209	n/a	SLUSH	3	5	[0, 0, 0]	n/a	FR1	1	R1361C
827.389	26.323	828702	REC_WORD	26.323	n/a	FRUIT	7	5	[0, 0, 0]	n/a	FR1	1	R1361C
853.712	0.0	855024	REC_END	n/a	n/a	n/a	-999	5	[0, 0, 0]	n/a	FR1	1	R1361C
853.712	0.015	855024	TRIAL_END	n/a	n/a	n/a	-999	5	[0, 0, 0]	n/a	FR1	1	R1361C
853.727	0.001	855039	TRIAL_START	n/a	n/a	n/a	-999	6	[0, 0, 0]	n/a	FR1	1	R1361C
853.728	0.0	855040	TRIAL	n/a	n/a	n/a	-999	6	[0, 0, 0]	n/a	FR1	1	R1361C
853.728	2.728	855040	WAITING_START	n/a	n/a	n/a	-999	6	[0, 0, 0]	n/a	FR1	1	R1361C
856.456	0.0	857768	COUNTDOWN_START	n/a	n/a	n/a	-999	6	[0, 0, 0]	n/a	FR1	1	R1361C
856.456	10.428	857768	WAITING_END	n/a	n/a	n/a	-999	6	[0, 0, 0]	n/a	FR1	1	R1361C
866.884	0.0	868195	COUNTDOWN_END	n/a	n/a	n/a	-999	6	[0, 0, 0]	n/a	FR1	1	R1361C
866.884	1.141	868195	ORIENT_START	n/a	n/a	n/a	-999	6	[0, 0, 0]	n/a	FR1	1	R1361C
868.025	0.001	869336	ORIENT_END	n/a	n/a	n/a	-999	6	[0, 0, 0]	n/a	FR1	1	R1361C
868.026	0.849	869337	ENCODING_START	n/a	n/a	n/a	-999	6	[0, 0, 0]	n/a	FR1	1	R1361C
868.875	1.633	870186	WORD	n/a	wordpools/wordpool_EN.txt	CAVE	1	6	[0, 0, 0]	n/a	FR1	1	R1361C
870.508	0.924	871819	WORD_OFF	n/a	n/a	CAVE	1	6	[0, 0, 0]	n/a	FR1	1	R1361C
871.432	1.628	872743	WORD	n/a	wordpools/wordpool_EN.txt	HOLE	2	6	[0, 0, 0]	n/a	FR1	1	R1361C
873.06	1.078	874371	WORD_OFF	n/a	n/a	HOLE	2	6	[0, 0, 0]	n/a	FR1	1	R1361C
874.138	1.622	875449	WORD	n/a	wordpools/wordpool_EN.txt	GRAPE	3	6	[0, 0, 0]	n/a	FR1	1	R1361C
875.76	0.884	877071	WORD_OFF	n/a	n/a	GRAPE	3	6	[0, 0, 0]	n/a	FR1	1	R1361C
876.644	1.632	877955	WORD	n/a	wordpools/wordpool_EN.txt	ARM	4	6	[0, 0, 0]	n/a	FR1	1	R1361C
878.276	0.934	879587	WORD_OFF	n/a	n/a	ARM	4	6	[0, 0, 0]	n/a	FR1	1	R1361C
879.21	1.634	880521	WORD	n/a	wordpools/wordpool_EN.txt	SLEEVE	5	6	[0, 0, 0]	n/a	FR1	1	R1361C
880.844	0.849	882155	WORD_OFF	n/a	n/a	SLEEVE	5	6	[0, 0, 0]	n/a	FR1	1	R1361C
881.693	1.634	883004	WORD	n/a	wordpools/wordpool_EN.txt	ANT	6	6	[0, 0, 0]	n/a	FR1	1	R1361C
883.327	0.874	884638	WORD_OFF	n/a	n/a	ANT	6	6	[0, 0, 0]	n/a	FR1	1	R1361C
884.201	1.628	885512	WORD	n/a	wordpools/wordpool_EN.txt	DIME	7	6	[0, 0, 0]	n/a	FR1	1	R1361C
885.829	1.04	887139	WORD_OFF	n/a	n/a	DIME	7	6	[0, 0, 0]	n/a	FR1	1	R1361C
886.869	1.626	888179	WORD	n/a	wordpools/wordpool_EN.txt	CLOTH	8	6	[0, 0, 0]	n/a	FR1	1	R1361C
888.495	1.045	889805	WORD_OFF	n/a	n/a	CLOTH	8	6	[0, 0, 0]	n/a	FR1	1	R1361C
889.54	1.623	890850	WORD	n/a	wordpools/wordpool_EN.txt	BOY	9	6	[0, 0, 0]	n/a	FR1	1	R1361C
891.163	0.984	892473	WORD_OFF	n/a	n/a	BOY	9	6	[0, 0, 0]	n/a	FR1	1	R1361C
892.147	1.633	893457	WORD	n/a	wordpools/wordpool_EN.txt	WOOD	10	6	[0, 0, 0]	n/a	FR1	1	R1361C
893.78	1.149	895090	WORD_OFF	n/a	n/a	WOOD	10	6	[0, 0, 0]	n/a	FR1	1	R1361C
894.929	1.634	896239	WORD	n/a	wordpools/wordpool_EN.txt	PLANE	11	6	[0, 0, 0]	n/a	FR1	1	R1361C
896.563	0.923	897873	WORD_OFF	n/a	n/a	PLANE	11	6	[0, 0, 0]	n/a	FR1	1	R1361C
897.486	1.629	898796	WORD	n/a	wordpools/wordpool_EN.txt	FENCE	12	6	[0, 0, 0]	n/a	FR1	1	R1361C
899.115	0.0	900425	WORD_OFF	n/a	n/a	FENCE	12	6	[0, 0, 0]	n/a	FR1	1	R1361C
899.115	0.001	900425	ENCODING_END	n/a	n/a	n/a	-999	6	[0, 0, 0]	n/a	FR1	1	R1361C
899.116	0.0	900426	DISTRACT_START	n/a	n/a	n/a	-999	6	[0, 0, 0]	n/a	FR1	1	R1361C
899.116	0.015	900426	START	n/a	n/a	n/a	-999	6	[-999, -999, -999]	n/a	FR1	1	R1361C
899.131	4.333	900441	PROB	4.333	n/a	n/a	-999	6	[1, 8, 1]	10	FR1	1	R1361C
903.464	4.884	904774	PROB	4.884	n/a	n/a	-999	6	[8, 6, 4]	18	FR1	1	R1361C
908.348	9.219	909657	PROB	9.219	n/a	n/a	-999	6	[4, 7, 5]	16	FR1	1	R1361C
917.567	7.273	918876	PROB	7.273	n/a	n/a	-999	6	[5, 4, 4]	13	FR1	1	R1361C
924.84	0.013	926149	STOP	n/a	n/a	n/a	-999	6	[-999, -999, -999]	n/a	FR1	1	R1361C
924.853	0.587	926162	DISTRACT_END	n/a	n/a	n/a	-999	6	[0, 0, 0]	n/a	FR1	1	R1361C
925.44	1.596	926749	RETRIEVAL_ORIENT_START	n/a	n/a	n/a	-999	6	[0, 0, 0]	n/a	FR1	1	R1361C
927.036	0.001	928344	RETRIEVAL_ORIENT_END	n/a	n/a	n/a	-999	6	[0, 0, 0]	n/a	FR1	1	R1361C
927.037	1.87	928345	REC_START	n/a	n/a	n/a	-999	6	[0, 0, 0]	n/a	FR1	1	R1361C
928.907	0.635	930215	REC_WORD	0.635	n/a	ARM	4	6	[0, 0, 0]	n/a	FR1	1	R1361C
929.542	27.506	930850	REC_WORD	27.506	n/a	SLEEVE	5	6	[0, 0, 0]	n/a	FR1	1	R1361C
957.048	0.0	958355	REC_END	n/a	n/a	n/a	-999	6	[0, 0, 0]	n/a	FR1	1	R1361C
957.048	0.015	958355	TRIAL_END	n/a	n/a	n/a	-999	6	[0, 0, 0]	n/a	FR1	1	R1361C
957.063	0.0	958370	TRIAL_START	n/a	n/a	n/a	-999	7	[0, 0, 0]	n/a	FR1	1	R1361C
957.063	0.0	958370	TRIAL	n/a	n/a	n/a	-999	7	[0, 0, 0]	n/a	FR1	1	R1361C
957.063	2.629	958370	WAITING_START	n/a	n/a	n/a	-999	7	[0, 0, 0]	n/a	FR1	1	R1361C
959.692	0.0	960999	WAITING_END	n/a	n/a	n/a	-999	7	[0, 0, 0]	n/a	FR1	1	R1361C
959.692	10.429	960999	COUNTDOWN_START	n/a	n/a	n/a	-999	7	[0, 0, 0]	n/a	FR1	1	R1361C
970.121	0.0	971427	COUNTDOWN_END	n/a	n/a	n/a	-999	7	[0, 0, 0]	n/a	FR1	1	R1361C
970.121	1.206	971427	ORIENT_START	n/a	n/a	n/a	-999	7	[0, 0, 0]	n/a	FR1	1	R1361C
971.327	0.001	972633	ORIENT_END	n/a	n/a	n/a	-999	7	[0, 0, 0]	n/a	FR1	1	R1361C
971.328	0.936	972634	ENCODING_START	n/a	n/a	n/a	-999	7	[0, 0, 0]	n/a	FR1	1	R1361C
972.264	1.631	973570	WORD	n/a	wordpools/wordpool_EN.txt	ROOF	1	7	[0, 0, 0]	n/a	FR1	1	R1361C
973.895	1.045	975201	WORD_OFF	n/a	n/a	ROOF	1	7	[0, 0, 0]	n/a	FR1	1	R1361C
974.94	1.622	976246	WORD	n/a	wordpools/wordpool_EN.txt	SHEET	2	7	[0, 0, 0]	n/a	FR1	1	R1361C
976.562	1.023	977868	WORD_OFF	n/a	n/a	SHEET	2	7	[0, 0, 0]	n/a	FR1	1	R1361C
977.585	1.628	978891	WORD	n/a	wordpools/wordpool_EN.txt	SHIP	3	7	[0, 0, 0]	n/a	FR1	1	R1361C
979.213	0.793	980519	WORD_OFF	n/a	n/a	SHIP	3	7	[0, 0, 0]	n/a	FR1	1	R1361C
980.006	1.623	981312	WORD	n/a	wordpools/wordpool_EN.txt	COUCH	4	7	[0, 0, 0]	n/a	FR1	1	R1361C
981.629	0.888	982935	WORD_OFF	n/a	n/a	COUCH	4	7	[0, 0, 0]	n/a	FR1	1	R1361C
982.517	1.63	983823	WORD	n/a	wordpools/wordpool_EN.txt	VINE	5	7	[0, 0, 0]	n/a	FR1	1	R1361C
984.147	0.863	985453	WORD_OFF	n/a	n/a	VINE	5	7	[0, 0, 0]	n/a	FR1	1	R1361C
985.01	1.637	986316	WORD	n/a	wordpools/wordpool_EN.txt	WORM	6	7	[0, 0, 0]	n/a	FR1	1	R1361C
986.647	0.768	987953	WORD_OFF	n/a	n/a	WORM	6	7	[0, 0, 0]	n/a	FR1	1	R1361C
987.415	1.633	988721	WORD	n/a	wordpools/wordpool_EN.txt	GUARD	7	7	[0, 0, 0]	n/a	FR1	1	R1361C
989.048	0.969	990354	WORD_OFF	n/a	n/a	GUARD	7	7	[0, 0, 0]	n/a	FR1	1	R1361C
990.017	1.631	991322	WORD	n/a	wordpools/wordpool_EN.txt	VASE	8	7	[0, 0, 0]	n/a	FR1	1	R1361C
991.648	1.113	992953	WORD_OFF	n/a	n/a	VASE	8	7	[0, 0, 0]	n/a	FR1	1	R1361C
992.761	1.638	994066	WORD	n/a	wordpools/wordpool_EN.txt	BALL	9	7	[0, 0, 0]	n/a	FR1	1	R1361C
994.399	0.872	995704	WORD_OFF	n/a	n/a	BALL	9	7	[0, 0, 0]	n/a	FR1	1	R1361C
995.271	1.628	996576	WORD	n/a	wordpools/wordpool_EN.txt	LAKE	10	7	[0, 0, 0]	n/a	FR1	1	R1361C
996.899	0.821	998204	WORD_OFF	n/a	n/a	LAKE	10	7	[0, 0, 0]	n/a	FR1	1	R1361C
997.72	1.629	999025	WORD	n/a	wordpools/wordpool_EN.txt	TRAY	11	7	[0, 0, 0]	n/a	FR1	1	R1361C
999.349	0.981	1000654	WORD_OFF	n/a	n/a	TRAY	11	7	[0, 0, 0]	n/a	FR1	1	R1361C
1000.33	1.637	1001635	WORD	n/a	wordpools/wordpool_EN.txt	INK	12	7	[0, 0, 0]	n/a	FR1	1	R1361C
1001.967	0.001	1003272	WORD_OFF	n/a	n/a	INK	12	7	[0, 0, 0]	n/a	FR1	1	R1361C
1001.968	0.0	1003273	ENCODING_END	n/a	n/a	n/a	-999	7	[0, 0, 0]	n/a	FR1	1	R1361C
1001.968	0.001	1003273	DISTRACT_START	n/a	n/a	n/a	-999	7	[0, 0, 0]	n/a	FR1	1	R1361C
1001.969	0.015	1003274	START	n/a	n/a	n/a	-999	7	[-999, -999, -999]	n/a	FR1	1	R1361C
1001.984	3.666	1003289	PROB	3.666	n/a	n/a	-999	7	[5, 1, 4]	10	FR1	1	R1361C
1005.65	5.319	1006955	PROB	5.319	n/a	n/a	-999	7	[6, 8, 8]	22	FR1	1	R1361C
1010.969	5.817	1012273	PROB	5.817	n/a	n/a	-999	7	[5, 6, 6]	17	FR1	1	R1361C
1016.786	4.583	1018090	PROB	4.583	n/a	n/a	-999	7	[9, 2, 1]	12	FR1	1	R1361C
1021.369	4.177	1022673	PROB	4.177	n/a	n/a	-999	7	[6, 6, 3]	15	FR1	1	R1361C
1025.546	0.008	1026850	STOP	n/a	n/a	n/a	-999	7	[-999, -999, -999]	n/a	FR1	1	R1361C
1025.554	0.557	1026858	DISTRACT_END	n/a	n/a	n/a	-999	7	[0, 0, 0]	n/a	FR1	1	R1361C
1026.111	1.695	1027415	RETRIEVAL_ORIENT_START	n/a	n/a	n/a	-999	7	[0, 0, 0]	n/a	FR1	1	R1361C
1027.806	0.0	1029110	RETRIEVAL_ORIENT_END	n/a	n/a	n/a	-999	7	[0, 0, 0]	n/a	FR1	1	R1361C
1027.806	1.804	1029110	REC_START	n/a	n/a	n/a	-999	7	[0, 0, 0]	n/a	FR1	1	R1361C
1029.61	0.863	1030914	REC_WORD	0.863	n/a	WORM	6	7	[0, 0, 0]	n/a	FR1	1	R1361C
1030.473	2.056	1031777	REC_WORD	2.056	n/a	LAKE	10	7	[0, 0, 0]	n/a	FR1	1	R1361C
1032.529	25.29	1033832	REC_WORD	25.29	n/a	TRAY	11	7	[0, 0, 0]	n/a	FR1	1	R1361C
1057.819	0.0	1059121	REC_END	n/a	n/a	n/a	-999	7	[0, 0, 0]	n/a	FR1	1	R1361C
1057.819	0.014	1059121	TRIAL_END	n/a	n/a	n/a	-999	7	[0, 0, 0]	n/a	FR1	1	R1361C
1057.833	0.001	1059135	TRIAL_START	n/a	n/a	n/a	-999	8	[0, 0, 0]	n/a	FR1	1	R1361C
1057.834	0.0	1059136	TRIAL	n/a	n/a	n/a	-999	8	[0, 0, 0]	n/a	FR1	1	R1361C
1057.834	2.194	1059136	WAITING_START	n/a	n/a	n/a	-999	8	[0, 0, 0]	n/a	FR1	1	R1361C
1060.028	0.001	1061330	WAITING_END	n/a	n/a	n/a	-999	8	[0, 0, 0]	n/a	FR1	1	R1361C
1060.029	10.428	1061331	COUNTDOWN_START	n/a	n/a	n/a	-999	8	[0, 0, 0]	n/a	FR1	1	R1361C
1070.457	0.001	1071759	COUNTDOWN_END	n/a	n/a	n/a	-999	8	[0, 0, 0]	n/a	FR1	1	R1361C
1070.458	1.055	1071760	ORIENT_START	n/a	n/a	n/a	-999	8	[0, 0, 0]	n/a	FR1	1	R1361C
1071.513	0.0	1072815	ORIENT_END	n/a	n/a	n/a	-999	8	[0, 0, 0]	n/a	FR1	1	R1361C
1071.513	0.766	1072815	ENCODING_START	n/a	n/a	n/a	-999	8	[0, 0, 0]	n/a	FR1	1	R1361C
1072.279	1.635	1073581	WORD	n/a	wordpools/wordpool_EN.txt	DRUM	1	8	[0, 0, 0]	n/a	FR1	1	R1361C
1073.914	1.047	1075215	WORD_OFF	n/a	n/a	DRUM	1	8	[0, 0, 0]	n/a	FR1	1	R1361C
1074.961	1.636	1076262	WORD	n/a	wordpools/wordpool_EN.txt	PHONE	2	8	[0, 0, 0]	n/a	FR1	1	R1361C
1076.597	0.855	1077898	WORD_OFF	n/a	n/a	PHONE	2	8	[0, 0, 0]	n/a	FR1	1	R1361C
1077.452	1.63	1078753	WORD	n/a	wordpools/wordpool_EN.txt	SMOKE	3	8	[0, 0, 0]	n/a	FR1	1	R1361C
1079.082	0.885	1080383	WORD_OFF	n/a	n/a	SMOKE	3	8	[0, 0, 0]	n/a	FR1	1	R1361C
1079.967	1.631	1081268	WORD	n/a	wordpools/wordpool_EN.txt	BRUSH	4	8	[0, 0, 0]	n/a	FR1	1	R1361C
1081.598	1.116	1082899	WORD_OFF	n/a	n/a	BRUSH	4	8	[0, 0, 0]	n/a	FR1	1	R1361C
1082.714	1.634	1084015	WORD	n/a	wordpools/wordpool_EN.txt	SPARK	5	8	[0, 0, 0]	n/a	FR1	1	R1361C
1084.348	0.872	1085649	WORD_OFF	n/a	n/a	SPARK	5	8	[0, 0, 0]	n/a	FR1	1	R1361C
1085.22	1.63	1086521	WORD	n/a	wordpools/wordpool_EN.txt	CAPE	6	8	[0, 0, 0]	n/a	FR1	1	R1361C
1086.85	0.781	1088151	WORD_OFF	n/a	n/a	CAPE	6	8	[0, 0, 0]	n/a	FR1	1	R1361C
1087.631	1.635	1088932	WORD	n/a	wordpools/wordpool_EN.txt	SNAIL	7	8	[0, 0, 0]	n/a	FR1	1	R1361C
1089.266	0.929	1090567	WORD_OFF	n/a	n/a	SNAIL	7	8	[0, 0, 0]	n/a	FR1	1	R1361C
1090.195	1.622	1091496	WORD	n/a	wordpools/wordpool_EN.txt	WING	8	8	[0, 0, 0]	n/a	FR1	1	R1361C
1091.817	0.904	1093118	WORD_OFF	n/a	n/a	WING	8	8	[0, 0, 0]	n/a	FR1	1	R1361C
1092.721	1.629	1094022	WORD	n/a	wordpools/wordpool_EN.txt	FACE	9	8	[0, 0, 0]	n/a	FR1	1	R1361C
1094.35	0.982	1095650	WORD_OFF	n/a	n/a	FACE	9	8	[0, 0, 0]	n/a	FR1	1	R1361C
1095.332	1.636	1096632	WORD	n/a	wordpools/wordpool_EN.txt	TENT	10	8	[0, 0, 0]	n/a	FR1	1	R1361C
1096.968	1.068	1098268	WORD_OFF	n/a	n/a	TENT	10	8	[0, 0, 0]	n/a	FR1	1	R1361C
1098.036	1.632	1099336	WORD	n/a	wordpools/wordpool_EN.txt	RAIN	11	8	[0, 0, 0]	n/a	FR1	1	R1361C
1099.668	0.991	1100968	WORD_OFF	n/a	n/a	RAIN	11	8	[0, 0, 0]	n/a	FR1	1	R1361C
1100.659	1.626	1101959	WORD	n/a	wordpools/wordpool_EN.txt	ELF	12	8	[0, 0, 0]	n/a	FR1	1	R1361C
1102.285	0.001	1103585	WORD_OFF	n/a	n/a	ELF	12	8	[0, 0, 0]	n/a	FR1	1	R1361C
1102.286	0.0	1103586	ENCODING_END	n/a	n/a	n/a	-999	8	[0, 0, 0]	n/a	FR1	1	R1361C
1102.286	0.0	1103586	DISTRACT_START	n/a	n/a	n/a	-999	8	[0, 0, 0]	n/a	FR1	1	R1361C
1102.286	0.015	1103586	START	n/a	n/a	n/a	-999	8	[-999, -999, -999]	n/a	FR1	1	R1361C
1102.301	4.835	1103601	PROB	4.835	n/a	n/a	-999	8	[8, 3, 2]	13	FR1	1	R1361C
1107.136	2.968	1108436	PROB	2.968	n/a	n/a	-999	8	[6, 4, 1]	11	FR1	1	R1361C
1110.104	2.834	1111404	PROB	2.834	n/a	n/a	-999	8	[4, 4, 2]	10	FR1	1	R1361C
1112.938	2.984	1114238	PROB	2.984	n/a	n/a	-999	8	[7, 8, 2]	17	FR1	1	R1361C
1115.922	4.834	1117221	PROB	4.834	n/a	n/a	-999	8	[7, 2, 8]	17	FR1	1	R1361C
1120.756	7.051	1122055	PROB	7.051	n/a	n/a	-999	8	[7, 8, 7]	22	FR1	1	R1361C
1127.807	0.017	1129106	STOP	n/a	n/a	n/a	-999	8	[-999, -999, -999]	n/a	FR1	1	R1361C
1127.824	0.601	1129123	DISTRACT_END	n/a	n/a	n/a	-999	8	[0, 0, 0]	n/a	FR1	1	R1361C
1128.425	1.566	1129724	RETRIEVAL_ORIENT_START	n/a	n/a	n/a	-999	8	[0, 0, 0]	n/a	FR1	1	R1361C
1129.991	0.001	1131290	RETRIEVAL_ORIENT_END	n/a	n/a	n/a	-999	8	[0, 0, 0]	n/a	FR1	1	R1361C
1129.992	0.945	1131291	REC_START	n/a	n/a	n/a	-999	8	[0, 0, 0]	n/a	FR1	1	R1361C
1130.937	0.702	1132236	REC_WORD	0.702	n/a	DRUM	1	8	[0, 0, 0]	n/a	FR1	1	R1361C
1131.639	0.708	1132938	REC_WORD	0.708	n/a	PHONE	2	8	[0, 0, 0]	n/a	FR1	1	R1361C
1132.347	0.922	1133646	REC_WORD	0.922	n/a	SMOKE	3	8	[0, 0, 0]	n/a	FR1	1	R1361C
1133.269	1.054	1134568	REC_WORD	1.054	n/a	SNAIL	7	8	[0, 0, 0]	n/a	FR1	1	R1361C
1134.323	25.681	1135622	REC_WORD	25.681	n/a	BRUSH	4	8	[0, 0, 0]	n/a	FR1	1	R1361C
1160.004	0.0	1161301	REC_END	n/a	n/a	n/a	-999	8	[0, 0, 0]	n/a	FR1	1	R1361C
1160.004	0.015	1161301	TRIAL_END	n/a	n/a	n/a	-999	8	[0, 0, 0]	n/a	FR1	1	R1361C
1160.019	0.0	1161316	TRIAL_START	n/a	n/a	n/a	-999	9	[0, 0, 0]	n/a	FR1	1	R1361C
1160.019	0.0	1161316	TRIAL	n/a	n/a	n/a	-999	9	[0, 0, 0]	n/a	FR1	1	R1361C
1160.019	2.361	1161316	WAITING_START	n/a	n/a	n/a	-999	9	[0, 0, 0]	n/a	FR1	1	R1361C
1162.38	0.0	1163677	COUNTDOWN_START	n/a	n/a	n/a	-999	9	[0, 0, 0]	n/a	FR1	1	R1361C
1162.38	10.429	1163677	WAITING_END	n/a	n/a	n/a	-999	9	[0, 0, 0]	n/a	FR1	1	R1361C
1172.809	0.001	1174106	COUNTDOWN_END	n/a	n/a	n/a	-999	9	[0, 0, 0]	n/a	FR1	1	R1361C
1172.81	1.14	1174107	ORIENT_START	n/a	n/a	n/a	-999	9	[0, 0, 0]	n/a	FR1	1	R1361C
1173.95	0.0	1175247	ORIENT_END	n/a	n/a	n/a	-999	9	[0, 0, 0]	n/a	FR1	1	R1361C
1173.95	0.758	1175247	ENCODING_START	n/a	n/a	n/a	-999	9	[0, 0, 0]	n/a	FR1	1	R1361C
1174.708	1.624	1176005	WORD	n/a	wordpools/wordpool_EN.txt	MAP	1	9	[0, 0, 0]	n/a	FR1	1	R1361C
1176.332	1.038	1177629	WORD_OFF	n/a	n/a	MAP	1	9	[0, 0, 0]	n/a	FR1	1	R1361C
1177.37	1.63	1178666	WORD	n/a	wordpools/wordpool_EN.txt	TOE	2	9	[0, 0, 0]	n/a	FR1	1	R1361C
1179.0	0.84	1180296	WORD_OFF	n/a	n/a	TOE	2	9	[0, 0, 0]	n/a	FR1	1	R1361C
1179.84	1.627	1181136	WORD	n/a	wordpools/wordpool_EN.txt	TRAIN	3	9	[0, 0, 0]	n/a	FR1	1	R1361C
1181.467	0.837	1182763	WORD_OFF	n/a	n/a	TRAIN	3	9	[0, 0, 0]	n/a	FR1	1	R1361C
1182.304	1.614	1183600	WORD	n/a	wordpools/wordpool_EN.txt	TOY	4	9	[0, 0, 0]	n/a	FR1	1	R1361C
1183.918	0.929	1185214	WORD_OFF	n/a	n/a	TOY	4	9	[0, 0, 0]	n/a	FR1	1	R1361C
1184.847	1.638	1186143	WORD	n/a	wordpools/wordpool_EN.txt	CLOWN	5	9	[0, 0, 0]	n/a	FR1	1	R1361C
1186.485	0.894	1187781	WORD_OFF	n/a	n/a	CLOWN	5	9	[0, 0, 0]	n/a	FR1	1	R1361C
1187.379	1.64	1188675	WORD	n/a	wordpools/wordpool_EN.txt	TANK	6	9	[0, 0, 0]	n/a	FR1	1	R1361C
1189.019	0.971	1190315	WORD_OFF	n/a	n/a	TANK	6	9	[0, 0, 0]	n/a	FR1	1	R1361C
1189.99	1.629	1191286	WORD	n/a	wordpools/wordpool_EN.txt	FORK	7	9	[0, 0, 0]	n/a	FR1	1	R1361C
1191.619	0.85	1192915	WORD_OFF	n/a	n/a	FORK	7	9	[0, 0, 0]	n/a	FR1	1	R1361C
1192.469	1.634	1193765	WORD	n/a	wordpools/wordpool_EN.txt	EGG	8	9	[0, 0, 0]	n/a	FR1	1	R1361C
1194.103	1.019	1195399	WORD_OFF	n/a	n/a	EGG	8	9	[0, 0, 0]	n/a	FR1	1	R1361C
1195.122	1.632	1196418	WORD	n/a	wordpools/wordpool_EN.txt	BIRD	9	9	[0, 0, 0]	n/a	FR1	1	R1361C
1196.754	0.866	1198050	WORD_OFF	n/a	n/a	BIRD	9	9	[0, 0, 0]	n/a	FR1	1	R1361C
1197.62	1.634	1198916	WORD	n/a	wordpools/wordpool_EN.txt	SWAMP	10	9	[0, 0, 0]	n/a	FR1	1	R1361C
1199.254	0.842	1200549	WORD_OFF	n/a	n/a	SWAMP	10	9	[0, 0, 0]	n/a	FR1	1	R1361C
1200.096	1.625	1201391	WORD	n/a	wordpools/wordpool_EN.txt	SPONGE	11	9	[0, 0, 0]	n/a	FR1	1	R1361C
1201.721	1.116	1203016	WORD_OFF	n/a	n/a	SPONGE	11	9	[0, 0, 0]	n/a	FR1	1	R1361C
1202.837	1.635	1204132	WORD	n/a	wordpools/wordpool_EN.txt	CAT	12	9	[0, 0, 0]	n/a	FR1	1	R1361C
1204.472	0.0	1205767	WORD_OFF	n/a	n/a	CAT	12	9	[0, 0, 0]	n/a	FR1	1	R1361C
1204.472	0.001	1205767	ENCODING_END	n/a	n/a	n/a	-999	9	[0, 0, 0]	n/a	FR1	1	R1361C
1204.473	0.0	1205768	DISTRACT_START	n/a	n/a	n/a	-999	9	[0, 0, 0]	n/a	FR1	1	R1361C
1204.473	0.014	1205768	START	n/a	n/a	n/a	-999	9	[-999, -999, -999]	n/a	FR1	1	R1361C
1204.487	6.386	1205782	PROB	6.386	n/a	n/a	-999	9	[8, 7, 7]	22	FR1	1	R1361C
1210.873	3.683	1212168	PROB	3.683	n/a	n/a	-999	9	[6, 4, 9]	19	FR1	1	R1361C
1214.556	3.251	1215851	PROB	3.251	n/a	n/a	-999	9	[9, 1, 4]	14	FR1	1	R1361C
1217.807	3.218	1219102	PROB	3.218	n/a	n/a	-999	9	[5, 2, 8]	15	FR1	1	R1361C
1221.025	9.089	1222319	PROB	9.089	n/a	n/a	-999	9	[7, 6, 8]	21	FR1	1	R1361C
1230.114	0.013	1231408	STOP	n/a	n/a	n/a	-999	9	[-999, -999, -999]	n/a	FR1	1	R1361C
1230.127	0.532	1231421	DISTRACT_END	n/a	n/a	n/a	-999	9	[0, 0, 0]	n/a	FR1	1	R1361C
1230.659	1.701	1231953	RETRIEVAL_ORIENT_START	n/a	n/a	n/a	-999	9	[0, 0, 0]	n/a	FR1	1	R1361C
1232.36	0.0	1233654	RETRIEVAL_ORIENT_END	n/a	n/a	n/a	-999	9	[0, 0, 0]	n/a	FR1	1	R1361C
1232.36	1.04	1233654	REC_START	n/a	n/a	n/a	-999	9	[0, 0, 0]	n/a	FR1	1	R1361C
1233.4	0.685	1234694	REC_WORD	0.685	n/a	MAP	1	9	[0, 0, 0]	n/a	FR1	1	R1361C
1234.085	0.74	1235379	REC_WORD	0.74	n/a	TOE	2	9	[0, 0, 0]	n/a	FR1	1	R1361C
1234.825	27.547	1236119	REC_WORD	27.547	n/a	TRAIN	3	9	[0, 0, 0]	n/a	FR1	1	R1361C
1262.372	0.001	1263664	REC_END	n/a	n/a	n/a	-999	9	[0, 0, 0]	n/a	FR1	1	R1361C
1262.373	0.015	1263665	TRIAL_END	n/a	n/a	n/a	-999	9	[0, 0, 0]	n/a	FR1	1	R1361C
1262.388	0.0	1263680	TRIAL_START	n/a	n/a	n/a	-999	10	[0, 0, 0]	n/a	FR1	1	R1361C
1262.388	0.0	1263680	TRIAL	n/a	n/a	n/a	-999	10	[0, 0, 0]	n/a	FR1	1	R1361C
1262.388	2.294	1263680	WAITING_START	n/a	n/a	n/a	-999	10	[0, 0, 0]	n/a	FR1	1	R1361C
1264.682	0.001	1265974	WAITING_END	n/a	n/a	n/a	-999	10	[0, 0, 0]	n/a	FR1	1	R1361C
1264.683	10.429	1265975	COUNTDOWN_START	n/a	n/a	n/a	-999	10	[0, 0, 0]	n/a	FR1	1	R1361C
1275.112	0.0	1276404	COUNTDOWN_END	n/a	n/a	n/a	-999	10	[0, 0, 0]	n/a	FR1	1	R1361C
1275.112	1.239	1276404	ORIENT_START	n/a	n/a	n/a	-999	10	[0, 0, 0]	n/a	FR1	1	R1361C
1276.351	0.001	1277643	ORIENT_END	n/a	n/a	n/a	-999	10	[0, 0, 0]	n/a	FR1	1	R1361C
1276.352	1.036	1277644	ENCODING_START	n/a	n/a	n/a	-999	10	[0, 0, 0]	n/a	FR1	1	R1361C
1277.388	1.631	1278680	WORD	n/a	wordpools/wordpool_EN.txt	TOAD	1	10	[0, 0, 0]	n/a	FR1	1	R1361C
1279.019	0.931	1280311	WORD_OFF	n/a	n/a	TOAD	1	10	[0, 0, 0]	n/a	FR1	1	R1361C
1279.95	1.635	1281242	WORD	n/a	wordpools/wordpool_EN.txt	OAK	2	10	[0, 0, 0]	n/a	FR1	1	R1361C
1281.585	0.907	1282876	WORD_OFF	n/a	n/a	OAK	2	10	[0, 0, 0]	n/a	FR1	1	R1361C
1282.492	1.628	1283783	WORD	n/a	wordpools/wordpool_EN.txt	STORM	3	10	[0, 0, 0]	n/a	FR1	1	R1361C
1284.12	0.765	1285411	WORD_OFF	n/a	n/a	STORM	3	10	[0, 0, 0]	n/a	FR1	1	R1361C
1284.885	1.635	1286176	WORD	n/a	wordpools/wordpool_EN.txt	DEER	4	10	[0, 0, 0]	n/a	FR1	1	R1361C
1286.52	1.081	1287811	WORD_OFF	n/a	n/a	DEER	4	10	[0, 0, 0]	n/a	FR1	1	R1361C
1287.601	1.637	1288892	WORD	n/a	wordpools/wordpool_EN.txt	BAG	5	10	[0, 0, 0]	n/a	FR1	1	R1361C
1289.238	0.866	1290529	WORD_OFF	n/a	n/a	BAG	5	10	[0, 0, 0]	n/a	FR1	1	R1361C
1290.104	1.634	1291395	WORD	n/a	wordpools/wordpool_EN.txt	BROOM	6	10	[0, 0, 0]	n/a	FR1	1	R1361C
1291.738	0.941	1293029	WORD_OFF	n/a	n/a	BROOM	6	10	[0, 0, 0]	n/a	FR1	1	R1361C
1292.679	1.625	1293970	WORD	n/a	wordpools/wordpool_EN.txt	SHOE	7	10	[0, 0, 0]	n/a	FR1	1	R1361C
1294.304	0.893	1295595	WORD_OFF	n/a	n/a	SHOE	7	10	[0, 0, 0]	n/a	FR1	1	R1361C
1295.197	1.626	1296488	WORD	n/a	wordpools/wordpool_EN.txt	HOOF	8	10	[0, 0, 0]	n/a	FR1	1	R1361C
1296.823	0.775	1298114	WORD_OFF	n/a	n/a	HOOF	8	10	[0, 0, 0]	n/a	FR1	1	R1361C
1297.598	1.625	1298889	WORD	n/a	wordpools/wordpool_EN.txt	CALF	9	10	[0, 0, 0]	n/a	FR1	1	R1361C
1299.223	1.021	1300514	WORD_OFF	n/a	n/a	CALF	9	10	[0, 0, 0]	n/a	FR1	1	R1361C
1300.244	1.63	1301535	WORD	n/a	wordpools/wordpool_EN.txt	FOOT	10	10	[0, 0, 0]	n/a	FR1	1	R1361C
1301.874	1.079	1303165	WORD_OFF	n/a	n/a	FOOT	10	10	[0, 0, 0]	n/a	FR1	1	R1361C
1302.953	1.637	1304243	WORD	n/a	wordpools/wordpool_EN.txt	BOMB	11	10	[0, 0, 0]	n/a	FR1	1	R1361C
1304.59	0.827	1305880	WORD_OFF	n/a	n/a	BOMB	11	10	[0, 0, 0]	n/a	FR1	1	R1361C
1305.417	1.607	1306707	WORD	n/a	wordpools/wordpool_EN.txt	BAT	12	10	[0, 0, 0]	n/a	FR1	1	R1361C
1307.024	0.001	1308314	WORD_OFF	n/a	n/a	BAT	12	10	[0, 0, 0]	n/a	FR1	1	R1361C
1307.025	0.0	1308315	ENCODING_END	n/a	n/a	n/a	-999	10	[0, 0, 0]	n/a	FR1	1	R1361C
1307.025	0.0	1308315	DISTRACT_START	n/a	n/a	n/a	-999	10	[0, 0, 0]	n/a	FR1	1	R1361C
1307.025	0.016	1308315	START	n/a	n/a	n/a	-999	10	[-999, -999, -999]	n/a	FR1	1	R1361C
1307.041	4.934	1308331	PROB	4.934	n/a	n/a	-999	10	[7, 7, 2]	16	FR1	1	R1361C
1311.975	6.001	1313265	PROB	6.001	n/a	n/a	-999	10	[3, 2, 7]	13	FR1	1	R1361C
1317.976	3.417	1319266	PROB	3.417	n/a	n/a	-999	10	[1, 4, 9]	14	FR1	1	R1361C
1321.393	4.017	1322683	PROB	4.017	n/a	n/a	-999	10	[5, 4, 8]	17	FR1	1	R1361C
1325.41	3.65	1326699	PROB	3.65	n/a	n/a	-999	10	[1, 8, 3]	12	FR1	1	R1361C
1329.06	0.019	1330349	STOP	n/a	n/a	n/a	-999	10	[-999, -999, -999]	n/a	FR1	1	R1361C
1329.079	0.594	1330368	DISTRACT_END	n/a	n/a	n/a	-999	10	[0, 0, 0]	n/a	FR1	1	R1361C
1329.673	1.639	1330962	RETRIEVAL_ORIENT_START	n/a	n/a	n/a	-999	10	[0, 0, 0]	n/a	FR1	1	R1361C
1331.312	0.0	1332601	RETRIEVAL_ORIENT_END	n/a	n/a	n/a	-999	10	[0, 0, 0]	n/a	FR1	1	R1361C
1331.312	1.08	1332601	REC_START	n/a	n/a	n/a	-999	10	[0, 0, 0]	n/a	FR1	1	R1361C
1332.392	0.864	1333681	REC_WORD	0.864	n/a	TOAD	1	10	[0, 0, 0]	n/a	FR1	1	R1361C
1333.256	1.525	1334545	REC_WORD	1.525	n/a	OAK	2	10	[0, 0, 0]	n/a	FR1	1	R1361C
1334.781	26.543	1336070	REC_WORD	26.543	n/a	BROOM	6	10	[0, 0, 0]	n/a	FR1	1	R1361C
1361.324	0.0	1362612	TRIAL_END	n/a	n/a	n/a	-999	10	[0, 0, 0]	n/a	FR1	1	R1361C
1361.324	0.015	1362612	REC_END	n/a	n/a	n/a	-999	10	[0, 0, 0]	n/a	FR1	1	R1361C
1361.339	0.0	1362627	TRIAL_START	n/a	n/a	n/a	-999	11	[0, 0, 0]	n/a	FR1	1	R1361C
1361.339	0.0	1362627	TRIAL	n/a	n/a	n/a	-999	11	[0, 0, 0]	n/a	FR1	1	R1361C
1361.339	2.179	1362627	WAITING_START	n/a	n/a	n/a	-999	11	[0, 0, 0]	n/a	FR1	1	R1361C
1363.518	0.0	1364806	WAITING_END	n/a	n/a	n/a	-999	11	[0, 0, 0]	n/a	FR1	1	R1361C
1363.518	10.43	1364806	COUNTDOWN_START	n/a	n/a	n/a	-999	11	[0, 0, 0]	n/a	FR1	1	R1361C
1373.948	0.001	1375235	COUNTDOWN_END	n/a	n/a	n/a	-999	11	[0, 0, 0]	n/a	FR1	1	R1361C
1373.949	1.022	1375236	ORIENT_START	n/a	n/a	n/a	-999	11	[0, 0, 0]	n/a	FR1	1	R1361C
1374.971	0.0	1376258	ORIENT_END	n/a	n/a	n/a	-999	11	[0, 0, 0]	n/a	FR1	1	R1361C
1374.971	0.826	1376258	ENCODING_START	n/a	n/a	n/a	-999	11	[0, 0, 0]	n/a	FR1	1	R1361C
1375.797	1.623	1377084	WORD	n/a	wordpools/wordpool_EN.txt	PARK	1	11	[0, 0, 0]	n/a	FR1	1	R1361C
1377.42	1.086	1378707	WORD_OFF	n/a	n/a	PARK	1	11	[0, 0, 0]	n/a	FR1	1	R1361C
1378.506	1.632	1379793	WORD	n/a	wordpools/wordpool_EN.txt	CLOUD	2	11	[0, 0, 0]	n/a	FR1	1	R1361C
1380.138	1.006	1381425	WORD_OFF	n/a	n/a	CLOUD	2	11	[0, 0, 0]	n/a	FR1	1	R1361C
1381.144	1.628	1382431	WORD	n/a	wordpools/wordpool_EN.txt	STICK	3	11	[0, 0, 0]	n/a	FR1	1	R1361C
1382.772	0.914	1384059	WORD_OFF	n/a	n/a	STICK	3	11	[0, 0, 0]	n/a	FR1	1	R1361C
1383.686	1.636	1384973	WORD	n/a	wordpools/wordpool_EN.txt	MAIL	4	11	[0, 0, 0]	n/a	FR1	1	R1361C
1385.322	0.873	1386609	WORD_OFF	n/a	n/a	MAIL	4	11	[0, 0, 0]	n/a	FR1	1	R1361C
1386.195	1.628	1387481	WORD	n/a	wordpools/wordpool_EN.txt	STRAW	5	11	[0, 0, 0]	n/a	FR1	1	R1361C
1387.823	1.011	1389109	WORD_OFF	n/a	n/a	STRAW	5	11	[0, 0, 0]	n/a	FR1	1	R1361C
1388.834	1.622	1390120	WORD	n/a	wordpools/wordpool_EN.txt	ICE	6	11	[0, 0, 0]	n/a	FR1	1	R1361C
1390.456	0.962	1391742	WORD_OFF	n/a	n/a	ICE	6	11	[0, 0, 0]	n/a	FR1	1	R1361C
1391.418	1.639	1392704	WORD	n/a	wordpools/wordpool_EN.txt	FISH	7	11	[0, 0, 0]	n/a	FR1	1	R1361C
1393.057	0.829	1394343	WORD_OFF	n/a	n/a	FISH	7	11	[0, 0, 0]	n/a	FR1	1	R1361C
1393.886	1.621	1395172	WORD	n/a	wordpools/wordpool_EN.txt	PANTS	8	11	[0, 0, 0]	n/a	FR1	1	R1361C
1395.507	1.111	1396793	WORD_OFF	n/a	n/a	PANTS	8	11	[0, 0, 0]	n/a	FR1	1	R1361C
1396.618	1.606	1397904	WORD	n/a	wordpools/wordpool_EN.txt	FLUTE	9	11	[0, 0, 0]	n/a	FR1	1	R1361C
1398.224	1.133	1399510	WORD_OFF	n/a	n/a	FLUTE	9	11	[0, 0, 0]	n/a	FR1	1	R1361C
1399.357	1.635	1400643	WORD	n/a	wordpools/wordpool_EN.txt	SNOW	10	11	[0, 0, 0]	n/a	FR1	1	R1361C
1400.992	0.804	1402278	WORD_OFF	n/a	n/a	SNOW	10	11	[0, 0, 0]	n/a	FR1	1	R1361C
1401.796	1.629	1403082	WORD	n/a	wordpools/wordpool_EN.txt	SKI	11	11	[0, 0, 0]	n/a	FR1	1	R1361C
1403.425	0.985	1404711	WORD_OFF	n/a	n/a	SKI	11	11	[0, 0, 0]	n/a	FR1	1	R1361C
1404.41	1.633	1405696	WORD	n/a	wordpools/wordpool_EN.txt	WAVE	12	11	[0, 0, 0]	n/a	FR1	1	R1361C
1406.043	0.001	1407329	WORD_OFF	n/a	n/a	WAVE	12	11	[0, 0, 0]	n/a	FR1	1	R1361C
1406.044	0.0	1407330	ENCODING_END	n/a	n/a	n/a	-999	11	[0, 0, 0]	n/a	FR1	1	R1361C
1406.044	0.0	1407330	DISTRACT_START	n/a	n/a	n/a	-999	11	[0, 0, 0]	n/a	FR1	1	R1361C
1406.044	0.016	1407330	START	n/a	n/a	n/a	-999	11	[-999, -999, -999]	n/a	FR1	1	R1361C
1406.06	7.201	1407346	PROB	7.201	n/a	n/a	-999	11	[9, 9, 6]	24	FR1	1	R1361C
1413.261	9.918	1414546	PROB	9.918	n/a	n/a	-999	11	[9, 5, 7]	22	FR1	1	R1361C
1423.179	3.948	1424464	PROB	3.948	n/a	n/a	-999	11	[2, 5, 6]	13	FR1	1	R1361C
1427.127	0.02	1428412	STOP	n/a	n/a	n/a	-999	11	[-999, -999, -999]	n/a	FR1	1	R1361C
1427.147	0.628	1428432	DISTRACT_END	n/a	n/a	n/a	-999	11	[0, 0, 0]	n/a	FR1	1	R1361C
1427.775	1.688	1429059	RETRIEVAL_ORIENT_START	n/a	n/a	n/a	-999	11	[0, 0, 0]	n/a	FR1	1	R1361C
1429.463	0.001	1430747	RETRIEVAL_ORIENT_END	n/a	n/a	n/a	-999	11	[0, 0, 0]	n/a	FR1	1	R1361C
1429.464	0.907	1430748	REC_START	n/a	n/a	n/a	-999	11	[0, 0, 0]	n/a	FR1	1	R1361C
1430.371	0.785	1431655	REC_WORD	0.785	n/a	PARK	1	11	[0, 0, 0]	n/a	FR1	1	R1361C
1431.156	0.469	1432440	REC_WORD	0.469	n/a	MAIL	4	11	[0, 0, 0]	n/a	FR1	1	R1361C
1431.625	2.14	1432909	REC_WORD	2.14	n/a	STICK	3	11	[0, 0, 0]	n/a	FR1	1	R1361C
1433.765	25.711	1435049	REC_WORD	25.711	n/a	ICE	6	11	[0, 0, 0]	n/a	FR1	1	R1361C
1459.476	0.001	1460759	REC_END	n/a	n/a	n/a	-999	11	[0, 0, 0]	n/a	FR1	1	R1361C
1459.477	0.014	1460760	TRIAL_END	n/a	n/a	n/a	-999	11	[0, 0, 0]	n/a	FR1	1	R1361C
1459.491	0.001	1460774	TRIAL_START	n/a	n/a	n/a	-999	12	[0, 0, 0]	n/a	FR1	1	R1361C
1459.492	0.0	1460775	WAITING_START	n/a	n/a	n/a	-999	12	[0, 0, 0]	n/a	FR1	1	R1361C
1459.492	1.961	1460775	TRIAL	n/a	n/a	n/a	-999	12	[0, 0, 0]	n/a	FR1	1	R1361C
1461.453	0.0	1462736	WAITING_END	n/a	n/a	n/a	-999	12	[0, 0, 0]	n/a	FR1	1	R1361C
1461.453	10.429	1462736	COUNTDOWN_START	n/a	n/a	n/a	-999	12	[0, 0, 0]	n/a	FR1	1	R1361C
1471.882	0.0	1473164	COUNTDOWN_END	n/a	n/a	n/a	-999	12	[0, 0, 0]	n/a	FR1	1	R1361C
1471.882	1.257	1473164	ORIENT_START	n/a	n/a	n/a	-999	12	[0, 0, 0]	n/a	FR1	1	R1361C
1473.139	0.001	1474421	ORIENT_END	n/a	n/a	n/a	-999	12	[0, 0, 0]	n/a	FR1	1	R1361C
1473.14	1.104	1474422	ENCODING_START	n/a	n/a	n/a	-999	12	[0, 0, 0]	n/a	FR1	1	R1361C
1474.244	1.629	1475526	WORD	n/a	wordpools/wordpool_EN.txt	PRINCE	1	12	[0, 0, 0]	n/a	FR1	1	R1361C
1475.873	0.993	1477155	WORD_OFF	n/a	n/a	PRINCE	1	12	[0, 0, 0]	n/a	FR1	1	R1361C
1476.866	1.623	1478148	WORD	n/a	wordpools/wordpool_EN.txt	BANK	2	12	[0, 0, 0]	n/a	FR1	1	R1361C
1478.489	0.825	1479771	WORD_OFF	n/a	n/a	BANK	2	12	[0, 0, 0]	n/a	FR1	1	R1361C
1479.314	1.609	1480596	WORD	n/a	wordpools/wordpool_EN.txt	MOUSE	3	12	[0, 0, 0]	n/a	FR1	1	R1361C
1480.923	1.063	1482205	WORD_OFF	n/a	n/a	MOUSE	3	12	[0, 0, 0]	n/a	FR1	1	R1361C
1481.986	1.637	1483268	WORD	n/a	wordpools/wordpool_EN.txt	STREET	4	12	[0, 0, 0]	n/a	FR1	1	R1361C
1483.623	1.003	1484905	WORD_OFF	n/a	n/a	STREET	4	12	[0, 0, 0]	n/a	FR1	1	R1361C
1484.626	1.632	1485908	WORD	n/a	wordpools/wordpool_EN.txt	RIB	5	12	[0, 0, 0]	n/a	FR1	1	R1361C
1486.258	1.106	1487540	WORD_OFF	n/a	n/a	RIB	5	12	[0, 0, 0]	n/a	FR1	1	R1361C
1487.364	1.628	1488646	WORD	n/a	wordpools/wordpool_EN.txt	PEN	6	12	[0, 0, 0]	n/a	FR1	1	R1361C
1488.992	1.002	1490274	WORD_OFF	n/a	n/a	PEN	6	12	[0, 0, 0]	n/a	FR1	1	R1361C
1489.994	1.631	1491275	WORD	n/a	wordpools/wordpool_EN.txt	FORT	7	12	[0, 0, 0]	n/a	FR1	1	R1361C
1491.625	0.76	1492906	WORD_OFF	n/a	n/a	FORT	7	12	[0, 0, 0]	n/a	FR1	1	R1361C
1492.385	1.608	1493666	WORD	n/a	wordpools/wordpool_EN.txt	PIE	8	12	[0, 0, 0]	n/a	FR1	1	R1361C
1493.993	1.046	1495274	WORD_OFF	n/a	n/a	PIE	8	12	[0, 0, 0]	n/a	FR1	1	R1361C
1495.039	1.62	1496320	WORD	n/a	wordpools/wordpool_EN.txt	HILL	9	12	[0, 0, 0]	n/a	FR1	1	R1361C
1496.659	0.786	1497940	WORD_OFF	n/a	n/a	HILL	9	12	[0, 0, 0]	n/a	FR1	1	R1361C
1497.445	1.632	1498726	WORD	n/a	wordpools/wordpool_EN.txt	ROPE	10	12	[0, 0, 0]	n/a	FR1	1	R1361C
1499.077	1.04	1500358	WORD_OFF	n/a	n/a	ROPE	10	12	[0, 0, 0]	n/a	FR1	1	R1361C
1500.117	1.627	1501398	WORD	n/a	wordpools/wordpool_EN.txt	BATH	11	12	[0, 0, 0]	n/a	FR1	1	R1361C
1501.744	0.942	1503025	WORD_OFF	n/a	n/a	BATH	11	12	[0, 0, 0]	n/a	FR1	1	R1361C
1502.686	1.625	1503967	WORD	n/a	wordpools/wordpool_EN.txt	MAZE	12	12	[0, 0, 0]	n/a	FR1	1	R1361C
1504.311	0.0	1505592	WORD_OFF	n/a	n/a	MAZE	12	12	[0, 0, 0]	n/a	FR1	1	R1361C
1504.311	0.0	1505592	ENCODING_END	n/a	n/a	n/a	-999	12	[0, 0, 0]	n/a	FR1	1	R1361C
1504.311	0.0	1505592	DISTRACT_START	n/a	n/a	n/a	-999	12	[0, 0, 0]	n/a	FR1	1	R1361C
1504.311	0.016	1505592	START	n/a	n/a	n/a	-999	12	[-999, -999, -999]	n/a	FR1	1	R1361C
1504.327	8.903	1505608	PROB	8.903	n/a	n/a	-999	12	[4, 7, 5]	18	FR1	1	R1361C
1513.23	2.967	1514510	PROB	2.967	n/a	n/a	-999	12	[5, 5, 2]	12	FR1	1	R1361C
1516.197	3.166	1517477	PROB	3.166	n/a	n/a	-999	12	[6, 1, 6]	13	FR1	1	R1361C
1519.363	3.284	1520643	PROB	3.284	n/a	n/a	-999	12	[1, 8, 2]	11	FR1	1	R1361C
1522.647	8.39	1523927	PROB	8.39	n/a	n/a	-999	12	[6, 5, 9]	20	FR1	1	R1361C
1531.037	0.013	1532317	STOP	n/a	n/a	n/a	-999	12	[-999, -999, -999]	n/a	FR1	1	R1361C
1531.05	0.588	1532330	DISTRACT_END	n/a	n/a	n/a	-999	12	[0, 0, 0]	n/a	FR1	1	R1361C
1531.638	1.661	1532917	RETRIEVAL_ORIENT_START	n/a	n/a	n/a	-999	12	[0, 0, 0]	n/a	FR1	1	R1361C
1533.299	0.001	1534578	RETRIEVAL_ORIENT_END	n/a	n/a	n/a	-999	12	[0, 0, 0]	n/a	FR1	1	R1361C
1533.3	1.336	1534579	REC_START	n/a	n/a	n/a	-999	12	[0, 0, 0]	n/a	FR1	1	R1361C
1534.636	0.784	1535915	REC_WORD	0.784	n/a	PRINCE	1	12	[0, 0, 0]	n/a	FR1	1	R1361C
1535.42	0.855	1536699	REC_WORD	0.855	n/a	BANK	2	12	[0, 0, 0]	n/a	FR1	1	R1361C
1536.275	0.341	1537554	REC_WORD	0.341	n/a	MOUSE	3	12	[0, 0, 0]	n/a	FR1	1	R1361C
1536.616	1.198	1537895	REC_WORD	1.198	n/a	FORT	7	12	[0, 0, 0]	n/a	FR1	1	R1361C
1537.814	25.498	1539093	REC_WORD	25.498	n/a	HILL	9	12	[0, 0, 0]	n/a	FR1	1	R1361C
1563.312	0.0	1564590	REC_END	n/a	n/a	n/a	-999	12	[0, 0, 0]	n/a	FR1	1	R1361C
1563.312	0.018	1564590	TRIAL_END	n/a	n/a	n/a	-999	12	[0, 0, 0]	n/a	FR1	1	R1361C
1563.33	0.0	1564608	TRIAL_START	n/a	n/a	n/a	-999	13	[0, 0, 0]	n/a	FR1	1	R1361C
1563.33	0.0	1564608	TRIAL	n/a	n/a	n/a	-999	13	[0, 0, 0]	n/a	FR1	1	R1361C
1563.33	2.076	1564608	WAITING_START	n/a	n/a	n/a	-999	13	[0, 0, 0]	n/a	FR1	1	R1361C
1565.406	0.0	1566684	COUNTDOWN_START	n/a	n/a	n/a	-999	13	[0, 0, 0]	n/a	FR1	1	R1361C
1565.406	10.43	1566684	WAITING_END	n/a	n/a	n/a	-999	13	[0, 0, 0]	n/a	FR1	1	R1361C
1575.836	0.001	1577113	COUNTDOWN_END	n/a	n/a	n/a	-999	13	[0, 0, 0]	n/a	FR1	1	R1361C
1575.837	1.205	1577114	ORIENT_START	n/a	n/a	n/a	-999	13	[0, 0, 0]	n/a	FR1	1	R1361C
1577.042	0.001	1578319	ORIENT_END	n/a	n/a	n/a	-999	13	[0, 0, 0]	n/a	FR1	1	R1361C
1577.043	0.91	1578320	ENCODING_START	n/a	n/a	n/a	-999	13	[0, 0, 0]	n/a	FR1	1	R1361C
1577.953	1.622	1579230	WORD	n/a	wordpools/wordpool_EN.txt	HAT	1	13	[0, 0, 0]	n/a	FR1	1	R1361C
1579.575	0.99	1580852	WORD_OFF	n/a	n/a	HAT	1	13	[0, 0, 0]	n/a	FR1	1	R1361C
1580.565	1.628	1581842	WORD	n/a	wordpools/wordpool_EN.txt	EAR	2	13	[0, 0, 0]	n/a	FR1	1	R1361C
1582.193	1.117	1583470	WORD_OFF	n/a	n/a	EAR	2	13	[0, 0, 0]	n/a	FR1	1	R1361C
1583.31	1.634	1584587	WORD	n/a	wordpools/wordpool_EN.txt	COW	3	13	[0, 0, 0]	n/a	FR1	1	R1361C
1584.944	1.119	1586221	WORD_OFF	n/a	n/a	COW	3	13	[0, 0, 0]	n/a	FR1	1	R1361C
1586.063	1.63	1587340	WORD	n/a	wordpools/wordpool_EN.txt	BEAN	4	13	[0, 0, 0]	n/a	FR1	1	R1361C
1587.693	0.984	1588970	WORD_OFF	n/a	n/a	BEAN	4	13	[0, 0, 0]	n/a	FR1	1	R1361C
1588.677	1.633	1589954	WORD	n/a	wordpools/wordpool_EN.txt	CAKE	5	13	[0, 0, 0]	n/a	FR1	1	R1361C
1590.31	0.917	1591587	WORD_OFF	n/a	n/a	CAKE	5	13	[0, 0, 0]	n/a	FR1	1	R1361C
1591.227	1.635	1592504	WORD	n/a	wordpools/wordpool_EN.txt	TIE	6	13	[0, 0, 0]	n/a	FR1	1	R1361C
1592.862	1.117	1594139	WORD_OFF	n/a	n/a	TIE	6	13	[0, 0, 0]	n/a	FR1	1	R1361C
1593.979	1.632	1595256	WORD	n/a	wordpools/wordpool_EN.txt	SHIELD	7	13	[0, 0, 0]	n/a	FR1	1	R1361C
1595.611	0.855	1596887	WORD_OFF	n/a	n/a	SHIELD	7	13	[0, 0, 0]	n/a	FR1	1	R1361C
1596.466	1.63	1597742	WORD	n/a	wordpools/wordpool_EN.txt	CUBE	8	13	[0, 0, 0]	n/a	FR1	1	R1361C
1598.096	0.91	1599372	WORD_OFF	n/a	n/a	CUBE	8	13	[0, 0, 0]	n/a	FR1	1	R1361C
1599.006	1.623	1600282	WORD	n/a	wordpools/wordpool_EN.txt	HOUSE	9	13	[0, 0, 0]	n/a	FR1	1	R1361C
1600.629	1.028	1601905	WORD_OFF	n/a	n/a	HOUSE	9	13	[0, 0, 0]	n/a	FR1	1	R1361C
1601.657	1.639	1602933	WORD	n/a	wordpools/wordpool_EN.txt	SPRING	10	13	[0, 0, 0]	n/a	FR1	1	R1361C
1603.296	0.993	1604572	WORD_OFF	n/a	n/a	SPRING	10	13	[0, 0, 0]	n/a	FR1	1	R1361C
1604.289	1.625	1605565	WORD	n/a	wordpools/wordpool_EN.txt	KITE	11	13	[0, 0, 0]	n/a	FR1	1	R1361C
1605.914	0.954	1607190	WORD_OFF	n/a	n/a	KITE	11	13	[0, 0, 0]	n/a	FR1	1	R1361C
1606.868	1.629	1608144	WORD	n/a	wordpools/wordpool_EN.txt	MOOSE	12	13	[0, 0, 0]	n/a	FR1	1	R1361C
1608.497	0.001	1609773	WORD_OFF	n/a	n/a	MOOSE	12	13	[0, 0, 0]	n/a	FR1	1	R1361C
1608.498	0.0	1609774	ENCODING_END	n/a	n/a	n/a	-999	13	[0, 0, 0]	n/a	FR1	1	R1361C
1608.498	0.0	1609774	DISTRACT_START	n/a	n/a	n/a	-999	13	[0, 0, 0]	n/a	FR1	1	R1361C
1608.498	0.015	1609774	START	n/a	n/a	n/a	-999	13	[-999, -999, -999]	n/a	FR1	1	R1361C
1608.513	5.968	1609789	PROB	5.968	n/a	n/a	-999	13	[7, 7, 6]	20	FR1	1	R1361C
1614.481	3.252	1615757	PROB	3.252	n/a	n/a	-999	13	[2, 6, 4]	12	FR1	1	R1361C
1617.733	6.451	1619008	PROB	6.451	n/a	n/a	-999	13	[6, 9, 9]	24	FR1	1	R1361C
1624.184	4.083	1625459	PROB	4.083	n/a	n/a	-999	13	[4, 8, 2]	14	FR1	1	R1361C
1628.267	3.641	1629542	PROB	3.641	n/a	n/a	-999	13	[1, 6, 5]	12	FR1	1	R1361C
1631.908	0.011	1633183	STOP	n/a	n/a	n/a	-999	13	[-999, -999, -999]	n/a	FR1	1	R1361C
1631.919	0.653	1633194	DISTRACT_END	n/a	n/a	n/a	-999	13	[0, 0, 0]	n/a	FR1	1	R1361C
1632.572	1.647	1633847	RETRIEVAL_ORIENT_START	n/a	n/a	n/a	-999	13	[0, 0, 0]	n/a	FR1	1	R1361C
1634.219	0.001	1635494	RETRIEVAL_ORIENT_END	n/a	n/a	n/a	-999	13	[0, 0, 0]	n/a	FR1	1	R1361C
1634.22	1.117	1635495	REC_START	n/a	n/a	n/a	-999	13	[0, 0, 0]	n/a	FR1	1	R1361C
1635.337	0.847	1636612	REC_WORD	0.847	n/a	HAT	1	13	[0, 0, 0]	n/a	FR1	1	R1361C
1636.184	0.776	1637458	REC_WORD	0.776	n/a	EAR	2	13	[0, 0, 0]	n/a	FR1	1	R1361C
1636.96	0.836	1638234	REC_WORD	0.836	n/a	COW	3	13	[0, 0, 0]	n/a	FR1	1	R1361C
1637.796	0.688	1639070	REC_WORD	0.688	n/a	BEAN	4	13	[0, 0, 0]	n/a	FR1	1	R1361C
1638.484	25.748	1639758	REC_WORD	25.748	n/a	CAKE	5	13	[0, 0, 0]	n/a	FR1	1	R1361C
1664.232	0.0	1665505	REC_END	n/a	n/a	n/a	-999	13	[0, 0, 0]	n/a	FR1	1	R1361C
1664.232	0.015	1665505	TRIAL_END	n/a	n/a	n/a	-999	13	[0, 0, 0]	n/a	FR1	1	R1361C
1664.247	0.0	1665520	TRIAL_START	n/a	n/a	n/a	-999	14	[0, 0, 0]	n/a	FR1	1	R1361C
1664.247	0.0	1665520	TRIAL	n/a	n/a	n/a	-999	14	[0, 0, 0]	n/a	FR1	1	R1361C
1664.247	2.111	1665520	WAITING_START	n/a	n/a	n/a	-999	14	[0, 0, 0]	n/a	FR1	1	R1361C
1666.358	0.001	1667631	WAITING_END	n/a	n/a	n/a	-999	14	[0, 0, 0]	n/a	FR1	1	R1361C
1666.359	10.428	1667632	COUNTDOWN_START	n/a	n/a	n/a	-999	14	[0, 0, 0]	n/a	FR1	1	R1361C
1676.787	0.001	1678060	COUNTDOWN_END	n/a	n/a	n/a	-999	14	[0, 0, 0]	n/a	FR1	1	R1361C
1676.788	1.156	1678061	ORIENT_START	n/a	n/a	n/a	-999	14	[0, 0, 0]	n/a	FR1	1	R1361C
1677.944	0.001	1679216	ORIENT_END	n/a	n/a	n/a	-999	14	[0, 0, 0]	n/a	FR1	1	R1361C
1677.945	0.913	1679217	ENCODING_START	n/a	n/a	n/a	-999	14	[0, 0, 0]	n/a	FR1	1	R1361C
1678.858	1.636	1680130	WORD	n/a	wordpools/wordpool_EN.txt	GOLD	1	14	[0, 0, 0]	n/a	FR1	1	R1361C
1680.494	0.884	1681766	WORD_OFF	n/a	n/a	GOLD	1	14	[0, 0, 0]	n/a	FR1	1	R1361C
1681.378	1.634	1682650	WORD	n/a	wordpools/wordpool_EN.txt	CANE	2	14	[0, 0, 0]	n/a	FR1	1	R1361C
1683.012	1.132	1684284	WORD_OFF	n/a	n/a	CANE	2	14	[0, 0, 0]	n/a	FR1	1	R1361C
1684.144	1.635	1685416	WORD	n/a	wordpools/wordpool_EN.txt	STONE	3	14	[0, 0, 0]	n/a	FR1	1	R1361C
1685.779	0.887	1687051	WORD_OFF	n/a	n/a	STONE	3	14	[0, 0, 0]	n/a	FR1	1	R1361C
1686.666	1.629	1687938	WORD	n/a	wordpools/wordpool_EN.txt	PET	4	14	[0, 0, 0]	n/a	FR1	1	R1361C
1688.295	0.902	1689567	WORD_OFF	n/a	n/a	PET	4	14	[0, 0, 0]	n/a	FR1	1	R1361C
1689.197	1.633	1690469	WORD	n/a	wordpools/wordpool_EN.txt	SAIL	5	14	[0, 0, 0]	n/a	FR1	1	R1361C
1690.83	0.77	1692102	WORD_OFF	n/a	n/a	SAIL	5	14	[0, 0, 0]	n/a	FR1	1	R1361C
1691.6	1.614	1692872	WORD	n/a	wordpools/wordpool_EN.txt	CROWN	6	14	[0, 0, 0]	n/a	FR1	1	R1361C
1693.214	0.949	1694486	WORD_OFF	n/a	n/a	CROWN	6	14	[0, 0, 0]	n/a	FR1	1	R1361C
1694.163	1.635	1695435	WORD	n/a	wordpools/wordpool_EN.txt	CUP	7	14	[0, 0, 0]	n/a	FR1	1	R1361C
1695.798	1.001	1697070	WORD_OFF	n/a	n/a	CUP	7	14	[0, 0, 0]	n/a	FR1	1	R1361C
1696.799	1.632	1698071	WORD	n/a	wordpools/wordpool_EN.txt	SHARK	8	14	[0, 0, 0]	n/a	FR1	1	R1361C
1698.431	1.053	1699702	WORD_OFF	n/a	n/a	SHARK	8	14	[0, 0, 0]	n/a	FR1	1	R1361C
1699.484	1.614	1700755	WORD	n/a	wordpools/wordpool_EN.txt	MULE	9	14	[0, 0, 0]	n/a	FR1	1	R1361C
1701.098	0.976	1702369	WORD_OFF	n/a	n/a	MULE	9	14	[0, 0, 0]	n/a	FR1	1	R1361C
1702.074	1.625	1703345	WORD	n/a	wordpools/wordpool_EN.txt	CLIFF	10	14	[0, 0, 0]	n/a	FR1	1	R1361C
1703.699	0.816	1704970	WORD_OFF	n/a	n/a	CLIFF	10	14	[0, 0, 0]	n/a	FR1	1	R1361C
1704.515	1.635	1705786	WORD	n/a	wordpools/wordpool_EN.txt	TRASH	11	14	[0, 0, 0]	n/a	FR1	1	R1361C
1706.15	0.774	1707421	WORD_OFF	n/a	n/a	TRASH	11	14	[0, 0, 0]	n/a	FR1	1	R1361C
1706.924	1.625	1708195	WORD	n/a	wordpools/wordpool_EN.txt	STEAM	12	14	[0, 0, 0]	n/a	FR1	1	R1361C
1708.549	0.001	1709820	WORD_OFF	n/a	n/a	STEAM	12	14	[0, 0, 0]	n/a	FR1	1	R1361C
1708.55	0.0	1709821	ENCODING_END	n/a	n/a	n/a	-999	14	[0, 0, 0]	n/a	FR1	1	R1361C
1708.55	0.0	1709821	DISTRACT_START	n/a	n/a	n/a	-999	14	[0, 0, 0]	n/a	FR1	1	R1361C
1708.55	0.015	1709821	START	n/a	n/a	n/a	-999	14	[-999, -999, -999]	n/a	FR1	1	R1361C
1708.565	6.802	1709836	PROB	6.802	n/a	n/a	-999	14	[7, 2, 5]	14	FR1	1	R1361C
1715.367	5.418	1716638	PROB	5.418	n/a	n/a	-999	14	[4, 9, 8]	21	FR1	1	R1361C
1720.785	3.483	1722055	PROB	3.483	n/a	n/a	-999	14	[5, 3, 2]	10	FR1	1	R1361C
1724.268	3.969	1725538	PROB	3.969	n/a	n/a	-999	14	[2, 2, 6]	10	FR1	1	R1361C
1728.237	4.873	1729507	PROB	4.873	n/a	n/a	-999	14	[8, 6, 8]	22	FR1	1	R1361C
1733.11	0.011	1734380	STOP	n/a	n/a	n/a	-999	14	[-999, -999, -999]	n/a	FR1	1	R1361C
1733.121	0.615	1734391	DISTRACT_END	n/a	n/a	n/a	-999	14	[0, 0, 0]	n/a	FR1	1	R1361C
1733.736	1.535	1735006	RETRIEVAL_ORIENT_START	n/a	n/a	n/a	-999	14	[0, 0, 0]	n/a	FR1	1	R1361C
1735.271	0.0	1736541	RETRIEVAL_ORIENT_END	n/a	n/a	n/a	-999	14	[0, 0, 0]	n/a	FR1	1	R1361C
1735.271	0.834	1736541	REC_START	n/a	n/a	n/a	-999	14	[0, 0, 0]	n/a	FR1	1	R1361C
1736.105	0.68	1737375	REC_WORD	0.68	n/a	GOLD	1	14	[0, 0, 0]	n/a	FR1	1	R1361C
1736.785	0.738	1738055	REC_WORD	0.738	n/a	CANE	2	14	[0, 0, 0]	n/a	FR1	1	R1361C
1737.523	0.712	1738793	REC_WORD	0.712	n/a	PET	4	14	[0, 0, 0]	n/a	FR1	1	R1361C
1738.235	27.048	1739505	REC_WORD	27.048	n/a	MULE	9	14	[0, 0, 0]	n/a	FR1	1	R1361C
1765.283	0.0	1766551	REC_END	n/a	n/a	n/a	-999	14	[0, 0, 0]	n/a	FR1	1	R1361C
1765.283	0.015	1766551	TRIAL_END	n/a	n/a	n/a	-999	14	[0, 0, 0]	n/a	FR1	1	R1361C
1765.298	0.0	1766566	TRIAL_START	n/a	n/a	n/a	-999	15	[0, 0, 0]	n/a	FR1	1	R1361C
1765.298	0.0	1766566	TRIAL	n/a	n/a	n/a	-999	15	[0, 0, 0]	n/a	FR1	1	R1361C
1765.298	2.246	1766566	WAITING_START	n/a	n/a	n/a	-999	15	[0, 0, 0]	n/a	FR1	1	R1361C
1767.544	0.0	1768812	WAITING_END	n/a	n/a	n/a	-999	15	[0, 0, 0]	n/a	FR1	1	R1361C
1767.544	10.429	1768812	COUNTDOWN_START	n/a	n/a	n/a	-999	15	[0, 0, 0]	n/a	FR1	1	R1361C
1777.973	0.0	1779241	COUNTDOWN_END	n/a	n/a	n/a	-999	15	[0, 0, 0]	n/a	FR1	1	R1361C
1777.973	1.107	1779241	ORIENT_START	n/a	n/a	n/a	-999	15	[0, 0, 0]	n/a	FR1	1	R1361C
1779.08	0.0	1780348	ENCODING_START	n/a	n/a	n/a	-999	15	[0, 0, 0]	n/a	FR1	1	R1361C
1779.08	0.975	1780348	ORIENT_END	n/a	n/a	n/a	-999	15	[0, 0, 0]	n/a	FR1	1	R1361C
1780.055	1.625	1781323	WORD	n/a	wordpools/wordpool_EN.txt	SWORD	1	15	[0, 0, 0]	n/a	FR1	1	R1361C
1781.68	0.785	1782948	WORD_OFF	n/a	n/a	SWORD	1	15	[0, 0, 0]	n/a	FR1	1	R1361C
1782.465	1.633	1783732	WORD	n/a	wordpools/wordpool_EN.txt	HAND	2	15	[0, 0, 0]	n/a	FR1	1	R1361C
1784.098	0.886	1785365	WORD_OFF	n/a	n/a	HAND	2	15	[0, 0, 0]	n/a	FR1	1	R1361C
1784.984	1.63	1786251	WORD	n/a	wordpools/wordpool_EN.txt	HEART	3	15	[0, 0, 0]	n/a	FR1	1	R1361C
1786.614	1.101	1787881	WORD_OFF	n/a	n/a	HEART	3	15	[0, 0, 0]	n/a	FR1	1	R1361C
1787.715	1.633	1788982	WORD	n/a	wordpools/wordpool_EN.txt	OWL	4	15	[0, 0, 0]	n/a	FR1	1	R1361C
1789.348	0.941	1790615	WORD_OFF	n/a	n/a	OWL	4	15	[0, 0, 0]	n/a	FR1	1	R1361C
1790.289	1.627	1791556	WORD	n/a	wordpools/wordpool_EN.txt	BOX	5	15	[0, 0, 0]	n/a	FR1	1	R1361C
1791.916	1.141	1793183	WORD_OFF	n/a	n/a	BOX	5	15	[0, 0, 0]	n/a	FR1	1	R1361C
1793.057	1.625	1794324	WORD	n/a	wordpools/wordpool_EN.txt	DRESS	6	15	[0, 0, 0]	n/a	FR1	1	R1361C
1794.682	0.914	1795949	WORD_OFF	n/a	n/a	DRESS	6	15	[0, 0, 0]	n/a	FR1	1	R1361C
1795.596	1.62	1796863	WORD	n/a	wordpools/wordpool_EN.txt	SUIT	7	15	[0, 0, 0]	n/a	FR1	1	R1361C
1797.216	0.967	1798483	WORD_OFF	n/a	n/a	SUIT	7	15	[0, 0, 0]	n/a	FR1	1	R1361C
1798.183	1.634	1799450	WORD	n/a	wordpools/wordpool_EN.txt	THREAD	8	15	[0, 0, 0]	n/a	FR1	1	R1361C
1799.817	0.976	1801084	WORD_OFF	n/a	n/a	THREAD	8	15	[0, 0, 0]	n/a	FR1	1	R1361C
1800.793	1.624	1802060	WORD	n/a	wordpools/wordpool_EN.txt	CORN	9	15	[0, 0, 0]	n/a	FR1	1	R1361C
1802.417	1.079	1803684	WORD_OFF	n/a	n/a	CORN	9	15	[0, 0, 0]	n/a	FR1	1	R1361C
1803.496	1.639	1804762	WORD	n/a	wordpools/wordpool_EN.txt	SHRIMP	10	15	[0, 0, 0]	n/a	FR1	1	R1361C
1805.135	0.866	1806401	WORD_OFF	n/a	n/a	SHRIMP	10	15	[0, 0, 0]	n/a	FR1	1	R1361C
1806.001	1.633	1807267	WORD	n/a	wordpools/wordpool_EN.txt	FARM	11	15	[0, 0, 0]	n/a	FR1	1	R1361C
1807.634	0.815	1808900	WORD_OFF	n/a	n/a	FARM	11	15	[0, 0, 0]	n/a	FR1	1	R1361C
1808.449	1.637	1809715	WORD	n/a	wordpools/wordpool_EN.txt	RAKE	12	15	[0, 0, 0]	n/a	FR1	1	R1361C
1810.086	0.0	1811352	ENCODING_END	n/a	n/a	n/a	-999	15	[0, 0, 0]	n/a	FR1	1	R1361C
1810.086	0.001	1811352	WORD_OFF	n/a	n/a	RAKE	12	15	[0, 0, 0]	n/a	FR1	1	R1361C
1810.087	0.0	1811353	DISTRACT_START	n/a	n/a	n/a	-999	15	[0, 0, 0]	n/a	FR1	1	R1361C
1810.087	0.015	1811353	START	n/a	n/a	n/a	-999	15	[-999, -999, -999]	n/a	FR1	1	R1361C
1810.102	6.217	1811368	PROB	6.217	n/a	n/a	-999	15	[8, 8, 7]	23	FR1	1	R1361C
1816.319	4.168	1817585	PROB	4.168	n/a	n/a	-999	15	[2, 6, 8]	16	FR1	1	R1361C
1820.487	3.334	1821753	PROB	3.334	n/a	n/a	-999	15	[4, 4, 9]	17	FR1	1	R1361C
1823.821	4.368	1825086	PROB	4.368	n/a	n/a	-999	15	[3, 4, 6]	13	FR1	1	R1361C
1828.189	2.874	1829454	PROB	2.874	n/a	n/a	-999	15	[5, 5, 3]	13	FR1	1	R1361C
1831.063	0.01	1832328	STOP	n/a	n/a	n/a	-999	15	[-999, -999, -999]	n/a	FR1	1	R1361C
1831.073	0.525	1832338	DISTRACT_END	n/a	n/a	n/a	-999	15	[0, 0, 0]	n/a	FR1	1	R1361C
1831.598	1.609	1832863	RETRIEVAL_ORIENT_START	n/a	n/a	n/a	-999	15	[0, 0, 0]	n/a	FR1	1	R1361C
1833.207	0.0	1834472	RETRIEVAL_ORIENT_END	n/a	n/a	n/a	-999	15	[0, 0, 0]	n/a	FR1	1	R1361C
1833.207	0.875	1834472	REC_START	n/a	n/a	n/a	-999	15	[0, 0, 0]	n/a	FR1	1	R1361C
1834.082	1.114	1835347	REC_WORD	1.114	n/a	SWORD	1	15	[0, 0, 0]	n/a	FR1	1	R1361C
1835.196	1.902	1836461	REC_WORD	1.902	n/a	HAND	2	15	[0, 0, 0]	n/a	FR1	1	R1361C
1837.098	0.875	1838363	REC_WORD	0.875	n/a	OWL	4	15	[0, 0, 0]	n/a	FR1	1	R1361C
1837.973	2.006	1839238	REC_WORD	2.006	n/a	THREAD	8	15	[0, 0, 0]	n/a	FR1	1	R1361C
1839.979	23.241	1841244	REC_WORD	23.241	n/a	SHRIMP	10	15	[0, 0, 0]	n/a	FR1	1	R1361C
1863.22	0.0	1864484	TRIAL_END	n/a	n/a	n/a	-999	15	[0, 0, 0]	n/a	FR1	1	R1361C
1863.22	0.017	1864484	REC_END	n/a	n/a	n/a	-999	15	[0, 0, 0]	n/a	FR1	1	R1361C
1863.237	0.0	1864501	TRIAL_START	n/a	n/a	n/a	-999	16	[0, 0, 0]	n/a	FR1	1	R1361C
1863.237	0.0	1864501	TRIAL	n/a	n/a	n/a	-999	16	[0, 0, 0]	n/a	FR1	1	R1361C
1863.237	6.877	1864501	WAITING_START	n/a	n/a	n/a	-999	16	[0, 0, 0]	n/a	FR1	1	R1361C
1870.114	0.0	1871377	WAITING_END	n/a	n/a	n/a	-999	16	[0, 0, 0]	n/a	FR1	1	R1361C
1870.114	10.429	1871377	COUNTDOWN_START	n/a	n/a	n/a	-999	16	[0, 0, 0]	n/a	FR1	1	R1361C
1880.543	0.0	1881806	COUNTDOWN_END	n/a	n/a	n/a	-999	16	[0, 0, 0]	n/a	FR1	1	R1361C
1880.543	1.24	1881806	ORIENT_START	n/a	n/a	n/a	-999	16	[0, 0, 0]	n/a	FR1	1	R1361C
1881.783	0.0	1883046	ORIENT_END	n/a	n/a	n/a	-999	16	[0, 0, 0]	n/a	FR1	1	R1361C
1881.783	0.767	1883046	ENCODING_START	n/a	n/a	n/a	-999	16	[0, 0, 0]	n/a	FR1	1	R1361C
1882.55	1.633	1883813	WORD	n/a	wordpools/wordpool_EN.txt	SUN	1	16	[0, 0, 0]	n/a	FR1	1	R1361C
1884.183	0.78	1885446	WORD_OFF	n/a	n/a	SUN	1	16	[0, 0, 0]	n/a	FR1	1	R1361C
1884.963	1.636	1886226	WORD	n/a	wordpools/wordpool_EN.txt	JAIL	2	16	[0, 0, 0]	n/a	FR1	1	R1361C
1886.599	1.121	1887861	WORD_OFF	n/a	n/a	JAIL	2	16	[0, 0, 0]	n/a	FR1	1	R1361C
1887.72	1.63	1888982	WORD	n/a	wordpools/wordpool_EN.txt	BRICK	3	16	[0, 0, 0]	n/a	FR1	1	R1361C
1889.35	1.144	1890612	WORD_OFF	n/a	n/a	BRICK	3	16	[0, 0, 0]	n/a	FR1	1	R1361C
1890.494	1.624	1891756	WORD	n/a	wordpools/wordpool_EN.txt	TEETH	4	16	[0, 0, 0]	n/a	FR1	1	R1361C
1892.118	1.011	1893380	WORD_OFF	n/a	n/a	TEETH	4	16	[0, 0, 0]	n/a	FR1	1	R1361C
1893.129	1.623	1894391	WORD	n/a	wordpools/wordpool_EN.txt	CHIN	5	16	[0, 0, 0]	n/a	FR1	1	R1361C
1894.752	1.1	1896014	WORD_OFF	n/a	n/a	CHIN	5	16	[0, 0, 0]	n/a	FR1	1	R1361C
1895.852	1.633	1897114	WORD	n/a	wordpools/wordpool_EN.txt	WORLD	6	16	[0, 0, 0]	n/a	FR1	1	R1361C
1897.485	0.926	1898747	WORD_OFF	n/a	n/a	WORLD	6	16	[0, 0, 0]	n/a	FR1	1	R1361C
1898.411	1.625	1899673	WORD	n/a	wordpools/wordpool_EN.txt	BAND	7	16	[0, 0, 0]	n/a	FR1	1	R1361C
1900.036	0.811	1901298	WORD_OFF	n/a	n/a	BAND	7	16	[0, 0, 0]	n/a	FR1	1	R1361C
1900.847	1.622	1902109	WORD	n/a	wordpools/wordpool_EN.txt	BEE	8	16	[0, 0, 0]	n/a	FR1	1	R1361C
1902.469	0.838	1903731	WORD_OFF	n/a	n/a	BEE	8	16	[0, 0, 0]	n/a	FR1	1	R1361C
1903.307	1.63	1904569	WORD	n/a	wordpools/wordpool_EN.txt	STOVE	9	16	[0, 0, 0]	n/a	FR1	1	R1361C
1904.937	1.082	1906199	WORD_OFF	n/a	n/a	STOVE	9	16	[0, 0, 0]	n/a	FR1	1	R1361C
1906.019	1.634	1907281	WORD	n/a	wordpools/wordpool_EN.txt	CASH	10	16	[0, 0, 0]	n/a	FR1	1	R1361C
1907.653	1.015	1908914	WORD_OFF	n/a	n/a	CASH	10	16	[0, 0, 0]	n/a	FR1	1	R1361C
1908.668	1.636	1909929	WORD	n/a	wordpools/wordpool_EN.txt	TEA	11	16	[0, 0, 0]	n/a	FR1	1	R1361C
1910.304	1.119	1911565	WORD_OFF	n/a	n/a	TEA	11	16	[0, 0, 0]	n/a	FR1	1	R1361C
1911.423	1.632	1912684	WORD	n/a	wordpools/wordpool_EN.txt	STOOL	12	16	[0, 0, 0]	n/a	FR1	1	R1361C
1913.055	0.001	1914316	WORD_OFF	n/a	n/a	STOOL	12	16	[0, 0, 0]	n/a	FR1	1	R1361C
1913.056	0.0	1914317	DISTRACT_START	n/a	n/a	n/a	-999	16	[0, 0, 0]	n/a	FR1	1	R1361C
1913.056	0.0	1914317	ENCODING_END	n/a	n/a	n/a	-999	16	[0, 0, 0]	n/a	FR1	1	R1361C
1913.056	0.016	1914317	START	n/a	n/a	n/a	-999	16	[-999, -999, -999]	n/a	FR1	1	R1361C
1913.072	4.634	1914333	PROB	4.634	n/a	n/a	-999	16	[9, 3, 9]	21	FR1	1	R1361C
1917.706	3.933	1918967	PROB	3.933	n/a	n/a	-999	16	[8, 1, 5]	13	FR1	1	R1361C
1921.639	3.468	1922900	PROB	3.468	n/a	n/a	-999	16	[4, 6, 9]	19	FR1	1	R1361C
1925.107	3.217	1926368	PROB	3.217	n/a	n/a	-999	16	[2, 9, 9]	20	FR1	1	R1361C
1928.324	3.701	1929584	PROB	3.701	n/a	n/a	-999	16	[8, 9, 3]	20	FR1	1	R1361C
1932.025	4.654	1933285	PROB	4.654	n/a	n/a	-999	16	[2, 6, 8]	16	FR1	1	R1361C
1936.679	0.013	1937939	STOP	n/a	n/a	n/a	-999	16	[-999, -999, -999]	n/a	FR1	1	R1361C
1936.692	0.606	1937952	DISTRACT_END	n/a	n/a	n/a	-999	16	[0, 0, 0]	n/a	FR1	1	R1361C
1937.298	1.678	1938558	RETRIEVAL_ORIENT_START	n/a	n/a	n/a	-999	16	[0, 0, 0]	n/a	FR1	1	R1361C
1938.976	0.001	1940236	RETRIEVAL_ORIENT_END	n/a	n/a	n/a	-999	16	[0, 0, 0]	n/a	FR1	1	R1361C
1938.977	1.021	1940237	REC_START	n/a	n/a	n/a	-999	16	[0, 0, 0]	n/a	FR1	1	R1361C
1939.998	1.03	1941258	REC_WORD	1.03	n/a	STOVE	9	16	[0, 0, 0]	n/a	FR1	1	R1361C
1941.028	0.809	1942288	REC_WORD	0.809	n/a	JAIL	2	16	[0, 0, 0]	n/a	FR1	1	R1361C
1941.837	0.755	1943097	REC_WORD	0.755	n/a	BRICK	3	16	[0, 0, 0]	n/a	FR1	1	R1361C
1942.592	26.397	1943852	REC_WORD	26.397	n/a	CASH	10	16	[0, 0, 0]	n/a	FR1	1	R1361C
1968.989	0.0	1970248	REC_END	n/a	n/a	n/a	-999	16	[0, 0, 0]	n/a	FR1	1	R1361C
1968.989	0.015	1970248	TRIAL_END	n/a	n/a	n/a	-999	16	[0, 0, 0]	n/a	FR1	1	R1361C
1969.004	0.0	1970263	TRIAL	n/a	n/a	n/a	-999	17	[0, 0, 0]	n/a	FR1	1	R1361C
1969.004	0.001	1970263	TRIAL_START	n/a	n/a	n/a	-999	17	[0, 0, 0]	n/a	FR1	1	R1361C
1969.005	0.0	1970264	WAITING_START	n/a	n/a	n/a	-999	17	[0, 0, 0]	n/a	FR1	1	R1361C
