onset	duration	sample	trial_type	response_time	stim_file	item_name	serialpos	list	test	answer	experiment	session	subject
0.0	13.527	280335	SESS_START	n/a	n/a	n/a	-999	-999	[0, 0, 0]	n/a	FR1	1	R1002P
13.527	10.428	287098	COUNTDOWN_START	n/a	n/a	n/a	-999	-999	[0, 0, 0]	n/a	FR1	1	R1002P
23.955	3.658	292311	COUNTDOWN_END	n/a	n/a	n/a	-999	-999	[0, 0, 0]	n/a	FR1	1	R1002P
27.613	2.417	294140	PRACTICE_WORD	n/a	n/a	WAGON	1	-1	[0, 0, 0]	n/a	FR1	1	R1002P
30.03	2.568	295349	PRACTICE_WORD	n/a	n/a	IRON	2	-1	[0, 0, 0]	n/a	FR1	1	R1002P
32.598	2.566	296633	PRACTICE_WORD	n/a	n/a	ATTIC	3	-1	[0, 0, 0]	n/a	FR1	1	R1002P
35.164	2.402	297916	PRACTICE_WORD	n/a	n/a	FLOOD	4	-1	[0, 0, 0]	n/a	FR1	1	R1002P
37.566	2.599	299117	PRACTICE_WORD	n/a	n/a	WATCH	5	-1	[0, 0, 0]	n/a	FR1	1	R1002P
40.165	2.418	300416	PRACTICE_WORD	n/a	n/a	COTTON	6	-1	[0, 0, 0]	n/a	FR1	1	R1002P
42.583	2.4	301625	PRACTICE_WORD	n/a	n/a	CAMEL	7	-1	[0, 0, 0]	n/a	FR1	1	R1002P
44.983	2.585	302825	PRACTICE_WORD	n/a	n/a	CHEST	8	-1	[0, 0, 0]	n/a	FR1	1	R1002P
47.568	2.616	304117	PRACTICE_WORD	n/a	n/a	RING	9	-1	[0, 0, 0]	n/a	FR1	1	R1002P
50.184	2.467	305425	PRACTICE_WORD	n/a	n/a	BEAM	10	-1	[0, 0, 0]	n/a	FR1	1	R1002P
52.651	2.434	306659	PRACTICE_WORD	n/a	n/a	TONGUE	11	-1	[0, 0, 0]	n/a	FR1	1	R1002P
55.085	1.617	307876	PRACTICE_WORD	n/a	n/a	RHINO	12	-1	[0, 0, 0]	n/a	FR1	1	R1002P
56.702	0.0	308684	PRACTICE_DISTRACT_START	n/a	n/a	n/a	-999	-1	[0, 0, 0]	n/a	FR1	1	R1002P
56.702	0.016	308684	START	n/a	n/a	n/a	-999	-1	[-999, -999, -999]	n/a	FR1	1	R1002P
56.718	5.068	308692	PROB	5.068	n/a	n/a	-999	-1	[6, 8, 6]	20	FR1	1	R1002P
61.786	5.051	311226	PROB	5.051	n/a	n/a	-999	-1	[1, 8, 6]	15	FR1	1	R1002P
66.837	4.051	313751	PROB	4.051	n/a	n/a	-999	-1	[1, 4, 7]	12	FR1	1	R1002P
70.888	3.133	315777	PROB	3.133	n/a	n/a	-999	-1	[3, 2, 2]	7	FR1	1	R1002P
74.021	4.34	317343	PROB	4.34	n/a	n/a	-999	-1	[6, 1, 3]	10	FR1	1	R1002P
78.361	0.011	319513	STOP	n/a	n/a	n/a	-999	-1	[-999, -999, -999]	n/a	FR1	1	R1002P
78.372	0.536	319518	PRACTICE_DISTRACT_END	n/a	n/a	n/a	-999	-1	[0, 0, 0]	n/a	FR1	1	R1002P
78.908	30.515	319786	PRACTICE_REC_START	n/a	n/a	n/a	-999	-1	[0, 0, 0]	n/a	FR1	1	R1002P
109.423	16.792	335043	PRACTICE_REC_END	n/a	n/a	n/a	-999	-1	[0, 0, 0]	n/a	FR1	1	R1002P
126.215	0.0	343439	COUNTDOWN_START	n/a	n/a	n/a	-999	1	[0, 0, 0]	n/a	FR1	1	R1002P
126.215	10.428	343439	TRIAL	n/a	n/a	n/a	-999	1	[0, 0, 0]	n/a	FR1	1	R1002P
136.643	0.007	348652	COUNTDOWN_END	n/a	n/a	n/a	-999	1	[0, 0, 0]	n/a	FR1	1	R1002P
136.65	2.567	348656	ORIENT	n/a	n/a	n/a	-999	1	[0, 0, 0]	n/a	FR1	1	R1002P
139.217	2.551	349939	WORD	n/a	wordpools/wordpool_EN.txt	JEEP	1	1	[0, 0, 0]	n/a	FR1	1	R1002P
141.768	2.5	351215	WORD	n/a	wordpools/wordpool_EN.txt	DITCH	2	1	[0, 0, 0]	n/a	FR1	1	R1002P
144.268	2.584	352465	WORD	n/a	wordpools/wordpool_EN.txt	JAIL	3	1	[0, 0, 0]	n/a	FR1	1	R1002P
146.852	2.55	353757	WORD	n/a	wordpools/wordpool_EN.txt	NAIL	4	1	[0, 0, 0]	n/a	FR1	1	R1002P
149.402	2.384	355032	WORD	n/a	wordpools/wordpool_EN.txt	LOCK	5	1	[0, 0, 0]	n/a	FR1	1	R1002P
151.786	2.534	356223	WORD	n/a	wordpools/wordpool_EN.txt	PHONE	6	1	[0, 0, 0]	n/a	FR1	1	R1002P
154.32	2.434	357490	WORD	n/a	wordpools/wordpool_EN.txt	HOOF	7	1	[0, 0, 0]	n/a	FR1	1	R1002P
156.754	2.484	358707	WORD	n/a	wordpools/wordpool_EN.txt	WING	8	1	[0, 0, 0]	n/a	FR1	1	R1002P
159.238	2.533	359949	WORD	n/a	wordpools/wordpool_EN.txt	CAGE	9	1	[0, 0, 0]	n/a	FR1	1	R1002P
161.771	2.518	361216	WORD	n/a	wordpools/wordpool_EN.txt	FLAME	10	1	[0, 0, 0]	n/a	FR1	1	R1002P
164.289	2.4	362475	WORD	n/a	wordpools/wordpool_EN.txt	PIN	11	1	[0, 0, 0]	n/a	FR1	1	R1002P
166.689	1.617	363675	WORD	n/a	wordpools/wordpool_EN.txt	HORN	12	1	[0, 0, 0]	n/a	FR1	1	R1002P
168.306	0.001	364483	DISTRACT_START	n/a	n/a	n/a	-999	1	[0, 0, 0]	n/a	FR1	1	R1002P
168.307	0.016	364483	START	n/a	n/a	n/a	-999	1	[-999, -999, -999]	n/a	FR1	1	R1002P
168.323	10.302	364491	PROB	10.302	n/a	n/a	-999	1	[7, 6, 1]	14	FR1	1	R1002P
178.625	4.817	369642	PROB	4.817	n/a	n/a	-999	1	[4, 7, 9]	20	FR1	1	R1002P
183.442	4.651	372051	PROB	4.651	n/a	n/a	-999	1	[6, 2, 3]	11	FR1	1	R1002P
188.093	3.397	374376	PROB	3.397	n/a	n/a	-999	1	[3, 3, 4]	10	FR1	1	R1002P
191.49	0.003	376074	STOP	n/a	n/a	n/a	-999	1	[-999, -999, -999]	n/a	FR1	1	R1002P
191.493	1.168	376076	DISTRACT_END	n/a	n/a	n/a	-999	1	[0, 0, 0]	n/a	FR1	1	R1002P
192.661	1.391	376660	REC_START	n/a	n/a	n/a	-999	1	[0, 0, 0]	n/a	FR1	1	R1002P
194.052	1.082	377355	REC_WORD	1.082	n/a	JEEP	-999	1	[0, 0, 0]	n/a	FR1	1	R1002P
195.134	1.289	377896	REC_WORD	1.289	n/a	DITCH	-999	1	[0, 0, 0]	n/a	FR1	1	R1002P
196.423	1.451	378541	REC_WORD	1.451	n/a	JAIL	-999	1	[0, 0, 0]	n/a	FR1	1	R1002P
197.874	1.974	379266	REC_WORD	1.974	n/a	NAIL	-999	1	[0, 0, 0]	n/a	FR1	1	R1002P
199.848	1.61	380253	REC_WORD	1.61	n/a	PIN	-999	1	[0, 0, 0]	n/a	FR1	1	R1002P
201.458	13.777	381058	REC_WORD	13.777	n/a	FLAME	-999	1	[0, 0, 0]	n/a	FR1	1	R1002P
215.235	7.439	387946	REC_WORD	7.439	n/a	CAGE	-999	1	[0, 0, 0]	n/a	FR1	1	R1002P
222.674	2.976	391665	REC_END	n/a	n/a	n/a	-999	1	[0, 0, 0]	n/a	FR1	1	R1002P
225.65	0.0	393153	TRIAL	n/a	n/a	n/a	-999	2	[0, 0, 0]	n/a	FR1	1	R1002P
225.65	10.428	393153	COUNTDOWN_START	n/a	n/a	n/a	-999	2	[0, 0, 0]	n/a	FR1	1	R1002P
236.078	0.007	398367	COUNTDOWN_END	n/a	n/a	n/a	-999	2	[0, 0, 0]	n/a	FR1	1	R1002P
236.085	2.535	398371	ORIENT	n/a	n/a	n/a	-999	2	[0, 0, 0]	n/a	FR1	1	R1002P
238.62	2.55	399638	WORD	n/a	wordpools/wordpool_EN.txt	STOVE	1	2	[0, 0, 0]	n/a	FR1	1	R1002P
241.17	2.517	400913	WORD	n/a	wordpools/wordpool_EN.txt	CALF	2	2	[0, 0, 0]	n/a	FR1	1	R1002P
243.687	2.4	402171	WORD	n/a	wordpools/wordpool_EN.txt	MUG	3	2	[0, 0, 0]	n/a	FR1	1	R1002P
246.087	2.468	403371	WORD	n/a	wordpools/wordpool_EN.txt	APE	4	2	[0, 0, 0]	n/a	FR1	1	R1002P
248.555	2.617	404605	WORD	n/a	wordpools/wordpool_EN.txt	FOX	5	2	[0, 0, 0]	n/a	FR1	1	R1002P
251.172	2.6	405914	WORD	n/a	wordpools/wordpool_EN.txt	WOLF	6	2	[0, 0, 0]	n/a	FR1	1	R1002P
253.772	2.584	407214	WORD	n/a	wordpools/wordpool_EN.txt	HOOK	7	2	[0, 0, 0]	n/a	FR1	1	R1002P
256.356	2.484	408506	WORD	n/a	wordpools/wordpool_EN.txt	BARN	8	2	[0, 0, 0]	n/a	FR1	1	R1002P
258.84	2.434	409747	WORD	n/a	wordpools/wordpool_EN.txt	NOSE	9	2	[0, 0, 0]	n/a	FR1	1	R1002P
261.274	2.45	410964	WORD	n/a	wordpools/wordpool_EN.txt	HEN	10	2	[0, 0, 0]	n/a	FR1	1	R1002P
263.724	2.434	412189	WORD	n/a	wordpools/wordpool_EN.txt	FARM	11	2	[0, 0, 0]	n/a	FR1	1	R1002P
266.158	1.617	413406	WORD	n/a	wordpools/wordpool_EN.txt	FORK	12	2	[0, 0, 0]	n/a	FR1	1	R1002P
267.775	0.001	414215	DISTRACT_START	n/a	n/a	n/a	-999	2	[0, 0, 0]	n/a	FR1	1	R1002P
267.776	0.015	414215	START	n/a	n/a	n/a	-999	2	[-999, -999, -999]	n/a	FR1	1	R1002P
267.791	4.451	414223	PROB	4.451	n/a	n/a	-999	2	[3, 2, 6]	15	FR1	1	R1002P
272.242	3.851	416448	PROB	3.851	n/a	n/a	-999	2	[6, 4, 8]	18	FR1	1	R1002P
276.093	6.218	418373	PROB	6.218	n/a	n/a	-999	2	[3, 8, 3]	14	FR1	1	R1002P
282.311	5.318	421482	PROB	5.318	n/a	n/a	-999	2	[7, 5, 6]	18	FR1	1	R1002P
287.629	2.668	424141	PROB	2.668	n/a	n/a	-999	2	[5, 1, 1]	7	FR1	1	R1002P
290.297	0.015	425475	STOP	n/a	n/a	n/a	-999	2	[-999, -999, -999]	n/a	FR1	1	R1002P
290.312	1.134	425483	DISTRACT_END	n/a	n/a	n/a	-999	2	[0, 0, 0]	n/a	FR1	1	R1002P
291.446	1.251	426050	REC_START	n/a	n/a	n/a	-999	2	[0, 0, 0]	n/a	FR1	1	R1002P
292.697	1.318	426675	REC_WORD	1.318	n/a	APE	-999	2	[0, 0, 0]	n/a	FR1	1	R1002P
294.015	2.195	427334	REC_WORD	2.195	n/a	HEN	-999	2	[0, 0, 0]	n/a	FR1	1	R1002P
296.21	1.82	428431	REC_WORD	1.82	n/a	CALF	-999	2	[0, 0, 0]	n/a	FR1	1	R1002P
298.03	1.845	429341	REC_WORD	1.845	n/a	BARN	-999	2	[0, 0, 0]	n/a	FR1	1	R1002P
299.875	1.284	430264	REC_WORD	1.284	n/a	FARM	-999	2	[0, 0, 0]	n/a	FR1	1	R1002P
301.159	20.301	430906	REC_WORD	20.301	n/a	STOVE	-999	2	[0, 0, 0]	n/a	FR1	1	R1002P
321.46	2.409	441056	REC_END	n/a	n/a	n/a	-999	2	[0, 0, 0]	n/a	FR1	1	R1002P
323.869	0.0	442260	TRIAL	n/a	n/a	n/a	-999	3	[0, 0, 0]	n/a	FR1	1	R1002P
323.869	10.428	442260	COUNTDOWN_START	n/a	n/a	n/a	-999	3	[0, 0, 0]	n/a	FR1	1	R1002P
334.297	0.007	447474	COUNTDOWN_END	n/a	n/a	n/a	-999	3	[0, 0, 0]	n/a	FR1	1	R1002P
334.304	2.517	447477	ORIENT	n/a	n/a	n/a	-999	3	[0, 0, 0]	n/a	FR1	1	R1002P
336.821	2.434	448736	WORD	n/a	wordpools/wordpool_EN.txt	HOSE	1	3	[0, 0, 0]	n/a	FR1	1	R1002P
339.255	2.45	449953	WORD	n/a	wordpools/wordpool_EN.txt	SOAP	2	3	[0, 0, 0]	n/a	FR1	1	R1002P
341.705	2.451	451178	WORD	n/a	wordpools/wordpool_EN.txt	MAIL	3	3	[0, 0, 0]	n/a	FR1	1	R1002P
344.156	2.451	452403	WORD	n/a	wordpools/wordpool_EN.txt	SLUSH	4	3	[0, 0, 0]	n/a	FR1	1	R1002P
346.607	2.6	453629	WORD	n/a	wordpools/wordpool_EN.txt	FOAM	5	3	[0, 0, 0]	n/a	FR1	1	R1002P
349.207	2.401	454928	WORD	n/a	wordpools/wordpool_EN.txt	STORE	6	3	[0, 0, 0]	n/a	FR1	1	R1002P
351.608	2.416	456129	WORD	n/a	wordpools/wordpool_EN.txt	GRAPE	7	3	[0, 0, 0]	n/a	FR1	1	R1002P
354.024	2.434	457337	WORD	n/a	wordpools/wordpool_EN.txt	JUICE	8	3	[0, 0, 0]	n/a	FR1	1	R1002P
356.458	2.4	458554	WORD	n/a	wordpools/wordpool_EN.txt	RICE	9	3	[0, 0, 0]	n/a	FR1	1	R1002P
358.858	2.468	459754	WORD	n/a	wordpools/wordpool_EN.txt	BANK	10	3	[0, 0, 0]	n/a	FR1	1	R1002P
361.326	2.5	460988	WORD	n/a	wordpools/wordpool_EN.txt	FOOD	11	3	[0, 0, 0]	n/a	FR1	1	R1002P
363.826	1.617	462238	WORD	n/a	wordpools/wordpool_EN.txt	MULE	12	3	[0, 0, 0]	n/a	FR1	1	R1002P
365.443	0.001	463046	DISTRACT_START	n/a	n/a	n/a	-999	3	[0, 0, 0]	n/a	FR1	1	R1002P
365.444	0.016	463047	START	n/a	n/a	n/a	-999	3	[-999, -999, -999]	n/a	FR1	1	R1002P
365.46	4.534	463055	PROB	4.534	n/a	n/a	-999	3	[2, 5, 2]	9	FR1	1	R1002P
369.994	3.901	465321	PROB	3.901	n/a	n/a	-999	3	[8, 1, 4]	13	FR1	1	R1002P
373.895	6.301	467272	PROB	6.301	n/a	n/a	-999	3	[9, 4, 4]	17	FR1	1	R1002P
380.196	6.125	470422	PROB	6.125	n/a	n/a	-999	3	[9, 8, 3]	20	FR1	1	R1002P
386.321	0.009	473484	STOP	n/a	n/a	n/a	-999	3	[-999, -999, -999]	n/a	FR1	1	R1002P
386.33	1.219	473489	DISTRACT_END	n/a	n/a	n/a	-999	3	[0, 0, 0]	n/a	FR1	1	R1002P
387.549	3.134	474098	REC_START	n/a	n/a	n/a	-999	3	[0, 0, 0]	n/a	FR1	1	R1002P
390.683	1.536	475665	REC_WORD	1.536	n/a	SLUSH	-999	3	[0, 0, 0]	n/a	FR1	1	R1002P
392.219	1.906	476433	REC_WORD	1.906	n/a	HOSE	-999	3	[0, 0, 0]	n/a	FR1	1	R1002P
394.125	2.78	477386	REC_WORD	2.78	n/a	SOAP	-999	3	[0, 0, 0]	n/a	FR1	1	R1002P
396.905	1.921	478776	REC_WORD	1.921	n/a	STORE	-999	3	[0, 0, 0]	n/a	FR1	1	R1002P
398.826	12.492	479737	REC_WORD	12.492	n/a	MAIL	-999	3	[0, 0, 0]	n/a	FR1	1	R1002P
411.318	6.241	485982	REC_WORD	6.241	n/a	NOSE	-999	3	[0, 0, 0]	n/a	FR1	1	R1002P
417.559	2.644	489103	REC_END	n/a	n/a	n/a	-999	3	[0, 0, 0]	n/a	FR1	1	R1002P
420.203	0.001	490424	COUNTDOWN_START	n/a	n/a	n/a	-999	4	[0, 0, 0]	n/a	FR1	1	R1002P
420.204	10.427	490425	TRIAL	n/a	n/a	n/a	-999	4	[0, 0, 0]	n/a	FR1	1	R1002P
430.631	0.008	495638	COUNTDOWN_END	n/a	n/a	n/a	-999	4	[0, 0, 0]	n/a	FR1	1	R1002P
430.639	2.483	495642	ORIENT	n/a	n/a	n/a	-999	4	[0, 0, 0]	n/a	FR1	1	R1002P
433.122	2.584	496884	WORD	n/a	wordpools/wordpool_EN.txt	LIP	1	4	[0, 0, 0]	n/a	FR1	1	R1002P
435.706	2.534	498176	WORD	n/a	wordpools/wordpool_EN.txt	TRASH	2	4	[0, 0, 0]	n/a	FR1	1	R1002P
438.24	2.417	499442	WORD	n/a	wordpools/wordpool_EN.txt	BOWL	3	4	[0, 0, 0]	n/a	FR1	1	R1002P
440.657	2.451	500651	WORD	n/a	wordpools/wordpool_EN.txt	BEAN	4	4	[0, 0, 0]	n/a	FR1	1	R1002P
443.108	2.417	501876	WORD	n/a	wordpools/wordpool_EN.txt	STEAK	5	4	[0, 0, 0]	n/a	FR1	1	R1002P
445.525	2.467	503085	WORD	n/a	wordpools/wordpool_EN.txt	SPOON	6	4	[0, 0, 0]	n/a	FR1	1	R1002P
447.992	2.585	504318	WORD	n/a	wordpools/wordpool_EN.txt	FACE	7	4	[0, 0, 0]	n/a	FR1	1	R1002P
450.577	2.583	505611	WORD	n/a	wordpools/wordpool_EN.txt	EEL	8	4	[0, 0, 0]	n/a	FR1	1	R1002P
453.16	2.5	506902	WORD	n/a	wordpools/wordpool_EN.txt	SHIELD	9	4	[0, 0, 0]	n/a	FR1	1	R1002P
455.66	2.617	508152	WORD	n/a	wordpools/wordpool_EN.txt	SEAL	10	4	[0, 0, 0]	n/a	FR1	1	R1002P
458.277	2.584	509460	WORD	n/a	wordpools/wordpool_EN.txt	SOUP	11	4	[0, 0, 0]	n/a	FR1	1	R1002P
460.861	1.617	510752	WORD	n/a	wordpools/wordpool_EN.txt	PURSE	12	4	[0, 0, 0]	n/a	FR1	1	R1002P
462.478	0.001	511561	DISTRACT_START	n/a	n/a	n/a	-999	4	[0, 0, 0]	n/a	FR1	1	R1002P
462.479	0.016	511561	START	n/a	n/a	n/a	-999	4	[-999, -999, -999]	n/a	FR1	1	R1002P
462.495	6.218	511569	PROB	6.218	n/a	n/a	-999	4	[7, 6, 7]	20	FR1	1	R1002P
468.713	6.951	514678	PROB	6.951	n/a	n/a	-999	4	[8, 7, 5]	20	FR1	1	R1002P
475.664	4.284	518153	PROB	4.284	n/a	n/a	-999	4	[2, 9, 9]	20	FR1	1	R1002P
479.948	3.045	520295	PROB	3.045	n/a	n/a	-999	4	[1, 7, 3]	11	FR1	1	R1002P
482.993	0.006	521818	STOP	n/a	n/a	n/a	-999	4	[-999, -999, -999]	n/a	FR1	1	R1002P
482.999	1.2	521821	DISTRACT_END	n/a	n/a	n/a	-999	4	[0, 0, 0]	n/a	FR1	1	R1002P
484.199	1.303	522421	REC_START	n/a	n/a	n/a	-999	4	[0, 0, 0]	n/a	FR1	1	R1002P
485.502	1.323	523072	REC_WORD	1.323	n/a	EEL	-999	4	[0, 0, 0]	n/a	FR1	1	R1002P
486.825	0.986	523734	REC_WORD	0.986	n/a	SOUP	-999	4	[0, 0, 0]	n/a	FR1	1	R1002P
487.811	1.429	524227	REC_WORD_VV	1.429	n/a	<>	-999	4	[0, 0, 0]	n/a	FR1	1	R1002P
489.24	1.11	524941	REC_WORD	1.11	n/a	SOUP	-999	4	[0, 0, 0]	n/a	FR1	1	R1002P
490.35	1.371	525496	REC_WORD	1.371	n/a	BOWL	-999	4	[0, 0, 0]	n/a	FR1	1	R1002P
491.721	2.676	526182	REC_WORD	2.676	n/a	LIP	-999	4	[0, 0, 0]	n/a	FR1	1	R1002P
494.397	3.835	527519	REC_WORD_VV	3.835	n/a	<>	-999	4	[0, 0, 0]	n/a	FR1	1	R1002P
498.232	1.033	529437	REC_WORD	1.033	n/a	STEAL	-999	4	[0, 0, 0]	n/a	FR1	1	R1002P
499.265	8.948	529953	REC_WORD_VV	8.948	n/a	<>	-999	4	[0, 0, 0]	n/a	FR1	1	R1002P
508.213	5.998	534427	REC_WORD	5.998	n/a	SPOON	-999	4	[0, 0, 0]	n/a	FR1	1	R1002P
514.211	2.544	537426	REC_END	n/a	n/a	n/a	-999	4	[0, 0, 0]	n/a	FR1	1	R1002P
516.755	0.0	538698	TRIAL	n/a	n/a	n/a	-999	5	[0, 0, 0]	n/a	FR1	1	R1002P
516.755	10.428	538698	COUNTDOWN_START	n/a	n/a	n/a	-999	5	[0, 0, 0]	n/a	FR1	1	R1002P
527.183	0.007	543912	COUNTDOWN_END	n/a	n/a	n/a	-999	5	[0, 0, 0]	n/a	FR1	1	R1002P
527.19	2.601	543915	ORIENT	n/a	n/a	n/a	-999	5	[0, 0, 0]	n/a	FR1	1	R1002P
529.791	2.484	545215	WORD	n/a	wordpools/wordpool_EN.txt	ROPE	1	5	[0, 0, 0]	n/a	FR1	1	R1002P
532.275	2.417	546457	WORD	n/a	wordpools/wordpool_EN.txt	HAWK	2	5	[0, 0, 0]	n/a	FR1	1	R1002P
534.692	2.6	547666	WORD	n/a	wordpools/wordpool_EN.txt	OWL	3	5	[0, 0, 0]	n/a	FR1	1	R1002P
537.292	2.551	548966	WORD	n/a	wordpools/wordpool_EN.txt	PIG	4	5	[0, 0, 0]	n/a	FR1	1	R1002P
539.843	2.533	550241	WORD	n/a	wordpools/wordpool_EN.txt	LAWN	5	5	[0, 0, 0]	n/a	FR1	1	R1002P
542.376	2.484	551508	WORD	n/a	wordpools/wordpool_EN.txt	HOUSE	6	5	[0, 0, 0]	n/a	FR1	1	R1002P
544.86	2.451	552750	WORD	n/a	wordpools/wordpool_EN.txt	FOOT	7	5	[0, 0, 0]	n/a	FR1	1	R1002P
547.311	2.433	553975	WORD	n/a	wordpools/wordpool_EN.txt	BIRD	8	5	[0, 0, 0]	n/a	FR1	1	R1002P
549.744	2.601	555191	WORD	n/a	wordpools/wordpool_EN.txt	COW	9	5	[0, 0, 0]	n/a	FR1	1	R1002P
552.345	2.501	556492	WORD	n/a	wordpools/wordpool_EN.txt	CAVE	10	5	[0, 0, 0]	n/a	FR1	1	R1002P
554.846	2.567	557742	WORD	n/a	wordpools/wordpool_EN.txt	SPRING	11	5	[0, 0, 0]	n/a	FR1	1	R1002P
557.413	1.617	559026	WORD	n/a	wordpools/wordpool_EN.txt	BLUSH	12	5	[0, 0, 0]	n/a	FR1	1	R1002P
559.03	0.0	559834	DISTRACT_START	n/a	n/a	n/a	-999	5	[0, 0, 0]	n/a	FR1	1	R1002P
559.03	0.016	559834	START	n/a	n/a	n/a	-999	5	[-999, -999, -999]	n/a	FR1	1	R1002P
559.046	6.368	559842	PROB	6.368	n/a	n/a	-999	5	[6, 9, 5]	20	FR1	1	R1002P
565.414	3.517	563026	PROB	3.517	n/a	n/a	-999	5	[1, 4, 4]	9	FR1	1	R1002P
568.931	3.184	564784	PROB	3.184	n/a	n/a	-999	5	[3, 8, 2]	13	FR1	1	R1002P
572.115	4.301	566376	PROB	4.301	n/a	n/a	-999	5	[8, 5, 1]	14	FR1	1	R1002P
576.416	4.529	568527	PROB	4.529	n/a	n/a	-999	5	[3, 5, 6]	14	FR1	1	R1002P
580.945	0.005	570791	STOP	n/a	n/a	n/a	-999	5	[-999, -999, -999]	n/a	FR1	1	R1002P
580.95	1.101	570794	DISTRACT_END	n/a	n/a	n/a	-999	5	[0, 0, 0]	n/a	FR1	1	R1002P
582.051	2.167	571344	REC_START	n/a	n/a	n/a	-999	5	[0, 0, 0]	n/a	FR1	1	R1002P
584.218	1.635	572427	REC_WORD	1.635	n/a	BIRD	-999	5	[0, 0, 0]	n/a	FR1	1	R1002P
585.853	1.624	573245	REC_WORD	1.624	n/a	HAWK	-999	5	[0, 0, 0]	n/a	FR1	1	R1002P
587.477	1.437	574057	REC_WORD	1.437	n/a	OWL	-999	5	[0, 0, 0]	n/a	FR1	1	R1002P
588.914	4.004	574775	REC_WORD	4.004	n/a	LAWN	-999	5	[0, 0, 0]	n/a	FR1	1	R1002P
592.918	3.644	576777	REC_WORD	3.644	n/a	PIG	-999	5	[0, 0, 0]	n/a	FR1	1	R1002P
596.562	15.503	578599	REC_WORD	15.503	n/a	CAVE	-999	5	[0, 0, 0]	n/a	FR1	1	R1002P
612.065	2.875	586350	REC_END	n/a	n/a	n/a	-999	5	[0, 0, 0]	n/a	FR1	1	R1002P
614.94	0.0	587788	TRIAL	n/a	n/a	n/a	-999	6	[0, 0, 0]	n/a	FR1	1	R1002P
614.94	10.428	587788	COUNTDOWN_START	n/a	n/a	n/a	-999	6	[0, 0, 0]	n/a	FR1	1	R1002P
625.368	0.007	593001	COUNTDOWN_END	n/a	n/a	n/a	-999	6	[0, 0, 0]	n/a	FR1	1	R1002P
625.375	2.434	593005	ORIENT	n/a	n/a	n/a	-999	6	[0, 0, 0]	n/a	FR1	1	R1002P
627.809	2.601	594222	WORD	n/a	wordpools/wordpool_EN.txt	TOAST	1	6	[0, 0, 0]	n/a	FR1	1	R1002P
630.41	2.567	595522	WORD	n/a	wordpools/wordpool_EN.txt	STICK	2	6	[0, 0, 0]	n/a	FR1	1	R1002P
632.977	2.384	596806	WORD	n/a	wordpools/wordpool_EN.txt	DART	3	6	[0, 0, 0]	n/a	FR1	1	R1002P
635.361	2.617	597998	WORD	n/a	wordpools/wordpool_EN.txt	CHEEK	4	6	[0, 0, 0]	n/a	FR1	1	R1002P
637.978	2.45	599306	WORD	n/a	wordpools/wordpool_EN.txt	FAN	5	6	[0, 0, 0]	n/a	FR1	1	R1002P
640.428	2.517	600531	WORD	n/a	wordpools/wordpool_EN.txt	CUP	6	6	[0, 0, 0]	n/a	FR1	1	R1002P
642.945	2.484	601789	WORD	n/a	wordpools/wordpool_EN.txt	DRESS	7	6	[0, 0, 0]	n/a	FR1	1	R1002P
645.429	2.417	603031	WORD	n/a	wordpools/wordpool_EN.txt	PIE	8	6	[0, 0, 0]	n/a	FR1	1	R1002P
647.846	2.434	604240	WORD	n/a	wordpools/wordpool_EN.txt	PLATE	9	6	[0, 0, 0]	n/a	FR1	1	R1002P
650.28	2.584	605457	WORD	n/a	wordpools/wordpool_EN.txt	WALL	10	6	[0, 0, 0]	n/a	FR1	1	R1002P
652.864	2.45	606749	WORD	n/a	wordpools/wordpool_EN.txt	FLOOR	11	6	[0, 0, 0]	n/a	FR1	1	R1002P
655.314	1.617	607973	WORD	n/a	wordpools/wordpool_EN.txt	ROSE	12	6	[0, 0, 0]	n/a	FR1	1	R1002P
656.931	0.001	608782	DISTRACT_START	n/a	n/a	n/a	-999	6	[0, 0, 0]	n/a	FR1	1	R1002P
656.932	0.016	608782	START	n/a	n/a	n/a	-999	6	[-999, -999, -999]	n/a	FR1	1	R1002P
656.948	5.234	608790	PROB	5.234	n/a	n/a	-999	6	[2, 9, 7]	18	FR1	1	R1002P
662.182	3.369	611407	PROB	3.369	n/a	n/a	-999	6	[3, 7, 9]	19	FR1	1	R1002P
665.551	4.349	613092	PROB	4.349	n/a	n/a	-999	6	[7, 8, 4]	19	FR1	1	R1002P
669.9	2.868	615266	PROB	2.868	n/a	n/a	-999	6	[1, 2, 3]	6	FR1	1	R1002P
672.768	6.049	616700	PROB	6.049	n/a	n/a	-999	6	[9, 8, 8]	25	FR1	1	R1002P
678.817	0.018	619724	STOP	n/a	n/a	n/a	-999	6	[-999, -999, -999]	n/a	FR1	1	R1002P
678.835	1.035	619733	DISTRACT_END	n/a	n/a	n/a	-999	6	[0, 0, 0]	n/a	FR1	1	R1002P
679.87	2.026	620251	REC_START	n/a	n/a	n/a	-999	6	[0, 0, 0]	n/a	FR1	1	R1002P
681.896	1.52	621264	REC_WORD	1.52	n/a	STICK	-999	6	[0, 0, 0]	n/a	FR1	1	R1002P
683.416	1.339	622024	REC_WORD	1.339	n/a	TOAST	-999	6	[0, 0, 0]	n/a	FR1	1	R1002P
684.755	1.554	622693	REC_WORD	1.554	n/a	PLATE	-999	6	[0, 0, 0]	n/a	FR1	1	R1002P
686.309	1.684	623470	REC_WORD	1.684	n/a	DRESS	-999	6	[0, 0, 0]	n/a	FR1	1	R1002P
687.993	21.887	624312	REC_WORD	21.887	n/a	FLOOR	-999	6	[0, 0, 0]	n/a	FR1	1	R1002P
709.88	2.545	635255	REC_END	n/a	n/a	n/a	-999	6	[0, 0, 0]	n/a	FR1	1	R1002P
712.425	0.001	636527	COUNTDOWN_START	n/a	n/a	n/a	-999	7	[0, 0, 0]	n/a	FR1	1	R1002P
712.426	10.427	636528	TRIAL	n/a	n/a	n/a	-999	7	[0, 0, 0]	n/a	FR1	1	R1002P
722.853	0.007	641741	COUNTDOWN_END	n/a	n/a	n/a	-999	7	[0, 0, 0]	n/a	FR1	1	R1002P
722.86	2.468	641745	ORIENT	n/a	n/a	n/a	-999	7	[0, 0, 0]	n/a	FR1	1	R1002P
725.328	2.567	642979	WORD	n/a	wordpools/wordpool_EN.txt	THUMB	1	7	[0, 0, 0]	n/a	FR1	1	R1002P
727.895	2.383	644262	WORD	n/a	wordpools/wordpool_EN.txt	SLEEVE	2	7	[0, 0, 0]	n/a	FR1	1	R1002P
730.278	2.418	645453	WORD	n/a	wordpools/wordpool_EN.txt	FENCE	3	7	[0, 0, 0]	n/a	FR1	1	R1002P
732.696	2.5	646662	WORD	n/a	wordpools/wordpool_EN.txt	YARD	4	7	[0, 0, 0]	n/a	FR1	1	R1002P
735.196	2.385	647912	WORD	n/a	wordpools/wordpool_EN.txt	PEN	5	7	[0, 0, 0]	n/a	FR1	1	R1002P
737.581	2.499	649105	WORD	n/a	wordpools/wordpool_EN.txt	COUCH	6	7	[0, 0, 0]	n/a	FR1	1	R1002P
740.08	2.601	650354	WORD	n/a	wordpools/wordpool_EN.txt	TAIL	7	7	[0, 0, 0]	n/a	FR1	1	R1002P
742.681	2.434	651655	WORD	n/a	wordpools/wordpool_EN.txt	GATE	8	7	[0, 0, 0]	n/a	FR1	1	R1002P
745.115	2.383	652871	WORD	n/a	wordpools/wordpool_EN.txt	POOL	9	7	[0, 0, 0]	n/a	FR1	1	R1002P
747.498	2.501	654063	WORD	n/a	wordpools/wordpool_EN.txt	BAG	10	7	[0, 0, 0]	n/a	FR1	1	R1002P
749.999	2.601	655313	WORD	n/a	wordpools/wordpool_EN.txt	CUBE	11	7	[0, 0, 0]	n/a	FR1	1	R1002P
752.6	1.616	656614	WORD	n/a	wordpools/wordpool_EN.txt	ROOM	12	7	[0, 0, 0]	n/a	FR1	1	R1002P
754.216	0.001	657422	DISTRACT_START	n/a	n/a	n/a	-999	7	[0, 0, 0]	n/a	FR1	1	R1002P
754.217	0.016	657422	START	n/a	n/a	n/a	-999	7	[-999, -999, -999]	n/a	FR1	1	R1002P
754.233	4.268	657430	PROB	4.268	n/a	n/a	-999	7	[1, 9, 3]	13	FR1	1	R1002P
758.501	4.534	659564	PROB	4.534	n/a	n/a	-999	7	[4, 8, 8]	20	FR1	1	R1002P
763.035	3.417	661831	PROB	3.417	n/a	n/a	-999	7	[5, 3, 1]	9	FR1	1	R1002P
766.452	3.317	663539	PROB	3.317	n/a	n/a	-999	7	[3, 5, 4]	12	FR1	1	R1002P
769.769	3.001	665198	PROB	3.001	n/a	n/a	-999	7	[1, 7, 4]	12	FR1	1	R1002P
772.77	3.223	666698	PROB	3.223	n/a	n/a	-999	7	[1, 5, 4]	10	FR1	1	R1002P
775.993	0.011	668310	STOP	n/a	n/a	n/a	-999	7	[-999, -999, -999]	n/a	FR1	1	R1002P
776.004	1.034	668315	DISTRACT_END	n/a	n/a	n/a	-999	7	[0, 0, 0]	n/a	FR1	1	R1002P
777.038	3.005	668832	REC_START	n/a	n/a	n/a	-999	7	[0, 0, 0]	n/a	FR1	1	R1002P
780.043	2.335	670335	REC_WORD	2.335	n/a	FENCE	-999	7	[0, 0, 0]	n/a	FR1	1	R1002P
782.378	3.621	671502	REC_WORD	3.621	n/a	GATE	-999	7	[0, 0, 0]	n/a	FR1	1	R1002P
785.999	4.886	673312	REC_WORD	4.886	n/a	THUMB	-999	7	[0, 0, 0]	n/a	FR1	1	R1002P
790.885	2.24	675755	REC_WORD_VV	2.24	n/a	<>	-999	7	[0, 0, 0]	n/a	FR1	1	R1002P
793.125	13.923	676875	REC_WORD	13.923	n/a	YARD	-999	7	[0, 0, 0]	n/a	FR1	1	R1002P
807.048	3.53	683836	REC_END	n/a	n/a	n/a	-999	7	[0, 0, 0]	n/a	FR1	1	R1002P
810.578	0.0	685601	COUNTDOWN_START	n/a	n/a	n/a	-999	8	[0, 0, 0]	n/a	FR1	1	R1002P
810.578	10.428	685601	TRIAL	n/a	n/a	n/a	-999	8	[0, 0, 0]	n/a	FR1	1	R1002P
821.006	0.006	690815	COUNTDOWN_END	n/a	n/a	n/a	-999	8	[0, 0, 0]	n/a	FR1	1	R1002P
821.012	2.535	690818	ORIENT	n/a	n/a	n/a	-999	8	[0, 0, 0]	n/a	FR1	1	R1002P
823.547	2.616	692085	WORD	n/a	wordpools/wordpool_EN.txt	INK	1	8	[0, 0, 0]	n/a	FR1	1	R1002P
826.163	2.467	693393	WORD	n/a	wordpools/wordpool_EN.txt	BOY	2	8	[0, 0, 0]	n/a	FR1	1	R1002P
828.63	2.401	694627	WORD	n/a	wordpools/wordpool_EN.txt	FILM	3	8	[0, 0, 0]	n/a	FR1	1	R1002P
831.031	2.551	695827	WORD	n/a	wordpools/wordpool_EN.txt	WHALE	4	8	[0, 0, 0]	n/a	FR1	1	R1002P
833.582	2.433	697103	WORD	n/a	wordpools/wordpool_EN.txt	CASH	5	8	[0, 0, 0]	n/a	FR1	1	R1002P
836.015	2.517	698319	WORD	n/a	wordpools/wordpool_EN.txt	AXE	6	8	[0, 0, 0]	n/a	FR1	1	R1002P
838.532	2.534	699577	WORD	n/a	wordpools/wordpool_EN.txt	CRANE	7	8	[0, 0, 0]	n/a	FR1	1	R1002P
841.066	2.551	700844	WORD	n/a	wordpools/wordpool_EN.txt	BLOOM	8	8	[0, 0, 0]	n/a	FR1	1	R1002P
843.617	2.383	702120	WORD	n/a	wordpools/wordpool_EN.txt	BRICK	9	8	[0, 0, 0]	n/a	FR1	1	R1002P
846.0	2.384	703311	WORD	n/a	wordpools/wordpool_EN.txt	MAZE	10	8	[0, 0, 0]	n/a	FR1	1	R1002P
848.384	2.384	704503	WORD	n/a	wordpools/wordpool_EN.txt	PEACH	11	8	[0, 0, 0]	n/a	FR1	1	R1002P
850.768	1.617	705695	WORD	n/a	wordpools/wordpool_EN.txt	STONE	12	8	[0, 0, 0]	n/a	FR1	1	R1002P
852.385	0.001	706504	DISTRACT_START	n/a	n/a	n/a	-999	8	[0, 0, 0]	n/a	FR1	1	R1002P
852.386	0.015	706504	START	n/a	n/a	n/a	-999	8	[-999, -999, -999]	n/a	FR1	1	R1002P
852.401	4.251	706512	PROB	4.251	n/a	n/a	-999	8	[1, 2, 2]	5	FR1	1	R1002P
856.652	4.784	708637	PROB	4.784	n/a	n/a	-999	8	[4, 2, 7]	13	FR1	1	R1002P
861.436	2.951	711029	PROB	2.951	n/a	n/a	-999	8	[1, 4, 1]	6	FR1	1	R1002P
864.387	3.034	712504	PROB	3.034	n/a	n/a	-999	8	[1, 2, 4]	7	FR1	1	R1002P
867.421	3.084	714021	PROB	3.084	n/a	n/a	-999	8	[7, 3, 4]	14	FR1	1	R1002P
870.505	2.723	715563	PROB	2.723	n/a	n/a	-999	8	[5, 5, 6]	16	FR1	1	R1002P
873.228	0.011	716924	STOP	n/a	n/a	n/a	-999	8	[-999, -999, -999]	n/a	FR1	1	R1002P
873.239	1.184	716930	DISTRACT_END	n/a	n/a	n/a	-999	8	[0, 0, 0]	n/a	FR1	1	R1002P
874.423	2.112	717522	REC_START	n/a	n/a	n/a	-999	8	[0, 0, 0]	n/a	FR1	1	R1002P
876.535	1.326	718578	REC_WORD	1.326	n/a	BOY	-999	8	[0, 0, 0]	n/a	FR1	1	R1002P
877.861	1.648	719241	REC_WORD	1.648	n/a	INK	-999	8	[0, 0, 0]	n/a	FR1	1	R1002P
879.509	2.64	720065	REC_WORD	2.64	n/a	AXE	-999	8	[0, 0, 0]	n/a	FR1	1	R1002P
882.149	5.548	721385	REC_WORD	5.548	n/a	WHALE	-999	8	[0, 0, 0]	n/a	FR1	1	R1002P
887.697	16.734	724159	REC_WORD_VV	16.734	n/a	<>	-999	8	[0, 0, 0]	n/a	FR1	1	R1002P
904.431	2.681	732525	REC_END	n/a	n/a	n/a	-999	8	[0, 0, 0]	n/a	FR1	1	R1002P
907.112	0.0	733866	TRIAL	n/a	n/a	n/a	-999	9	[0, 0, 0]	n/a	FR1	1	R1002P
907.112	10.428	733866	COUNTDOWN_START	n/a	n/a	n/a	-999	9	[0, 0, 0]	n/a	FR1	1	R1002P
917.54	0.008	739079	COUNTDOWN_END	n/a	n/a	n/a	-999	9	[0, 0, 0]	n/a	FR1	1	R1002P
917.548	2.483	739083	ORIENT	n/a	n/a	n/a	-999	9	[0, 0, 0]	n/a	FR1	1	R1002P
920.031	2.518	740325	WORD	n/a	wordpools/wordpool_EN.txt	SIGN	1	9	[0, 0, 0]	n/a	FR1	1	R1002P
922.549	2.433	741584	WORD	n/a	wordpools/wordpool_EN.txt	DOG	2	9	[0, 0, 0]	n/a	FR1	1	R1002P
924.982	2.568	742800	WORD	n/a	wordpools/wordpool_EN.txt	WEED	3	9	[0, 0, 0]	n/a	FR1	1	R1002P
927.55	2.399	744084	WORD	n/a	wordpools/wordpool_EN.txt	CHIN	4	9	[0, 0, 0]	n/a	FR1	1	R1002P
929.949	2.401	745283	WORD	n/a	wordpools/wordpool_EN.txt	VAN	5	9	[0, 0, 0]	n/a	FR1	1	R1002P
932.35	2.417	746484	WORD	n/a	wordpools/wordpool_EN.txt	PET	6	9	[0, 0, 0]	n/a	FR1	1	R1002P
934.767	2.55	747692	WORD	n/a	wordpools/wordpool_EN.txt	BATH	7	9	[0, 0, 0]	n/a	FR1	1	R1002P
937.317	2.601	748967	WORD	n/a	wordpools/wordpool_EN.txt	SMILE	8	9	[0, 0, 0]	n/a	FR1	1	R1002P
939.918	2.4	750268	WORD	n/a	wordpools/wordpool_EN.txt	CONE	9	9	[0, 0, 0]	n/a	FR1	1	R1002P
942.318	2.468	751468	WORD	n/a	wordpools/wordpool_EN.txt	CHALK	10	9	[0, 0, 0]	n/a	FR1	1	R1002P
944.786	2.567	752701	WORD	n/a	wordpools/wordpool_EN.txt	FLEA	11	9	[0, 0, 0]	n/a	FR1	1	R1002P
947.353	1.617	753985	WORD	n/a	wordpools/wordpool_EN.txt	EAR	12	9	[0, 0, 0]	n/a	FR1	1	R1002P
948.97	0.001	754793	DISTRACT_START	n/a	n/a	n/a	-999	9	[0, 0, 0]	n/a	FR1	1	R1002P
948.971	0.015	754794	START	n/a	n/a	n/a	-999	9	[-999, -999, -999]	n/a	FR1	1	R1002P
948.986	4.034	754801	PROB	4.034	n/a	n/a	-999	9	[3, 3, 3]	9	FR1	1	R1002P
953.02	3.884	756818	PROB	3.884	n/a	n/a	-999	9	[4, 4, 2]	10	FR1	1	R1002P
956.904	3.818	758760	PROB	3.818	n/a	n/a	-999	9	[8, 2, 8]	18	FR1	1	R1002P
960.722	2.234	760669	PROB	2.234	n/a	n/a	-999	9	[3, 5, 5]	13	FR1	1	R1002P
962.956	3.3	761786	PROB	3.3	n/a	n/a	-999	9	[5, 6, 5]	16	FR1	1	R1002P
966.256	2.151	763436	PROB	2.151	n/a	n/a	-999	9	[1, 5, 5]	6	FR1	1	R1002P
968.407	6.266	764511	PROB	6.266	n/a	n/a	-999	9	[3, 4, 8]	15	FR1	1	R1002P
974.673	0.018	767644	STOP	n/a	n/a	n/a	-999	9	[-999, -999, -999]	n/a	FR1	1	R1002P
974.691	1.184	767653	DISTRACT_END	n/a	n/a	n/a	-999	9	[0, 0, 0]	n/a	FR1	1	R1002P
975.875	1.443	768245	REC_START	n/a	n/a	n/a	-999	9	[0, 0, 0]	n/a	FR1	1	R1002P
977.318	1.91	768967	REC_WORD	1.91	n/a	VAN	-999	9	[0, 0, 0]	n/a	FR1	1	R1002P
979.228	1.669	769922	REC_WORD	1.669	n/a	DOG	-999	9	[0, 0, 0]	n/a	FR1	1	R1002P
980.897	1.589	770756	REC_WORD	1.589	n/a	EAR	-999	9	[0, 0, 0]	n/a	FR1	1	R1002P
982.486	23.403	771550	REC_WORD	23.403	n/a	CONE	-999	9	[0, 0, 0]	n/a	FR1	1	R1002P
1005.889	2.909	783251	REC_END	n/a	n/a	n/a	-999	9	[0, 0, 0]	n/a	FR1	1	R1002P
1008.798	0.0	784706	TRIAL	n/a	n/a	n/a	-999	10	[0, 0, 0]	n/a	FR1	1	R1002P
1008.798	10.428	784706	COUNTDOWN_START	n/a	n/a	n/a	-999	10	[0, 0, 0]	n/a	FR1	1	R1002P
1019.226	0.007	789919	COUNTDOWN_END	n/a	n/a	n/a	-999	10	[0, 0, 0]	n/a	FR1	1	R1002P
1019.233	2.584	789923	ORIENT	n/a	n/a	n/a	-999	10	[0, 0, 0]	n/a	FR1	1	R1002P
1021.817	2.467	791215	WORD	n/a	wordpools/wordpool_EN.txt	DESK	1	10	[0, 0, 0]	n/a	FR1	1	R1002P
1024.284	2.517	792448	WORD	n/a	wordpools/wordpool_EN.txt	BREAD	2	10	[0, 0, 0]	n/a	FR1	1	R1002P
1026.801	2.384	793707	WORD	n/a	wordpools/wordpool_EN.txt	WORLD	3	10	[0, 0, 0]	n/a	FR1	1	R1002P
1029.185	2.584	794899	WORD	n/a	wordpools/wordpool_EN.txt	BENCH	4	10	[0, 0, 0]	n/a	FR1	1	R1002P
1031.769	2.467	796191	WORD	n/a	wordpools/wordpool_EN.txt	STOOL	5	10	[0, 0, 0]	n/a	FR1	1	R1002P
1034.236	2.434	797424	WORD	n/a	wordpools/wordpool_EN.txt	MOUTH	6	10	[0, 0, 0]	n/a	FR1	1	R1002P
1036.67	2.45	798641	WORD	n/a	wordpools/wordpool_EN.txt	SKUNK	7	10	[0, 0, 0]	n/a	FR1	1	R1002P
1039.12	2.435	799866	WORD	n/a	wordpools/wordpool_EN.txt	RAT	8	10	[0, 0, 0]	n/a	FR1	1	R1002P
1041.555	2.549	801083	WORD	n/a	wordpools/wordpool_EN.txt	BUSH	9	10	[0, 0, 0]	n/a	FR1	1	R1002P
1044.104	2.485	802358	WORD	n/a	wordpools/wordpool_EN.txt	SINK	10	10	[0, 0, 0]	n/a	FR1	1	R1002P
1046.589	2.499	803600	WORD	n/a	wordpools/wordpool_EN.txt	BROOM	11	10	[0, 0, 0]	n/a	FR1	1	R1002P
1049.088	1.617	804850	WORD	n/a	wordpools/wordpool_EN.txt	VASE	12	10	[0, 0, 0]	n/a	FR1	1	R1002P
1050.705	0.001	805658	DISTRACT_START	n/a	n/a	n/a	-999	10	[0, 0, 0]	n/a	FR1	1	R1002P
1050.706	0.016	805659	START	n/a	n/a	n/a	-999	10	[-999, -999, -999]	n/a	FR1	1	R1002P
1050.722	8.185	805667	PROB	8.185	n/a	n/a	-999	10	[5, 9, 3]	17	FR1	1	R1002P
1058.907	7.468	809759	PROB	7.468	n/a	n/a	-999	10	[3, 4, 5]	12	FR1	1	R1002P
1066.375	6.458	813493	PROB	6.458	n/a	n/a	-999	10	[5, 9, 7]	21	FR1	1	R1002P
1072.833	0.01	816721	STOP	n/a	n/a	n/a	-999	10	[-999, -999, -999]	n/a	FR1	1	R1002P
1072.843	1.037	816726	DISTRACT_END	n/a	n/a	n/a	-999	10	[0, 0, 0]	n/a	FR1	1	R1002P
1073.88	2.099	817245	REC_START	n/a	n/a	n/a	-999	10	[0, 0, 0]	n/a	FR1	1	R1002P
1075.979	1.245	818294	REC_WORD	1.245	n/a	DESK	-999	10	[0, 0, 0]	n/a	FR1	1	R1002P
1077.224	1.893	818917	REC_WORD	1.893	n/a	BENCH	-999	10	[0, 0, 0]	n/a	FR1	1	R1002P
1079.117	8.005	819863	REC_WORD	8.005	n/a	CHAIR	-999	10	[0, 0, 0]	n/a	FR1	1	R1002P
1087.122	0.674	823866	REC_WORD_VV	0.674	n/a	<>	-999	10	[0, 0, 0]	n/a	FR1	1	R1002P
1087.796	1.181	824202	REC_WORD	1.181	n/a	RAT	-999	10	[0, 0, 0]	n/a	FR1	1	R1002P
1088.977	14.911	824793	REC_WORD	14.911	n/a	BROOM	-999	10	[0, 0, 0]	n/a	FR1	1	R1002P
1103.888	2.011	832248	REC_END	n/a	n/a	n/a	-999	10	[0, 0, 0]	n/a	FR1	1	R1002P
1105.899	0.0	833253	TRIAL	n/a	n/a	n/a	-999	11	[0, 0, 0]	n/a	FR1	1	R1002P
1105.899	10.428	833253	COUNTDOWN_START	n/a	n/a	n/a	-999	11	[0, 0, 0]	n/a	FR1	1	R1002P
1116.327	0.007	838467	COUNTDOWN_END	n/a	n/a	n/a	-999	11	[0, 0, 0]	n/a	FR1	1	R1002P
1116.334	2.384	838471	ORIENT	n/a	n/a	n/a	-999	11	[0, 0, 0]	n/a	FR1	1	R1002P
1118.718	2.501	839663	WORD	n/a	wordpools/wordpool_EN.txt	SHEEP	1	11	[0, 0, 0]	n/a	FR1	1	R1002P
1121.219	2.55	840913	WORD	n/a	wordpools/wordpool_EN.txt	DRUM	2	11	[0, 0, 0]	n/a	FR1	1	R1002P
1123.769	2.567	842188	WORD	n/a	wordpools/wordpool_EN.txt	VINE	3	11	[0, 0, 0]	n/a	FR1	1	R1002P
1126.336	2.451	843471	WORD	n/a	wordpools/wordpool_EN.txt	CROW	4	11	[0, 0, 0]	n/a	FR1	1	R1002P
1128.787	2.434	844697	WORD	n/a	wordpools/wordpool_EN.txt	RAIN	5	11	[0, 0, 0]	n/a	FR1	1	R1002P
1131.221	2.583	845914	WORD	n/a	wordpools/wordpool_EN.txt	BRUSH	6	11	[0, 0, 0]	n/a	FR1	1	R1002P
1133.804	2.468	847205	WORD	n/a	wordpools/wordpool_EN.txt	DEER	7	11	[0, 0, 0]	n/a	FR1	1	R1002P
1136.272	2.517	848439	WORD	n/a	wordpools/wordpool_EN.txt	FROG	8	11	[0, 0, 0]	n/a	FR1	1	R1002P
1138.789	2.5	849698	WORD	n/a	wordpools/wordpool_EN.txt	PASTE	9	11	[0, 0, 0]	n/a	FR1	1	R1002P
1141.289	2.467	850948	WORD	n/a	wordpools/wordpool_EN.txt	TEETH	10	11	[0, 0, 0]	n/a	FR1	1	R1002P
1143.756	2.601	852181	WORD	n/a	wordpools/wordpool_EN.txt	ROOT	11	11	[0, 0, 0]	n/a	FR1	1	R1002P
1146.357	1.617	853481	WORD	n/a	wordpools/wordpool_EN.txt	CHIEF	12	11	[0, 0, 0]	n/a	FR1	1	R1002P
1147.974	0.001	854290	DISTRACT_START	n/a	n/a	n/a	-999	11	[0, 0, 0]	n/a	FR1	1	R1002P
1147.975	0.015	854290	START	n/a	n/a	n/a	-999	11	[-999, -999, -999]	n/a	FR1	1	R1002P
1147.99	6.202	854298	PROB	6.202	n/a	n/a	-999	11	[1, 7, 7]	15	FR1	1	R1002P
1154.192	5.117	857399	PROB	5.117	n/a	n/a	-999	11	[1, 8, 5]	14	FR1	1	R1002P
1159.309	5.385	859957	PROB	5.385	n/a	n/a	-999	11	[9, 2, 3]	14	FR1	1	R1002P
1164.694	4.507	862649	PROB	4.507	n/a	n/a	-999	11	[7, 9, 7]	23	FR1	1	R1002P
1169.201	0.01	864903	STOP	n/a	n/a	n/a	-999	11	[-999, -999, -999]	n/a	FR1	1	R1002P
1169.211	1.034	864908	DISTRACT_END	n/a	n/a	n/a	-999	11	[0, 0, 0]	n/a	FR1	1	R1002P
1170.245	1.973	865425	REC_START	n/a	n/a	n/a	-999	11	[0, 0, 0]	n/a	FR1	1	R1002P
1172.218	1.957	866411	REC_WORD	1.957	n/a	SHEEP	-999	11	[0, 0, 0]	n/a	FR1	1	R1002P
1174.175	1.533	867390	REC_WORD	1.533	n/a	BRUSH	-999	11	[0, 0, 0]	n/a	FR1	1	R1002P
1175.708	24.551	868156	REC_WORD	24.551	n/a	PASTE	-999	11	[0, 0, 0]	n/a	FR1	1	R1002P
1200.259	2.359	880431	REC_END	n/a	n/a	n/a	-999	11	[0, 0, 0]	n/a	FR1	1	R1002P
1202.618	0.001	881610	COUNTDOWN_START	n/a	n/a	n/a	-999	12	[0, 0, 0]	n/a	FR1	1	R1002P
1202.619	10.427	881611	TRIAL	n/a	n/a	n/a	-999	12	[0, 0, 0]	n/a	FR1	1	R1002P
1213.046	0.007	886824	COUNTDOWN_END	n/a	n/a	n/a	-999	12	[0, 0, 0]	n/a	FR1	1	R1002P
1213.053	2.617	886828	ORIENT	n/a	n/a	n/a	-999	12	[0, 0, 0]	n/a	FR1	1	R1002P
1215.67	2.5	888136	WORD	n/a	wordpools/wordpool_EN.txt	GOLD	1	12	[0, 0, 0]	n/a	FR1	1	R1002P
1218.17	2.584	889386	WORD	n/a	wordpools/wordpool_EN.txt	KEY	2	12	[0, 0, 0]	n/a	FR1	1	R1002P
1220.754	2.484	890678	WORD	n/a	wordpools/wordpool_EN.txt	SUN	3	12	[0, 0, 0]	n/a	FR1	1	R1002P
1223.238	2.617	891920	WORD	n/a	wordpools/wordpool_EN.txt	SEED	4	12	[0, 0, 0]	n/a	FR1	1	R1002P
1225.855	2.617	893228	WORD	n/a	wordpools/wordpool_EN.txt	SPARK	5	12	[0, 0, 0]	n/a	FR1	1	R1002P
1228.472	2.617	894537	WORD	n/a	wordpools/wordpool_EN.txt	STEAM	6	12	[0, 0, 0]	n/a	FR1	1	R1002P
1231.089	2.519	895845	WORD	n/a	wordpools/wordpool_EN.txt	LEAF	7	12	[0, 0, 0]	n/a	FR1	1	R1002P
1233.608	2.382	897104	WORD	n/a	wordpools/wordpool_EN.txt	OAR	8	12	[0, 0, 0]	n/a	FR1	1	R1002P
1235.99	2.585	898295	WORD	n/a	wordpools/wordpool_EN.txt	PLANT	9	12	[0, 0, 0]	n/a	FR1	1	R1002P
1238.575	2.433	899588	WORD	n/a	wordpools/wordpool_EN.txt	COIN	10	12	[0, 0, 0]	n/a	FR1	1	R1002P
1241.008	2.45	900804	WORD	n/a	wordpools/wordpool_EN.txt	BOMB	11	12	[0, 0, 0]	n/a	FR1	1	R1002P
1243.458	1.617	902029	WORD	n/a	wordpools/wordpool_EN.txt	CORN	12	12	[0, 0, 0]	n/a	FR1	1	R1002P
1245.075	0.001	902838	DISTRACT_START	n/a	n/a	n/a	-999	12	[0, 0, 0]	n/a	FR1	1	R1002P
1245.076	0.016	902838	START	n/a	n/a	n/a	-999	12	[-999, -999, -999]	n/a	FR1	1	R1002P
1245.092	18.887	902846	PROB	18.887	n/a	n/a	-999	12	[7, 5, 9]	21	FR1	1	R1002P
1263.979	3.382	912289	PROB	3.382	n/a	n/a	-999	12	[8, 4, 1]	13	FR1	1	R1002P
1267.361	0.018	913980	STOP	n/a	n/a	n/a	-999	12	[-999, -999, -999]	n/a	FR1	1	R1002P
1267.379	1.186	913989	DISTRACT_END	n/a	n/a	n/a	-999	12	[0, 0, 0]	n/a	FR1	1	R1002P
1268.565	2.655	914582	REC_START	n/a	n/a	n/a	-999	12	[0, 0, 0]	n/a	FR1	1	R1002P
1271.22	2.172	915909	REC_WORD	2.172	n/a	GOLD	-999	12	[0, 0, 0]	n/a	FR1	1	R1002P
1273.392	1.324	916995	REC_WORD	1.324	n/a	KEY	-999	12	[0, 0, 0]	n/a	FR1	1	R1002P
1274.716	1.49	917657	REC_WORD	1.49	n/a	COIN	-999	12	[0, 0, 0]	n/a	FR1	1	R1002P
1276.206	1.943	918402	REC_WORD	1.943	n/a	SUN	-999	12	[0, 0, 0]	n/a	FR1	1	R1002P
1278.149	20.426	919374	REC_WORD	20.426	n/a	BOMB	-999	12	[0, 0, 0]	n/a	FR1	1	R1002P
1298.575	3.061	929586	REC_END	n/a	n/a	n/a	-999	12	[0, 0, 0]	n/a	FR1	1	R1002P
1301.636	0.0	931117	COUNTDOWN_START	n/a	n/a	n/a	-999	13	[0, 0, 0]	n/a	FR1	1	R1002P
1301.636	10.428	931117	TRIAL	n/a	n/a	n/a	-999	13	[0, 0, 0]	n/a	FR1	1	R1002P
1312.064	0.007	936330	COUNTDOWN_END	n/a	n/a	n/a	-999	13	[0, 0, 0]	n/a	FR1	1	R1002P
1312.071	2.551	936334	ORIENT	n/a	n/a	n/a	-999	13	[0, 0, 0]	n/a	FR1	1	R1002P
1314.622	2.55	937609	WORD	n/a	wordpools/wordpool_EN.txt	SNOW	1	13	[0, 0, 0]	n/a	FR1	1	R1002P
1317.172	2.567	938884	WORD	n/a	wordpools/wordpool_EN.txt	CLAY	2	13	[0, 0, 0]	n/a	FR1	1	R1002P
1319.739	2.601	940168	WORD	n/a	wordpools/wordpool_EN.txt	STRAW	3	13	[0, 0, 0]	n/a	FR1	1	R1002P
1322.34	2.434	941468	WORD	n/a	wordpools/wordpool_EN.txt	SQUARE	4	13	[0, 0, 0]	n/a	FR1	1	R1002P
1324.774	2.434	942685	WORD	n/a	wordpools/wordpool_EN.txt	MUD	5	13	[0, 0, 0]	n/a	FR1	1	R1002P
1327.208	2.417	943902	WORD	n/a	wordpools/wordpool_EN.txt	STORM	6	13	[0, 0, 0]	n/a	FR1	1	R1002P
1329.625	2.517	945110	WORD	n/a	wordpools/wordpool_EN.txt	THREAD	7	13	[0, 0, 0]	n/a	FR1	1	R1002P
1332.142	2.418	946369	WORD	n/a	wordpools/wordpool_EN.txt	CLOUD	8	13	[0, 0, 0]	n/a	FR1	1	R1002P
1334.56	2.483	947578	WORD	n/a	wordpools/wordpool_EN.txt	LAND	9	13	[0, 0, 0]	n/a	FR1	1	R1002P
1337.043	2.6	948819	WORD	n/a	wordpools/wordpool_EN.txt	LAMP	10	13	[0, 0, 0]	n/a	FR1	1	R1002P
1339.643	2.534	950119	WORD	n/a	wordpools/wordpool_EN.txt	SHARK	11	13	[0, 0, 0]	n/a	FR1	1	R1002P
1342.177	1.617	951386	WORD	n/a	wordpools/wordpool_EN.txt	RUG	12	13	[0, 0, 0]	n/a	FR1	1	R1002P
1343.794	0.001	952194	DISTRACT_START	n/a	n/a	n/a	-999	13	[0, 0, 0]	n/a	FR1	1	R1002P
1343.795	0.016	952195	START	n/a	n/a	n/a	-999	13	[-999, -999, -999]	n/a	FR1	1	R1002P
1343.811	5.067	952203	PROB	5.067	n/a	n/a	-999	13	[4, 7, 9]	20	FR1	1	R1002P
1348.878	4.118	954736	PROB	4.118	n/a	n/a	-999	13	[2, 5, 3]	10	FR1	1	R1002P
1352.996	4.517	956795	PROB	4.517	n/a	n/a	-999	13	[8, 4, 5]	17	FR1	1	R1002P
1357.513	5.535	959054	PROB	5.535	n/a	n/a	-999	13	[5, 8, 3]	16	FR1	1	R1002P
1363.048	5.097	961821	PROB	5.097	n/a	n/a	-999	13	[9, 8, 1]	18	FR1	1	R1002P
1368.145	0.02	964369	STOP	n/a	n/a	n/a	-999	13	[-999, -999, -999]	n/a	FR1	1	R1002P
1368.165	1.101	964379	DISTRACT_END	n/a	n/a	n/a	-999	13	[0, 0, 0]	n/a	FR1	1	R1002P
1369.266	1.387	964930	REC_START	n/a	n/a	n/a	-999	13	[0, 0, 0]	n/a	FR1	1	R1002P
1370.653	1.304	965623	REC_WORD	1.304	n/a	SNOW	-999	13	[0, 0, 0]	n/a	FR1	1	R1002P
1371.957	6.181	966275	REC_WORD	6.181	n/a	STORM	-999	13	[0, 0, 0]	n/a	FR1	1	R1002P
1378.138	21.148	969365	REC_WORD	21.148	n/a	RUG	-999	13	[0, 0, 0]	n/a	FR1	1	R1002P
1399.286	2.27	979939	REC_END	n/a	n/a	n/a	-999	13	[0, 0, 0]	n/a	FR1	1	R1002P
1401.556	0.0	981074	TRIAL	n/a	n/a	n/a	-999	14	[0, 0, 0]	n/a	FR1	1	R1002P
1401.556	10.428	981074	COUNTDOWN_START	n/a	n/a	n/a	-999	14	[0, 0, 0]	n/a	FR1	1	R1002P
1411.984	0.006	986288	COUNTDOWN_END	n/a	n/a	n/a	-999	14	[0, 0, 0]	n/a	FR1	1	R1002P
1411.99	2.585	986291	ORIENT	n/a	n/a	n/a	-999	14	[0, 0, 0]	n/a	FR1	1	R1002P
1414.575	2.5	987583	WORD	n/a	wordpools/wordpool_EN.txt	JET	1	14	[0, 0, 0]	n/a	FR1	1	R1002P
1417.075	2.567	988833	WORD	n/a	wordpools/wordpool_EN.txt	BRIDGE	2	14	[0, 0, 0]	n/a	FR1	1	R1002P
1419.642	2.45	990116	WORD	n/a	wordpools/wordpool_EN.txt	WAVE	3	14	[0, 0, 0]	n/a	FR1	1	R1002P
1422.092	2.617	991341	WORD	n/a	wordpools/wordpool_EN.txt	SPEAR	4	14	[0, 0, 0]	n/a	FR1	1	R1002P
1424.709	2.517	992650	WORD	n/a	wordpools/wordpool_EN.txt	SAIL	5	14	[0, 0, 0]	n/a	FR1	1	R1002P
1427.226	2.385	993908	WORD	n/a	wordpools/wordpool_EN.txt	PRINCE	6	14	[0, 0, 0]	n/a	FR1	1	R1002P
1429.611	2.433	995101	WORD	n/a	wordpools/wordpool_EN.txt	ROAD	7	14	[0, 0, 0]	n/a	FR1	1	R1002P
1432.044	2.417	996317	WORD	n/a	wordpools/wordpool_EN.txt	PLANE	8	14	[0, 0, 0]	n/a	FR1	1	R1002P
1434.461	2.384	997525	WORD	n/a	wordpools/wordpool_EN.txt	BOAT	9	14	[0, 0, 0]	n/a	FR1	1	R1002P
1436.845	2.467	998717	WORD	n/a	wordpools/wordpool_EN.txt	FOG	10	14	[0, 0, 0]	n/a	FR1	1	R1002P
1439.312	2.467	999951	WORD	n/a	wordpools/wordpool_EN.txt	DOCK	11	14	[0, 0, 0]	n/a	FR1	1	R1002P
1441.779	1.617	1001184	WORD	n/a	wordpools/wordpool_EN.txt	BEAK	12	14	[0, 0, 0]	n/a	FR1	1	R1002P
1443.396	0.001	1001993	DISTRACT_START	n/a	n/a	n/a	-999	14	[0, 0, 0]	n/a	FR1	1	R1002P
1443.397	0.016	1001993	START	n/a	n/a	n/a	-999	14	[-999, -999, -999]	n/a	FR1	1	R1002P
1443.413	4.851	1002001	PROB	4.851	n/a	n/a	-999	14	[2, 2, 9]	13	FR1	1	R1002P
1448.264	6.418	1004427	PROB	6.418	n/a	n/a	-999	14	[2, 4, 7]	13	FR1	1	R1002P
1454.682	4.45	1007635	PROB	4.45	n/a	n/a	-999	14	[6, 1, 9]	16	FR1	1	R1002P
1459.132	6.293	1009860	PROB	6.293	n/a	n/a	-999	14	[1, 3, 8]	14	FR1	1	R1002P
1465.425	0.009	1013007	STOP	n/a	n/a	n/a	-999	14	[-999, -999, -999]	n/a	FR1	1	R1002P
1465.434	1.234	1013011	DISTRACT_END	n/a	n/a	n/a	-999	14	[0, 0, 0]	n/a	FR1	1	R1002P
1466.668	1.93	1013628	REC_START	n/a	n/a	n/a	-999	14	[0, 0, 0]	n/a	FR1	1	R1002P
1468.598	1.957	1014593	REC_WORD	1.957	n/a	JET	-999	14	[0, 0, 0]	n/a	FR1	1	R1002P
1470.555	1.683	1015571	REC_WORD	1.683	n/a	BRIDGE	-999	14	[0, 0, 0]	n/a	FR1	1	R1002P
1472.238	1.785	1016413	REC_WORD	1.785	n/a	WAVE	-999	14	[0, 0, 0]	n/a	FR1	1	R1002P
1474.023	22.655	1017305	REC_WORD	22.655	n/a	PLANE	-999	14	[0, 0, 0]	n/a	FR1	1	R1002P
1496.678	2.479	1028632	REC_END	n/a	n/a	n/a	-999	14	[0, 0, 0]	n/a	FR1	1	R1002P
1499.157	0.0	1029872	TRIAL	n/a	n/a	n/a	-999	15	[0, 0, 0]	n/a	FR1	1	R1002P
1499.157	10.428	1029872	COUNTDOWN_START	n/a	n/a	n/a	-999	15	[0, 0, 0]	n/a	FR1	1	R1002P
1509.585	0.008	1035085	COUNTDOWN_END	n/a	n/a	n/a	-999	15	[0, 0, 0]	n/a	FR1	1	R1002P
1509.593	2.433	1035089	ORIENT	n/a	n/a	n/a	-999	15	[0, 0, 0]	n/a	FR1	1	R1002P
1512.026	2.6	1036306	WORD	n/a	wordpools/wordpool_EN.txt	POLE	1	15	[0, 0, 0]	n/a	FR1	1	R1002P
1514.626	2.434	1037606	WORD	n/a	wordpools/wordpool_EN.txt	CART	2	15	[0, 0, 0]	n/a	FR1	1	R1002P
1517.06	2.535	1038823	WORD	n/a	wordpools/wordpool_EN.txt	SUIT	3	15	[0, 0, 0]	n/a	FR1	1	R1002P
1519.595	2.399	1040090	WORD	n/a	wordpools/wordpool_EN.txt	ELF	4	15	[0, 0, 0]	n/a	FR1	1	R1002P
1521.994	2.401	1041289	WORD	n/a	wordpools/wordpool_EN.txt	PARK	5	15	[0, 0, 0]	n/a	FR1	1	R1002P
1524.395	2.633	1042490	WORD	n/a	wordpools/wordpool_EN.txt	SEAT	6	15	[0, 0, 0]	n/a	FR1	1	R1002P
1527.028	2.401	1043806	WORD	n/a	wordpools/wordpool_EN.txt	FLAG	7	15	[0, 0, 0]	n/a	FR1	1	R1002P
1529.429	2.384	1045007	WORD	n/a	wordpools/wordpool_EN.txt	TENT	8	15	[0, 0, 0]	n/a	FR1	1	R1002P
1531.813	2.567	1046199	WORD	n/a	wordpools/wordpool_EN.txt	TRUCK	9	15	[0, 0, 0]	n/a	FR1	1	R1002P
1534.38	2.584	1047482	WORD	n/a	wordpools/wordpool_EN.txt	ROOF	10	15	[0, 0, 0]	n/a	FR1	1	R1002P
1536.964	2.417	1048774	WORD	n/a	wordpools/wordpool_EN.txt	VEST	11	15	[0, 0, 0]	n/a	FR1	1	R1002P
1539.381	1.617	1049982	WORD	n/a	wordpools/wordpool_EN.txt	BAND	12	15	[0, 0, 0]	n/a	FR1	1	R1002P
1540.998	0.001	1050791	DISTRACT_START	n/a	n/a	n/a	-999	15	[0, 0, 0]	n/a	FR1	1	R1002P
1540.999	0.015	1050791	START	n/a	n/a	n/a	-999	15	[-999, -999, -999]	n/a	FR1	1	R1002P
1541.014	3.518	1050799	PROB	3.518	n/a	n/a	-999	15	[5, 5, 2]	12	FR1	1	R1002P
1544.532	8.168	1052558	PROB	8.168	n/a	n/a	-999	15	[6, 9, 5]	20	FR1	1	R1002P
1552.7	11.189	1056642	PROB	11.189	n/a	n/a	-999	15	[5, 8, 9]	22	FR1	1	R1002P
1563.889	0.013	1062236	STOP	n/a	n/a	n/a	-999	15	[-999, -999, -999]	n/a	FR1	1	R1002P
1563.902	1.167	1062242	DISTRACT_END	n/a	n/a	n/a	-999	15	[0, 0, 0]	n/a	FR1	1	R1002P
1565.069	1.249	1062826	REC_START	n/a	n/a	n/a	-999	15	[0, 0, 0]	n/a	FR1	1	R1002P
1566.318	1.284	1063450	REC_WORD	1.284	n/a	ELF	-999	15	[0, 0, 0]	n/a	FR1	1	R1002P
1567.602	1.685	1064092	REC_WORD	1.685	n/a	SUIT	-999	15	[0, 0, 0]	n/a	FR1	1	R1002P
1569.287	2.119	1064935	REC_WORD	2.119	n/a	VEST	-999	15	[0, 0, 0]	n/a	FR1	1	R1002P
1571.406	19.711	1065994	REC_WORD	19.711	n/a	PARK	-999	15	[0, 0, 0]	n/a	FR1	1	R1002P
1591.117	1.722	1075849	REC_WORD_VV	1.722	n/a	<>	-999	15	[0, 0, 0]	n/a	FR1	1	R1002P
1592.839	0.352	1076710	REC_WORD	0.352	n/a	FLAG	-999	15	[0, 0, 0]	n/a	FR1	1	R1002P
1593.191	0.378	1076886	REC_WORD_VV	0.378	n/a	<>	-999	15	[0, 0, 0]	n/a	FR1	1	R1002P
1593.569	0.355	1077075	REC_WORD	0.355	n/a	FLAG	-999	15	[0, 0, 0]	n/a	FR1	1	R1002P
1593.924	0.244	1077252	REC_WORD	0.244	n/a	POLE	-999	15	[0, 0, 0]	n/a	FR1	1	R1002P
1594.168	0.078	1077374	REC_WORD_VV	0.078	n/a	<>	-999	15	[0, 0, 0]	n/a	FR1	1	R1002P
1594.246	0.834	1077413	REC_WORD	0.834	n/a	FLAG	-999	15	[0, 0, 0]	n/a	FR1	1	R1002P
1595.08	2.395	1077830	REC_END	n/a	n/a	n/a	-999	15	[0, 0, 0]	n/a	FR1	1	R1002P
1597.475	0.0	1079028	TRIAL	n/a	n/a	n/a	-999	16	[0, 0, 0]	n/a	FR1	1	R1002P
1597.475	10.428	1079028	COUNTDOWN_START	n/a	n/a	n/a	-999	16	[0, 0, 0]	n/a	FR1	1	R1002P
1607.903	0.007	1084242	COUNTDOWN_END	n/a	n/a	n/a	-999	16	[0, 0, 0]	n/a	FR1	1	R1002P
1607.91	2.501	1084245	ORIENT	n/a	n/a	n/a	-999	16	[0, 0, 0]	n/a	FR1	1	R1002P
1610.411	2.5	1085496	WORD	n/a	wordpools/wordpool_EN.txt	LEG	1	16	[0, 0, 0]	n/a	FR1	1	R1002P
1612.911	2.484	1086745	WORD	n/a	wordpools/wordpool_EN.txt	SHOE	2	16	[0, 0, 0]	n/a	FR1	1	R1002P
1615.395	2.434	1087987	WORD	n/a	wordpools/wordpool_EN.txt	SWAMP	3	16	[0, 0, 0]	n/a	FR1	1	R1002P
1617.829	2.6	1089204	WORD	n/a	wordpools/wordpool_EN.txt	SKI	4	16	[0, 0, 0]	n/a	FR1	1	R1002P
1620.429	2.384	1090504	WORD	n/a	wordpools/wordpool_EN.txt	SHIRT	5	16	[0, 0, 0]	n/a	FR1	1	R1002P
1622.813	2.601	1091696	WORD	n/a	wordpools/wordpool_EN.txt	TOE	6	16	[0, 0, 0]	n/a	FR1	1	R1002P
1625.414	2.417	1092997	WORD	n/a	wordpools/wordpool_EN.txt	CLIFF	7	16	[0, 0, 0]	n/a	FR1	1	R1002P
1627.831	2.517	1094205	WORD	n/a	wordpools/wordpool_EN.txt	BOOT	8	16	[0, 0, 0]	n/a	FR1	1	R1002P
1630.348	2.617	1095463	WORD	n/a	wordpools/wordpool_EN.txt	BADGE	9	16	[0, 0, 0]	n/a	FR1	1	R1002P
1632.965	2.417	1096772	WORD	n/a	wordpools/wordpool_EN.txt	STREET	10	16	[0, 0, 0]	n/a	FR1	1	R1002P
1635.382	2.634	1097980	WORD	n/a	wordpools/wordpool_EN.txt	ARK	11	16	[0, 0, 0]	n/a	FR1	1	R1002P
1638.016	1.601	1099297	WORD	n/a	wordpools/wordpool_EN.txt	HILL	12	16	[0, 0, 0]	n/a	FR1	1	R1002P
1639.617	0.001	1100098	DISTRACT_START	n/a	n/a	n/a	-999	16	[0, 0, 0]	n/a	FR1	1	R1002P
1639.618	0.015	1100098	START	n/a	n/a	n/a	-999	16	[-999, -999, -999]	n/a	FR1	1	R1002P
1639.633	5.218	1100106	PROB	5.218	n/a	n/a	-999	16	[6, 8, 6]	20	FR1	1	R1002P
1644.851	5.801	1102715	PROB	5.801	n/a	n/a	-999	16	[9, 7, 9]	25	FR1	1	R1002P
1650.652	4.017	1105615	PROB	4.017	n/a	n/a	-999	16	[5, 1, 1]	7	FR1	1	R1002P
1654.669	5.54	1107623	PROB	5.54	n/a	n/a	-999	16	[2, 9, 7]	18	FR1	1	R1002P
1660.209	0.011	1110393	STOP	n/a	n/a	n/a	-999	16	[-999, -999, -999]	n/a	FR1	1	R1002P
1660.22	1.218	1110399	DISTRACT_END	n/a	n/a	n/a	-999	16	[0, 0, 0]	n/a	FR1	1	R1002P
1661.438	1.604	1111008	REC_START	n/a	n/a	n/a	-999	16	[0, 0, 0]	n/a	FR1	1	R1002P
1663.042	1.303	1111810	REC_WORD	1.303	n/a	LEG	-999	16	[0, 0, 0]	n/a	FR1	1	R1002P
1664.345	1.971	1112461	REC_WORD	1.971	n/a	TOE	-999	16	[0, 0, 0]	n/a	FR1	1	R1002P
1666.316	1.06	1113446	REC_WORD	1.06	n/a	BOOT	-999	16	[0, 0, 0]	n/a	FR1	1	R1002P
1667.376	2.203	1113976	REC_WORD	2.203	n/a	SKI	-999	16	[0, 0, 0]	n/a	FR1	1	R1002P
1669.579	1.967	1115078	REC_WORD	1.967	n/a	HILL	-999	16	[0, 0, 0]	n/a	FR1	1	R1002P
1671.546	7.861	1116061	REC_WORD	7.861	n/a	CLIFF	-999	16	[0, 0, 0]	n/a	FR1	1	R1002P
1679.407	12.042	1119992	REC_WORD	12.042	n/a	BADGE	-999	16	[0, 0, 0]	n/a	FR1	1	R1002P
1691.449	3.511	1126012	REC_END	n/a	n/a	n/a	-999	16	[0, 0, 0]	n/a	FR1	1	R1002P
1694.96	0.0	1127768	TRIAL	n/a	n/a	n/a	-999	17	[0, 0, 0]	n/a	FR1	1	R1002P
1694.96	10.428	1127768	COUNTDOWN_START	n/a	n/a	n/a	-999	17	[0, 0, 0]	n/a	FR1	1	R1002P
1705.388	0.007	1132981	COUNTDOWN_END	n/a	n/a	n/a	-999	17	[0, 0, 0]	n/a	FR1	1	R1002P
1705.395	2.418	1132985	ORIENT	n/a	n/a	n/a	-999	17	[0, 0, 0]	n/a	FR1	1	R1002P
1707.813	2.433	1134194	WORD	n/a	wordpools/wordpool_EN.txt	PIPE	1	17	[0, 0, 0]	n/a	FR1	1	R1002P
1710.246	2.467	1135410	WORD	n/a	wordpools/wordpool_EN.txt	HAT	2	17	[0, 0, 0]	n/a	FR1	1	R1002P
1712.713	2.518	1136644	WORD	n/a	wordpools/wordpool_EN.txt	CAKE	3	17	[0, 0, 0]	n/a	FR1	1	R1002P
1715.231	2.483	1137903	WORD	n/a	wordpools/wordpool_EN.txt	GUARD	4	17	[0, 0, 0]	n/a	FR1	1	R1002P
1717.714	2.384	1139144	WORD	n/a	wordpools/wordpool_EN.txt	DIME	5	17	[0, 0, 0]	n/a	FR1	1	R1002P
1720.098	2.468	1140336	WORD	n/a	wordpools/wordpool_EN.txt	GLASS	6	17	[0, 0, 0]	n/a	FR1	1	R1002P
1722.566	2.583	1141570	WORD	n/a	wordpools/wordpool_EN.txt	GLOVE	7	17	[0, 0, 0]	n/a	FR1	1	R1002P
1725.149	2.517	1142861	WORD	n/a	wordpools/wordpool_EN.txt	SWORD	8	17	[0, 0, 0]	n/a	FR1	1	R1002P
1727.666	2.517	1144120	WORD	n/a	wordpools/wordpool_EN.txt	CHAIR	9	17	[0, 0, 0]	n/a	FR1	1	R1002P
1730.183	2.534	1145378	WORD	n/a	wordpools/wordpool_EN.txt	TRAY	10	17	[0, 0, 0]	n/a	FR1	1	R1002P
1732.717	2.617	1146645	WORD	n/a	wordpools/wordpool_EN.txt	CROWN	11	17	[0, 0, 0]	n/a	FR1	1	R1002P
1735.334	1.617	1147954	WORD	n/a	wordpools/wordpool_EN.txt	KITE	12	17	[0, 0, 0]	n/a	FR1	1	R1002P
1736.951	0.001	1148762	DISTRACT_START	n/a	n/a	n/a	-999	17	[0, 0, 0]	n/a	FR1	1	R1002P
1736.952	0.016	1148762	START	n/a	n/a	n/a	-999	17	[-999, -999, -999]	n/a	FR1	1	R1002P
1736.968	6.184	1148770	PROB	6.184	n/a	n/a	-999	17	[9, 5, 1]	15	FR1	1	R1002P
1743.152	5.151	1151862	PROB	5.151	n/a	n/a	-999	17	[4, 7, 9]	20	FR1	1	R1002P
1748.303	6.702	1154438	PROB	6.702	n/a	n/a	-999	17	[4, 4, 7]	15	FR1	1	R1002P
1755.005	5.468	1157788	PROB	5.468	n/a	n/a	-999	17	[7, 2, 4]	13	FR1	1	R1002P
1760.473	0.016	1160522	STOP	n/a	n/a	n/a	-999	17	[-999, -999, -999]	n/a	FR1	1	R1002P
1760.489	1.218	1160530	DISTRACT_END	n/a	n/a	n/a	-999	17	[0, 0, 0]	n/a	FR1	1	R1002P
1761.707	1.538	1161139	REC_START	n/a	n/a	n/a	-999	17	[0, 0, 0]	n/a	FR1	1	R1002P
1763.245	1.225	1161908	REC_WORD	1.225	n/a	CAKE	-999	17	[0, 0, 0]	n/a	FR1	1	R1002P
1764.47	1.471	1162521	REC_WORD	1.471	n/a	TRAY	-999	17	[0, 0, 0]	n/a	FR1	1	R1002P
1765.941	6.441	1163256	REC_WORD	6.441	n/a	SWORD	-999	17	[0, 0, 0]	n/a	FR1	1	R1002P
1772.382	4.782	1166477	REC_WORD_VV	4.782	n/a	<>	-999	17	[0, 0, 0]	n/a	FR1	1	R1002P
1777.164	2.024	1168867	REC_WORD	2.024	n/a	HAT	-999	17	[0, 0, 0]	n/a	FR1	1	R1002P
1779.188	8.5	1169879	REC_WORD	8.5	n/a	CROWN	-999	17	[0, 0, 0]	n/a	FR1	1	R1002P
1787.688	4.029	1174129	REC_WORD	4.029	n/a	PIPE	-999	17	[0, 0, 0]	n/a	FR1	1	R1002P
1791.717	2.595	1176143	REC_END	n/a	n/a	n/a	-999	17	[0, 0, 0]	n/a	FR1	1	R1002P
1794.312	0.0	1177441	COUNTDOWN_START	n/a	n/a	n/a	-999	18	[0, 0, 0]	n/a	FR1	1	R1002P
1794.312	10.428	1177441	TRIAL	n/a	n/a	n/a	-999	18	[0, 0, 0]	n/a	FR1	1	R1002P
1804.74	0.007	1182655	COUNTDOWN_END	n/a	n/a	n/a	-999	18	[0, 0, 0]	n/a	FR1	1	R1002P
1804.747	2.434	1182658	ORIENT	n/a	n/a	n/a	-999	18	[0, 0, 0]	n/a	FR1	1	R1002P
1807.181	2.435	1183875	WORD	n/a	wordpools/wordpool_EN.txt	BED	1	18	[0, 0, 0]	n/a	FR1	1	R1002P
1809.616	2.6	1185092	WORD	n/a	wordpools/wordpool_EN.txt	TEA	2	18	[0, 0, 0]	n/a	FR1	1	R1002P
1812.216	2.533	1186392	WORD	n/a	wordpools/wordpool_EN.txt	PANTS	3	18	[0, 0, 0]	n/a	FR1	1	R1002P
1814.749	2.568	1187659	WORD	n/a	wordpools/wordpool_EN.txt	TOY	4	18	[0, 0, 0]	n/a	FR1	1	R1002P
1817.317	2.583	1188943	WORD	n/a	wordpools/wordpool_EN.txt	CLOTH	5	18	[0, 0, 0]	n/a	FR1	1	R1002P
1819.9	2.617	1190234	WORD	n/a	wordpools/wordpool_EN.txt	GRASS	6	18	[0, 0, 0]	n/a	FR1	1	R1002P
1822.517	2.618	1191543	WORD	n/a	wordpools/wordpool_EN.txt	OAK	7	18	[0, 0, 0]	n/a	FR1	1	R1002P
1825.135	2.6	1192852	WORD	n/a	wordpools/wordpool_EN.txt	FUR	8	18	[0, 0, 0]	n/a	FR1	1	R1002P
1827.735	2.534	1194151	WORD	n/a	wordpools/wordpool_EN.txt	SOCK	9	18	[0, 0, 0]	n/a	FR1	1	R1002P
1830.269	2.584	1195418	WORD	n/a	wordpools/wordpool_EN.txt	MAT	10	18	[0, 0, 0]	n/a	FR1	1	R1002P
1832.853	2.584	1196710	WORD	n/a	wordpools/wordpool_EN.txt	TIE	11	18	[0, 0, 0]	n/a	FR1	1	R1002P
1835.437	1.617	1198002	WORD	n/a	wordpools/wordpool_EN.txt	LAMB	12	18	[0, 0, 0]	n/a	FR1	1	R1002P
1837.054	0.0	1198811	DISTRACT_START	n/a	n/a	n/a	-999	18	[0, 0, 0]	n/a	FR1	1	R1002P
1837.054	0.016	1198811	START	n/a	n/a	n/a	-999	18	[-999, -999, -999]	n/a	FR1	1	R1002P
1837.07	8.985	1198819	PROB	8.985	n/a	n/a	-999	18	[9, 7, 6]	22	FR1	1	R1002P
1846.055	4.818	1203311	PROB	4.818	n/a	n/a	-999	18	[3, 8, 2]	13	FR1	1	R1002P
1850.873	6.184	1205720	PROB	6.184	n/a	n/a	-999	18	[6, 7, 5]	18	FR1	1	R1002P
1857.057	3.632	1208812	PROB	3.632	n/a	n/a	-999	18	[3, 8, 1]	12	FR1	1	R1002P
1860.689	0.019	1210628	STOP	n/a	n/a	n/a	-999	18	[-999, -999, -999]	n/a	FR1	1	R1002P
1860.708	1.135	1210637	DISTRACT_END	n/a	n/a	n/a	-999	18	[0, 0, 0]	n/a	FR1	1	R1002P
1861.843	1.538	1211205	REC_START	n/a	n/a	n/a	-999	18	[0, 0, 0]	n/a	FR1	1	R1002P
1863.381	2.034	1211973	REC_WORD	2.034	n/a	BED	-999	18	[0, 0, 0]	n/a	FR1	1	R1002P
1865.415	1.52	1212990	REC_WORD	1.52	n/a	PANTS	-999	18	[0, 0, 0]	n/a	FR1	1	R1002P
1866.935	1.717	1213750	REC_WORD	1.717	n/a	SOCK	-999	18	[0, 0, 0]	n/a	FR1	1	R1002P
1868.652	1.867	1214609	REC_WORD	1.867	n/a	TIE	-999	18	[0, 0, 0]	n/a	FR1	1	R1002P
1870.519	21.333	1215542	REC_WORD	21.333	n/a	TEA	-999	18	[0, 0, 0]	n/a	FR1	1	R1002P
1891.852	2.429	1226208	REC_END	n/a	n/a	n/a	-999	18	[0, 0, 0]	n/a	FR1	1	R1002P
1894.281	0.0	1227423	TRIAL	n/a	n/a	n/a	-999	19	[0, 0, 0]	n/a	FR1	1	R1002P
1894.281	10.428	1227423	COUNTDOWN_START	n/a	n/a	n/a	-999	19	[0, 0, 0]	n/a	FR1	1	R1002P
1904.709	0.007	1232636	COUNTDOWN_END	n/a	n/a	n/a	-999	19	[0, 0, 0]	n/a	FR1	1	R1002P
1904.716	2.551	1232640	ORIENT	n/a	n/a	n/a	-999	19	[0, 0, 0]	n/a	FR1	1	R1002P
1907.267	2.484	1233915	WORD	n/a	wordpools/wordpool_EN.txt	STAIR	1	19	[0, 0, 0]	n/a	FR1	1	R1002P
1909.751	2.616	1235157	WORD	n/a	wordpools/wordpool_EN.txt	NET	2	19	[0, 0, 0]	n/a	FR1	1	R1002P
1912.367	2.385	1236465	WORD	n/a	wordpools/wordpool_EN.txt	BALL	3	19	[0, 0, 0]	n/a	FR1	1	R1002P
1914.752	2.567	1237658	WORD	n/a	wordpools/wordpool_EN.txt	SHEET	4	19	[0, 0, 0]	n/a	FR1	1	R1002P
1917.319	2.4	1238941	WORD	n/a	wordpools/wordpool_EN.txt	SCHOOL	5	19	[0, 0, 0]	n/a	FR1	1	R1002P
1919.719	2.534	1240141	WORD	n/a	wordpools/wordpool_EN.txt	MAP	6	19	[0, 0, 0]	n/a	FR1	1	R1002P
1922.253	2.417	1241408	WORD	n/a	wordpools/wordpool_EN.txt	WAND	7	19	[0, 0, 0]	n/a	FR1	1	R1002P
1924.67	2.501	1242616	WORD	n/a	wordpools/wordpool_EN.txt	BOARD	8	19	[0, 0, 0]	n/a	FR1	1	R1002P
1927.171	2.517	1243867	WORD	n/a	wordpools/wordpool_EN.txt	BOOK	9	19	[0, 0, 0]	n/a	FR1	1	R1002P
1929.688	2.383	1245125	WORD	n/a	wordpools/wordpool_EN.txt	TRAIN	10	19	[0, 0, 0]	n/a	FR1	1	R1002P
1932.071	2.401	1246317	WORD	n/a	wordpools/wordpool_EN.txt	DUCK	11	19	[0, 0, 0]	n/a	FR1	1	R1002P
1934.472	1.617	1247517	WORD	n/a	wordpools/wordpool_EN.txt	JUDGE	12	19	[0, 0, 0]	n/a	FR1	1	R1002P
1936.089	0.001	1248325	DISTRACT_START	n/a	n/a	n/a	-999	19	[0, 0, 0]	n/a	FR1	1	R1002P
1936.09	0.015	1248326	START	n/a	n/a	n/a	-999	19	[-999, -999, -999]	n/a	FR1	1	R1002P
1936.105	4.668	1248333	PROB	4.668	n/a	n/a	-999	19	[8, 1, 5]	14	FR1	1	R1002P
1940.773	4.484	1250667	PROB	4.484	n/a	n/a	-999	19	[1, 6, 6]	13	FR1	1	R1002P
1945.257	4.218	1252909	PROB	4.218	n/a	n/a	-999	19	[3, 6, 7]	16	FR1	1	R1002P
1949.475	5.301	1255018	PROB	5.301	n/a	n/a	-999	19	[6, 3, 5]	14	FR1	1	R1002P
1954.776	3.505	1257668	PROB	3.505	n/a	n/a	-999	19	[6, 1, 9]	16	FR1	1	R1002P
1958.281	0.012	1259421	STOP	n/a	n/a	n/a	-999	19	[-999, -999, -999]	n/a	FR1	1	R1002P
1958.293	1.151	1259427	DISTRACT_END	n/a	n/a	n/a	-999	19	[0, 0, 0]	n/a	FR1	1	R1002P
1959.444	1.187	1260002	REC_START	n/a	n/a	n/a	-999	19	[0, 0, 0]	n/a	FR1	1	R1002P
1960.631	1.728	1260596	REC_WORD	1.728	n/a	SCHOOL	-999	19	[0, 0, 0]	n/a	FR1	1	R1002P
1962.359	1.314	1261460	REC_WORD	1.314	n/a	BALL	-999	19	[0, 0, 0]	n/a	FR1	1	R1002P
1963.673	1.727	1262117	REC_WORD	1.727	n/a	NET	-999	19	[0, 0, 0]	n/a	FR1	1	R1002P
1965.4	1.471	1262980	REC_WORD	1.471	n/a	JUDGE	-999	19	[0, 0, 0]	n/a	FR1	1	R1002P
1966.871	3.589	1263716	REC_WORD	3.589	n/a	STAIR	-999	19	[0, 0, 0]	n/a	FR1	1	R1002P
1970.46	18.999	1265510	REC_WORD	18.999	n/a	BOARD	-999	19	[0, 0, 0]	n/a	FR1	1	R1002P
1989.459	2.424	1275009	REC_END	n/a	n/a	n/a	-999	19	[0, 0, 0]	n/a	FR1	1	R1002P
1991.883	0.0	1276221	TRIAL	n/a	n/a	n/a	-999	20	[0, 0, 0]	n/a	FR1	1	R1002P
1991.883	10.428	1276221	COUNTDOWN_START	n/a	n/a	n/a	-999	20	[0, 0, 0]	n/a	FR1	1	R1002P
2002.311	0.007	1281435	COUNTDOWN_END	n/a	n/a	n/a	-999	20	[0, 0, 0]	n/a	FR1	1	R1002P
2002.318	2.467	1281438	ORIENT	n/a	n/a	n/a	-999	20	[0, 0, 0]	n/a	FR1	1	R1002P
2004.785	2.434	1282672	WORD	n/a	wordpools/wordpool_EN.txt	SHELL	1	20	[0, 0, 0]	n/a	FR1	1	R1002P
2007.219	2.55	1283889	WORD	n/a	wordpools/wordpool_EN.txt	PEAR	2	20	[0, 0, 0]	n/a	FR1	1	R1002P
2009.769	2.584	1285163	WORD	n/a	wordpools/wordpool_EN.txt	SHRIMP	3	20	[0, 0, 0]	n/a	FR1	1	R1002P
2012.353	2.451	1286455	WORD	n/a	wordpools/wordpool_EN.txt	BOX	4	20	[0, 0, 0]	n/a	FR1	1	R1002P
2014.804	2.483	1287681	WORD	n/a	wordpools/wordpool_EN.txt	PALM	5	20	[0, 0, 0]	n/a	FR1	1	R1002P
2017.287	2.468	1288922	WORD	n/a	wordpools/wordpool_EN.txt	PIT	6	20	[0, 0, 0]	n/a	FR1	1	R1002P
2019.755	2.45	1290156	WORD	n/a	wordpools/wordpool_EN.txt	BEACH	7	20	[0, 0, 0]	n/a	FR1	1	R1002P
2022.205	2.484	1291381	WORD	n/a	wordpools/wordpool_EN.txt	JAR	8	20	[0, 0, 0]	n/a	FR1	1	R1002P
2024.689	2.567	1292623	WORD	n/a	wordpools/wordpool_EN.txt	WOOD	9	20	[0, 0, 0]	n/a	FR1	1	R1002P
2027.256	2.384	1293906	WORD	n/a	wordpools/wordpool_EN.txt	SEA	10	20	[0, 0, 0]	n/a	FR1	1	R1002P
2029.64	2.517	1295098	WORD	n/a	wordpools/wordpool_EN.txt	FUDGE	11	20	[0, 0, 0]	n/a	FR1	1	R1002P
2032.157	1.617	1296357	WORD	n/a	wordpools/wordpool_EN.txt	ARM	12	20	[0, 0, 0]	n/a	FR1	1	R1002P
2033.774	0.001	1297165	DISTRACT_START	n/a	n/a	n/a	-999	20	[0, 0, 0]	n/a	FR1	1	R1002P
2033.775	0.016	1297166	START	n/a	n/a	n/a	-999	20	[-999, -999, -999]	n/a	FR1	1	R1002P
2033.791	5.517	1297174	PROB	5.517	n/a	n/a	-999	20	[3, 3, 4]	10	FR1	1	R1002P
2039.308	5.518	1299932	PROB	5.518	n/a	n/a	-999	20	[6, 9, 2]	17	FR1	1	R1002P
2044.826	4.518	1302691	PROB	4.518	n/a	n/a	-999	20	[7, 8, 2]	17	FR1	1	R1002P
2049.344	4.0	1304950	PROB	4.0	n/a	n/a	-999	20	[1, 5, 5]	11	FR1	1	R1002P
2053.344	4.729	1306950	PROB	4.729	n/a	n/a	-999	20	[6, 6, 3]	15	FR1	1	R1002P
2058.073	0.006	1309314	STOP	n/a	n/a	n/a	-999	20	[-999, -999, -999]	n/a	FR1	1	R1002P
2058.079	1.051	1309317	DISTRACT_END	n/a	n/a	n/a	-999	20	[0, 0, 0]	n/a	FR1	1	R1002P
2059.13	1.484	1309843	REC_START	n/a	n/a	n/a	-999	20	[0, 0, 0]	n/a	FR1	1	R1002P
2060.614	0.81	1310585	REC_WORD	0.81	n/a	BEACH	-999	20	[0, 0, 0]	n/a	FR1	1	R1002P
2061.424	1.397	1310990	REC_WORD	1.397	n/a	SHRIMP	-999	20	[0, 0, 0]	n/a	FR1	1	R1002P
2062.821	26.319	1311688	REC_WORD	26.319	n/a	SHELL	-999	20	[0, 0, 0]	n/a	FR1	1	R1002P
2089.14	2.595	1324847	REC_END	n/a	n/a	n/a	-999	20	[0, 0, 0]	n/a	FR1	1	R1002P
2091.735	0.0	1326144	TRIAL	n/a	n/a	n/a	-999	21	[0, 0, 0]	n/a	FR1	1	R1002P
2091.735	10.428	1326144	COUNTDOWN_START	n/a	n/a	n/a	-999	21	[0, 0, 0]	n/a	FR1	1	R1002P
2102.163	0.007	1331358	COUNTDOWN_END	n/a	n/a	n/a	-999	21	[0, 0, 0]	n/a	FR1	1	R1002P
2102.17	2.634	1331361	ORIENT	n/a	n/a	n/a	-999	21	[0, 0, 0]	n/a	FR1	1	R1002P
2104.804	2.417	1332678	WORD	n/a	wordpools/wordpool_EN.txt	GEESE	1	21	[0, 0, 0]	n/a	FR1	1	R1002P
2107.221	2.617	1333887	WORD	n/a	wordpools/wordpool_EN.txt	ICE	2	21	[0, 0, 0]	n/a	FR1	1	R1002P
2109.838	2.451	1335195	WORD	n/a	wordpools/wordpool_EN.txt	FISH	3	21	[0, 0, 0]	n/a	FR1	1	R1002P
2112.289	2.4	1336421	WORD	n/a	wordpools/wordpool_EN.txt	SLIME	4	21	[0, 0, 0]	n/a	FR1	1	R1002P
2114.689	2.434	1337621	WORD	n/a	wordpools/wordpool_EN.txt	CAPE	5	21	[0, 0, 0]	n/a	FR1	1	R1002P
2117.123	2.418	1338837	WORD	n/a	wordpools/wordpool_EN.txt	FORT	6	21	[0, 0, 0]	n/a	FR1	1	R1002P
2119.541	2.55	1340046	WORD	n/a	wordpools/wordpool_EN.txt	TANK	7	21	[0, 0, 0]	n/a	FR1	1	R1002P
2122.091	2.383	1341321	WORD	n/a	wordpools/wordpool_EN.txt	STRING	8	21	[0, 0, 0]	n/a	FR1	1	R1002P
2124.474	2.584	1342513	WORD	n/a	wordpools/wordpool_EN.txt	GOAT	9	21	[0, 0, 0]	n/a	FR1	1	R1002P
2127.058	2.617	1343805	WORD	n/a	wordpools/wordpool_EN.txt	SKY	10	21	[0, 0, 0]	n/a	FR1	1	R1002P
2129.675	2.467	1345113	WORD	n/a	wordpools/wordpool_EN.txt	BAT	11	21	[0, 0, 0]	n/a	FR1	1	R1002P
2132.142	1.617	1346347	WORD	n/a	wordpools/wordpool_EN.txt	LAKE	12	21	[0, 0, 0]	n/a	FR1	1	R1002P
2133.759	0.001	1347155	DISTRACT_START	n/a	n/a	n/a	-999	21	[0, 0, 0]	n/a	FR1	1	R1002P
2133.76	0.016	1347155	START	n/a	n/a	n/a	-999	21	[-999, -999, -999]	n/a	FR1	1	R1002P
2133.776	6.651	1347163	PROB	6.651	n/a	n/a	-999	21	[6, 7, 7]	20	FR1	1	R1002P
2140.427	5.601	1350489	PROB	5.601	n/a	n/a	-999	21	[3, 9, 7]	19	FR1	1	R1002P
2146.028	6.018	1353289	PROB	6.018	n/a	n/a	-999	21	[7, 6, 3]	16	FR1	1	R1002P
2152.046	3.987	1356298	PROB	3.987	n/a	n/a	-999	21	[2, 5, 1]	8	FR1	1	R1002P
2156.033	0.014	1358291	STOP	n/a	n/a	n/a	-999	21	[-999, -999, -999]	n/a	FR1	1	R1002P
2156.047	1.217	1358298	DISTRACT_END	n/a	n/a	n/a	-999	21	[0, 0, 0]	n/a	FR1	1	R1002P
2157.264	1.562	1358907	REC_START	n/a	n/a	n/a	-999	21	[0, 0, 0]	n/a	FR1	1	R1002P
2158.826	1.395	1359688	REC_WORD	1.395	n/a	GEESE	-999	21	[0, 0, 0]	n/a	FR1	1	R1002P
2160.221	27.057	1360385	REC_WORD	27.057	n/a	SLIME	-999	21	[0, 0, 0]	n/a	FR1	1	R1002P
2187.278	2.542	1373913	REC_END	n/a	n/a	n/a	-999	21	[0, 0, 0]	n/a	FR1	1	R1002P
2189.82	0.0	1375184	TRIAL	n/a	n/a	n/a	-999	22	[0, 0, 0]	n/a	FR1	1	R1002P
2189.82	10.428	1375184	COUNTDOWN_START	n/a	n/a	n/a	-999	22	[0, 0, 0]	n/a	FR1	1	R1002P
2200.248	0.007	1380398	COUNTDOWN_END	n/a	n/a	n/a	-999	22	[0, 0, 0]	n/a	FR1	1	R1002P
2200.255	2.451	1380401	ORIENT	n/a	n/a	n/a	-999	22	[0, 0, 0]	n/a	FR1	1	R1002P
2202.706	2.517	1381627	WORD	n/a	wordpools/wordpool_EN.txt	PEARL	1	22	[0, 0, 0]	n/a	FR1	1	R1002P
2205.223	2.6	1382885	WORD	n/a	wordpools/wordpool_EN.txt	CAR	2	22	[0, 0, 0]	n/a	FR1	1	R1002P
2207.823	2.451	1384185	WORD	n/a	wordpools/wordpool_EN.txt	HORSE	3	22	[0, 0, 0]	n/a	FR1	1	R1002P
2210.274	2.45	1385410	WORD	n/a	wordpools/wordpool_EN.txt	PEA	4	22	[0, 0, 0]	n/a	FR1	1	R1002P
2212.724	2.384	1386635	WORD	n/a	wordpools/wordpool_EN.txt	BEAR	5	22	[0, 0, 0]	n/a	FR1	1	R1002P
2215.108	2.567	1387827	WORD	n/a	wordpools/wordpool_EN.txt	SHIP	6	22	[0, 0, 0]	n/a	FR1	1	R1002P
2217.675	2.417	1389111	WORD	n/a	wordpools/wordpool_EN.txt	ROCK	7	22	[0, 0, 0]	n/a	FR1	1	R1002P
2220.092	2.502	1390319	WORD	n/a	wordpools/wordpool_EN.txt	SMOKE	8	22	[0, 0, 0]	n/a	FR1	1	R1002P
2222.594	2.549	1391570	WORD	n/a	wordpools/wordpool_EN.txt	NEST	9	22	[0, 0, 0]	n/a	FR1	1	R1002P
2225.143	2.584	1392844	WORD	n/a	wordpools/wordpool_EN.txt	MOON	10	22	[0, 0, 0]	n/a	FR1	1	R1002P
2227.727	2.584	1394136	WORD	n/a	wordpools/wordpool_EN.txt	STAR	11	22	[0, 0, 0]	n/a	FR1	1	R1002P
2230.311	1.617	1395428	WORD	n/a	wordpools/wordpool_EN.txt	TOOTH	12	22	[0, 0, 0]	n/a	FR1	1	R1002P
2231.928	0.001	1396237	DISTRACT_START	n/a	n/a	n/a	-999	22	[0, 0, 0]	n/a	FR1	1	R1002P
2231.929	0.016	1396237	START	n/a	n/a	n/a	-999	22	[-999, -999, -999]	n/a	FR1	1	R1002P
2231.945	5.351	1396245	PROB	5.351	n/a	n/a	-999	22	[1, 3, 6]	10	FR1	1	R1002P
2237.296	5.034	1398921	PROB	5.034	n/a	n/a	-999	22	[7, 5, 3]	15	FR1	1	R1002P
2242.33	3.417	1401437	PROB	3.417	n/a	n/a	-999	22	[5, 2, 5]	12	FR1	1	R1002P
2245.747	6.342	1403146	PROB	6.342	n/a	n/a	-999	22	[7, 3, 8]	18	FR1	1	R1002P
2252.089	0.009	1406317	STOP	n/a	n/a	n/a	-999	22	[-999, -999, -999]	n/a	FR1	1	R1002P
2252.098	1.035	1406321	DISTRACT_END	n/a	n/a	n/a	-999	22	[0, 0, 0]	n/a	FR1	1	R1002P
2253.133	1.451	1406839	REC_START	n/a	n/a	n/a	-999	22	[0, 0, 0]	n/a	FR1	1	R1002P
2254.584	1.249	1407564	REC_WORD	1.249	n/a	PEARL	-999	22	[0, 0, 0]	n/a	FR1	1	R1002P
2255.833	1.251	1408189	REC_WORD	1.251	n/a	CAR	-999	22	[0, 0, 0]	n/a	FR1	1	R1002P
2257.084	1.704	1408814	REC_WORD	1.704	n/a	HORSE	-999	22	[0, 0, 0]	n/a	FR1	1	R1002P
2258.788	24.354	1409666	REC_WORD	24.354	n/a	BEAR	-999	22	[0, 0, 0]	n/a	FR1	1	R1002P
2283.142	2.646	1421842	REC_END	n/a	n/a	n/a	-999	22	[0, 0, 0]	n/a	FR1	1	R1002P
2285.788	0.0	1423165	TRIAL	n/a	n/a	n/a	-999	23	[0, 0, 0]	n/a	FR1	1	R1002P
2285.788	10.428	1423165	COUNTDOWN_START	n/a	n/a	n/a	-999	23	[0, 0, 0]	n/a	FR1	1	R1002P
2296.216	0.007	1428379	COUNTDOWN_END	n/a	n/a	n/a	-999	23	[0, 0, 0]	n/a	FR1	1	R1002P
2296.223	2.484	1428382	ORIENT	n/a	n/a	n/a	-999	23	[0, 0, 0]	n/a	FR1	1	R1002P
2298.707	2.517	1429624	WORD	n/a	wordpools/wordpool_EN.txt	TOOL	1	23	[0, 0, 0]	n/a	FR1	1	R1002P
2301.224	2.417	1430883	WORD	n/a	wordpools/wordpool_EN.txt	CLOWN	2	23	[0, 0, 0]	n/a	FR1	1	R1002P
2303.641	2.484	1432091	WORD	n/a	wordpools/wordpool_EN.txt	EGG	3	23	[0, 0, 0]	n/a	FR1	1	R1002P
2306.125	2.485	1433333	WORD	n/a	wordpools/wordpool_EN.txt	POND	4	23	[0, 0, 0]	n/a	FR1	1	R1002P
2308.61	2.449	1434576	WORD	n/a	wordpools/wordpool_EN.txt	ZOO	5	23	[0, 0, 0]	n/a	FR1	1	R1002P
2311.059	2.584	1435800	WORD	n/a	wordpools/wordpool_EN.txt	WHEEL	6	23	[0, 0, 0]	n/a	FR1	1	R1002P
2313.643	2.584	1437092	WORD	n/a	wordpools/wordpool_EN.txt	TOAD	7	23	[0, 0, 0]	n/a	FR1	1	R1002P
2316.227	2.417	1438384	WORD	n/a	wordpools/wordpool_EN.txt	CAT	8	23	[0, 0, 0]	n/a	FR1	1	R1002P
2318.644	2.517	1439592	WORD	n/a	wordpools/wordpool_EN.txt	MOUSE	9	23	[0, 0, 0]	n/a	FR1	1	R1002P
2321.161	2.501	1440851	WORD	n/a	wordpools/wordpool_EN.txt	SPONGE	10	23	[0, 0, 0]	n/a	FR1	1	R1002P
2323.662	2.434	1442101	WORD	n/a	wordpools/wordpool_EN.txt	MOOSE	11	23	[0, 0, 0]	n/a	FR1	1	R1002P
2326.096	1.617	1443318	WORD	n/a	wordpools/wordpool_EN.txt	CLOCK	12	23	[0, 0, 0]	n/a	FR1	1	R1002P
2327.713	0.0	1444127	DISTRACT_START	n/a	n/a	n/a	-999	23	[0, 0, 0]	n/a	FR1	1	R1002P
2327.713	0.016	1444127	START	n/a	n/a	n/a	-999	23	[-999, -999, -999]	n/a	FR1	1	R1002P
2327.729	4.718	1444135	PROB	4.718	n/a	n/a	-999	23	[3, 7, 1]	11	FR1	1	R1002P
2332.447	5.751	1446493	PROB	5.751	n/a	n/a	-999	23	[9, 3, 2]	14	FR1	1	R1002P
2338.198	4.217	1449369	PROB	4.217	n/a	n/a	-999	23	[7, 7, 3]	17	FR1	1	R1002P
2342.415	4.768	1451477	PROB	4.768	n/a	n/a	-999	23	[2, 9, 6]	17	FR1	1	R1002P
2347.183	4.162	1453861	PROB	4.162	n/a	n/a	-999	23	[6, 2, 7]	15	FR1	1	R1002P
2351.345	0.005	1455942	STOP	n/a	n/a	n/a	-999	23	[-999, -999, -999]	n/a	FR1	1	R1002P
2351.35	1.186	1455944	DISTRACT_END	n/a	n/a	n/a	-999	23	[0, 0, 0]	n/a	FR1	1	R1002P
2352.536	2.566	1456537	REC_START	n/a	n/a	n/a	-999	23	[0, 0, 0]	n/a	FR1	1	R1002P
2355.102	1.427	1457820	REC_WORD	1.427	n/a	CLOWN	-999	23	[0, 0, 0]	n/a	FR1	1	R1002P
2356.529	1.48	1458534	REC_WORD	1.48	n/a	ZOO	-999	23	[0, 0, 0]	n/a	FR1	1	R1002P
2358.009	6.793	1459274	REC_WORD	6.793	n/a	WHEEL	-999	23	[0, 0, 0]	n/a	FR1	1	R1002P
2364.802	5.724	1462670	REC_WORD_VV	5.724	n/a	<>	-999	23	[0, 0, 0]	n/a	FR1	1	R1002P
2370.526	2.864	1465532	REC_WORD	2.864	n/a	POND	-999	23	[0, 0, 0]	n/a	FR1	1	R1002P
2373.39	0.307	1466964	REC_WORD_VV	0.307	n/a	<>	-999	23	[0, 0, 0]	n/a	FR1	1	R1002P
2373.697	1.629	1467117	REC_WORD	1.629	n/a	MOUSE	-999	23	[0, 0, 0]	n/a	FR1	1	R1002P
2375.326	7.22	1467932	REC_WORD	7.22	n/a	CAT	-999	23	[0, 0, 0]	n/a	FR1	1	R1002P
2382.546	2.477	1471542	REC_END	n/a	n/a	n/a	-999	23	[0, 0, 0]	n/a	FR1	1	R1002P
2385.023	0.001	1472780	COUNTDOWN_START	n/a	n/a	n/a	-999	24	[0, 0, 0]	n/a	FR1	1	R1002P
2385.024	10.427	1472781	TRIAL	n/a	n/a	n/a	-999	24	[0, 0, 0]	n/a	FR1	1	R1002P
2395.451	0.008	1477994	COUNTDOWN_END	n/a	n/a	n/a	-999	24	[0, 0, 0]	n/a	FR1	1	R1002P
2395.459	2.533	1477998	ORIENT	n/a	n/a	n/a	-999	24	[0, 0, 0]	n/a	FR1	1	R1002P
2397.992	2.418	1479264	WORD	n/a	wordpools/wordpool_EN.txt	STEM	1	24	[0, 0, 0]	n/a	FR1	1	R1002P
2400.41	2.5	1480473	WORD	n/a	wordpools/wordpool_EN.txt	WORM	2	24	[0, 0, 0]	n/a	FR1	1	R1002P
2402.91	2.434	1481723	WORD	n/a	wordpools/wordpool_EN.txt	SALT	3	24	[0, 0, 0]	n/a	FR1	1	R1002P
2405.344	2.617	1482940	WORD	n/a	wordpools/wordpool_EN.txt	CORD	4	24	[0, 0, 0]	n/a	FR1	1	R1002P
2407.961	2.5	1484248	WORD	n/a	wordpools/wordpool_EN.txt	RAKE	5	24	[0, 0, 0]	n/a	FR1	1	R1002P
2410.461	2.501	1485498	WORD	n/a	wordpools/wordpool_EN.txt	SNAIL	6	24	[0, 0, 0]	n/a	FR1	1	R1002P
2412.962	2.585	1486749	WORD	n/a	wordpools/wordpool_EN.txt	RIB	7	24	[0, 0, 0]	n/a	FR1	1	R1002P
2415.547	2.383	1488041	WORD	n/a	wordpools/wordpool_EN.txt	ANT	8	24	[0, 0, 0]	n/a	FR1	1	R1002P
2417.93	2.567	1489233	WORD	n/a	wordpools/wordpool_EN.txt	MILK	9	24	[0, 0, 0]	n/a	FR1	1	R1002P
2420.497	2.567	1490516	WORD	n/a	wordpools/wordpool_EN.txt	HEART	10	24	[0, 0, 0]	n/a	FR1	1	R1002P
2423.064	2.6	1491799	WORD	n/a	wordpools/wordpool_EN.txt	MOTH	11	24	[0, 0, 0]	n/a	FR1	1	R1002P
2425.664	1.617	1493099	WORD	n/a	wordpools/wordpool_EN.txt	FRUIT	12	24	[0, 0, 0]	n/a	FR1	1	R1002P
2427.281	0.001	1493908	DISTRACT_START	n/a	n/a	n/a	-999	24	[0, 0, 0]	n/a	FR1	1	R1002P
2427.282	0.016	1493908	START	n/a	n/a	n/a	-999	24	[-999, -999, -999]	n/a	FR1	1	R1002P
2427.298	5.384	1493916	PROB	5.384	n/a	n/a	-999	24	[5, 4, 7]	16	FR1	1	R1002P
2432.682	3.968	1496608	PROB	3.968	n/a	n/a	-999	24	[3, 3, 2]	8	FR1	1	R1002P
2436.65	5.001	1498592	PROB	5.001	n/a	n/a	-999	24	[7, 9, 3]	19	FR1	1	R1002P
2441.651	6.054	1501092	PROB	6.054	n/a	n/a	-999	24	[7, 6, 8]	21	FR1	1	R1002P
2447.705	0.014	1504119	STOP	n/a	n/a	n/a	-999	24	[-999, -999, -999]	n/a	FR1	1	R1002P
2447.719	1.217	1504126	DISTRACT_END	n/a	n/a	n/a	-999	24	[0, 0, 0]	n/a	FR1	1	R1002P
2448.936	2.448	1504735	REC_START	n/a	n/a	n/a	-999	24	[0, 0, 0]	n/a	FR1	1	R1002P
2451.384	0.847	1505959	REC_WORD	0.847	n/a	WORM	-999	24	[0, 0, 0]	n/a	FR1	1	R1002P
2452.231	1.402	1506382	REC_WORD	1.402	n/a	SALT	-999	24	[0, 0, 0]	n/a	FR1	1	R1002P
2453.633	4.611	1507083	REC_WORD	4.611	n/a	RAKE	-999	24	[0, 0, 0]	n/a	FR1	1	R1002P
2458.244	20.706	1509389	REC_WORD	20.706	n/a	SNAIL	-999	24	[0, 0, 0]	n/a	FR1	1	R1002P
2478.95	2.225	1519741	REC_END	n/a	n/a	n/a	-999	24	[0, 0, 0]	n/a	FR1	1	R1002P
2481.175	0.0	1520853	TRIAL	n/a	n/a	n/a	-999	25	[0, 0, 0]	n/a	FR1	1	R1002P
2481.175	10.428	1520853	COUNTDOWN_START	n/a	n/a	n/a	-999	25	[0, 0, 0]	n/a	FR1	1	R1002P
2491.603	0.008	1526067	COUNTDOWN_END	n/a	n/a	n/a	-999	25	[0, 0, 0]	n/a	FR1	1	R1002P
2491.611	2.433	1526071	ORIENT	n/a	n/a	n/a	-999	25	[0, 0, 0]	n/a	FR1	1	R1002P
2494.044	2.584	1527288	WORD	n/a	wordpools/wordpool_EN.txt	HAND	1	25	[0, 0, 0]	n/a	FR1	1	R1002P
2496.628	2.567	1528579	WORD	n/a	wordpools/wordpool_EN.txt	BEE	2	25	[0, 0, 0]	n/a	FR1	1	R1002P
2499.195	2.484	1529863	WORD	n/a	wordpools/wordpool_EN.txt	DOOR	3	25	[0, 0, 0]	n/a	FR1	1	R1002P
2501.679	2.517	1531105	WORD	n/a	wordpools/wordpool_EN.txt	FLUTE	4	25	[0, 0, 0]	n/a	FR1	1	R1002P
2504.196	2.418	1532363	WORD	n/a	wordpools/wordpool_EN.txt	BRANCH	5	25	[0, 0, 0]	n/a	FR1	1	R1002P
2506.614	2.383	1533572	WORD	n/a	wordpools/wordpool_EN.txt	TREE	6	25	[0, 0, 0]	n/a	FR1	1	R1002P
2508.997	2.467	1534764	WORD	n/a	wordpools/wordpool_EN.txt	MOLE	7	25	[0, 0, 0]	n/a	FR1	1	R1002P
2511.464	2.417	1535997	WORD	n/a	wordpools/wordpool_EN.txt	CANE	8	25	[0, 0, 0]	n/a	FR1	1	R1002P
2513.881	2.534	1537205	WORD	n/a	wordpools/wordpool_EN.txt	DOLL	9	25	[0, 0, 0]	n/a	FR1	1	R1002P
2516.415	2.634	1538472	WORD	n/a	wordpools/wordpool_EN.txt	HOLE	10	25	[0, 0, 0]	n/a	FR1	1	R1002P
2519.049	2.617	1539789	WORD	n/a	wordpools/wordpool_EN.txt	WEB	11	25	[0, 0, 0]	n/a	FR1	1	R1002P
2521.666	1.617	1541098	WORD	n/a	wordpools/wordpool_EN.txt	SNAKE	12	25	[0, 0, 0]	n/a	FR1	1	R1002P
2523.283	0.001	1541906	DISTRACT_START	n/a	n/a	n/a	-999	25	[0, 0, 0]	n/a	FR1	1	R1002P
2523.284	0.015	1541907	START	n/a	n/a	n/a	-999	25	[-999, -999, -999]	n/a	FR1	1	R1002P
2523.299	6.718	1541914	PROB	6.718	n/a	n/a	-999	25	[8, 7, 9]	23	FR1	1	R1002P
2530.017	5.668	1545273	PROB	5.668	n/a	n/a	-999	25	[7, 2, 7]	16	FR1	1	R1002P
2535.685	3.284	1548107	PROB	3.284	n/a	n/a	-999	25	[4, 1, 4]	9	FR1	1	R1002P
2538.969	5.088	1549749	PROB	5.088	n/a	n/a	-999	25	[5, 9, 2]	16	FR1	1	R1002P
2544.057	0.013	1552293	STOP	n/a	n/a	n/a	-999	25	[-999, -999, -999]	n/a	FR1	1	R1002P
2544.07	1.084	1552299	DISTRACT_END	n/a	n/a	n/a	-999	25	[0, 0, 0]	n/a	FR1	1	R1002P
2545.154	1.545	1552841	REC_START	n/a	n/a	n/a	-999	25	[0, 0, 0]	n/a	FR1	1	R1002P
2546.699	2.291	1553614	REC_WORD	2.291	n/a	TREE	-999	25	[0, 0, 0]	n/a	FR1	1	R1002P
2548.99	1.635	1554759	REC_WORD	1.635	n/a	CANE	-999	25	[0, 0, 0]	n/a	FR1	1	R1002P
2550.625	9.109	1555576	REC_WORD	9.109	n/a	HOLE	-999	25	[0, 0, 0]	n/a	FR1	1	R1002P
2559.734	1.026	1560131	REC_WORD	1.026	n/a	ANT	-999	25	[0, 0, 0]	n/a	FR1	1	R1002P
2560.76	14.405	1560644	REC_WORD	14.405	n/a	ANT	-999	25	[0, 0, 0]	n/a	FR1	1	R1002P
2575.165	102.364	1567846	REC_END	n/a	n/a	n/a	-999	25	[0, 0, 0]	n/a	FR1	1	R1002P
2677.529	0.0	1619025	SESS_END	n/a	n/a	n/a	-999	25	[0, 0, 0]	n/a	FR1	1	R1002P
