onset	duration	sample	trial_type	response_time	stim_file	item_name	serialpos	list	test	answer	experiment	session	subject
0.0	59.519	63287	SESS_START	n/a	n/a	n/a	-999	-999	[0, 0, 0]	n/a	FR1	1	R1052E
59.519	10.428	93045	COUNTDOWN_START	n/a	n/a	n/a	-999	-999	[0, 0, 0]	n/a	FR1	1	R1052E
69.947	3.791	98259	COUNTDOWN_END	n/a	n/a	n/a	-999	-999	[0, 0, 0]	n/a	FR1	1	R1052E
73.738	2.55	100154	PRACTICE_WORD	n/a	n/a	WATCH	1	-1	[0, 0, 0]	n/a	FR1	1	R1052E
76.288	2.517	101429	PRACTICE_WORD	n/a	n/a	TONGUE	2	-1	[0, 0, 0]	n/a	FR1	1	R1052E
78.805	2.567	102687	PRACTICE_WORD	n/a	n/a	IRON	3	-1	[0, 0, 0]	n/a	FR1	1	R1052E
81.372	2.418	103971	PRACTICE_WORD	n/a	n/a	CHEST	4	-1	[0, 0, 0]	n/a	FR1	1	R1052E
83.79	2.4	105180	PRACTICE_WORD	n/a	n/a	CAMEL	5	-1	[0, 0, 0]	n/a	FR1	1	R1052E
86.19	2.534	106379	PRACTICE_WORD	n/a	n/a	FLOOD	6	-1	[0, 0, 0]	n/a	FR1	1	R1052E
88.724	2.534	107646	PRACTICE_WORD	n/a	n/a	ATTIC	7	-1	[0, 0, 0]	n/a	FR1	1	R1052E
91.258	2.467	108913	PRACTICE_WORD	n/a	n/a	WAGON	8	-1	[0, 0, 0]	n/a	FR1	1	R1052E
93.725	2.534	110147	PRACTICE_WORD	n/a	n/a	BEAM	9	-1	[0, 0, 0]	n/a	FR1	1	R1052E
96.259	2.616	111414	PRACTICE_WORD	n/a	n/a	COTTON	10	-1	[0, 0, 0]	n/a	FR1	1	R1052E
98.875	2.418	112722	PRACTICE_WORD	n/a	n/a	RING	11	-1	[0, 0, 0]	n/a	FR1	1	R1052E
101.293	1.616	113930	PRACTICE_WORD	n/a	n/a	RHINO	12	-1	[0, 0, 0]	n/a	FR1	1	R1052E
102.909	0.0	114738	PRACTICE_DISTRACT_START	n/a	n/a	n/a	-999	-1	[0, 0, 0]	n/a	FR1	1	R1052E
102.909	0.016	114738	START	n/a	n/a	n/a	-999	-1	[-999, -999, -999]	n/a	FR1	1	R1052E
102.925	5.352	114746	PROB	5.352	n/a	n/a	-999	-1	[2, 1, 5]	8	FR1	1	R1052E
108.277	9.102	117422	PROB	9.102	n/a	n/a	-999	-1	[2, 9, 5]	16	FR1	1	R1052E
117.379	7.527	121973	PROB	7.527	n/a	n/a	-999	-1	[1, 8, 6]	17	FR1	1	R1052E
124.906	0.006	125736	STOP	n/a	n/a	n/a	-999	-1	[-999, -999, -999]	n/a	FR1	1	R1052E
124.912	0.536	125739	PRACTICE_DISTRACT_END	n/a	n/a	n/a	-999	-1	[0, 0, 0]	n/a	FR1	1	R1052E
125.448	30.515	126007	PRACTICE_REC_START	n/a	n/a	n/a	-999	-1	[0, 0, 0]	n/a	FR1	1	R1052E
155.963	20.743	141264	PRACTICE_REC_END	n/a	n/a	n/a	-999	-1	[0, 0, 0]	n/a	FR1	1	R1052E
176.706	0.0	151634	TRIAL	n/a	n/a	n/a	-999	1	[0, 0, 0]	n/a	FR1	1	R1052E
176.706	10.428	151634	COUNTDOWN_START	n/a	n/a	n/a	-999	1	[0, 0, 0]	n/a	FR1	1	R1052E
187.134	0.006	156848	COUNTDOWN_END	n/a	n/a	n/a	-999	1	[0, 0, 0]	n/a	FR1	1	R1052E
187.14	2.568	156851	ORIENT	n/a	n/a	n/a	-999	1	[0, 0, 0]	n/a	FR1	1	R1052E
189.708	2.484	158135	WORD	n/a	wordpools/wordpool_EN.txt	TOE	1	1	[0, 0, 0]	n/a	FR1	1	R1052E
192.192	2.467	159377	WORD	n/a	wordpools/wordpool_EN.txt	CHIN	2	1	[0, 0, 0]	n/a	FR1	1	R1052E
194.659	2.617	160610	WORD	n/a	wordpools/wordpool_EN.txt	WING	3	1	[0, 0, 0]	n/a	FR1	1	R1052E
197.276	2.599	161919	WORD	n/a	wordpools/wordpool_EN.txt	GLOVE	4	1	[0, 0, 0]	n/a	FR1	1	R1052E
199.875	2.535	163218	WORD	n/a	wordpools/wordpool_EN.txt	NOSE	5	1	[0, 0, 0]	n/a	FR1	1	R1052E
202.41	2.401	164486	WORD	n/a	wordpools/wordpool_EN.txt	CAT	6	1	[0, 0, 0]	n/a	FR1	1	R1052E
204.811	2.433	165686	WORD	n/a	wordpools/wordpool_EN.txt	FUR	7	1	[0, 0, 0]	n/a	FR1	1	R1052E
207.244	2.451	166902	WORD	n/a	wordpools/wordpool_EN.txt	OAR	8	1	[0, 0, 0]	n/a	FR1	1	R1052E
209.695	2.517	168128	WORD	n/a	wordpools/wordpool_EN.txt	TREE	9	1	[0, 0, 0]	n/a	FR1	1	R1052E
212.212	2.484	169386	WORD	n/a	wordpools/wordpool_EN.txt	SHIELD	10	1	[0, 0, 0]	n/a	FR1	1	R1052E
214.696	2.466	170628	WORD	n/a	wordpools/wordpool_EN.txt	ROPE	11	1	[0, 0, 0]	n/a	FR1	1	R1052E
217.162	1.618	171861	WORD	n/a	wordpools/wordpool_EN.txt	BLOOM	12	1	[0, 0, 0]	n/a	FR1	1	R1052E
218.78	0.0	172670	DISTRACT_START	n/a	n/a	n/a	-999	1	[0, 0, 0]	n/a	FR1	1	R1052E
218.78	0.016	172670	START	n/a	n/a	n/a	-999	1	[-999, -999, -999]	n/a	FR1	1	R1052E
218.796	9.134	172678	PROB	9.134	n/a	n/a	-999	1	[7, 2, 4]	13	FR1	1	R1052E
227.93	15.509	177245	PROB	15.509	n/a	n/a	-999	1	[8, 2, 7]	17	FR1	1	R1052E
243.439	0.012	184999	STOP	n/a	n/a	n/a	-999	1	[-999, -999, -999]	n/a	FR1	1	R1052E
243.451	1.189	185005	DISTRACT_END	n/a	n/a	n/a	-999	1	[0, 0, 0]	n/a	FR1	1	R1052E
244.64	1.309	185599	REC_START	n/a	n/a	n/a	-999	1	[0, 0, 0]	n/a	FR1	1	R1052E
245.949	1.185	186254	REC_WORD	1.185	n/a	TOE	-999	1	[0, 0, 0]	n/a	FR1	1	R1052E
247.134	2.116	186846	REC_WORD_VV	2.116	n/a	<>	-999	1	[0, 0, 0]	n/a	FR1	1	R1052E
249.25	5.569	187904	REC_WORD	5.569	n/a	NOSE	-999	1	[0, 0, 0]	n/a	FR1	1	R1052E
254.819	3.262	190688	REC_WORD	3.262	n/a	OAR	-999	1	[0, 0, 0]	n/a	FR1	1	R1052E
258.081	2.962	192319	REC_WORD	2.962	n/a	CHIN	-999	1	[0, 0, 0]	n/a	FR1	1	R1052E
261.043	13.601	193800	REC_WORD	13.601	n/a	WING	-999	1	[0, 0, 0]	n/a	FR1	1	R1052E
274.644	3.729	200600	REC_END	n/a	n/a	n/a	-999	1	[0, 0, 0]	n/a	FR1	1	R1052E
278.373	0.0	202464	COUNTDOWN_START	n/a	n/a	n/a	-999	2	[0, 0, 0]	n/a	FR1	1	R1052E
278.373	10.428	202464	TRIAL	n/a	n/a	n/a	-999	2	[0, 0, 0]	n/a	FR1	1	R1052E
288.801	0.008	207678	COUNTDOWN_END	n/a	n/a	n/a	-999	2	[0, 0, 0]	n/a	FR1	1	R1052E
288.809	2.417	207682	ORIENT	n/a	n/a	n/a	-999	2	[0, 0, 0]	n/a	FR1	1	R1052E
291.226	2.517	208891	WORD	n/a	wordpools/wordpool_EN.txt	FOAM	1	2	[0, 0, 0]	n/a	FR1	1	R1052E
293.743	2.383	210149	WORD	n/a	wordpools/wordpool_EN.txt	PEARL	2	2	[0, 0, 0]	n/a	FR1	1	R1052E
296.126	2.618	211340	WORD	n/a	wordpools/wordpool_EN.txt	PEACH	3	2	[0, 0, 0]	n/a	FR1	1	R1052E
298.744	2.617	212649	WORD	n/a	wordpools/wordpool_EN.txt	BEAN	4	2	[0, 0, 0]	n/a	FR1	1	R1052E
301.361	2.417	213958	WORD	n/a	wordpools/wordpool_EN.txt	JAR	5	2	[0, 0, 0]	n/a	FR1	1	R1052E
303.778	2.45	215166	WORD	n/a	wordpools/wordpool_EN.txt	DESK	6	2	[0, 0, 0]	n/a	FR1	1	R1052E
306.228	2.534	216391	WORD	n/a	wordpools/wordpool_EN.txt	SLIME	7	2	[0, 0, 0]	n/a	FR1	1	R1052E
308.762	2.484	217658	WORD	n/a	wordpools/wordpool_EN.txt	CUP	8	2	[0, 0, 0]	n/a	FR1	1	R1052E
311.246	2.633	218900	WORD	n/a	wordpools/wordpool_EN.txt	HOOK	9	2	[0, 0, 0]	n/a	FR1	1	R1052E
313.879	2.384	220216	WORD	n/a	wordpools/wordpool_EN.txt	SOUP	10	2	[0, 0, 0]	n/a	FR1	1	R1052E
316.263	2.418	221408	WORD	n/a	wordpools/wordpool_EN.txt	STOOL	11	2	[0, 0, 0]	n/a	FR1	1	R1052E
318.681	1.616	222617	WORD	n/a	wordpools/wordpool_EN.txt	FRUIT	12	2	[0, 0, 0]	n/a	FR1	1	R1052E
320.297	0.001	223425	DISTRACT_START	n/a	n/a	n/a	-999	2	[0, 0, 0]	n/a	FR1	1	R1052E
320.298	0.016	223426	START	n/a	n/a	n/a	-999	2	[-999, -999, -999]	n/a	FR1	1	R1052E
320.314	17.669	223434	PROB	17.669	n/a	n/a	-999	2	[7, 8, 2]	17	FR1	1	R1052E
337.983	11.244	232267	PROB	11.244	n/a	n/a	-999	2	[8, 5, 4]	17	FR1	1	R1052E
349.227	0.009	237889	STOP	n/a	n/a	n/a	-999	2	[-999, -999, -999]	n/a	FR1	1	R1052E
349.236	1.034	237894	DISTRACT_END	n/a	n/a	n/a	-999	2	[0, 0, 0]	n/a	FR1	1	R1052E
350.27	2.351	238411	REC_START	n/a	n/a	n/a	-999	2	[0, 0, 0]	n/a	FR1	1	R1052E
352.621	2.566	239586	REC_WORD	2.566	n/a	PEACH	-999	2	[0, 0, 0]	n/a	FR1	1	R1052E
355.187	3.522	240869	REC_WORD	3.522	n/a	JAR	-999	2	[0, 0, 0]	n/a	FR1	1	R1052E
358.709	2.85	242630	REC_WORD	2.85	n/a	SLIME	-999	2	[0, 0, 0]	n/a	FR1	1	R1052E
361.559	18.72	244055	REC_WORD	18.72	n/a	CUP	-999	2	[0, 0, 0]	n/a	FR1	1	R1052E
380.279	2.979	253414	REC_END	n/a	n/a	n/a	-999	2	[0, 0, 0]	n/a	FR1	1	R1052E
383.258	0.001	254903	COUNTDOWN_START	n/a	n/a	n/a	-999	3	[0, 0, 0]	n/a	FR1	1	R1052E
383.259	10.427	254904	TRIAL	n/a	n/a	n/a	-999	3	[0, 0, 0]	n/a	FR1	1	R1052E
393.686	0.008	260117	COUNTDOWN_END	n/a	n/a	n/a	-999	3	[0, 0, 0]	n/a	FR1	1	R1052E
393.694	2.5	260121	ORIENT	n/a	n/a	n/a	-999	3	[0, 0, 0]	n/a	FR1	1	R1052E
396.194	2.55	261371	WORD	n/a	wordpools/wordpool_EN.txt	MAP	1	3	[0, 0, 0]	n/a	FR1	1	R1052E
398.744	2.4	262646	WORD	n/a	wordpools/wordpool_EN.txt	SEED	2	3	[0, 0, 0]	n/a	FR1	1	R1052E
401.144	2.435	263846	WORD	n/a	wordpools/wordpool_EN.txt	SHELL	3	3	[0, 0, 0]	n/a	FR1	1	R1052E
403.579	2.482	265063	WORD	n/a	wordpools/wordpool_EN.txt	GOLD	4	3	[0, 0, 0]	n/a	FR1	1	R1052E
406.061	2.452	266304	WORD	n/a	wordpools/wordpool_EN.txt	SNAKE	5	3	[0, 0, 0]	n/a	FR1	1	R1052E
408.513	2.449	267530	WORD	n/a	wordpools/wordpool_EN.txt	PLANT	6	3	[0, 0, 0]	n/a	FR1	1	R1052E
410.962	2.418	268754	WORD	n/a	wordpools/wordpool_EN.txt	WORLD	7	3	[0, 0, 0]	n/a	FR1	1	R1052E
413.38	2.417	269963	WORD	n/a	wordpools/wordpool_EN.txt	STEM	8	3	[0, 0, 0]	n/a	FR1	1	R1052E
415.797	2.601	271172	WORD	n/a	wordpools/wordpool_EN.txt	ROSE	9	3	[0, 0, 0]	n/a	FR1	1	R1052E
418.398	2.616	272472	WORD	n/a	wordpools/wordpool_EN.txt	MOTH	10	3	[0, 0, 0]	n/a	FR1	1	R1052E
421.014	2.585	273780	WORD	n/a	wordpools/wordpool_EN.txt	CLOUD	11	3	[0, 0, 0]	n/a	FR1	1	R1052E
423.599	1.617	275073	WORD	n/a	wordpools/wordpool_EN.txt	KEY	12	3	[0, 0, 0]	n/a	FR1	1	R1052E
425.216	0.0	275881	DISTRACT_START	n/a	n/a	n/a	-999	3	[0, 0, 0]	n/a	FR1	1	R1052E
425.216	0.016	275881	START	n/a	n/a	n/a	-999	3	[-999, -999, -999]	n/a	FR1	1	R1052E
425.232	10.785	275889	PROB	10.785	n/a	n/a	-999	3	[8, 5, 1]	14	FR1	1	R1052E
436.017	9.199	281281	PROB	9.199	n/a	n/a	-999	3	[1, 7, 9]	17	FR1	1	R1052E
445.216	0.003	285880	STOP	n/a	n/a	n/a	-999	3	[-999, -999, -999]	n/a	FR1	1	R1052E
445.219	1.084	285882	DISTRACT_END	n/a	n/a	n/a	-999	3	[0, 0, 0]	n/a	FR1	1	R1052E
446.303	1.339	286424	REC_START	n/a	n/a	n/a	-999	3	[0, 0, 0]	n/a	FR1	1	R1052E
447.642	2.927	287093	REC_WORD	2.927	n/a	ROSE	-999	3	[0, 0, 0]	n/a	FR1	1	R1052E
450.569	9.227	288557	REC_WORD	9.227	n/a	STEM	-999	3	[0, 0, 0]	n/a	FR1	1	R1052E
459.796	4.656	293170	REC_WORD	4.656	n/a	PLANT	-999	3	[0, 0, 0]	n/a	FR1	1	R1052E
464.452	10.104	295498	REC_WORD	10.104	n/a	WATER	-999	3	[0, 0, 0]	n/a	FR1	1	R1052E
474.556	1.761	300549	REC_WORD	1.761	n/a	HOOK	-999	3	[0, 0, 0]	n/a	FR1	1	R1052E
476.317	2.275	301430	REC_END	n/a	n/a	n/a	-999	3	[0, 0, 0]	n/a	FR1	1	R1052E
478.592	0.0	302567	COUNTDOWN_START	n/a	n/a	n/a	-999	4	[0, 0, 0]	n/a	FR1	1	R1052E
478.592	10.428	302567	TRIAL	n/a	n/a	n/a	-999	4	[0, 0, 0]	n/a	FR1	1	R1052E
489.02	0.006	307781	COUNTDOWN_END	n/a	n/a	n/a	-999	4	[0, 0, 0]	n/a	FR1	1	R1052E
489.026	2.451	307784	ORIENT	n/a	n/a	n/a	-999	4	[0, 0, 0]	n/a	FR1	1	R1052E
491.477	2.5	309009	WORD	n/a	wordpools/wordpool_EN.txt	SPARK	1	4	[0, 0, 0]	n/a	FR1	1	R1052E
493.977	2.384	310259	WORD	n/a	wordpools/wordpool_EN.txt	SEAL	2	4	[0, 0, 0]	n/a	FR1	1	R1052E
496.361	2.484	311451	WORD	n/a	wordpools/wordpool_EN.txt	THREAD	3	4	[0, 0, 0]	n/a	FR1	1	R1052E
498.845	2.517	312693	WORD	n/a	wordpools/wordpool_EN.txt	DITCH	4	4	[0, 0, 0]	n/a	FR1	1	R1052E
501.362	2.418	313951	WORD	n/a	wordpools/wordpool_EN.txt	FLAG	5	4	[0, 0, 0]	n/a	FR1	1	R1052E
503.78	2.567	315160	WORD	n/a	wordpools/wordpool_EN.txt	SAIL	6	4	[0, 0, 0]	n/a	FR1	1	R1052E
506.347	2.5	316444	WORD	n/a	wordpools/wordpool_EN.txt	TANK	7	4	[0, 0, 0]	n/a	FR1	1	R1052E
508.847	2.617	317694	WORD	n/a	wordpools/wordpool_EN.txt	TOY	8	4	[0, 0, 0]	n/a	FR1	1	R1052E
511.464	2.416	319002	WORD	n/a	wordpools/wordpool_EN.txt	GRASS	9	4	[0, 0, 0]	n/a	FR1	1	R1052E
513.88	2.568	320210	WORD	n/a	wordpools/wordpool_EN.txt	SEA	10	4	[0, 0, 0]	n/a	FR1	1	R1052E
516.448	2.55	321494	WORD	n/a	wordpools/wordpool_EN.txt	SHIP	11	4	[0, 0, 0]	n/a	FR1	1	R1052E
518.998	1.618	322769	WORD	n/a	wordpools/wordpool_EN.txt	PIN	12	4	[0, 0, 0]	n/a	FR1	1	R1052E
520.616	0.0	323578	DISTRACT_START	n/a	n/a	n/a	-999	4	[0, 0, 0]	n/a	FR1	1	R1052E
520.616	0.016	323578	START	n/a	n/a	n/a	-999	4	[-999, -999, -999]	n/a	FR1	1	R1052E
520.632	15.603	323586	PROB	15.603	n/a	n/a	-999	4	[3, 3, 5]	11	FR1	1	R1052E
536.235	6.156	331387	PROB	6.156	n/a	n/a	-999	4	[9, 2, 1]	12	FR1	1	R1052E
542.391	0.012	334464	STOP	n/a	n/a	n/a	-999	4	[-999, -999, -999]	n/a	FR1	1	R1052E
542.403	1.15	334470	DISTRACT_END	n/a	n/a	n/a	-999	4	[0, 0, 0]	n/a	FR1	1	R1052E
543.553	1.777	335045	REC_START	n/a	n/a	n/a	-999	4	[0, 0, 0]	n/a	FR1	1	R1052E
545.33	1.354	335934	REC_WORD	1.354	n/a	FLAG	-999	4	[0, 0, 0]	n/a	FR1	1	R1052E
546.684	2.02	336611	REC_WORD	2.02	n/a	SAIL	-999	4	[0, 0, 0]	n/a	FR1	1	R1052E
548.704	6.912	337621	REC_WORD	6.912	n/a	SHIP	-999	4	[0, 0, 0]	n/a	FR1	1	R1052E
555.616	17.952	341077	REC_WORD_VV	17.952	n/a	<>	-999	4	[0, 0, 0]	n/a	FR1	1	R1052E
573.568	2.556	350052	REC_END	n/a	n/a	n/a	-999	4	[0, 0, 0]	n/a	FR1	1	R1052E
576.124	0.001	351330	COUNTDOWN_START	n/a	n/a	n/a	-999	5	[0, 0, 0]	n/a	FR1	1	R1052E
576.125	10.427	351330	TRIAL	n/a	n/a	n/a	-999	5	[0, 0, 0]	n/a	FR1	1	R1052E
586.552	0.009	356543	COUNTDOWN_END	n/a	n/a	n/a	-999	5	[0, 0, 0]	n/a	FR1	1	R1052E
586.561	2.499	356548	ORIENT	n/a	n/a	n/a	-999	5	[0, 0, 0]	n/a	FR1	1	R1052E
589.06	2.585	357797	WORD	n/a	wordpools/wordpool_EN.txt	CROW	1	5	[0, 0, 0]	n/a	FR1	1	R1052E
591.645	2.516	359090	WORD	n/a	wordpools/wordpool_EN.txt	SOAP	2	5	[0, 0, 0]	n/a	FR1	1	R1052E
594.161	2.501	360348	WORD	n/a	wordpools/wordpool_EN.txt	RUG	3	5	[0, 0, 0]	n/a	FR1	1	R1052E
596.662	2.4	361598	WORD	n/a	wordpools/wordpool_EN.txt	SUIT	4	5	[0, 0, 0]	n/a	FR1	1	R1052E
599.062	2.418	362798	WORD	n/a	wordpools/wordpool_EN.txt	FAN	5	5	[0, 0, 0]	n/a	FR1	1	R1052E
601.48	2.616	364007	WORD	n/a	wordpools/wordpool_EN.txt	GOAT	6	5	[0, 0, 0]	n/a	FR1	1	R1052E
604.096	2.468	365315	WORD	n/a	wordpools/wordpool_EN.txt	RIB	7	5	[0, 0, 0]	n/a	FR1	1	R1052E
606.564	2.466	366549	WORD	n/a	wordpools/wordpool_EN.txt	BOOT	8	5	[0, 0, 0]	n/a	FR1	1	R1052E
609.03	2.468	367782	WORD	n/a	wordpools/wordpool_EN.txt	SHIRT	9	5	[0, 0, 0]	n/a	FR1	1	R1052E
611.498	2.483	369016	WORD	n/a	wordpools/wordpool_EN.txt	FENCE	10	5	[0, 0, 0]	n/a	FR1	1	R1052E
613.981	2.435	370257	WORD	n/a	wordpools/wordpool_EN.txt	BROOM	11	5	[0, 0, 0]	n/a	FR1	1	R1052E
616.416	1.616	371474	WORD	n/a	wordpools/wordpool_EN.txt	PANTS	12	5	[0, 0, 0]	n/a	FR1	1	R1052E
618.032	0.0	372282	DISTRACT_START	n/a	n/a	n/a	-999	5	[0, 0, 0]	n/a	FR1	1	R1052E
618.032	0.016	372282	START	n/a	n/a	n/a	-999	5	[-999, -999, -999]	n/a	FR1	1	R1052E
618.048	10.737	372290	PROB	10.737	n/a	n/a	-999	5	[4, 2, 5]	11	FR1	1	R1052E
628.785	16.544	377659	PROB	16.544	n/a	n/a	-999	5	[7, 3, 7]	17	FR1	1	R1052E
645.329	0.009	385930	STOP	n/a	n/a	n/a	-999	5	[-999, -999, -999]	n/a	FR1	1	R1052E
645.338	1.134	385935	DISTRACT_END	n/a	n/a	n/a	-999	5	[0, 0, 0]	n/a	FR1	1	R1052E
646.472	2.148	386501	REC_START	n/a	n/a	n/a	-999	5	[0, 0, 0]	n/a	FR1	1	R1052E
648.62	3.039	387575	REC_WORD	3.039	n/a	CROW	-999	5	[0, 0, 0]	n/a	FR1	1	R1052E
651.659	2.25	389095	REC_WORD	2.25	n/a	RIB	-999	5	[0, 0, 0]	n/a	FR1	1	R1052E
653.909	4.7	390220	REC_WORD	4.7	n/a	HUG	-999	5	[0, 0, 0]	n/a	FR1	1	R1052E
658.609	4.907	392570	REC_WORD	4.907	n/a	PANTS	-999	5	[0, 0, 0]	n/a	FR1	1	R1052E
663.516	12.965	395023	REC_WORD	12.965	n/a	CAGE	-999	5	[0, 0, 0]	n/a	FR1	1	R1052E
676.481	4.395	401505	REC_END	n/a	n/a	n/a	-999	5	[0, 0, 0]	n/a	FR1	1	R1052E
680.876	0.0	403702	TRIAL	n/a	n/a	n/a	-999	6	[0, 0, 0]	n/a	FR1	1	R1052E
680.876	10.428	403702	COUNTDOWN_START	n/a	n/a	n/a	-999	6	[0, 0, 0]	n/a	FR1	1	R1052E
691.304	0.008	408916	COUNTDOWN_END	n/a	n/a	n/a	-999	6	[0, 0, 0]	n/a	FR1	1	R1052E
691.312	2.583	408920	ORIENT	n/a	n/a	n/a	-999	6	[0, 0, 0]	n/a	FR1	1	R1052E
693.895	2.418	410211	WORD	n/a	wordpools/wordpool_EN.txt	BAT	1	6	[0, 0, 0]	n/a	FR1	1	R1052E
696.313	2.6	411420	WORD	n/a	wordpools/wordpool_EN.txt	FLEA	2	6	[0, 0, 0]	n/a	FR1	1	R1052E
698.913	2.451	412720	WORD	n/a	wordpools/wordpool_EN.txt	NEST	3	6	[0, 0, 0]	n/a	FR1	1	R1052E
701.364	2.599	413946	WORD	n/a	wordpools/wordpool_EN.txt	WHALE	4	6	[0, 0, 0]	n/a	FR1	1	R1052E
703.963	2.385	415245	WORD	n/a	wordpools/wordpool_EN.txt	HORN	5	6	[0, 0, 0]	n/a	FR1	1	R1052E
706.348	2.566	416437	WORD	n/a	wordpools/wordpool_EN.txt	PIG	6	6	[0, 0, 0]	n/a	FR1	1	R1052E
708.914	2.602	417720	WORD	n/a	wordpools/wordpool_EN.txt	ANT	7	6	[0, 0, 0]	n/a	FR1	1	R1052E
711.516	2.433	419021	WORD	n/a	wordpools/wordpool_EN.txt	SNAIL	8	6	[0, 0, 0]	n/a	FR1	1	R1052E
713.949	2.618	420238	WORD	n/a	wordpools/wordpool_EN.txt	TAIL	9	6	[0, 0, 0]	n/a	FR1	1	R1052E
716.567	2.399	421547	WORD	n/a	wordpools/wordpool_EN.txt	WORM	10	6	[0, 0, 0]	n/a	FR1	1	R1052E
718.966	2.601	422746	WORD	n/a	wordpools/wordpool_EN.txt	BALL	11	6	[0, 0, 0]	n/a	FR1	1	R1052E
721.567	1.617	424046	WORD	n/a	wordpools/wordpool_EN.txt	BEE	12	6	[0, 0, 0]	n/a	FR1	1	R1052E
723.184	0.001	424855	DISTRACT_START	n/a	n/a	n/a	-999	6	[0, 0, 0]	n/a	FR1	1	R1052E
723.185	0.016	424855	START	n/a	n/a	n/a	-999	6	[-999, -999, -999]	n/a	FR1	1	R1052E
723.201	7.218	424863	PROB	7.218	n/a	n/a	-999	6	[6, 5, 5]	16	FR1	1	R1052E
730.419	16.653	428472	PROB	16.653	n/a	n/a	-999	6	[8, 3, 5]	17	FR1	1	R1052E
747.072	0.016	436798	STOP	n/a	n/a	n/a	-999	6	[-999, -999, -999]	n/a	FR1	1	R1052E
747.088	1.118	436806	DISTRACT_END	n/a	n/a	n/a	-999	6	[0, 0, 0]	n/a	FR1	1	R1052E
748.206	9.803	437365	REC_START	n/a	n/a	n/a	-999	6	[0, 0, 0]	n/a	FR1	1	R1052E
758.009	2.116	442266	REC_WORD	2.116	n/a	FLEA	-999	6	[0, 0, 0]	n/a	FR1	1	R1052E
760.125	2.379	443324	REC_WORD	2.379	n/a	NEST	-999	6	[0, 0, 0]	n/a	FR1	1	R1052E
762.504	2.644	444514	REC_WORD	2.644	n/a	WHALE	-999	6	[0, 0, 0]	n/a	FR1	1	R1052E
765.148	13.073	445835	REC_WORD	13.073	n/a	PIG	-999	6	[0, 0, 0]	n/a	FR1	1	R1052E
778.221	2.04	452371	REC_END	n/a	n/a	n/a	-999	6	[0, 0, 0]	n/a	FR1	1	R1052E
780.261	0.0	453391	TRIAL	n/a	n/a	n/a	-999	7	[0, 0, 0]	n/a	FR1	1	R1052E
780.261	10.428	453391	COUNTDOWN_START	n/a	n/a	n/a	-999	7	[0, 0, 0]	n/a	FR1	1	R1052E
790.689	0.007	458605	COUNTDOWN_END	n/a	n/a	n/a	-999	7	[0, 0, 0]	n/a	FR1	1	R1052E
790.696	2.551	458609	ORIENT	n/a	n/a	n/a	-999	7	[0, 0, 0]	n/a	FR1	1	R1052E
793.247	2.567	459884	WORD	n/a	wordpools/wordpool_EN.txt	BOMB	1	7	[0, 0, 0]	n/a	FR1	1	R1052E
795.814	2.417	461167	WORD	n/a	wordpools/wordpool_EN.txt	FORT	2	7	[0, 0, 0]	n/a	FR1	1	R1052E
798.231	2.5	462376	WORD	n/a	wordpools/wordpool_EN.txt	STEAM	3	7	[0, 0, 0]	n/a	FR1	1	R1052E
800.731	2.433	463626	WORD	n/a	wordpools/wordpool_EN.txt	DRUM	4	7	[0, 0, 0]	n/a	FR1	1	R1052E
803.164	2.468	464842	WORD	n/a	wordpools/wordpool_EN.txt	BARN	5	7	[0, 0, 0]	n/a	FR1	1	R1052E
805.632	2.584	466076	WORD	n/a	wordpools/wordpool_EN.txt	TRASH	6	7	[0, 0, 0]	n/a	FR1	1	R1052E
808.216	2.484	467368	WORD	n/a	wordpools/wordpool_EN.txt	FLUTE	7	7	[0, 0, 0]	n/a	FR1	1	R1052E
810.7	2.584	468610	WORD	n/a	wordpools/wordpool_EN.txt	WHEEL	8	7	[0, 0, 0]	n/a	FR1	1	R1052E
813.284	2.517	469902	WORD	n/a	wordpools/wordpool_EN.txt	RAIN	9	7	[0, 0, 0]	n/a	FR1	1	R1052E
815.801	2.45	471160	WORD	n/a	wordpools/wordpool_EN.txt	BRIDGE	10	7	[0, 0, 0]	n/a	FR1	1	R1052E
818.251	2.6	472385	WORD	n/a	wordpools/wordpool_EN.txt	LAND	11	7	[0, 0, 0]	n/a	FR1	1	R1052E
820.851	1.617	473685	WORD	n/a	wordpools/wordpool_EN.txt	FOG	12	7	[0, 0, 0]	n/a	FR1	1	R1052E
822.468	0.001	474493	DISTRACT_START	n/a	n/a	n/a	-999	7	[0, 0, 0]	n/a	FR1	1	R1052E
822.469	0.016	474494	START	n/a	n/a	n/a	-999	7	[-999, -999, -999]	n/a	FR1	1	R1052E
822.485	20.044	474502	PROB	20.044	n/a	n/a	-999	7	[7, 9, 8]	24	FR1	1	R1052E
842.529	0.01	484523	STOP	n/a	n/a	n/a	-999	7	[-999, -999, -999]	n/a	FR1	1	R1052E
842.539	1.067	484528	DISTRACT_END	n/a	n/a	n/a	-999	7	[0, 0, 0]	n/a	FR1	1	R1052E
843.606	4.629	485062	REC_START	n/a	n/a	n/a	-999	7	[0, 0, 0]	n/a	FR1	1	R1052E
848.235	3.844	487376	REC_WORD	3.844	n/a	BOMB	-999	7	[0, 0, 0]	n/a	FR1	1	R1052E
852.079	21.537	489298	REC_WORD	21.537	n/a	BRIDGE	-999	7	[0, 0, 0]	n/a	FR1	1	R1052E
873.616	2.845	500066	REC_END	n/a	n/a	n/a	-999	7	[0, 0, 0]	n/a	FR1	1	R1052E
876.461	0.0	501488	COUNTDOWN_START	n/a	n/a	n/a	-999	8	[0, 0, 0]	n/a	FR1	1	R1052E
876.461	10.428	501488	TRIAL	n/a	n/a	n/a	-999	8	[0, 0, 0]	n/a	FR1	1	R1052E
886.889	0.006	506702	COUNTDOWN_END	n/a	n/a	n/a	-999	8	[0, 0, 0]	n/a	FR1	1	R1052E
886.895	2.569	506705	ORIENT	n/a	n/a	n/a	-999	8	[0, 0, 0]	n/a	FR1	1	R1052E
889.464	2.449	507989	WORD	n/a	wordpools/wordpool_EN.txt	VINE	1	8	[0, 0, 0]	n/a	FR1	1	R1052E
891.913	2.585	509214	WORD	n/a	wordpools/wordpool_EN.txt	EAR	2	8	[0, 0, 0]	n/a	FR1	1	R1052E
894.498	2.432	510506	WORD	n/a	wordpools/wordpool_EN.txt	FOOD	3	8	[0, 0, 0]	n/a	FR1	1	R1052E
896.93	2.502	511722	WORD	n/a	wordpools/wordpool_EN.txt	HEART	4	8	[0, 0, 0]	n/a	FR1	1	R1052E
899.432	2.6	512973	WORD	n/a	wordpools/wordpool_EN.txt	BED	5	8	[0, 0, 0]	n/a	FR1	1	R1052E
902.032	2.434	514273	WORD	n/a	wordpools/wordpool_EN.txt	HOSE	6	8	[0, 0, 0]	n/a	FR1	1	R1052E
904.466	2.533	515490	WORD	n/a	wordpools/wordpool_EN.txt	TRAIN	7	8	[0, 0, 0]	n/a	FR1	1	R1052E
906.999	2.601	516756	WORD	n/a	wordpools/wordpool_EN.txt	MOUSE	8	8	[0, 0, 0]	n/a	FR1	1	R1052E
909.6	2.417	518057	WORD	n/a	wordpools/wordpool_EN.txt	SMOKE	9	8	[0, 0, 0]	n/a	FR1	1	R1052E
912.017	2.451	519265	WORD	n/a	wordpools/wordpool_EN.txt	ROOM	10	8	[0, 0, 0]	n/a	FR1	1	R1052E
914.468	2.549	520490	WORD	n/a	wordpools/wordpool_EN.txt	MOOSE	11	8	[0, 0, 0]	n/a	FR1	1	R1052E
917.017	1.601	521765	WORD	n/a	wordpools/wordpool_EN.txt	CAKE	12	8	[0, 0, 0]	n/a	FR1	1	R1052E
918.618	0.001	522565	DISTRACT_START	n/a	n/a	n/a	-999	8	[0, 0, 0]	n/a	FR1	1	R1052E
918.619	0.016	522566	START	n/a	n/a	n/a	-999	8	[-999, -999, -999]	n/a	FR1	1	R1052E
918.635	28.86	522574	PROB	28.86	n/a	n/a	-999	8	[9, 2, 8]	19	FR1	1	R1052E
947.495	0.012	537003	STOP	n/a	n/a	n/a	-999	8	[-999, -999, -999]	n/a	FR1	1	R1052E
947.507	1.034	537009	DISTRACT_END	n/a	n/a	n/a	-999	8	[0, 0, 0]	n/a	FR1	1	R1052E
948.541	1.352	537526	REC_START	n/a	n/a	n/a	-999	8	[0, 0, 0]	n/a	FR1	1	R1052E
949.893	2.599	538202	REC_WORD	2.599	n/a	VINE	-999	8	[0, 0, 0]	n/a	FR1	1	R1052E
952.492	2.258	539501	REC_WORD	2.258	n/a	EAT	-999	8	[0, 0, 0]	n/a	FR1	1	R1052E
954.75	4.702	540630	REC_WORD	4.702	n/a	FOOD	-999	8	[0, 0, 0]	n/a	FR1	1	R1052E
959.452	19.098	542981	REC_WORD_VV	19.098	n/a	<>	-999	8	[0, 0, 0]	n/a	FR1	1	R1052E
978.55	2.713	552529	REC_END	n/a	n/a	n/a	-999	8	[0, 0, 0]	n/a	FR1	1	R1052E
981.263	0.0	553886	TRIAL	n/a	n/a	n/a	-999	9	[0, 0, 0]	n/a	FR1	1	R1052E
981.263	10.428	553886	COUNTDOWN_START	n/a	n/a	n/a	-999	9	[0, 0, 0]	n/a	FR1	1	R1052E
991.691	0.007	559099	COUNTDOWN_END	n/a	n/a	n/a	-999	9	[0, 0, 0]	n/a	FR1	1	R1052E
991.698	2.399	559103	ORIENT	n/a	n/a	n/a	-999	9	[0, 0, 0]	n/a	FR1	1	R1052E
994.097	2.469	560302	WORD	n/a	wordpools/wordpool_EN.txt	MAT	1	9	[0, 0, 0]	n/a	FR1	1	R1052E
996.566	2.499	561537	WORD	n/a	wordpools/wordpool_EN.txt	COW	2	9	[0, 0, 0]	n/a	FR1	1	R1052E
999.065	2.485	562786	WORD	n/a	wordpools/wordpool_EN.txt	PIE	3	9	[0, 0, 0]	n/a	FR1	1	R1052E
1001.55	2.466	564028	WORD	n/a	wordpools/wordpool_EN.txt	BREAD	4	9	[0, 0, 0]	n/a	FR1	1	R1052E
1004.016	2.418	565261	WORD	n/a	wordpools/wordpool_EN.txt	DOLL	5	9	[0, 0, 0]	n/a	FR1	1	R1052E
1006.434	2.516	566470	WORD	n/a	wordpools/wordpool_EN.txt	VASE	6	9	[0, 0, 0]	n/a	FR1	1	R1052E
1008.95	2.535	567728	WORD	n/a	wordpools/wordpool_EN.txt	SPRING	7	9	[0, 0, 0]	n/a	FR1	1	R1052E
1011.485	2.599	568996	WORD	n/a	wordpools/wordpool_EN.txt	SINK	8	9	[0, 0, 0]	n/a	FR1	1	R1052E
1014.084	2.585	570295	WORD	n/a	wordpools/wordpool_EN.txt	SEAT	9	9	[0, 0, 0]	n/a	FR1	1	R1052E
1016.669	2.601	571587	WORD	n/a	wordpools/wordpool_EN.txt	SHEEP	10	9	[0, 0, 0]	n/a	FR1	1	R1052E
1019.27	2.483	572888	WORD	n/a	wordpools/wordpool_EN.txt	CLOTH	11	9	[0, 0, 0]	n/a	FR1	1	R1052E
1021.753	1.617	574129	WORD	n/a	wordpools/wordpool_EN.txt	BLUSH	12	9	[0, 0, 0]	n/a	FR1	1	R1052E
1023.37	0.001	574938	DISTRACT_START	n/a	n/a	n/a	-999	9	[0, 0, 0]	n/a	FR1	1	R1052E
1023.371	0.016	574938	START	n/a	n/a	n/a	-999	9	[-999, -999, -999]	n/a	FR1	1	R1052E
1023.387	12.169	574946	PROB	12.169	n/a	n/a	-999	9	[7, 1, 4]	12	FR1	1	R1052E
1035.556	29.499	581030	PROB	29.499	n/a	n/a	-999	9	[5, 8, 8]	20	FR1	1	R1052E
1065.055	0.005	595779	STOP	n/a	n/a	n/a	-999	9	[-999, -999, -999]	n/a	FR1	1	R1052E
1065.06	1.218	595781	DISTRACT_END	n/a	n/a	n/a	-999	9	[0, 0, 0]	n/a	FR1	1	R1052E
1066.278	8.459	596390	REC_START	n/a	n/a	n/a	-999	9	[0, 0, 0]	n/a	FR1	1	R1052E
1074.737	3.201	600619	REC_WORD	3.201	n/a	COW	-999	9	[0, 0, 0]	n/a	FR1	1	R1052E
1077.938	14.946	602220	REC_WORD	14.946	n/a	PIE	-999	9	[0, 0, 0]	n/a	FR1	1	R1052E
1092.884	3.41	609692	REC_WORD_VV	3.41	n/a	<>	-999	9	[0, 0, 0]	n/a	FR1	1	R1052E
1096.294	31.727	611397	REC_END	n/a	n/a	n/a	-999	9	[0, 0, 0]	n/a	FR1	1	R1052E
1128.021	0.0	627260	COUNTDOWN_START	n/a	n/a	n/a	-999	10	[0, 0, 0]	n/a	FR1	1	R1052E
1128.021	10.428	627260	TRIAL	n/a	n/a	n/a	-999	10	[0, 0, 0]	n/a	FR1	1	R1052E
1138.449	0.008	632473	COUNTDOWN_END	n/a	n/a	n/a	-999	10	[0, 0, 0]	n/a	FR1	1	R1052E
1138.457	2.416	632477	ORIENT	n/a	n/a	n/a	-999	10	[0, 0, 0]	n/a	FR1	1	R1052E
1140.873	2.568	633685	WORD	n/a	wordpools/wordpool_EN.txt	LAMP	1	10	[0, 0, 0]	n/a	FR1	1	R1052E
1143.441	2.516	634969	WORD	n/a	wordpools/wordpool_EN.txt	BOX	2	10	[0, 0, 0]	n/a	FR1	1	R1052E
1145.957	2.469	636227	WORD	n/a	wordpools/wordpool_EN.txt	CHAIR	3	10	[0, 0, 0]	n/a	FR1	1	R1052E
1148.426	2.499	637461	WORD	n/a	wordpools/wordpool_EN.txt	PHONE	4	10	[0, 0, 0]	n/a	FR1	1	R1052E
1150.925	2.568	638711	WORD	n/a	wordpools/wordpool_EN.txt	GATE	5	10	[0, 0, 0]	n/a	FR1	1	R1052E
1153.493	2.616	639995	WORD	n/a	wordpools/wordpool_EN.txt	OAK	6	10	[0, 0, 0]	n/a	FR1	1	R1052E
1156.109	2.435	641303	WORD	n/a	wordpools/wordpool_EN.txt	SHARK	7	10	[0, 0, 0]	n/a	FR1	1	R1052E
1158.544	2.549	642520	WORD	n/a	wordpools/wordpool_EN.txt	LOCK	8	10	[0, 0, 0]	n/a	FR1	1	R1052E
1161.093	2.402	643794	WORD	n/a	wordpools/wordpool_EN.txt	STREET	9	10	[0, 0, 0]	n/a	FR1	1	R1052E
1163.495	2.566	644995	WORD	n/a	wordpools/wordpool_EN.txt	MAZE	10	10	[0, 0, 0]	n/a	FR1	1	R1052E
1166.061	2.501	646278	WORD	n/a	wordpools/wordpool_EN.txt	CLOCK	11	10	[0, 0, 0]	n/a	FR1	1	R1052E
1168.562	1.616	647529	WORD	n/a	wordpools/wordpool_EN.txt	LAWN	12	10	[0, 0, 0]	n/a	FR1	1	R1052E
1170.178	0.001	648337	DISTRACT_START	n/a	n/a	n/a	-999	10	[0, 0, 0]	n/a	FR1	1	R1052E
1170.179	0.017	648337	START	n/a	n/a	n/a	-999	10	[-999, -999, -999]	n/a	FR1	1	R1052E
1170.196	16.885	648346	PROB	16.885	n/a	n/a	-999	10	[4, 7, 2]	13	FR1	1	R1052E
1187.081	28.25	656788	PROB	28.25	n/a	n/a	-999	10	[9, 8, 6]	23	FR1	1	R1052E
1215.331	0.006	670912	STOP	n/a	n/a	n/a	-999	10	[-999, -999, -999]	n/a	FR1	1	R1052E
1215.337	1.101	670915	DISTRACT_END	n/a	n/a	n/a	-999	10	[0, 0, 0]	n/a	FR1	1	R1052E
1216.438	2.653	671465	REC_START	n/a	n/a	n/a	-999	10	[0, 0, 0]	n/a	FR1	1	R1052E
1219.091	2.959	672792	REC_WORD	2.959	n/a	LAMP	-999	10	[0, 0, 0]	n/a	FR1	1	R1052E
1222.05	3.798	674271	REC_WORD	3.798	n/a	PHONE	-999	10	[0, 0, 0]	n/a	FR1	1	R1052E
1225.848	20.599	676170	REC_WORD	20.599	n/a	CLOCK	-999	10	[0, 0, 0]	n/a	FR1	1	R1052E
1246.447	2.963	686469	REC_END	n/a	n/a	n/a	-999	10	[0, 0, 0]	n/a	FR1	1	R1052E
1249.41	0.0	687950	TRIAL	n/a	n/a	n/a	-999	11	[0, 0, 0]	n/a	FR1	1	R1052E
1249.41	10.428	687950	COUNTDOWN_START	n/a	n/a	n/a	-999	11	[0, 0, 0]	n/a	FR1	1	R1052E
1259.838	0.007	693164	COUNTDOWN_END	n/a	n/a	n/a	-999	11	[0, 0, 0]	n/a	FR1	1	R1052E
1259.845	2.484	693167	ORIENT	n/a	n/a	n/a	-999	11	[0, 0, 0]	n/a	FR1	1	R1052E
1262.329	2.45	694409	WORD	n/a	wordpools/wordpool_EN.txt	BENCH	1	11	[0, 0, 0]	n/a	FR1	1	R1052E
1264.779	2.383	695634	WORD	n/a	wordpools/wordpool_EN.txt	COUCH	2	11	[0, 0, 0]	n/a	FR1	1	R1052E
1267.162	2.518	696825	WORD	n/a	wordpools/wordpool_EN.txt	POOL	3	11	[0, 0, 0]	n/a	FR1	1	R1052E
1269.68	2.534	698084	WORD	n/a	wordpools/wordpool_EN.txt	AXE	4	11	[0, 0, 0]	n/a	FR1	1	R1052E
1272.214	2.434	699351	WORD	n/a	wordpools/wordpool_EN.txt	TEA	5	11	[0, 0, 0]	n/a	FR1	1	R1052E
1274.648	2.55	700568	WORD	n/a	wordpools/wordpool_EN.txt	FLOOR	6	11	[0, 0, 0]	n/a	FR1	1	R1052E
1277.198	2.6	701843	WORD	n/a	wordpools/wordpool_EN.txt	LEG	7	11	[0, 0, 0]	n/a	FR1	1	R1052E
1279.798	2.451	703143	WORD	n/a	wordpools/wordpool_EN.txt	HOUSE	8	11	[0, 0, 0]	n/a	FR1	1	R1052E
1282.249	2.599	704368	WORD	n/a	wordpools/wordpool_EN.txt	PURSE	9	11	[0, 0, 0]	n/a	FR1	1	R1052E
1284.848	2.602	705668	WORD	n/a	wordpools/wordpool_EN.txt	PALM	10	11	[0, 0, 0]	n/a	FR1	1	R1052E
1287.45	2.616	706969	WORD	n/a	wordpools/wordpool_EN.txt	DART	11	11	[0, 0, 0]	n/a	FR1	1	R1052E
1290.066	1.601	708277	WORD	n/a	wordpools/wordpool_EN.txt	SHOE	12	11	[0, 0, 0]	n/a	FR1	1	R1052E
1291.667	0.001	709077	DISTRACT_START	n/a	n/a	n/a	-999	11	[0, 0, 0]	n/a	FR1	1	R1052E
1291.668	0.016	709078	START	n/a	n/a	n/a	-999	11	[-999, -999, -999]	n/a	FR1	1	R1052E
1291.684	15.686	709086	PROB	15.686	n/a	n/a	-999	11	[2, 4, 9]	13	FR1	1	R1052E
1307.37	18.327	716928	PROB	18.327	n/a	n/a	-999	11	[8, 2, 7]	17	FR1	1	R1052E
1325.697	0.01	726091	STOP	n/a	n/a	n/a	-999	11	[-999, -999, -999]	n/a	FR1	1	R1052E
1325.707	1.067	726096	DISTRACT_END	n/a	n/a	n/a	-999	11	[0, 0, 0]	n/a	FR1	1	R1052E
1326.774	4.961	726629	REC_START	n/a	n/a	n/a	-999	11	[0, 0, 0]	n/a	FR1	1	R1052E
1331.735	3.4	729110	REC_WORD	3.4	n/a	FLOOR	-999	11	[0, 0, 0]	n/a	FR1	1	R1052E
1335.135	3.836	730810	REC_WORD	3.836	n/a	LEG	-999	11	[0, 0, 0]	n/a	FR1	1	R1052E
1338.971	17.812	732727	REC_WORD	17.812	n/a	HOUSE	-999	11	[0, 0, 0]	n/a	FR1	1	R1052E
1356.783	3.129	741633	REC_END	n/a	n/a	n/a	-999	11	[0, 0, 0]	n/a	FR1	1	R1052E
1359.912	0.0	743197	TRIAL	n/a	n/a	n/a	-999	12	[0, 0, 0]	n/a	FR1	1	R1052E
1359.912	10.428	743197	COUNTDOWN_START	n/a	n/a	n/a	-999	12	[0, 0, 0]	n/a	FR1	1	R1052E
1370.34	0.008	748411	COUNTDOWN_END	n/a	n/a	n/a	-999	12	[0, 0, 0]	n/a	FR1	1	R1052E
1370.348	2.566	748415	ORIENT	n/a	n/a	n/a	-999	12	[0, 0, 0]	n/a	FR1	1	R1052E
1372.914	2.518	749698	WORD	n/a	wordpools/wordpool_EN.txt	RICE	1	12	[0, 0, 0]	n/a	FR1	1	R1052E
1375.432	2.416	750957	WORD	n/a	wordpools/wordpool_EN.txt	EGG	2	12	[0, 0, 0]	n/a	FR1	1	R1052E
1377.848	2.535	752165	WORD	n/a	wordpools/wordpool_EN.txt	CORD	3	12	[0, 0, 0]	n/a	FR1	1	R1052E
1380.383	2.633	753432	WORD	n/a	wordpools/wordpool_EN.txt	NET	4	12	[0, 0, 0]	n/a	FR1	1	R1052E
1383.016	2.584	754748	WORD	n/a	wordpools/wordpool_EN.txt	WAVE	5	12	[0, 0, 0]	n/a	FR1	1	R1052E
1385.6	2.466	756040	WORD	n/a	wordpools/wordpool_EN.txt	POLE	6	12	[0, 0, 0]	n/a	FR1	1	R1052E
1388.066	2.369	757273	WORD	n/a	wordpools/wordpool_EN.txt	PEA	7	12	[0, 0, 0]	n/a	FR1	1	R1052E
1390.435	2.582	758458	WORD	n/a	wordpools/wordpool_EN.txt	TOAD	8	12	[0, 0, 0]	n/a	FR1	1	R1052E
1393.017	2.402	759749	WORD	n/a	wordpools/wordpool_EN.txt	SHEET	9	12	[0, 0, 0]	n/a	FR1	1	R1052E
1395.419	2.432	760950	WORD	n/a	wordpools/wordpool_EN.txt	CASH	10	12	[0, 0, 0]	n/a	FR1	1	R1052E
1397.851	2.435	762165	WORD	n/a	wordpools/wordpool_EN.txt	HEN	11	12	[0, 0, 0]	n/a	FR1	1	R1052E
1400.286	1.616	763383	WORD	n/a	wordpools/wordpool_EN.txt	COIN	12	12	[0, 0, 0]	n/a	FR1	1	R1052E
1401.902	0.001	764191	DISTRACT_START	n/a	n/a	n/a	-999	12	[0, 0, 0]	n/a	FR1	1	R1052E
1401.903	0.016	764191	START	n/a	n/a	n/a	-999	12	[-999, -999, -999]	n/a	FR1	1	R1052E
1401.919	18.838	764199	PROB	18.838	n/a	n/a	-999	12	[5, 1, 7]	13	FR1	1	R1052E
1420.757	24.938	773618	PROB	24.938	n/a	n/a	-999	12	[9, 9, 5]	23	FR1	1	R1052E
1445.695	0.016	786086	STOP	n/a	n/a	n/a	-999	12	[-999, -999, -999]	n/a	FR1	1	R1052E
1445.711	1.101	786094	DISTRACT_END	n/a	n/a	n/a	-999	12	[0, 0, 0]	n/a	FR1	1	R1052E
1446.812	1.656	786644	REC_START	n/a	n/a	n/a	-999	12	[0, 0, 0]	n/a	FR1	1	R1052E
1448.468	8.785	787472	REC_WORD	8.785	n/a	WAVE	-999	12	[0, 0, 0]	n/a	FR1	1	R1052E
1457.253	9.319	791864	REC_WORD	9.319	n/a	TOAD	-999	12	[0, 0, 0]	n/a	FR1	1	R1052E
1466.572	2.127	796524	REC_WORD	2.127	n/a	EGG	-999	12	[0, 0, 0]	n/a	FR1	1	R1052E
1468.699	2.012	797587	REC_WORD	2.012	n/a	CASH	-999	12	[0, 0, 0]	n/a	FR1	1	R1052E
1470.711	5.436	798593	REC_WORD	5.436	n/a	COIN	-999	12	[0, 0, 0]	n/a	FR1	1	R1052E
1476.147	0.674	801311	REC_WORD	0.674	n/a	RICE	-999	12	[0, 0, 0]	n/a	FR1	1	R1052E
1476.821	4.212	801648	REC_END	n/a	n/a	n/a	-999	12	[0, 0, 0]	n/a	FR1	1	R1052E
1481.033	0.0	803754	TRIAL	n/a	n/a	n/a	-999	13	[0, 0, 0]	n/a	FR1	1	R1052E
1481.033	10.428	803754	COUNTDOWN_START	n/a	n/a	n/a	-999	13	[0, 0, 0]	n/a	FR1	1	R1052E
1491.461	0.008	808967	COUNTDOWN_END	n/a	n/a	n/a	-999	13	[0, 0, 0]	n/a	FR1	1	R1052E
1491.469	2.399	808971	ORIENT	n/a	n/a	n/a	-999	13	[0, 0, 0]	n/a	FR1	1	R1052E
1493.868	2.435	810171	WORD	n/a	wordpools/wordpool_EN.txt	MOON	1	13	[0, 0, 0]	n/a	FR1	1	R1052E
1496.303	2.484	811388	WORD	n/a	wordpools/wordpool_EN.txt	GRAPE	2	13	[0, 0, 0]	n/a	FR1	1	R1052E
1498.787	2.567	812630	WORD	n/a	wordpools/wordpool_EN.txt	ICE	3	13	[0, 0, 0]	n/a	FR1	1	R1052E
1501.354	2.434	813913	WORD	n/a	wordpools/wordpool_EN.txt	PLANE	4	13	[0, 0, 0]	n/a	FR1	1	R1052E
1503.788	2.6	815130	WORD	n/a	wordpools/wordpool_EN.txt	JET	5	13	[0, 0, 0]	n/a	FR1	1	R1052E
1506.388	2.616	816430	WORD	n/a	wordpools/wordpool_EN.txt	CAPE	6	13	[0, 0, 0]	n/a	FR1	1	R1052E
1509.004	2.535	817738	WORD	n/a	wordpools/wordpool_EN.txt	SLUSH	7	13	[0, 0, 0]	n/a	FR1	1	R1052E
1511.539	2.6	819006	WORD	n/a	wordpools/wordpool_EN.txt	ROCK	8	13	[0, 0, 0]	n/a	FR1	1	R1052E
1514.139	2.434	820306	WORD	n/a	wordpools/wordpool_EN.txt	DOG	9	13	[0, 0, 0]	n/a	FR1	1	R1052E
1516.573	2.583	821522	WORD	n/a	wordpools/wordpool_EN.txt	STAR	10	13	[0, 0, 0]	n/a	FR1	1	R1052E
1519.156	2.401	822814	WORD	n/a	wordpools/wordpool_EN.txt	PRINCE	11	13	[0, 0, 0]	n/a	FR1	1	R1052E
1521.557	1.616	824014	WORD	n/a	wordpools/wordpool_EN.txt	FISH	12	13	[0, 0, 0]	n/a	FR1	1	R1052E
1523.173	0.001	824822	DISTRACT_START	n/a	n/a	n/a	-999	13	[0, 0, 0]	n/a	FR1	1	R1052E
1523.174	0.017	824823	START	n/a	n/a	n/a	-999	13	[-999, -999, -999]	n/a	FR1	1	R1052E
1523.191	34.627	824831	PROB	34.627	n/a	n/a	-999	13	[7, 7, 8]	22	FR1	1	R1052E
1557.818	0.013	842144	STOP	n/a	n/a	n/a	-999	13	[-999, -999, -999]	n/a	FR1	1	R1052E
1557.831	1.199	842150	DISTRACT_END	n/a	n/a	n/a	-999	13	[0, 0, 0]	n/a	FR1	1	R1052E
1559.03	3.975	842749	REC_START	n/a	n/a	n/a	-999	13	[0, 0, 0]	n/a	FR1	1	R1052E
1563.005	7.82	844737	REC_WORD	7.82	n/a	MOON	-999	13	[0, 0, 0]	n/a	FR1	1	R1052E
1570.825	2.662	848647	REC_WORD	2.662	n/a	ICE	-999	13	[0, 0, 0]	n/a	FR1	1	R1052E
1573.487	1.36	849978	REC_WORD	1.36	n/a	GRAPE	-999	13	[0, 0, 0]	n/a	FR1	1	R1052E
1574.847	14.197	850657	REC_WORD	14.197	n/a	SLUSH	-999	13	[0, 0, 0]	n/a	FR1	1	R1052E
1589.044	2.958	857755	REC_END	n/a	n/a	n/a	-999	13	[0, 0, 0]	n/a	FR1	1	R1052E
1592.002	0.0	859234	COUNTDOWN_START	n/a	n/a	n/a	-999	14	[0, 0, 0]	n/a	FR1	1	R1052E
1592.002	10.428	859234	TRIAL	n/a	n/a	n/a	-999	14	[0, 0, 0]	n/a	FR1	1	R1052E
1602.43	0.008	864448	COUNTDOWN_END	n/a	n/a	n/a	-999	14	[0, 0, 0]	n/a	FR1	1	R1052E
1602.438	2.466	864452	ORIENT	n/a	n/a	n/a	-999	14	[0, 0, 0]	n/a	FR1	1	R1052E
1604.904	2.419	865685	WORD	n/a	wordpools/wordpool_EN.txt	LAMB	1	14	[0, 0, 0]	n/a	FR1	1	R1052E
1607.323	2.466	866894	WORD	n/a	wordpools/wordpool_EN.txt	DEER	2	14	[0, 0, 0]	n/a	FR1	1	R1052E
1609.789	2.468	868127	WORD	n/a	wordpools/wordpool_EN.txt	WAND	3	14	[0, 0, 0]	n/a	FR1	1	R1052E
1612.257	2.616	869361	WORD	n/a	wordpools/wordpool_EN.txt	WOLF	4	14	[0, 0, 0]	n/a	FR1	1	R1052E
1614.873	2.485	870669	WORD	n/a	wordpools/wordpool_EN.txt	RAKE	5	14	[0, 0, 0]	n/a	FR1	1	R1052E
1617.358	2.599	871912	WORD	n/a	wordpools/wordpool_EN.txt	SNOW	6	14	[0, 0, 0]	n/a	FR1	1	R1052E
1619.957	2.602	873211	WORD	n/a	wordpools/wordpool_EN.txt	ROAD	7	14	[0, 0, 0]	n/a	FR1	1	R1052E
1622.559	2.516	874512	WORD	n/a	wordpools/wordpool_EN.txt	STONE	8	14	[0, 0, 0]	n/a	FR1	1	R1052E
1625.075	2.535	875770	WORD	n/a	wordpools/wordpool_EN.txt	FORK	9	14	[0, 0, 0]	n/a	FR1	1	R1052E
1627.61	2.466	877037	WORD	n/a	wordpools/wordpool_EN.txt	CRANE	10	14	[0, 0, 0]	n/a	FR1	1	R1052E
1630.076	2.434	878270	WORD	n/a	wordpools/wordpool_EN.txt	BEAR	11	14	[0, 0, 0]	n/a	FR1	1	R1052E
1632.51	1.616	879487	WORD	n/a	wordpools/wordpool_EN.txt	MOLE	12	14	[0, 0, 0]	n/a	FR1	1	R1052E
1634.126	0.001	880295	DISTRACT_START	n/a	n/a	n/a	-999	14	[0, 0, 0]	n/a	FR1	1	R1052E
1634.127	0.016	880295	START	n/a	n/a	n/a	-999	14	[-999, -999, -999]	n/a	FR1	1	R1052E
1634.143	14.353	880303	PROB	14.353	n/a	n/a	-999	14	[3, 1, 8]	12	FR1	1	R1052E
1648.496	12.5	887479	PROB	12.5	n/a	n/a	-999	14	[8, 6, 7]	21	FR1	1	R1052E
1660.996	0.018	893729	STOP	n/a	n/a	n/a	-999	14	[-999, -999, -999]	n/a	FR1	1	R1052E
1661.014	1.034	893738	DISTRACT_END	n/a	n/a	n/a	-999	14	[0, 0, 0]	n/a	FR1	1	R1052E
1662.048	2.733	894255	REC_START	n/a	n/a	n/a	-999	14	[0, 0, 0]	n/a	FR1	1	R1052E
1664.781	1.457	895621	REC_WORD	1.457	n/a	LAMB	-999	14	[0, 0, 0]	n/a	FR1	1	R1052E
1666.238	2.08	896350	REC_WORD	2.08	n/a	DEER	-999	14	[0, 0, 0]	n/a	FR1	1	R1052E
1668.318	23.744	897390	REC_WORD	23.744	n/a	STONE	-999	14	[0, 0, 0]	n/a	FR1	1	R1052E
1692.062	2.592	909261	REC_END	n/a	n/a	n/a	-999	14	[0, 0, 0]	n/a	FR1	1	R1052E
1694.654	0.001	910557	COUNTDOWN_START	n/a	n/a	n/a	-999	15	[0, 0, 0]	n/a	FR1	1	R1052E
1694.655	10.427	910557	TRIAL	n/a	n/a	n/a	-999	15	[0, 0, 0]	n/a	FR1	1	R1052E
1705.082	0.007	915771	COUNTDOWN_END	n/a	n/a	n/a	-999	15	[0, 0, 0]	n/a	FR1	1	R1052E
1705.089	2.368	915774	ORIENT	n/a	n/a	n/a	-999	15	[0, 0, 0]	n/a	FR1	1	R1052E
1707.457	2.566	916958	WORD	n/a	wordpools/wordpool_EN.txt	NAIL	1	15	[0, 0, 0]	n/a	FR1	1	R1052E
1710.023	2.385	918241	WORD	n/a	wordpools/wordpool_EN.txt	PIT	2	15	[0, 0, 0]	n/a	FR1	1	R1052E
1712.408	2.549	919433	WORD	n/a	wordpools/wordpool_EN.txt	FOOT	3	15	[0, 0, 0]	n/a	FR1	1	R1052E
1714.957	2.468	920708	WORD	n/a	wordpools/wordpool_EN.txt	FACE	4	15	[0, 0, 0]	n/a	FR1	1	R1052E
1717.425	2.516	921942	WORD	n/a	wordpools/wordpool_EN.txt	HILL	5	15	[0, 0, 0]	n/a	FR1	1	R1052E
1719.941	2.368	923200	WORD	n/a	wordpools/wordpool_EN.txt	STICK	6	15	[0, 0, 0]	n/a	FR1	1	R1052E
1722.309	2.6	924383	WORD	n/a	wordpools/wordpool_EN.txt	SOCK	7	15	[0, 0, 0]	n/a	FR1	1	R1052E
1724.909	2.485	925683	WORD	n/a	wordpools/wordpool_EN.txt	DRESS	8	15	[0, 0, 0]	n/a	FR1	1	R1052E
1727.394	2.482	926926	WORD	n/a	wordpools/wordpool_EN.txt	CONE	9	15	[0, 0, 0]	n/a	FR1	1	R1052E
1729.876	2.552	928167	WORD	n/a	wordpools/wordpool_EN.txt	FLAME	10	15	[0, 0, 0]	n/a	FR1	1	R1052E
1732.428	2.4	929443	WORD	n/a	wordpools/wordpool_EN.txt	BAG	11	15	[0, 0, 0]	n/a	FR1	1	R1052E
1734.828	1.617	930643	WORD	n/a	wordpools/wordpool_EN.txt	FUDGE	12	15	[0, 0, 0]	n/a	FR1	1	R1052E
1736.445	0.001	931451	DISTRACT_START	n/a	n/a	n/a	-999	15	[0, 0, 0]	n/a	FR1	1	R1052E
1736.446	0.016	931451	START	n/a	n/a	n/a	-999	15	[-999, -999, -999]	n/a	FR1	1	R1052E
1736.462	13.152	931459	PROB	13.152	n/a	n/a	-999	15	[2, 1, 8]	11	FR1	1	R1052E
1749.614	4.634	938035	PROB	4.634	n/a	n/a	-999	15	[1, 3, 1]	5	FR1	1	R1052E
1754.248	12.552	940352	PROB	12.552	n/a	n/a	-999	15	[2, 1, 4]	7	FR1	1	R1052E
1766.8	0.017	946627	STOP	n/a	n/a	n/a	-999	15	[-999, -999, -999]	n/a	FR1	1	R1052E
1766.817	1.202	946636	DISTRACT_END	n/a	n/a	n/a	-999	15	[0, 0, 0]	n/a	FR1	1	R1052E
1768.019	1.017	947237	REC_START	n/a	n/a	n/a	-999	15	[0, 0, 0]	n/a	FR1	1	R1052E
1769.036	1.813	947745	REC_WORD	1.813	n/a	PIT	-999	15	[0, 0, 0]	n/a	FR1	1	R1052E
1770.849	1.974	948652	REC_WORD_VV	1.974	n/a	<>	-999	15	[0, 0, 0]	n/a	FR1	1	R1052E
1772.823	2.41	949639	REC_WORD	2.41	n/a	FOOT	-999	15	[0, 0, 0]	n/a	FR1	1	R1052E
1775.233	3.18	950844	REC_WORD	3.18	n/a	FACE	-999	15	[0, 0, 0]	n/a	FR1	1	R1052E
1778.413	19.614	952434	REC_WORD_VV	19.614	n/a	<>	-999	15	[0, 0, 0]	n/a	FR1	1	R1052E
1798.027	11.181	962240	REC_END	n/a	n/a	n/a	-999	15	[0, 0, 0]	n/a	FR1	1	R1052E
1809.208	0.0	967830	COUNTDOWN_START	n/a	n/a	n/a	-999	16	[0, 0, 0]	n/a	FR1	1	R1052E
1809.208	10.428	967830	TRIAL	n/a	n/a	n/a	-999	16	[0, 0, 0]	n/a	FR1	1	R1052E
1819.636	0.007	973044	COUNTDOWN_END	n/a	n/a	n/a	-999	16	[0, 0, 0]	n/a	FR1	1	R1052E
1819.643	2.533	973047	ORIENT	n/a	n/a	n/a	-999	16	[0, 0, 0]	n/a	FR1	1	R1052E
1822.176	2.568	974314	WORD	n/a	wordpools/wordpool_EN.txt	SMILE	1	16	[0, 0, 0]	n/a	FR1	1	R1052E
1824.744	2.484	975597	WORD	n/a	wordpools/wordpool_EN.txt	LAKE	2	16	[0, 0, 0]	n/a	FR1	1	R1052E
1827.228	2.5	976839	WORD	n/a	wordpools/wordpool_EN.txt	TRAY	3	16	[0, 0, 0]	n/a	FR1	1	R1052E
1829.728	2.601	978089	WORD	n/a	wordpools/wordpool_EN.txt	SUN	4	16	[0, 0, 0]	n/a	FR1	1	R1052E
1832.329	2.599	979390	WORD	n/a	wordpools/wordpool_EN.txt	THUMB	5	16	[0, 0, 0]	n/a	FR1	1	R1052E
1834.928	2.485	980689	WORD	n/a	wordpools/wordpool_EN.txt	SKY	6	16	[0, 0, 0]	n/a	FR1	1	R1052E
1837.413	2.4	981932	WORD	n/a	wordpools/wordpool_EN.txt	BEACH	7	16	[0, 0, 0]	n/a	FR1	1	R1052E
1839.813	2.384	983131	WORD	n/a	wordpools/wordpool_EN.txt	BEAK	8	16	[0, 0, 0]	n/a	FR1	1	R1052E
1842.197	2.584	984323	WORD	n/a	wordpools/wordpool_EN.txt	WALL	9	16	[0, 0, 0]	n/a	FR1	1	R1052E
1844.781	2.5	985615	WORD	n/a	wordpools/wordpool_EN.txt	STORM	10	16	[0, 0, 0]	n/a	FR1	1	R1052E
1847.281	2.467	986865	WORD	n/a	wordpools/wordpool_EN.txt	BIRD	11	16	[0, 0, 0]	n/a	FR1	1	R1052E
1849.748	1.617	988099	WORD	n/a	wordpools/wordpool_EN.txt	TIE	12	16	[0, 0, 0]	n/a	FR1	1	R1052E
1851.365	0.001	988907	DISTRACT_START	n/a	n/a	n/a	-999	16	[0, 0, 0]	n/a	FR1	1	R1052E
1851.366	0.016	988908	START	n/a	n/a	n/a	-999	16	[-999, -999, -999]	n/a	FR1	1	R1052E
1851.382	31.203	988916	PROB	31.203	n/a	n/a	-999	16	[8, 6, 5]	19	FR1	1	R1052E
1882.585	0.019	1004516	STOP	n/a	n/a	n/a	-999	16	[-999, -999, -999]	n/a	FR1	1	R1052E
1882.604	1.034	1004526	DISTRACT_END	n/a	n/a	n/a	-999	16	[0, 0, 0]	n/a	FR1	1	R1052E
1883.638	1.552	1005042	REC_START	n/a	n/a	n/a	-999	16	[0, 0, 0]	n/a	FR1	1	R1052E
1885.19	3.153	1005818	REC_WORD_VV	3.153	n/a	<>	-999	16	[0, 0, 0]	n/a	FR1	1	R1052E
1888.343	2.185	1007395	REC_WORD	2.185	n/a	LAKE	-999	16	[0, 0, 0]	n/a	FR1	1	R1052E
1890.528	4.97	1008487	REC_WORD	4.97	n/a	SUN	-999	16	[0, 0, 0]	n/a	FR1	1	R1052E
1895.498	4.097	1010972	REC_WORD	4.097	n/a	BEACH	-999	16	[0, 0, 0]	n/a	FR1	1	R1052E
1899.595	14.052	1013020	REC_WORD_VV	14.052	n/a	<>	-999	16	[0, 0, 0]	n/a	FR1	1	R1052E
1913.647	7.213	1020046	REC_END	n/a	n/a	n/a	-999	16	[0, 0, 0]	n/a	FR1	1	R1052E
1920.86	0.0	1023652	TRIAL	n/a	n/a	n/a	-999	17	[0, 0, 0]	n/a	FR1	1	R1052E
1920.86	10.428	1023652	COUNTDOWN_START	n/a	n/a	n/a	-999	17	[0, 0, 0]	n/a	FR1	1	R1052E
1931.288	0.008	1028866	COUNTDOWN_END	n/a	n/a	n/a	-999	17	[0, 0, 0]	n/a	FR1	1	R1052E
1931.296	2.501	1028870	ORIENT	n/a	n/a	n/a	-999	17	[0, 0, 0]	n/a	FR1	1	R1052E
1933.797	2.45	1030120	WORD	n/a	wordpools/wordpool_EN.txt	SCHOOL	1	17	[0, 0, 0]	n/a	FR1	1	R1052E
1936.247	2.467	1031345	WORD	n/a	wordpools/wordpool_EN.txt	RAT	2	17	[0, 0, 0]	n/a	FR1	1	R1052E
1938.714	2.416	1032579	WORD	n/a	wordpools/wordpool_EN.txt	VAN	3	17	[0, 0, 0]	n/a	FR1	1	R1052E
1941.13	2.452	1033787	WORD	n/a	wordpools/wordpool_EN.txt	PET	4	17	[0, 0, 0]	n/a	FR1	1	R1052E
1943.582	2.466	1035012	WORD	n/a	wordpools/wordpool_EN.txt	HAWK	5	17	[0, 0, 0]	n/a	FR1	1	R1052E
1946.048	2.401	1036245	WORD	n/a	wordpools/wordpool_EN.txt	SKUNK	6	17	[0, 0, 0]	n/a	FR1	1	R1052E
1948.449	2.433	1037446	WORD	n/a	wordpools/wordpool_EN.txt	POND	7	17	[0, 0, 0]	n/a	FR1	1	R1052E
1950.882	2.585	1038662	WORD	n/a	wordpools/wordpool_EN.txt	DUCK	8	17	[0, 0, 0]	n/a	FR1	1	R1052E
1953.467	2.465	1039955	WORD	n/a	wordpools/wordpool_EN.txt	BOARD	9	17	[0, 0, 0]	n/a	FR1	1	R1052E
1955.932	2.385	1041187	WORD	n/a	wordpools/wordpool_EN.txt	DOCK	10	17	[0, 0, 0]	n/a	FR1	1	R1052E
1958.317	2.401	1042379	WORD	n/a	wordpools/wordpool_EN.txt	STORE	11	17	[0, 0, 0]	n/a	FR1	1	R1052E
1960.718	1.617	1043580	WORD	n/a	wordpools/wordpool_EN.txt	APE	12	17	[0, 0, 0]	n/a	FR1	1	R1052E
1962.335	0.0	1044388	DISTRACT_START	n/a	n/a	n/a	-999	17	[0, 0, 0]	n/a	FR1	1	R1052E
1962.335	0.016	1044388	START	n/a	n/a	n/a	-999	17	[-999, -999, -999]	n/a	FR1	1	R1052E
1962.351	11.286	1044396	PROB	11.286	n/a	n/a	-999	17	[1, 1, 4]	6	FR1	1	R1052E
1973.637	8.45	1050039	PROB	8.45	n/a	n/a	-999	17	[4, 1, 9]	14	FR1	1	R1052E
1982.087	12.741	1054264	PROB	12.741	n/a	n/a	-999	17	[4, 2, 5]	11	FR1	1	R1052E
1994.828	0.013	1060634	STOP	n/a	n/a	n/a	-999	17	[-999, -999, -999]	n/a	FR1	1	R1052E
1994.841	1.216	1060640	DISTRACT_END	n/a	n/a	n/a	-999	17	[0, 0, 0]	n/a	FR1	1	R1052E
1996.057	2.987	1061248	REC_START	n/a	n/a	n/a	-999	17	[0, 0, 0]	n/a	FR1	1	R1052E
1999.044	5.631	1062742	REC_WORD	5.631	n/a	SCHOOL	-999	17	[0, 0, 0]	n/a	FR1	1	R1052E
2004.675	1.447	1065557	REC_WORD	1.447	n/a	RAT	-999	17	[0, 0, 0]	n/a	FR1	1	R1052E
2006.122	2.77	1066280	REC_WORD	2.77	n/a	VAN	-999	17	[0, 0, 0]	n/a	FR1	1	R1052E
2008.892	17.174	1067665	REC_WORD_VV	17.174	n/a	<>	-999	17	[0, 0, 0]	n/a	FR1	1	R1052E
2026.066	29.468	1076252	REC_END	n/a	n/a	n/a	-999	17	[0, 0, 0]	n/a	FR1	1	R1052E
2055.534	0.001	1090985	COUNTDOWN_START	n/a	n/a	n/a	-999	18	[0, 0, 0]	n/a	FR1	1	R1052E
2055.535	10.427	1090985	TRIAL	n/a	n/a	n/a	-999	18	[0, 0, 0]	n/a	FR1	1	R1052E
2065.962	0.007	1096198	COUNTDOWN_END	n/a	n/a	n/a	-999	18	[0, 0, 0]	n/a	FR1	1	R1052E
2065.969	2.618	1096202	ORIENT	n/a	n/a	n/a	-999	18	[0, 0, 0]	n/a	FR1	1	R1052E
2068.587	2.416	1097511	WORD	n/a	wordpools/wordpool_EN.txt	SQUARE	1	18	[0, 0, 0]	n/a	FR1	1	R1052E
2071.003	2.568	1098719	WORD	n/a	wordpools/wordpool_EN.txt	CART	2	18	[0, 0, 0]	n/a	FR1	1	R1052E
2073.571	2.449	1100003	WORD	n/a	wordpools/wordpool_EN.txt	BOWL	3	18	[0, 0, 0]	n/a	FR1	1	R1052E
2076.02	2.569	1101227	WORD	n/a	wordpools/wordpool_EN.txt	BOY	4	18	[0, 0, 0]	n/a	FR1	1	R1052E
2078.589	2.633	1102511	WORD	n/a	wordpools/wordpool_EN.txt	WOOD	5	18	[0, 0, 0]	n/a	FR1	1	R1052E
2081.222	2.417	1103828	WORD	n/a	wordpools/wordpool_EN.txt	BOAT	6	18	[0, 0, 0]	n/a	FR1	1	R1052E
2083.639	2.568	1105036	WORD	n/a	wordpools/wordpool_EN.txt	CROWN	7	18	[0, 0, 0]	n/a	FR1	1	R1052E
2086.207	2.433	1106320	WORD	n/a	wordpools/wordpool_EN.txt	CLAY	8	18	[0, 0, 0]	n/a	FR1	1	R1052E
2088.64	2.466	1107537	WORD	n/a	wordpools/wordpool_EN.txt	CANE	9	18	[0, 0, 0]	n/a	FR1	1	R1052E
2091.106	2.502	1108769	WORD	n/a	wordpools/wordpool_EN.txt	SLEEVE	10	18	[0, 0, 0]	n/a	FR1	1	R1052E
2093.608	2.383	1110020	WORD	n/a	wordpools/wordpool_EN.txt	SWORD	11	18	[0, 0, 0]	n/a	FR1	1	R1052E
2095.991	1.618	1111212	WORD	n/a	wordpools/wordpool_EN.txt	CUBE	12	18	[0, 0, 0]	n/a	FR1	1	R1052E
2097.609	0.0	1112021	DISTRACT_START	n/a	n/a	n/a	-999	18	[0, 0, 0]	n/a	FR1	1	R1052E
2097.609	0.016	1112021	START	n/a	n/a	n/a	-999	18	[-999, -999, -999]	n/a	FR1	1	R1052E
2097.625	28.019	1112029	PROB	28.019	n/a	n/a	-999	18	[9, 7, 6]	27	FR1	1	R1052E
2125.644	0.002	1126037	STOP	n/a	n/a	n/a	-999	18	[-999, -999, -999]	n/a	FR1	1	R1052E
2125.646	1.152	1126038	DISTRACT_END	n/a	n/a	n/a	-999	18	[0, 0, 0]	n/a	FR1	1	R1052E
2126.798	4.412	1126614	REC_START	n/a	n/a	n/a	-999	18	[0, 0, 0]	n/a	FR1	1	R1052E
2131.21	2.141	1128820	REC_WORD	2.141	n/a	BOWL	-999	18	[0, 0, 0]	n/a	FR1	1	R1052E
2133.351	2.705	1129891	REC_WORD	2.705	n/a	BOAT	-999	18	[0, 0, 0]	n/a	FR1	1	R1052E
2136.056	7.429	1131243	REC_WORD	7.429	n/a	BOY	-999	18	[0, 0, 0]	n/a	FR1	1	R1052E
2143.485	13.322	1134957	REC_WORD_VV	13.322	n/a	<>	-999	18	[0, 0, 0]	n/a	FR1	1	R1052E
2156.807	3.345	1141618	REC_END	n/a	n/a	n/a	-999	18	[0, 0, 0]	n/a	FR1	1	R1052E
2160.152	0.0	1143290	TRIAL	n/a	n/a	n/a	-999	19	[0, 0, 0]	n/a	FR1	1	R1052E
2160.152	10.428	1143290	COUNTDOWN_START	n/a	n/a	n/a	-999	19	[0, 0, 0]	n/a	FR1	1	R1052E
2170.58	0.008	1148504	COUNTDOWN_END	n/a	n/a	n/a	-999	19	[0, 0, 0]	n/a	FR1	1	R1052E
2170.588	2.549	1148508	ORIENT	n/a	n/a	n/a	-999	19	[0, 0, 0]	n/a	FR1	1	R1052E
2173.137	2.402	1149782	WORD	n/a	wordpools/wordpool_EN.txt	TENT	1	19	[0, 0, 0]	n/a	FR1	1	R1052E
2175.539	2.549	1150983	WORD	n/a	wordpools/wordpool_EN.txt	GUARD	2	19	[0, 0, 0]	n/a	FR1	1	R1052E
2178.088	2.385	1152257	WORD	n/a	wordpools/wordpool_EN.txt	JEEP	3	19	[0, 0, 0]	n/a	FR1	1	R1052E
2180.473	2.516	1153450	WORD	n/a	wordpools/wordpool_EN.txt	ARK	4	19	[0, 0, 0]	n/a	FR1	1	R1052E
2182.989	2.402	1154708	WORD	n/a	wordpools/wordpool_EN.txt	LIP	5	19	[0, 0, 0]	n/a	FR1	1	R1052E
2185.391	2.532	1155909	WORD	n/a	wordpools/wordpool_EN.txt	PEN	6	19	[0, 0, 0]	n/a	FR1	1	R1052E
2187.923	2.418	1157175	WORD	n/a	wordpools/wordpool_EN.txt	CHEEK	7	19	[0, 0, 0]	n/a	FR1	1	R1052E
2190.341	2.533	1158384	WORD	n/a	wordpools/wordpool_EN.txt	BADGE	8	19	[0, 0, 0]	n/a	FR1	1	R1052E
2192.874	2.618	1159650	WORD	n/a	wordpools/wordpool_EN.txt	HAT	9	19	[0, 0, 0]	n/a	FR1	1	R1052E
2195.492	2.583	1160959	WORD	n/a	wordpools/wordpool_EN.txt	MUD	10	19	[0, 0, 0]	n/a	FR1	1	R1052E
2198.075	2.568	1162250	WORD	n/a	wordpools/wordpool_EN.txt	GEESE	11	19	[0, 0, 0]	n/a	FR1	1	R1052E
2200.643	1.617	1163534	WORD	n/a	wordpools/wordpool_EN.txt	HAND	12	19	[0, 0, 0]	n/a	FR1	1	R1052E
2202.26	0.001	1164343	DISTRACT_START	n/a	n/a	n/a	-999	19	[0, 0, 0]	n/a	FR1	1	R1052E
2202.261	0.016	1164343	START	n/a	n/a	n/a	-999	19	[-999, -999, -999]	n/a	FR1	1	R1052E
2202.277	18.57	1164351	PROB	18.57	n/a	n/a	-999	19	[8, 7, 5]	20	FR1	1	R1052E
2220.847	7.733	1173636	PROB	7.733	n/a	n/a	-999	19	[2, 2, 3]	7	FR1	1	R1052E
2228.58	0.018	1177502	STOP	n/a	n/a	n/a	-999	19	[-999, -999, -999]	n/a	FR1	1	R1052E
2228.598	1.218	1177511	DISTRACT_END	n/a	n/a	n/a	-999	19	[0, 0, 0]	n/a	FR1	1	R1052E
2229.816	1.938	1178120	REC_START	n/a	n/a	n/a	-999	19	[0, 0, 0]	n/a	FR1	1	R1052E
2231.754	4.246	1179089	REC_WORD	4.246	n/a	LIP	-999	19	[0, 0, 0]	n/a	FR1	1	R1052E
2236.0	6.561	1181212	REC_WORD	6.561	n/a	MUD	-999	19	[0, 0, 0]	n/a	FR1	1	R1052E
2242.561	17.264	1184492	REC_WORD	17.264	n/a	PEN	-999	19	[0, 0, 0]	n/a	FR1	1	R1052E
2259.825	2.662	1193123	REC_END	n/a	n/a	n/a	-999	19	[0, 0, 0]	n/a	FR1	1	R1052E
2262.487	0.001	1194454	COUNTDOWN_START	n/a	n/a	n/a	-999	20	[0, 0, 0]	n/a	FR1	1	R1052E
2262.488	10.427	1194455	TRIAL	n/a	n/a	n/a	-999	20	[0, 0, 0]	n/a	FR1	1	R1052E
2272.915	0.007	1199668	COUNTDOWN_END	n/a	n/a	n/a	-999	20	[0, 0, 0]	n/a	FR1	1	R1052E
2272.922	2.401	1199671	ORIENT	n/a	n/a	n/a	-999	20	[0, 0, 0]	n/a	FR1	1	R1052E
2275.323	2.55	1200872	WORD	n/a	wordpools/wordpool_EN.txt	SHRIMP	1	20	[0, 0, 0]	n/a	FR1	1	R1052E
2277.873	2.401	1202147	WORD	n/a	wordpools/wordpool_EN.txt	SALT	2	20	[0, 0, 0]	n/a	FR1	1	R1052E
2280.274	2.517	1203347	WORD	n/a	wordpools/wordpool_EN.txt	STRING	3	20	[0, 0, 0]	n/a	FR1	1	R1052E
2282.791	2.584	1204605	WORD	n/a	wordpools/wordpool_EN.txt	DIME	4	20	[0, 0, 0]	n/a	FR1	1	R1052E
2285.375	2.4	1205897	WORD	n/a	wordpools/wordpool_EN.txt	SPOON	5	20	[0, 0, 0]	n/a	FR1	1	R1052E
2287.775	2.534	1207097	WORD	n/a	wordpools/wordpool_EN.txt	SPONGE	6	20	[0, 0, 0]	n/a	FR1	1	R1052E
2290.309	2.5	1208364	WORD	n/a	wordpools/wordpool_EN.txt	ZOO	7	20	[0, 0, 0]	n/a	FR1	1	R1052E
2292.809	2.601	1209614	WORD	n/a	wordpools/wordpool_EN.txt	CLOWN	8	20	[0, 0, 0]	n/a	FR1	1	R1052E
2295.41	2.599	1210915	WORD	n/a	wordpools/wordpool_EN.txt	PASTE	9	20	[0, 0, 0]	n/a	FR1	1	R1052E
2298.009	2.468	1212214	WORD	n/a	wordpools/wordpool_EN.txt	TOOL	10	20	[0, 0, 0]	n/a	FR1	1	R1052E
2300.477	2.6	1213448	WORD	n/a	wordpools/wordpool_EN.txt	TEETH	11	20	[0, 0, 0]	n/a	FR1	1	R1052E
2303.077	1.618	1214748	WORD	n/a	wordpools/wordpool_EN.txt	ELF	12	20	[0, 0, 0]	n/a	FR1	1	R1052E
2304.695	0.0	1215557	DISTRACT_START	n/a	n/a	n/a	-999	20	[0, 0, 0]	n/a	FR1	1	R1052E
2304.695	0.017	1215557	START	n/a	n/a	n/a	-999	20	[-999, -999, -999]	n/a	FR1	1	R1052E
2304.712	9.101	1215565	PROB	9.101	n/a	n/a	-999	20	[5, 5, 3]	13	FR1	1	R1052E
2313.813	12.455	1220115	PROB	12.455	n/a	n/a	-999	20	[5, 5, 3]	13	FR1	1	R1052E
2326.268	0.014	1226342	STOP	n/a	n/a	n/a	-999	20	[-999, -999, -999]	n/a	FR1	1	R1052E
2326.282	1.201	1226349	DISTRACT_END	n/a	n/a	n/a	-999	20	[0, 0, 0]	n/a	FR1	1	R1052E
2327.483	2.767	1226950	REC_START	n/a	n/a	n/a	-999	20	[0, 0, 0]	n/a	FR1	1	R1052E
2330.25	3.595	1228333	REC_WORD	3.595	n/a	SHRIMP	-999	20	[0, 0, 0]	n/a	FR1	1	R1052E
2333.845	23.646	1230131	REC_WORD	23.646	n/a	SALT	-999	20	[0, 0, 0]	n/a	FR1	1	R1052E
2357.491	6.964	1241953	REC_END	n/a	n/a	n/a	-999	20	[0, 0, 0]	n/a	FR1	1	R1052E
2364.455	0.0	1245435	TRIAL	n/a	n/a	n/a	-999	21	[0, 0, 0]	n/a	FR1	1	R1052E
2364.455	10.428	1245435	COUNTDOWN_START	n/a	n/a	n/a	-999	21	[0, 0, 0]	n/a	FR1	1	R1052E
2374.883	0.007	1250648	COUNTDOWN_END	n/a	n/a	n/a	-999	21	[0, 0, 0]	n/a	FR1	1	R1052E
2374.89	2.551	1250652	ORIENT	n/a	n/a	n/a	-999	21	[0, 0, 0]	n/a	FR1	1	R1052E
2377.441	2.566	1251927	WORD	n/a	wordpools/wordpool_EN.txt	PEAR	1	21	[0, 0, 0]	n/a	FR1	1	R1052E
2380.007	2.552	1253210	WORD	n/a	wordpools/wordpool_EN.txt	CALF	2	21	[0, 0, 0]	n/a	FR1	1	R1052E
2382.559	2.499	1254486	WORD	n/a	wordpools/wordpool_EN.txt	FOX	3	21	[0, 0, 0]	n/a	FR1	1	R1052E
2385.058	2.418	1255735	WORD	n/a	wordpools/wordpool_EN.txt	EEL	4	21	[0, 0, 0]	n/a	FR1	1	R1052E
2387.476	2.416	1256944	WORD	n/a	wordpools/wordpool_EN.txt	MOUTH	5	21	[0, 0, 0]	n/a	FR1	1	R1052E
2389.892	2.568	1258152	WORD	n/a	wordpools/wordpool_EN.txt	ROOT	6	21	[0, 0, 0]	n/a	FR1	1	R1052E
2392.46	2.616	1259436	WORD	n/a	wordpools/wordpool_EN.txt	CHIEF	7	21	[0, 0, 0]	n/a	FR1	1	R1052E
2395.076	2.569	1260744	WORD	n/a	wordpools/wordpool_EN.txt	LEAF	8	21	[0, 0, 0]	n/a	FR1	1	R1052E
2397.645	2.482	1262029	WORD	n/a	wordpools/wordpool_EN.txt	TOOTH	9	21	[0, 0, 0]	n/a	FR1	1	R1052E
2400.127	2.451	1263269	WORD	n/a	wordpools/wordpool_EN.txt	WEB	10	21	[0, 0, 0]	n/a	FR1	1	R1052E
2402.578	2.6	1264495	WORD	n/a	wordpools/wordpool_EN.txt	CHALK	11	21	[0, 0, 0]	n/a	FR1	1	R1052E
2405.178	1.601	1265795	WORD	n/a	wordpools/wordpool_EN.txt	BRANCH	12	21	[0, 0, 0]	n/a	FR1	1	R1052E
2406.779	0.001	1266595	DISTRACT_START	n/a	n/a	n/a	-999	21	[0, 0, 0]	n/a	FR1	1	R1052E
2406.78	0.016	1266596	START	n/a	n/a	n/a	-999	21	[-999, -999, -999]	n/a	FR1	1	R1052E
2406.796	8.317	1266604	PROB	8.317	n/a	n/a	-999	21	[5, 2, 5]	12	FR1	1	R1052E
2415.113	34.544	1270762	PROB	34.544	n/a	n/a	-999	21	[5, 6, 4]	15	FR1	1	R1052E
2449.657	0.013	1288033	STOP	n/a	n/a	n/a	-999	21	[-999, -999, -999]	n/a	FR1	1	R1052E
2449.67	1.068	1288039	DISTRACT_END	n/a	n/a	n/a	-999	21	[0, 0, 0]	n/a	FR1	1	R1052E
2450.738	11.34	1288573	REC_START	n/a	n/a	n/a	-999	21	[0, 0, 0]	n/a	FR1	1	R1052E
2462.078	18.668	1294243	REC_WORD	18.668	n/a	FOX	-999	21	[0, 0, 0]	n/a	FR1	1	R1052E
2480.746	19.6	1303576	REC_END	n/a	n/a	n/a	-999	21	[0, 0, 0]	n/a	FR1	1	R1052E
2500.346	0.0	1313376	TRIAL	n/a	n/a	n/a	-999	22	[0, 0, 0]	n/a	FR1	1	R1052E
2500.346	10.428	1313376	COUNTDOWN_START	n/a	n/a	n/a	-999	22	[0, 0, 0]	n/a	FR1	1	R1052E
2510.774	0.007	1318589	COUNTDOWN_END	n/a	n/a	n/a	-999	22	[0, 0, 0]	n/a	FR1	1	R1052E
2510.781	2.451	1318593	ORIENT	n/a	n/a	n/a	-999	22	[0, 0, 0]	n/a	FR1	1	R1052E
2513.232	2.517	1319818	WORD	n/a	wordpools/wordpool_EN.txt	JUICE	1	22	[0, 0, 0]	n/a	FR1	1	R1052E
2515.749	2.483	1321077	WORD	n/a	wordpools/wordpool_EN.txt	CORN	2	22	[0, 0, 0]	n/a	FR1	1	R1052E
2518.232	2.384	1322318	WORD	n/a	wordpools/wordpool_EN.txt	CAGE	3	22	[0, 0, 0]	n/a	FR1	1	R1052E
2520.616	2.601	1323510	WORD	n/a	wordpools/wordpool_EN.txt	MUG	4	22	[0, 0, 0]	n/a	FR1	1	R1052E
2523.217	2.483	1324810	WORD	n/a	wordpools/wordpool_EN.txt	HORSE	5	22	[0, 0, 0]	n/a	FR1	1	R1052E
2525.7	2.416	1326052	WORD	n/a	wordpools/wordpool_EN.txt	ARM	6	22	[0, 0, 0]	n/a	FR1	1	R1052E
2528.116	2.602	1327260	WORD	n/a	wordpools/wordpool_EN.txt	STEAK	7	22	[0, 0, 0]	n/a	FR1	1	R1052E
2530.718	2.534	1328561	WORD	n/a	wordpools/wordpool_EN.txt	TOAST	8	22	[0, 0, 0]	n/a	FR1	1	R1052E
2533.252	2.55	1329827	WORD	n/a	wordpools/wordpool_EN.txt	CAVE	9	22	[0, 0, 0]	n/a	FR1	1	R1052E
2535.802	2.501	1331102	WORD	n/a	wordpools/wordpool_EN.txt	GLASS	10	22	[0, 0, 0]	n/a	FR1	1	R1052E
2538.303	2.582	1332353	WORD	n/a	wordpools/wordpool_EN.txt	HOOF	11	22	[0, 0, 0]	n/a	FR1	1	R1052E
2540.885	1.601	1333644	WORD	n/a	wordpools/wordpool_EN.txt	PLATE	12	22	[0, 0, 0]	n/a	FR1	1	R1052E
2542.486	0.001	1334444	DISTRACT_START	n/a	n/a	n/a	-999	22	[0, 0, 0]	n/a	FR1	1	R1052E
2542.487	0.016	1334445	START	n/a	n/a	n/a	-999	22	[-999, -999, -999]	n/a	FR1	1	R1052E
2542.503	27.191	1334453	PROB	27.191	n/a	n/a	-999	22	[4, 3, 9]	16	FR1	1	R1052E
2569.694	0.014	1348047	STOP	n/a	n/a	n/a	-999	22	[-999, -999, -999]	n/a	FR1	1	R1052E
2569.708	1.218	1348054	DISTRACT_END	n/a	n/a	n/a	-999	22	[0, 0, 0]	n/a	FR1	1	R1052E
2570.926	2.418	1348663	REC_START	n/a	n/a	n/a	-999	22	[0, 0, 0]	n/a	FR1	1	R1052E
2573.344	4.081	1349872	REC_WORD	4.081	n/a	GLASS	-999	22	[0, 0, 0]	n/a	FR1	1	R1052E
2577.425	4.788	1351912	REC_WORD	4.788	n/a	MUG	-999	22	[0, 0, 0]	n/a	FR1	1	R1052E
2582.213	18.721	1354306	REC_WORD	18.721	n/a	JUICE	-999	22	[0, 0, 0]	n/a	FR1	1	R1052E
2600.934	2.797	1363666	REC_END	n/a	n/a	n/a	-999	22	[0, 0, 0]	n/a	FR1	1	R1052E
2603.731	0.0	1365065	COUNTDOWN_START	n/a	n/a	n/a	-999	23	[0, 0, 0]	n/a	FR1	1	R1052E
2603.731	10.428	1365065	TRIAL	n/a	n/a	n/a	-999	23	[0, 0, 0]	n/a	FR1	1	R1052E
2614.159	0.006	1370278	COUNTDOWN_END	n/a	n/a	n/a	-999	23	[0, 0, 0]	n/a	FR1	1	R1052E
2614.165	2.518	1370281	ORIENT	n/a	n/a	n/a	-999	23	[0, 0, 0]	n/a	FR1	1	R1052E
2616.683	2.534	1371540	WORD	n/a	wordpools/wordpool_EN.txt	BRICK	1	23	[0, 0, 0]	n/a	FR1	1	R1052E
2619.217	2.517	1372807	WORD	n/a	wordpools/wordpool_EN.txt	MAIL	2	23	[0, 0, 0]	n/a	FR1	1	R1052E
2621.734	2.567	1374065	WORD	n/a	wordpools/wordpool_EN.txt	FILM	3	23	[0, 0, 0]	n/a	FR1	1	R1052E
2624.301	2.517	1375349	WORD	n/a	wordpools/wordpool_EN.txt	JUDGE	4	23	[0, 0, 0]	n/a	FR1	1	R1052E
2626.818	2.484	1376607	WORD	n/a	wordpools/wordpool_EN.txt	DOOR	5	23	[0, 0, 0]	n/a	FR1	1	R1052E
2629.302	2.467	1377849	WORD	n/a	wordpools/wordpool_EN.txt	CAR	6	23	[0, 0, 0]	n/a	FR1	1	R1052E
2631.769	2.467	1379083	WORD	n/a	wordpools/wordpool_EN.txt	BOOK	7	23	[0, 0, 0]	n/a	FR1	1	R1052E
2634.236	2.417	1380316	WORD	n/a	wordpools/wordpool_EN.txt	KITE	8	23	[0, 0, 0]	n/a	FR1	1	R1052E
2636.653	2.534	1381524	WORD	n/a	wordpools/wordpool_EN.txt	INK	9	23	[0, 0, 0]	n/a	FR1	1	R1052E
2639.187	2.434	1382791	WORD	n/a	wordpools/wordpool_EN.txt	SKI	10	23	[0, 0, 0]	n/a	FR1	1	R1052E
2641.621	2.466	1384008	WORD	n/a	wordpools/wordpool_EN.txt	BANK	11	23	[0, 0, 0]	n/a	FR1	1	R1052E
2644.087	1.618	1385241	WORD	n/a	wordpools/wordpool_EN.txt	JAIL	12	23	[0, 0, 0]	n/a	FR1	1	R1052E
2645.705	0.0	1386050	DISTRACT_START	n/a	n/a	n/a	-999	23	[0, 0, 0]	n/a	FR1	1	R1052E
2645.705	0.016	1386050	START	n/a	n/a	n/a	-999	23	[-999, -999, -999]	n/a	FR1	1	R1052E
2645.721	32.817	1386058	PROB	32.817	n/a	n/a	-999	23	[3, 6, 4]	13	FR1	1	R1052E
2678.538	0.006	1402466	STOP	n/a	n/a	n/a	-999	23	[-999, -999, -999]	n/a	FR1	1	R1052E
2678.544	1.201	1402469	DISTRACT_END	n/a	n/a	n/a	-999	23	[0, 0, 0]	n/a	FR1	1	R1052E
2679.745	1.611	1403069	REC_START	n/a	n/a	n/a	-999	23	[0, 0, 0]	n/a	FR1	1	R1052E
2681.356	3.715	1403874	REC_WORD	3.715	n/a	BRICK	-999	23	[0, 0, 0]	n/a	FR1	1	R1052E
2685.071	12.182	1405732	REC_WORD_VV	12.182	n/a	<>	-999	23	[0, 0, 0]	n/a	FR1	1	R1052E
2697.253	12.5	1411822	REC_WORD	12.5	n/a	BANK	-999	23	[0, 0, 0]	n/a	FR1	1	R1052E
2709.753	2.63	1418072	REC_END	n/a	n/a	n/a	-999	23	[0, 0, 0]	n/a	FR1	1	R1052E
2712.383	0.0	1419387	TRIAL	n/a	n/a	n/a	-999	24	[0, 0, 0]	n/a	FR1	1	R1052E
2712.383	10.428	1419387	COUNTDOWN_START	n/a	n/a	n/a	-999	24	[0, 0, 0]	n/a	FR1	1	R1052E
2722.811	0.007	1424601	COUNTDOWN_END	n/a	n/a	n/a	-999	24	[0, 0, 0]	n/a	FR1	1	R1052E
2722.818	2.417	1424604	ORIENT	n/a	n/a	n/a	-999	24	[0, 0, 0]	n/a	FR1	1	R1052E
2725.235	2.551	1425812	WORD	n/a	wordpools/wordpool_EN.txt	STOVE	1	24	[0, 0, 0]	n/a	FR1	1	R1052E
2727.786	2.417	1427088	WORD	n/a	wordpools/wordpool_EN.txt	TRUCK	2	24	[0, 0, 0]	n/a	FR1	1	R1052E
2730.203	2.533	1428296	WORD	n/a	wordpools/wordpool_EN.txt	PARK	3	24	[0, 0, 0]	n/a	FR1	1	R1052E
2732.736	2.468	1429563	WORD	n/a	wordpools/wordpool_EN.txt	SIGN	4	24	[0, 0, 0]	n/a	FR1	1	R1052E
2735.204	2.45	1430797	WORD	n/a	wordpools/wordpool_EN.txt	BATH	5	24	[0, 0, 0]	n/a	FR1	1	R1052E
2737.654	2.383	1432021	WORD	n/a	wordpools/wordpool_EN.txt	STAIR	6	24	[0, 0, 0]	n/a	FR1	1	R1052E
2740.037	2.368	1433213	WORD	n/a	wordpools/wordpool_EN.txt	STRAW	7	24	[0, 0, 0]	n/a	FR1	1	R1052E
2742.405	2.583	1434397	WORD	n/a	wordpools/wordpool_EN.txt	MILK	8	24	[0, 0, 0]	n/a	FR1	1	R1052E
2744.988	2.568	1435688	WORD	n/a	wordpools/wordpool_EN.txt	VEST	9	24	[0, 0, 0]	n/a	FR1	1	R1052E
2747.556	2.549	1436972	WORD	n/a	wordpools/wordpool_EN.txt	SWAMP	10	24	[0, 0, 0]	n/a	FR1	1	R1052E
2750.105	2.535	1438247	WORD	n/a	wordpools/wordpool_EN.txt	FARM	11	24	[0, 0, 0]	n/a	FR1	1	R1052E
2752.64	1.617	1439514	WORD	n/a	wordpools/wordpool_EN.txt	WEED	12	24	[0, 0, 0]	n/a	FR1	1	R1052E
2754.257	0.001	1440322	DISTRACT_START	n/a	n/a	n/a	-999	24	[0, 0, 0]	n/a	FR1	1	R1052E
2754.258	0.016	1440323	START	n/a	n/a	n/a	-999	24	[-999, -999, -999]	n/a	FR1	1	R1052E
2754.274	43.527	1440331	PROB	43.527	n/a	n/a	-999	24	[6, 9, 5]	20	FR1	1	R1052E
2797.801	0.014	1462093	STOP	n/a	n/a	n/a	-999	24	[-999, -999, -999]	n/a	FR1	1	R1052E
2797.815	1.183	1462100	DISTRACT_END	n/a	n/a	n/a	-999	24	[0, 0, 0]	n/a	FR1	1	R1052E
2798.998	24.415	1462691	REC_START	n/a	n/a	n/a	-999	24	[0, 0, 0]	n/a	FR1	1	R1052E
2823.413	5.594	1474898	REC_WORD_VV	5.594	n/a	<>	-999	24	[0, 0, 0]	n/a	FR1	1	R1052E
2829.007	11.864	1477695	REC_END	n/a	n/a	n/a	-999	24	[0, 0, 0]	n/a	FR1	1	R1052E
2840.871	0.001	1483626	COUNTDOWN_START	n/a	n/a	n/a	-999	25	[0, 0, 0]	n/a	FR1	1	R1052E
2840.872	10.427	1483627	TRIAL	n/a	n/a	n/a	-999	25	[0, 0, 0]	n/a	FR1	1	R1052E
2851.299	0.008	1488840	COUNTDOWN_END	n/a	n/a	n/a	-999	25	[0, 0, 0]	n/a	FR1	1	R1052E
2851.307	2.484	1488844	ORIENT	n/a	n/a	n/a	-999	25	[0, 0, 0]	n/a	FR1	1	R1052E
2853.791	2.501	1490086	WORD	n/a	wordpools/wordpool_EN.txt	YARD	1	25	[0, 0, 0]	n/a	FR1	1	R1052E
2856.292	2.483	1491336	WORD	n/a	wordpools/wordpool_EN.txt	HOLE	2	25	[0, 0, 0]	n/a	FR1	1	R1052E
2858.775	2.584	1492578	WORD	n/a	wordpools/wordpool_EN.txt	BUSH	3	25	[0, 0, 0]	n/a	FR1	1	R1052E
2861.359	2.5	1493870	WORD	n/a	wordpools/wordpool_EN.txt	OWL	4	25	[0, 0, 0]	n/a	FR1	1	R1052E
2863.859	2.551	1495120	WORD	n/a	wordpools/wordpool_EN.txt	BRUSH	5	25	[0, 0, 0]	n/a	FR1	1	R1052E
2866.41	2.466	1496395	WORD	n/a	wordpools/wordpool_EN.txt	PIPE	6	25	[0, 0, 0]	n/a	FR1	1	R1052E
2868.876	2.552	1497628	WORD	n/a	wordpools/wordpool_EN.txt	CLIFF	7	25	[0, 0, 0]	n/a	FR1	1	R1052E
2871.428	2.582	1498904	WORD	n/a	wordpools/wordpool_EN.txt	MULE	8	25	[0, 0, 0]	n/a	FR1	1	R1052E
2874.01	2.569	1500195	WORD	n/a	wordpools/wordpool_EN.txt	SPEAR	9	25	[0, 0, 0]	n/a	FR1	1	R1052E
2876.579	2.532	1501479	WORD	n/a	wordpools/wordpool_EN.txt	BAND	10	25	[0, 0, 0]	n/a	FR1	1	R1052E
2879.111	2.502	1502745	WORD	n/a	wordpools/wordpool_EN.txt	FROG	11	25	[0, 0, 0]	n/a	FR1	1	R1052E
2881.613	1.617	1503996	WORD	n/a	wordpools/wordpool_EN.txt	ROOF	12	25	[0, 0, 0]	n/a	FR1	1	R1052E
2883.23	0.0	1504805	DISTRACT_START	n/a	n/a	n/a	-999	25	[0, 0, 0]	n/a	FR1	1	R1052E
2883.23	0.016	1504805	START	n/a	n/a	n/a	-999	25	[-999, -999, -999]	n/a	FR1	1	R1052E
2883.246	21.073	1504813	PROB	21.073	n/a	n/a	-999	25	[6, 3, 9]	18	FR1	1	R1052E
2904.319	0.014	1515348	STOP	n/a	n/a	n/a	-999	25	[-999, -999, -999]	n/a	FR1	1	R1052E
2904.333	1.118	1515355	DISTRACT_END	n/a	n/a	n/a	-999	25	[0, 0, 0]	n/a	FR1	1	R1052E
2905.451	1.203	1515914	REC_START	n/a	n/a	n/a	-999	25	[0, 0, 0]	n/a	FR1	1	R1052E
2906.654	2.848	1516516	REC_WORD	2.848	n/a	YARD	-999	25	[0, 0, 0]	n/a	FR1	1	R1052E
2909.502	3.796	1517940	REC_WORD	3.796	n/a	HOLE	-999	25	[0, 0, 0]	n/a	FR1	1	R1052E
2913.298	7.595	1519838	REC_WORD	7.595	n/a	OWL	-999	25	[0, 0, 0]	n/a	FR1	1	R1052E
2920.893	14.566	1523635	REC_WORD_VV	14.566	n/a	<>	-999	25	[0, 0, 0]	n/a	FR1	1	R1052E
2935.459	6.248	1530917	REC_END	n/a	n/a	n/a	-999	25	[0, 0, 0]	n/a	FR1	1	R1052E
2941.707	0.0	1534041	SESS_END	n/a	n/a	n/a	-999	25	[0, 0, 0]	n/a	FR1	1	R1052E
