onset	duration	sample	trial_type	response_time	stim_file	item_name	serialpos	list	test	answer	experiment	session	subject
0.0	24.033	-1	SESS_START	n/a	n/a	n/a	-999	-999	[0, 0, 0]	n/a	FR1	0	R1034D
24.033	10.428	-1	COUNTDOWN_START	n/a	n/a	n/a	-999	-999	[0, 0, 0]	n/a	FR1	0	R1034D
34.461	3.758	-1	COUNTDOWN_END	n/a	n/a	n/a	-999	-999	[0, 0, 0]	n/a	FR1	0	R1034D
38.219	2.517	-1	PRACTICE_WORD	n/a	n/a	WATCH	1	-1	[0, 0, 0]	n/a	FR1	0	R1034D
40.736	2.467	-1	PRACTICE_WORD	n/a	n/a	CAMEL	2	-1	[0, 0, 0]	n/a	FR1	0	R1034D
43.203	2.584	-1	PRACTICE_WORD	n/a	n/a	FLOOD	3	-1	[0, 0, 0]	n/a	FR1	0	R1034D
45.787	2.45	-1	PRACTICE_WORD	n/a	n/a	RHINO	4	-1	[0, 0, 0]	n/a	FR1	0	R1034D
48.237	2.534	-1	PRACTICE_WORD	n/a	n/a	WAGON	5	-1	[0, 0, 0]	n/a	FR1	0	R1034D
50.771	2.467	-1	PRACTICE_WORD	n/a	n/a	BEAM	6	-1	[0, 0, 0]	n/a	FR1	0	R1034D
53.238	2.467	-1	PRACTICE_WORD	n/a	n/a	CHEST	7	-1	[0, 0, 0]	n/a	FR1	0	R1034D
55.705	2.451	-1	PRACTICE_WORD	n/a	n/a	COTTON	8	-1	[0, 0, 0]	n/a	FR1	0	R1034D
58.156	2.6	-1	PRACTICE_WORD	n/a	n/a	ATTIC	9	-1	[0, 0, 0]	n/a	FR1	0	R1034D
60.756	2.618	-1	PRACTICE_WORD	n/a	n/a	TONGUE	10	-1	[0, 0, 0]	n/a	FR1	0	R1034D
63.374	2.533	-1	PRACTICE_WORD	n/a	n/a	IRON	11	-1	[0, 0, 0]	n/a	FR1	0	R1034D
65.907	1.601	-1	PRACTICE_WORD	n/a	n/a	RING	12	-1	[0, 0, 0]	n/a	FR1	0	R1034D
67.508	0.001	-1	PRACTICE_DISTRACT_START	n/a	n/a	n/a	-999	-1	[0, 0, 0]	n/a	FR1	0	R1034D
67.509	0.016	-1	START	n/a	n/a	n/a	-999	-1	[-999, -999, -999]	n/a	FR1	0	R1034D
67.525	12.551	-1	PROB	12.551	n/a	n/a	-999	-1	[9, 9, 4]	13	FR1	0	R1034D
80.076	21.632	-1	PROB	21.632	n/a	n/a	-999	-1	[1, 3, 8]	12	FR1	0	R1034D
101.708	0.006	-1	STOP	n/a	n/a	n/a	-999	-1	[-999, -999, -999]	n/a	FR1	0	R1034D
101.714	0.703	-1	PRACTICE_DISTRACT_END	n/a	n/a	n/a	-999	-1	[0, 0, 0]	n/a	FR1	0	R1034D
102.417	30.514	-1	PRACTICE_REC_START	n/a	n/a	n/a	-999	-1	[0, 0, 0]	n/a	FR1	0	R1034D
132.931	195.224	-1	PRACTICE_REC_END	n/a	n/a	n/a	-999	-1	[0, 0, 0]	n/a	FR1	0	R1034D
328.155	0.0	-1	COUNTDOWN_START	n/a	n/a	n/a	-999	1	[0, 0, 0]	n/a	FR1	0	R1034D
328.155	8369.33	-1	TRIAL	n/a	n/a	n/a	-999	1	[0, 0, 0]	n/a	FR1	0	R1034D
8697.485	28.653	14404	SESS_START	n/a	n/a	n/a	-999	1	[0, 0, 0]	n/a	FR1	0	R1034D
8726.138	0.0	60246	TRIAL	n/a	n/a	n/a	-999	1	[0, 0, 0]	n/a	FR1	0	R1034D
8726.138	10.428	60246	COUNTDOWN_START	n/a	n/a	n/a	-999	1	[0, 0, 0]	n/a	FR1	0	R1034D
8736.566	0.007	76930	COUNTDOWN_END	n/a	n/a	n/a	-999	1	[0, 0, 0]	n/a	FR1	0	R1034D
8736.573	2.417	76941	ORIENT	n/a	n/a	n/a	-999	1	[0, 0, 0]	n/a	FR1	0	R1034D
8738.99	2.434	80808	WORD	n/a	wordpools/wordpool_EN.txt	JUICE	1	1	[0, 0, 0]	n/a	FR1	0	R1034D
8741.424	2.584	84702	WORD	n/a	wordpools/wordpool_EN.txt	SPONGE	2	1	[0, 0, 0]	n/a	FR1	0	R1034D
8744.008	2.634	88836	WORD	n/a	wordpools/wordpool_EN.txt	SOAP	3	1	[0, 0, 0]	n/a	FR1	0	R1034D
8746.642	2.417	93050	WORD	n/a	wordpools/wordpool_EN.txt	FROG	4	1	[0, 0, 0]	n/a	FR1	0	R1034D
8749.059	2.55	96917	WORD	n/a	wordpools/wordpool_EN.txt	ROOM	5	1	[0, 0, 0]	n/a	FR1	0	R1034D
8751.609	2.55	100997	WORD	n/a	wordpools/wordpool_EN.txt	PALM	6	1	[0, 0, 0]	n/a	FR1	0	R1034D
8754.159	2.434	105077	WORD	n/a	wordpools/wordpool_EN.txt	SEA	7	1	[0, 0, 0]	n/a	FR1	0	R1034D
8756.593	2.434	108971	WORD	n/a	wordpools/wordpool_EN.txt	TEETH	8	1	[0, 0, 0]	n/a	FR1	0	R1034D
8759.027	2.384	112865	WORD	n/a	wordpools/wordpool_EN.txt	PLATE	9	1	[0, 0, 0]	n/a	FR1	0	R1034D
8761.411	2.584	116680	WORD	n/a	wordpools/wordpool_EN.txt	TOOTH	10	1	[0, 0, 0]	n/a	FR1	0	R1034D
8763.995	2.55	120814	WORD	n/a	wordpools/wordpool_EN.txt	SNAIL	11	1	[0, 0, 0]	n/a	FR1	0	R1034D
8766.545	1.617	124894	WORD	n/a	wordpools/wordpool_EN.txt	SALT	12	1	[0, 0, 0]	n/a	FR1	0	R1034D
8768.162	0.001	127481	DISTRACT_START	n/a	n/a	n/a	-999	1	[0, 0, 0]	n/a	FR1	0	R1034D
8768.163	0.015	127482	START	n/a	n/a	n/a	-999	1	[-999, -999, -999]	n/a	FR1	0	R1034D
8768.178	25.706	127506	PROB	25.706	n/a	n/a	-999	1	[8, 8, 9]	25	FR1	0	R1034D
8793.884	0.016	168634	STOP	n/a	n/a	n/a	-999	1	[-999, -999, -999]	n/a	FR1	0	R1034D
8793.9	1.039	168659	DISTRACT_END	n/a	n/a	n/a	-999	1	[0, 0, 0]	n/a	FR1	0	R1034D
8794.939	1.855	170321	REC_START	n/a	n/a	n/a	-999	1	[0, 0, 0]	n/a	FR1	0	R1034D
8796.794	1.0	173289	REC_WORD_VV	1.0	n/a	<>	-999	1	[0, 0, 0]	n/a	FR1	0	R1034D
8797.794	1.282	174889	REC_WORD_VV	1.282	n/a	<>	-999	1	[0, 0, 0]	n/a	FR1	0	R1034D
8799.076	0.604	176940	REC_WORD	0.604	n/a	JUICE	1	1	[0, 0, 0]	n/a	FR1	0	R1034D
8799.68	4.26	177907	REC_WORD	4.26	n/a	SPONGE	2	1	[0, 0, 0]	n/a	FR1	0	R1034D
8803.94	3.661	184722	REC_WORD_VV	3.661	n/a	<>	-999	1	[0, 0, 0]	n/a	FR1	0	R1034D
8807.601	2.661	190580	REC_WORD_VV	2.661	n/a	<>	-999	1	[0, 0, 0]	n/a	FR1	0	R1034D
8810.262	1.0	194837	REC_WORD_VV	1.0	n/a	<>	-999	1	[0, 0, 0]	n/a	FR1	0	R1034D
8811.262	2.645	196437	REC_WORD_VV	2.645	n/a	<>	-999	1	[0, 0, 0]	n/a	FR1	0	R1034D
8813.907	0.92	200669	REC_WORD	0.92	n/a	PIE	-999	1	[0, 0, 0]	n/a	FR1	0	R1034D
8814.827	1.0	202141	REC_WORD_VV	1.0	n/a	<>	-999	1	[0, 0, 0]	n/a	FR1	0	R1034D
8815.827	2.349	203740	REC_WORD_VV	2.349	n/a	<>	-999	1	[0, 0, 0]	n/a	FR1	0	R1034D
8818.176	1.0	207499	REC_WORD_VV	1.0	n/a	<>	-999	1	[0, 0, 0]	n/a	FR1	0	R1034D
8819.176	1.607	209099	REC_WORD_VV	1.607	n/a	<>	-999	1	[0, 0, 0]	n/a	FR1	0	R1034D
8820.783	1.0	211670	REC_WORD_VV	1.0	n/a	<>	-999	1	[0, 0, 0]	n/a	FR1	0	R1034D
8821.783	1.0	213270	REC_WORD_VV	1.0	n/a	<>	-999	1	[0, 0, 0]	n/a	FR1	0	R1034D
8822.783	2.172	214869	REC_WORD_VV	2.172	n/a	<>	-999	1	[0, 0, 0]	n/a	FR1	0	R1034D
8824.955	8.319	218345	REC_END	n/a	n/a	n/a	-999	1	[0, 0, 0]	n/a	FR1	0	R1034D
8833.274	0.0	231654	TRIAL	n/a	n/a	n/a	-999	2	[0, 0, 0]	n/a	FR1	0	R1034D
8833.274	10.428	231654	COUNTDOWN_START	n/a	n/a	n/a	-999	2	[0, 0, 0]	n/a	FR1	0	R1034D
8843.702	0.007	248338	COUNTDOWN_END	n/a	n/a	n/a	-999	2	[0, 0, 0]	n/a	FR1	0	R1034D
8843.709	2.516	248349	ORIENT	n/a	n/a	n/a	-999	2	[0, 0, 0]	n/a	FR1	0	R1034D
8846.225	2.452	252375	WORD	n/a	wordpools/wordpool_EN.txt	SIGN	1	2	[0, 0, 0]	n/a	FR1	0	R1034D
8848.677	2.6	256298	WORD	n/a	wordpools/wordpool_EN.txt	KEY	2	2	[0, 0, 0]	n/a	FR1	0	R1034D
8851.277	2.601	260457	WORD	n/a	wordpools/wordpool_EN.txt	MOUTH	3	2	[0, 0, 0]	n/a	FR1	0	R1034D
8853.878	2.55	264619	WORD	n/a	wordpools/wordpool_EN.txt	DRUM	4	2	[0, 0, 0]	n/a	FR1	0	R1034D
8856.428	2.551	268699	WORD	n/a	wordpools/wordpool_EN.txt	JAIL	5	2	[0, 0, 0]	n/a	FR1	0	R1034D
8858.979	2.484	272780	WORD	n/a	wordpools/wordpool_EN.txt	SCHOOL	6	2	[0, 0, 0]	n/a	FR1	0	R1034D
8861.463	2.55	276754	WORD	n/a	wordpools/wordpool_EN.txt	JUDGE	7	2	[0, 0, 0]	n/a	FR1	0	R1034D
8864.013	2.55	280834	WORD	n/a	wordpools/wordpool_EN.txt	BLUSH	8	2	[0, 0, 0]	n/a	FR1	0	R1034D
8866.563	2.551	284914	WORD	n/a	wordpools/wordpool_EN.txt	FOOT	9	2	[0, 0, 0]	n/a	FR1	0	R1034D
8869.114	2.617	288995	WORD	n/a	wordpools/wordpool_EN.txt	PASTE	10	2	[0, 0, 0]	n/a	FR1	0	R1034D
8871.731	2.45	293182	WORD	n/a	wordpools/wordpool_EN.txt	INK	11	2	[0, 0, 0]	n/a	FR1	0	R1034D
8874.181	1.617	297102	WORD	n/a	wordpools/wordpool_EN.txt	BOARD	12	2	[0, 0, 0]	n/a	FR1	0	R1034D
8875.798	0.001	299689	DISTRACT_START	n/a	n/a	n/a	-999	2	[0, 0, 0]	n/a	FR1	0	R1034D
8875.799	0.016	299691	START	n/a	n/a	n/a	-999	2	[-999, -999, -999]	n/a	FR1	0	R1034D
8875.815	9.902	299716	PROB	9.902	n/a	n/a	-999	2	[3, 6, 7]	16	FR1	0	R1034D
8885.717	9.918	315558	PROB	9.918	n/a	n/a	-999	2	[2, 6, 2]	16	FR1	0	R1034D
8895.635	20.649	331426	PROB	20.649	n/a	n/a	-999	2	[2, 7, 8]	17	FR1	0	R1034D
8916.284	0.005	364463	STOP	n/a	n/a	n/a	-999	2	[-999, -999, -999]	n/a	FR1	0	R1034D
8916.289	1.052	364471	DISTRACT_END	n/a	n/a	n/a	-999	2	[0, 0, 0]	n/a	FR1	0	R1034D
8917.341	30.0	366154	REC_START	n/a	n/a	n/a	-999	2	[0, 0, 0]	n/a	FR1	0	R1034D
8947.341	0.009	414152	REC_WORD_VV	0.009	n/a	<>	-999	2	[0, 0, 0]	n/a	FR1	0	R1034D
8947.35	8.713	414166	REC_END	n/a	n/a	n/a	-999	2	[0, 0, 0]	n/a	FR1	0	R1034D
8956.063	0.0	428106	TRIAL	n/a	n/a	n/a	-999	3	[0, 0, 0]	n/a	FR1	0	R1034D
8956.063	10.428	428106	COUNTDOWN_START	n/a	n/a	n/a	-999	3	[0, 0, 0]	n/a	FR1	0	R1034D
8966.491	0.007	444790	COUNTDOWN_END	n/a	n/a	n/a	-999	3	[0, 0, 0]	n/a	FR1	0	R1034D
8966.498	2.534	444801	ORIENT	n/a	n/a	n/a	-999	3	[0, 0, 0]	n/a	FR1	0	R1034D
8969.032	2.567	448855	WORD	n/a	wordpools/wordpool_EN.txt	SKI	1	3	[0, 0, 0]	n/a	FR1	0	R1034D
8971.599	2.484	452962	WORD	n/a	wordpools/wordpool_EN.txt	SHRIMP	2	3	[0, 0, 0]	n/a	FR1	0	R1034D
8974.083	2.617	456936	WORD	n/a	wordpools/wordpool_EN.txt	PLANE	3	3	[0, 0, 0]	n/a	FR1	0	R1034D
8976.7	2.434	461123	WORD	n/a	wordpools/wordpool_EN.txt	DART	4	3	[0, 0, 0]	n/a	FR1	0	R1034D
8979.134	2.434	465018	WORD	n/a	wordpools/wordpool_EN.txt	CLAY	5	3	[0, 0, 0]	n/a	FR1	0	R1034D
8981.568	2.384	468912	WORD	n/a	wordpools/wordpool_EN.txt	CLOUD	6	3	[0, 0, 0]	n/a	FR1	0	R1034D
8983.952	2.617	472726	WORD	n/a	wordpools/wordpool_EN.txt	BALL	7	3	[0, 0, 0]	n/a	FR1	0	R1034D
8986.569	2.417	476913	WORD	n/a	wordpools/wordpool_EN.txt	BOMB	8	3	[0, 0, 0]	n/a	FR1	0	R1034D
8988.986	2.617	480780	WORD	n/a	wordpools/wordpool_EN.txt	MOON	9	3	[0, 0, 0]	n/a	FR1	0	R1034D
8991.603	2.517	484967	WORD	n/a	wordpools/wordpool_EN.txt	WHEEL	10	3	[0, 0, 0]	n/a	FR1	0	R1034D
8994.12	2.417	488994	WORD	n/a	wordpools/wordpool_EN.txt	FILM	11	3	[0, 0, 0]	n/a	FR1	0	R1034D
8996.537	1.617	492861	WORD	n/a	wordpools/wordpool_EN.txt	BAT	12	3	[0, 0, 0]	n/a	FR1	0	R1034D
8998.154	0.001	495448	DISTRACT_START	n/a	n/a	n/a	-999	3	[0, 0, 0]	n/a	FR1	0	R1034D
8998.155	0.015	495450	START	n/a	n/a	n/a	-999	3	[-999, -999, -999]	n/a	FR1	0	R1034D
8998.17	9.051	495474	PROB	9.051	n/a	n/a	-999	3	[3, 8, 2]	13	FR1	0	R1034D
9007.221	4.652	509954	PROB	4.652	n/a	n/a	-999	3	[6, 6, 3]	13	FR1	0	R1034D
9011.873	6.787	517397	PROB	6.787	n/a	n/a	-999	3	[2, 5, 5]	13	FR1	0	R1034D
9018.66	0.014	528256	STOP	n/a	n/a	n/a	-999	3	[-999, -999, -999]	n/a	FR1	0	R1034D
9018.674	1.158	528278	DISTRACT_END	n/a	n/a	n/a	-999	3	[0, 0, 0]	n/a	FR1	0	R1034D
9019.832	1.583	530131	REC_START	n/a	n/a	n/a	-999	3	[0, 0, 0]	n/a	FR1	0	R1034D
9021.415	2.803	532664	REC_WORD_VV	2.803	n/a	<>	-999	3	[0, 0, 0]	n/a	FR1	0	R1034D
9024.218	1.0	537148	REC_WORD_VV	1.0	n/a	<>	-999	3	[0, 0, 0]	n/a	FR1	0	R1034D
9025.218	0.414	538748	REC_WORD_VV	0.414	n/a	<>	-999	3	[0, 0, 0]	n/a	FR1	0	R1034D
9025.632	0.498	539410	REC_WORD	0.498	n/a	SKI	1	3	[0, 0, 0]	n/a	FR1	0	R1034D
9026.13	1.156	540207	REC_WORD	1.156	n/a	SHRIMP	2	3	[0, 0, 0]	n/a	FR1	0	R1034D
9027.286	2.303	542057	REC_WORD	2.303	n/a	BALL	7	3	[0, 0, 0]	n/a	FR1	0	R1034D
9029.589	0.605	545741	REC_WORD	0.605	n/a	COTTON	-999	3	[0, 0, 0]	n/a	FR1	0	R1034D
9030.194	1.785	546709	REC_WORD	1.785	n/a	BAT	12	3	[0, 0, 0]	n/a	FR1	0	R1034D
9031.979	4.85	549565	REC_WORD_VV	4.85	n/a	<>	-999	3	[0, 0, 0]	n/a	FR1	0	R1034D
9036.829	2.538	557325	REC_WORD	2.538	n/a	BOMB	8	3	[0, 0, 0]	n/a	FR1	0	R1034D
9039.367	3.016	561385	REC_WORD_VV	3.016	n/a	<>	-999	3	[0, 0, 0]	n/a	FR1	0	R1034D
9042.383	3.614	566211	REC_WORD_VV	3.614	n/a	<>	-999	3	[0, 0, 0]	n/a	FR1	0	R1034D
9045.997	3.839	571993	REC_WORD_VV	3.839	n/a	<>	-999	3	[0, 0, 0]	n/a	FR1	0	R1034D
9049.836	6.029	578135	REC_END	n/a	n/a	n/a	-999	3	[0, 0, 0]	n/a	FR1	0	R1034D
9055.865	0.0	587781	TRIAL	n/a	n/a	n/a	-999	4	[0, 0, 0]	n/a	FR1	0	R1034D
9055.865	10.428	587781	COUNTDOWN_START	n/a	n/a	n/a	-999	4	[0, 0, 0]	n/a	FR1	0	R1034D
9066.293	0.007	604464	COUNTDOWN_END	n/a	n/a	n/a	-999	4	[0, 0, 0]	n/a	FR1	0	R1034D
9066.3	2.383	604476	ORIENT	n/a	n/a	n/a	-999	4	[0, 0, 0]	n/a	FR1	0	R1034D
9068.683	2.401	608288	WORD	n/a	wordpools/wordpool_EN.txt	PIE	1	4	[0, 0, 0]	n/a	FR1	0	R1034D
9071.084	2.584	612130	WORD	n/a	wordpools/wordpool_EN.txt	CUP	2	4	[0, 0, 0]	n/a	FR1	0	R1034D
9073.668	2.417	616264	WORD	n/a	wordpools/wordpool_EN.txt	SEAT	3	4	[0, 0, 0]	n/a	FR1	0	R1034D
9076.085	2.45	620131	WORD	n/a	wordpools/wordpool_EN.txt	SINK	4	4	[0, 0, 0]	n/a	FR1	0	R1034D
9078.535	2.617	624051	WORD	n/a	wordpools/wordpool_EN.txt	SMILE	5	4	[0, 0, 0]	n/a	FR1	0	R1034D
9081.152	2.468	628238	WORD	n/a	wordpools/wordpool_EN.txt	VEST	6	4	[0, 0, 0]	n/a	FR1	0	R1034D
9083.62	2.566	632186	WORD	n/a	wordpools/wordpool_EN.txt	OAR	7	4	[0, 0, 0]	n/a	FR1	0	R1034D
9086.186	2.585	636292	WORD	n/a	wordpools/wordpool_EN.txt	PEACH	8	4	[0, 0, 0]	n/a	FR1	0	R1034D
9088.771	2.432	640427	WORD	n/a	wordpools/wordpool_EN.txt	CAKE	9	4	[0, 0, 0]	n/a	FR1	0	R1034D
9091.203	2.518	644318	WORD	n/a	wordpools/wordpool_EN.txt	SHIELD	10	4	[0, 0, 0]	n/a	FR1	0	R1034D
9093.721	2.551	648347	WORD	n/a	wordpools/wordpool_EN.txt	GLOVE	11	4	[0, 0, 0]	n/a	FR1	0	R1034D
9096.272	1.617	652428	WORD	n/a	wordpools/wordpool_EN.txt	DIME	12	4	[0, 0, 0]	n/a	FR1	0	R1034D
9097.889	0.001	655015	DISTRACT_START	n/a	n/a	n/a	-999	4	[0, 0, 0]	n/a	FR1	0	R1034D
9097.89	0.016	655017	START	n/a	n/a	n/a	-999	4	[-999, -999, -999]	n/a	FR1	0	R1034D
9097.906	9.651	655043	PROB	9.651	n/a	n/a	-999	4	[7, 4, 5]	15	FR1	0	R1034D
9107.557	3.068	670483	PROB	3.068	n/a	n/a	-999	4	[4, 3, 3]	16	FR1	0	R1034D
9110.625	2.217	675392	PROB	2.217	n/a	n/a	-999	4	[4, 7, 5]	15	FR1	0	R1034D
9112.842	21.266	678939	PROB	21.266	n/a	n/a	-999	4	[9, 8, 7]	23	FR1	0	R1034D
9134.108	0.004	712963	STOP	n/a	n/a	n/a	-999	4	[-999, -999, -999]	n/a	FR1	0	R1034D
9134.112	1.117	712969	DISTRACT_END	n/a	n/a	n/a	-999	4	[0, 0, 0]	n/a	FR1	0	R1034D
9135.229	7.031	714756	REC_START	n/a	n/a	n/a	-999	4	[0, 0, 0]	n/a	FR1	0	R1034D
9142.26	1.962	726005	REC_WORD_VV	1.962	n/a	<>	-999	4	[0, 0, 0]	n/a	FR1	0	R1034D
9144.222	2.872	729144	REC_WORD_VV	2.872	n/a	<>	-999	4	[0, 0, 0]	n/a	FR1	0	R1034D
9147.094	2.018	733739	REC_WORD	2.018	n/a	DIME	12	4	[0, 0, 0]	n/a	FR1	0	R1034D
9149.112	1.909	736968	REC_WORD	1.909	n/a	BALL	-999	4	[0, 0, 0]	n/a	FR1	0	R1034D
9151.021	1.116	740022	REC_WORD	1.116	n/a	BAT	-999	4	[0, 0, 0]	n/a	FR1	0	R1034D
9152.137	13.102	741807	REC_WORD_VV	13.102	n/a	<>	-999	4	[0, 0, 0]	n/a	FR1	0	R1034D
9165.239	2.229	762770	REC_END	n/a	n/a	n/a	-999	4	[0, 0, 0]	n/a	FR1	0	R1034D
9167.468	0.0	766336	TRIAL	n/a	n/a	n/a	-999	5	[0, 0, 0]	n/a	FR1	0	R1034D
9167.468	10.428	766336	COUNTDOWN_START	n/a	n/a	n/a	-999	5	[0, 0, 0]	n/a	FR1	0	R1034D
9177.896	0.007	783020	COUNTDOWN_END	n/a	n/a	n/a	-999	5	[0, 0, 0]	n/a	FR1	0	R1034D
9177.903	2.401	783031	ORIENT	n/a	n/a	n/a	-999	5	[0, 0, 0]	n/a	FR1	0	R1034D
9180.304	2.55	786872	WORD	n/a	wordpools/wordpool_EN.txt	MAP	1	5	[0, 0, 0]	n/a	FR1	0	R1034D
9182.854	2.417	790952	WORD	n/a	wordpools/wordpool_EN.txt	LAKE	2	5	[0, 0, 0]	n/a	FR1	0	R1034D
9185.271	2.551	794819	WORD	n/a	wordpools/wordpool_EN.txt	SNOW	3	5	[0, 0, 0]	n/a	FR1	0	R1034D
9187.822	2.432	798900	WORD	n/a	wordpools/wordpool_EN.txt	TRAIN	4	5	[0, 0, 0]	n/a	FR1	0	R1034D
9190.254	2.419	802791	WORD	n/a	wordpools/wordpool_EN.txt	SKUNK	5	5	[0, 0, 0]	n/a	FR1	0	R1034D
9192.673	2.583	806662	WORD	n/a	wordpools/wordpool_EN.txt	CAPE	6	5	[0, 0, 0]	n/a	FR1	0	R1034D
9195.256	2.451	810794	WORD	n/a	wordpools/wordpool_EN.txt	ICE	7	5	[0, 0, 0]	n/a	FR1	0	R1034D
9197.707	2.451	814716	WORD	n/a	wordpools/wordpool_EN.txt	ROCK	8	5	[0, 0, 0]	n/a	FR1	0	R1034D
9200.158	2.433	818637	WORD	n/a	wordpools/wordpool_EN.txt	RAIN	9	5	[0, 0, 0]	n/a	FR1	0	R1034D
9202.591	2.633	822530	WORD	n/a	wordpools/wordpool_EN.txt	POLE	10	5	[0, 0, 0]	n/a	FR1	0	R1034D
9205.224	2.401	826742	WORD	n/a	wordpools/wordpool_EN.txt	BAND	11	5	[0, 0, 0]	n/a	FR1	0	R1034D
9207.625	1.616	830583	WORD	n/a	wordpools/wordpool_EN.txt	SLIME	12	5	[0, 0, 0]	n/a	FR1	0	R1034D
9209.241	0.001	833169	DISTRACT_START	n/a	n/a	n/a	-999	5	[0, 0, 0]	n/a	FR1	0	R1034D
9209.242	0.016	833171	START	n/a	n/a	n/a	-999	5	[-999, -999, -999]	n/a	FR1	0	R1034D
9209.258	6.269	833196	PROB	6.269	n/a	n/a	-999	5	[8, 2, 3]	13	FR1	0	R1034D
9215.527	9.285	843226	PROB	9.285	n/a	n/a	-999	5	[8, 3, 4]	15	FR1	0	R1034D
9224.812	23.464	858081	PROB	23.464	n/a	n/a	-999	5	[8, 1, 8]	27	FR1	0	R1034D
9248.276	0.007	895622	STOP	n/a	n/a	n/a	-999	5	[-999, -999, -999]	n/a	FR1	0	R1034D
9248.283	1.118	895633	DISTRACT_END	n/a	n/a	n/a	-999	5	[0, 0, 0]	n/a	FR1	0	R1034D
9249.401	1.079	897421	REC_START	n/a	n/a	n/a	-999	5	[0, 0, 0]	n/a	FR1	0	R1034D
9250.48	1.0	899148	REC_WORD_VV	1.0	n/a	<>	-999	5	[0, 0, 0]	n/a	FR1	0	R1034D
9251.48	1.447	900748	REC_WORD_VV	1.447	n/a	<>	-999	5	[0, 0, 0]	n/a	FR1	0	R1034D
9252.927	0.857	903063	REC_WORD_VV	0.857	n/a	<>	-999	5	[0, 0, 0]	n/a	FR1	0	R1034D
9253.784	0.592	904434	REC_WORD	0.592	n/a	LAKE	2	5	[0, 0, 0]	n/a	FR1	0	R1034D
9254.376	0.761	905381	REC_WORD	0.761	n/a	MAP	1	5	[0, 0, 0]	n/a	FR1	0	R1034D
9255.137	0.933	906599	REC_WORD	0.933	n/a	SNOW	3	5	[0, 0, 0]	n/a	FR1	0	R1034D
9256.07	1.542	908091	REC_WORD	1.542	n/a	RAIN	9	5	[0, 0, 0]	n/a	FR1	0	R1034D
9257.612	2.228	910558	REC_WORD_VV	2.228	n/a	<>	-999	5	[0, 0, 0]	n/a	FR1	0	R1034D
9259.84	2.393	914123	REC_WORD	2.393	n/a	BAND	11	5	[0, 0, 0]	n/a	FR1	0	R1034D
9262.233	1.511	917952	REC_WORD_VV	1.511	n/a	<>	-999	5	[0, 0, 0]	n/a	FR1	0	R1034D
9263.744	15.667	920369	REC_WORD_VV	15.667	n/a	<>	-999	5	[0, 0, 0]	n/a	FR1	0	R1034D
9279.411	2.044	945435	REC_END	n/a	n/a	n/a	-999	5	[0, 0, 0]	n/a	FR1	0	R1034D
9281.455	0.001	948705	COUNTDOWN_START	n/a	n/a	n/a	-999	6	[0, 0, 0]	n/a	FR1	0	R1034D
9281.456	10.427	948707	TRIAL	n/a	n/a	n/a	-999	6	[0, 0, 0]	n/a	FR1	0	R1034D
9291.883	0.008	965389	COUNTDOWN_END	n/a	n/a	n/a	-999	6	[0, 0, 0]	n/a	FR1	0	R1034D
9291.891	2.583	965402	ORIENT	n/a	n/a	n/a	-999	6	[0, 0, 0]	n/a	FR1	0	R1034D
9294.474	2.401	969534	WORD	n/a	wordpools/wordpool_EN.txt	RAT	1	6	[0, 0, 0]	n/a	FR1	0	R1034D
9296.875	2.467	973376	WORD	n/a	wordpools/wordpool_EN.txt	CAT	2	6	[0, 0, 0]	n/a	FR1	0	R1034D
9299.342	2.517	977323	WORD	n/a	wordpools/wordpool_EN.txt	ANT	3	6	[0, 0, 0]	n/a	FR1	0	R1034D
9301.859	2.501	981350	WORD	n/a	wordpools/wordpool_EN.txt	FOOD	4	6	[0, 0, 0]	n/a	FR1	0	R1034D
9304.36	2.4	985351	WORD	n/a	wordpools/wordpool_EN.txt	STORE	5	6	[0, 0, 0]	n/a	FR1	0	R1034D
9306.76	2.567	989191	WORD	n/a	wordpools/wordpool_EN.txt	BANK	6	6	[0, 0, 0]	n/a	FR1	0	R1034D
9309.327	2.384	993298	WORD	n/a	wordpools/wordpool_EN.txt	DUCK	7	6	[0, 0, 0]	n/a	FR1	0	R1034D
9311.711	2.451	997112	WORD	n/a	wordpools/wordpool_EN.txt	PIG	8	6	[0, 0, 0]	n/a	FR1	0	R1034D
9314.162	2.4	1001033	WORD	n/a	wordpools/wordpool_EN.txt	GEESE	9	6	[0, 0, 0]	n/a	FR1	0	R1034D
9316.562	2.384	1004873	WORD	n/a	wordpools/wordpool_EN.txt	WOLF	10	6	[0, 0, 0]	n/a	FR1	0	R1034D
9318.946	2.484	1008687	WORD	n/a	wordpools/wordpool_EN.txt	FLUTE	11	6	[0, 0, 0]	n/a	FR1	0	R1034D
9321.43	1.617	1012662	WORD	n/a	wordpools/wordpool_EN.txt	LAMB	12	6	[0, 0, 0]	n/a	FR1	0	R1034D
9323.047	0.0	1015249	DISTRACT_START	n/a	n/a	n/a	-999	6	[0, 0, 0]	n/a	FR1	0	R1034D
9323.047	0.016	1015249	START	n/a	n/a	n/a	-999	6	[-999, -999, -999]	n/a	FR1	0	R1034D
9323.063	16.086	1015274	PROB	16.086	n/a	n/a	-999	6	[3, 6, 9]	18	FR1	0	R1034D
9339.149	15.567	1041011	PROB	15.567	n/a	n/a	-999	6	[3, 9, 8]	21	FR1	0	R1034D
9354.716	0.003	1065916	STOP	n/a	n/a	n/a	-999	6	[-999, -999, -999]	n/a	FR1	0	R1034D
9354.719	1.067	1065921	DISTRACT_END	n/a	n/a	n/a	-999	6	[0, 0, 0]	n/a	FR1	0	R1034D
9355.786	12.584	1067628	REC_START	n/a	n/a	n/a	-999	6	[0, 0, 0]	n/a	FR1	0	R1034D
9368.37	2.317	1087762	REC_WORD_VV	2.317	n/a	<>	-999	6	[0, 0, 0]	n/a	FR1	0	R1034D
9370.687	1.0	1091469	REC_WORD_VV	1.0	n/a	<>	-999	6	[0, 0, 0]	n/a	FR1	0	R1034D
9371.687	1.0	1093069	REC_WORD_VV	1.0	n/a	<>	-999	6	[0, 0, 0]	n/a	FR1	0	R1034D
9372.687	2.875	1094668	REC_WORD_VV	2.875	n/a	<>	-999	6	[0, 0, 0]	n/a	FR1	0	R1034D
9375.562	1.0	1099268	REC_WORD_VV	1.0	n/a	<>	-999	6	[0, 0, 0]	n/a	FR1	0	R1034D
9376.562	1.0	1100868	REC_WORD_VV	1.0	n/a	<>	-999	6	[0, 0, 0]	n/a	FR1	0	R1034D
9377.562	6.991	1102468	REC_WORD_VV	6.991	n/a	<>	-999	6	[0, 0, 0]	n/a	FR1	0	R1034D
9384.553	1.247	1113653	REC_WORD_VV	1.247	n/a	<>	-999	6	[0, 0, 0]	n/a	FR1	0	R1034D
9385.8	4.275	1115648	REC_END	n/a	n/a	n/a	-999	6	[0, 0, 0]	n/a	FR1	0	R1034D
9390.075	0.001	1122488	COUNTDOWN_START	n/a	n/a	n/a	-999	7	[0, 0, 0]	n/a	FR1	0	R1034D
9390.076	10.427	1122489	TRIAL	n/a	n/a	n/a	-999	7	[0, 0, 0]	n/a	FR1	0	R1034D
9400.503	0.008	1139172	COUNTDOWN_END	n/a	n/a	n/a	-999	7	[0, 0, 0]	n/a	FR1	0	R1034D
9400.511	2.633	1139184	ORIENT	n/a	n/a	n/a	-999	7	[0, 0, 0]	n/a	FR1	0	R1034D
9403.144	2.584	1143397	WORD	n/a	wordpools/wordpool_EN.txt	PET	1	7	[0, 0, 0]	n/a	FR1	0	R1034D
9405.728	2.45	1147531	WORD	n/a	wordpools/wordpool_EN.txt	HOLE	2	7	[0, 0, 0]	n/a	FR1	0	R1034D
9408.178	2.568	1151451	WORD	n/a	wordpools/wordpool_EN.txt	SLEEVE	3	7	[0, 0, 0]	n/a	FR1	0	R1034D
9410.746	2.499	1155560	WORD	n/a	wordpools/wordpool_EN.txt	CUBE	4	7	[0, 0, 0]	n/a	FR1	0	R1034D
9413.245	2.468	1159558	WORD	n/a	wordpools/wordpool_EN.txt	NAIL	5	7	[0, 0, 0]	n/a	FR1	0	R1034D
9415.713	2.483	1163506	WORD	n/a	wordpools/wordpool_EN.txt	COUCH	6	7	[0, 0, 0]	n/a	FR1	0	R1034D
9418.196	2.552	1167479	WORD	n/a	wordpools/wordpool_EN.txt	BARN	7	7	[0, 0, 0]	n/a	FR1	0	R1034D
9420.748	2.4	1171562	WORD	n/a	wordpools/wordpool_EN.txt	YARD	8	7	[0, 0, 0]	n/a	FR1	0	R1034D
9423.148	2.451	1175402	WORD	n/a	wordpools/wordpool_EN.txt	PIN	9	7	[0, 0, 0]	n/a	FR1	0	R1034D
9425.599	2.433	1179323	WORD	n/a	wordpools/wordpool_EN.txt	WALL	10	7	[0, 0, 0]	n/a	FR1	0	R1034D
9428.032	2.534	1183216	WORD	n/a	wordpools/wordpool_EN.txt	LAWN	11	7	[0, 0, 0]	n/a	FR1	0	R1034D
9430.566	1.616	1187270	WORD	n/a	wordpools/wordpool_EN.txt	TIE	12	7	[0, 0, 0]	n/a	FR1	0	R1034D
9432.182	0.001	1189855	DISTRACT_START	n/a	n/a	n/a	-999	7	[0, 0, 0]	n/a	FR1	0	R1034D
9432.183	0.016	1189857	START	n/a	n/a	n/a	-999	7	[-999, -999, -999]	n/a	FR1	0	R1034D
9432.199	176.525	1189883	PROB	176.525	n/a	n/a	-999	7	[3, 9, 5]	1	FR1	0	R1034D
9608.724	0.008	1472307	STOP	n/a	n/a	n/a	-999	7	[-999, -999, -999]	n/a	FR1	0	R1034D
9608.732	1.084	1472320	DISTRACT_END	n/a	n/a	n/a	-999	7	[0, 0, 0]	n/a	FR1	0	R1034D
9609.816	30.011	1474054	REC_START	n/a	n/a	n/a	-999	7	[0, 0, 0]	n/a	FR1	0	R1034D
9639.827	0.004	1522069	REC_WORD_VV	0.004	n/a	<>	-999	7	[0, 0, 0]	n/a	FR1	0	R1034D
9639.831	3.64	1522076	REC_END	n/a	n/a	n/a	-999	7	[0, 0, 0]	n/a	FR1	0	R1034D
9643.471	0.001	1527899	COUNTDOWN_START	n/a	n/a	n/a	-999	8	[0, 0, 0]	n/a	FR1	0	R1034D
9643.472	10.427	1527901	TRIAL	n/a	n/a	n/a	-999	8	[0, 0, 0]	n/a	FR1	0	R1034D
9653.899	0.008	1544583	COUNTDOWN_END	n/a	n/a	n/a	-999	8	[0, 0, 0]	n/a	FR1	0	R1034D
9653.907	2.567	1544596	ORIENT	n/a	n/a	n/a	-999	8	[0, 0, 0]	n/a	FR1	0	R1034D
9656.474	2.484	1548703	WORD	n/a	wordpools/wordpool_EN.txt	FORT	1	8	[0, 0, 0]	n/a	FR1	0	R1034D
9658.958	2.6	1552677	WORD	n/a	wordpools/wordpool_EN.txt	STEM	2	8	[0, 0, 0]	n/a	FR1	0	R1034D
9661.558	2.417	1556837	WORD	n/a	wordpools/wordpool_EN.txt	SWORD	3	8	[0, 0, 0]	n/a	FR1	0	R1034D
9663.975	2.534	1560704	WORD	n/a	wordpools/wordpool_EN.txt	HORSE	4	8	[0, 0, 0]	n/a	FR1	0	R1034D
9666.509	2.5	1564758	WORD	n/a	wordpools/wordpool_EN.txt	SAIL	5	8	[0, 0, 0]	n/a	FR1	0	R1034D
9669.009	2.518	1568758	WORD	n/a	wordpools/wordpool_EN.txt	COIN	6	8	[0, 0, 0]	n/a	FR1	0	R1034D
9671.527	2.583	1572787	WORD	n/a	wordpools/wordpool_EN.txt	ROOT	7	8	[0, 0, 0]	n/a	FR1	0	R1034D
9674.11	2.418	1576919	WORD	n/a	wordpools/wordpool_EN.txt	STAR	8	8	[0, 0, 0]	n/a	FR1	0	R1034D
9676.528	2.583	1580788	WORD	n/a	wordpools/wordpool_EN.txt	LEAF	9	8	[0, 0, 0]	n/a	FR1	0	R1034D
9679.111	2.434	1584920	WORD	n/a	wordpools/wordpool_EN.txt	SHIP	10	8	[0, 0, 0]	n/a	FR1	0	R1034D
9681.545	2.567	1588815	WORD	n/a	wordpools/wordpool_EN.txt	SHELL	11	8	[0, 0, 0]	n/a	FR1	0	R1034D
9684.112	1.617	1592922	WORD	n/a	wordpools/wordpool_EN.txt	APE	12	8	[0, 0, 0]	n/a	FR1	0	R1034D
9685.729	0.001	1595509	DISTRACT_START	n/a	n/a	n/a	-999	8	[0, 0, 0]	n/a	FR1	0	R1034D
9685.73	0.016	1595510	START	n/a	n/a	n/a	-999	8	[-999, -999, -999]	n/a	FR1	0	R1034D
9685.746	11.385	1595536	PROB	11.385	n/a	n/a	-999	8	[7, 9, 1]	18	FR1	0	R1034D
9697.131	8.269	1613751	PROB	8.269	n/a	n/a	-999	8	[6, 9, 7]	16	FR1	0	R1034D
9705.4	10.228	1626981	PROB	10.228	n/a	n/a	-999	8	[1, 5, 9]	15	FR1	0	R1034D
9715.628	0.007	1643344	STOP	n/a	n/a	n/a	-999	8	[-999, -999, -999]	n/a	FR1	0	R1034D
9715.635	1.117	1643356	DISTRACT_END	n/a	n/a	n/a	-999	8	[0, 0, 0]	n/a	FR1	0	R1034D
9716.752	2.634	1645143	REC_START	n/a	n/a	n/a	-999	8	[0, 0, 0]	n/a	FR1	0	R1034D
9719.386	1.0	1649357	REC_WORD_VV	1.0	n/a	<>	-999	8	[0, 0, 0]	n/a	FR1	0	R1034D
9720.386	1.795	1650957	REC_WORD_VV	1.795	n/a	<>	-999	8	[0, 0, 0]	n/a	FR1	0	R1034D
9722.181	2.582	1653829	REC_WORD_VV	2.582	n/a	<>	-999	8	[0, 0, 0]	n/a	FR1	0	R1034D
9724.763	1.0	1657960	REC_WORD_VV	1.0	n/a	<>	-999	8	[0, 0, 0]	n/a	FR1	0	R1034D
9725.763	1.0	1659560	REC_WORD_VV	1.0	n/a	<>	-999	8	[0, 0, 0]	n/a	FR1	0	R1034D
9726.763	3.326	1661159	REC_WORD_VV	3.326	n/a	<>	-999	8	[0, 0, 0]	n/a	FR1	0	R1034D
9730.089	2.549	1666481	REC_WORD_VV	2.549	n/a	<>	-999	8	[0, 0, 0]	n/a	FR1	0	R1034D
9732.638	0.55	1670559	REC_WORD_VV	0.55	n/a	<>	-999	8	[0, 0, 0]	n/a	FR1	0	R1034D
9733.188	0.804	1671439	REC_WORD	0.804	n/a	SAIL	5	8	[0, 0, 0]	n/a	FR1	0	R1034D
9733.992	3.901	1672725	REC_WORD_VV	3.901	n/a	<>	-999	8	[0, 0, 0]	n/a	FR1	0	R1034D
9737.893	5.158	1678967	REC_WORD_VV	5.158	n/a	<>	-999	8	[0, 0, 0]	n/a	FR1	0	R1034D
9743.051	1.738	1687219	REC_WORD_VV	1.738	n/a	<>	-999	8	[0, 0, 0]	n/a	FR1	0	R1034D
9744.789	1.977	1690000	REC_WORD_VV	1.977	n/a	<>	-999	8	[0, 0, 0]	n/a	FR1	0	R1034D
9746.766	15.844	1693163	REC_END	n/a	n/a	n/a	-999	8	[0, 0, 0]	n/a	FR1	0	R1034D
9762.61	0.0	1718512	COUNTDOWN_START	n/a	n/a	n/a	-999	9	[0, 0, 0]	n/a	FR1	0	R1034D
9762.61	10.428	1718512	TRIAL	n/a	n/a	n/a	-999	9	[0, 0, 0]	n/a	FR1	0	R1034D
9773.038	0.007	1735195	COUNTDOWN_END	n/a	n/a	n/a	-999	9	[0, 0, 0]	n/a	FR1	0	R1034D
9773.045	2.534	1735207	ORIENT	n/a	n/a	n/a	-999	9	[0, 0, 0]	n/a	FR1	0	R1034D
9775.579	2.616	1739261	WORD	n/a	wordpools/wordpool_EN.txt	BENCH	1	9	[0, 0, 0]	n/a	FR1	0	R1034D
9778.195	2.602	1743446	WORD	n/a	wordpools/wordpool_EN.txt	CLOCK	2	9	[0, 0, 0]	n/a	FR1	0	R1034D
9780.797	2.517	1747609	WORD	n/a	wordpools/wordpool_EN.txt	TRUCK	3	9	[0, 0, 0]	n/a	FR1	0	R1034D
9783.314	2.517	1751636	WORD	n/a	wordpools/wordpool_EN.txt	DESK	4	9	[0, 0, 0]	n/a	FR1	0	R1034D
9785.831	2.6	1755663	WORD	n/a	wordpools/wordpool_EN.txt	BATH	5	9	[0, 0, 0]	n/a	FR1	0	R1034D
9788.431	2.534	1759823	WORD	n/a	wordpools/wordpool_EN.txt	BAG	6	9	[0, 0, 0]	n/a	FR1	0	R1034D
9790.965	2.534	1763877	WORD	n/a	wordpools/wordpool_EN.txt	SPOON	7	9	[0, 0, 0]	n/a	FR1	0	R1034D
9793.499	2.467	1767931	WORD	n/a	wordpools/wordpool_EN.txt	FUDGE	8	9	[0, 0, 0]	n/a	FR1	0	R1034D
9795.966	2.6	1771878	WORD	n/a	wordpools/wordpool_EN.txt	BOX	9	9	[0, 0, 0]	n/a	FR1	0	R1034D
9798.566	2.584	1776038	WORD	n/a	wordpools/wordpool_EN.txt	MUG	10	9	[0, 0, 0]	n/a	FR1	0	R1034D
9801.15	2.551	1780172	WORD	n/a	wordpools/wordpool_EN.txt	HAND	11	9	[0, 0, 0]	n/a	FR1	0	R1034D
9803.701	1.617	1784254	WORD	n/a	wordpools/wordpool_EN.txt	VAN	12	9	[0, 0, 0]	n/a	FR1	0	R1034D
9805.318	0.001	1786841	DISTRACT_START	n/a	n/a	n/a	-999	9	[0, 0, 0]	n/a	FR1	0	R1034D
9805.319	0.015	1786842	START	n/a	n/a	n/a	-999	9	[-999, -999, -999]	n/a	FR1	0	R1034D
9805.334	11.702	1786866	PROB	11.702	n/a	n/a	-999	9	[5, 7, 7]	19	FR1	0	R1034D
9817.036	6.718	1805588	PROB	6.718	n/a	n/a	-999	9	[8, 2, 1]	11	FR1	0	R1034D
9823.754	8.138	1816337	PROB	8.138	n/a	n/a	-999	9	[7, 1, 9]	17	FR1	0	R1034D
9831.892	0.014	1829357	STOP	n/a	n/a	n/a	-999	9	[-999, -999, -999]	n/a	FR1	0	R1034D
9831.906	1.201	1829379	DISTRACT_END	n/a	n/a	n/a	-999	9	[0, 0, 0]	n/a	FR1	0	R1034D
9833.107	0.882	1831301	REC_START	n/a	n/a	n/a	-999	9	[0, 0, 0]	n/a	FR1	0	R1034D
9833.989	0.389	1832712	REC_WORD_VV	0.389	n/a	<>	-999	9	[0, 0, 0]	n/a	FR1	0	R1034D
9834.378	1.859	1833334	REC_WORD	1.859	n/a	MUG	10	9	[0, 0, 0]	n/a	FR1	0	R1034D
9836.237	0.616	1836308	REC_WORD_VV	0.616	n/a	<>	-999	9	[0, 0, 0]	n/a	FR1	0	R1034D
9836.853	1.908	1837294	REC_WORD	1.908	n/a	FUDGE	8	9	[0, 0, 0]	n/a	FR1	0	R1034D
9838.761	1.098	1840347	REC_WORD_VV	1.098	n/a	<>	-999	9	[0, 0, 0]	n/a	FR1	0	R1034D
9839.859	1.593	1842103	REC_WORD	1.593	n/a	TRUCK	3	9	[0, 0, 0]	n/a	FR1	0	R1034D
9841.452	0.497	1844652	REC_WORD	0.497	n/a	BENCH	1	9	[0, 0, 0]	n/a	FR1	0	R1034D
9841.949	1.118	1845447	REC_WORD	1.118	n/a	CLOCK	2	9	[0, 0, 0]	n/a	FR1	0	R1034D
9843.067	20.049	1847236	REC_WORD_VV	20.049	n/a	<>	-999	9	[0, 0, 0]	n/a	FR1	0	R1034D
9863.116	2.529	1879313	REC_END	n/a	n/a	n/a	-999	9	[0, 0, 0]	n/a	FR1	0	R1034D
9865.645	0.001	1883359	COUNTDOWN_START	n/a	n/a	n/a	-999	10	[0, 0, 0]	n/a	FR1	0	R1034D
9865.646	10.427	1883360	TRIAL	n/a	n/a	n/a	-999	10	[0, 0, 0]	n/a	FR1	0	R1034D
9876.073	0.008	1900043	COUNTDOWN_END	n/a	n/a	n/a	-999	10	[0, 0, 0]	n/a	FR1	0	R1034D
9876.081	2.433	1900055	ORIENT	n/a	n/a	n/a	-999	10	[0, 0, 0]	n/a	FR1	0	R1034D
9878.514	2.517	1903948	WORD	n/a	wordpools/wordpool_EN.txt	CLOWN	1	10	[0, 0, 0]	n/a	FR1	0	R1034D
9881.031	2.534	1907975	WORD	n/a	wordpools/wordpool_EN.txt	BOOT	2	10	[0, 0, 0]	n/a	FR1	0	R1034D
9883.565	2.517	1912029	WORD	n/a	wordpools/wordpool_EN.txt	WORM	3	10	[0, 0, 0]	n/a	FR1	0	R1034D
9886.082	2.484	1916056	WORD	n/a	wordpools/wordpool_EN.txt	DEER	4	10	[0, 0, 0]	n/a	FR1	0	R1034D
9888.566	2.517	1920030	WORD	n/a	wordpools/wordpool_EN.txt	HAWK	5	10	[0, 0, 0]	n/a	FR1	0	R1034D
9891.083	2.517	1924057	WORD	n/a	wordpools/wordpool_EN.txt	CROWN	6	10	[0, 0, 0]	n/a	FR1	0	R1034D
9893.6	2.6	1928084	WORD	n/a	wordpools/wordpool_EN.txt	PIT	7	10	[0, 0, 0]	n/a	FR1	0	R1034D
9896.2	2.435	1932244	WORD	n/a	wordpools/wordpool_EN.txt	FISH	8	10	[0, 0, 0]	n/a	FR1	0	R1034D
9898.635	2.599	1936140	WORD	n/a	wordpools/wordpool_EN.txt	MOUSE	9	10	[0, 0, 0]	n/a	FR1	0	R1034D
9901.234	2.485	1940298	WORD	n/a	wordpools/wordpool_EN.txt	STEAK	10	10	[0, 0, 0]	n/a	FR1	0	R1034D
9903.719	2.483	1944274	WORD	n/a	wordpools/wordpool_EN.txt	TAIL	11	10	[0, 0, 0]	n/a	FR1	0	R1034D
9906.202	1.618	1948246	WORD	n/a	wordpools/wordpool_EN.txt	WORLD	12	10	[0, 0, 0]	n/a	FR1	0	R1034D
9907.82	0.001	1950835	DISTRACT_START	n/a	n/a	n/a	-999	10	[0, 0, 0]	n/a	FR1	0	R1034D
9907.821	0.015	1950837	START	n/a	n/a	n/a	-999	10	[-999, -999, -999]	n/a	FR1	0	R1034D
9907.836	9.252	1950861	PROB	9.252	n/a	n/a	-999	10	[1, 9, 7]	17	FR1	0	R1034D
9917.088	6.351	1965663	PROB	6.351	n/a	n/a	-999	10	[4, 2, 3]	8	FR1	0	R1034D
9923.439	11.997	1975824	PROB	11.997	n/a	n/a	-999	10	[6, 3, 9]	18	FR1	0	R1034D
9935.436	0.005	1995018	STOP	n/a	n/a	n/a	-999	10	[-999, -999, -999]	n/a	FR1	0	R1034D
9935.441	1.051	1995026	DISTRACT_END	n/a	n/a	n/a	-999	10	[0, 0, 0]	n/a	FR1	0	R1034D
9936.492	1.471	1996708	REC_START	n/a	n/a	n/a	-999	10	[0, 0, 0]	n/a	FR1	0	R1034D
9937.963	0.314	1999061	REC_WORD	0.314	n/a	MUG	-999	10	[0, 0, 0]	n/a	FR1	0	R1034D
9938.277	0.669	1999564	REC_WORD	0.669	n/a	FISH	8	10	[0, 0, 0]	n/a	FR1	0	R1034D
9938.946	4.714	2000634	REC_WORD	4.714	n/a	TAIL	11	10	[0, 0, 0]	n/a	FR1	0	R1034D
9943.66	19.379	2008176	REC_WORD_VV	19.379	n/a	<>	-999	10	[0, 0, 0]	n/a	FR1	0	R1034D
9963.039	3.468	2039181	REC_WORD_VV	3.468	n/a	<>	-999	10	[0, 0, 0]	n/a	FR1	0	R1034D
9966.507	4.224	2044729	REC_END	n/a	n/a	n/a	-999	10	[0, 0, 0]	n/a	FR1	0	R1034D
9970.731	0.0	2051487	TRIAL	n/a	n/a	n/a	-999	11	[0, 0, 0]	n/a	FR1	0	R1034D
9970.731	10.428	2051487	COUNTDOWN_START	n/a	n/a	n/a	-999	11	[0, 0, 0]	n/a	FR1	0	R1034D
9981.159	0.007	2068171	COUNTDOWN_END	n/a	n/a	n/a	-999	11	[0, 0, 0]	n/a	FR1	0	R1034D
9981.166	2.601	2068182	ORIENT	n/a	n/a	n/a	-999	11	[0, 0, 0]	n/a	FR1	0	R1034D
9983.767	2.617	2072344	WORD	n/a	wordpools/wordpool_EN.txt	TANK	1	11	[0, 0, 0]	n/a	FR1	0	R1034D
9986.384	2.584	2076531	WORD	n/a	wordpools/wordpool_EN.txt	LIP	2	11	[0, 0, 0]	n/a	FR1	0	R1034D
9988.968	2.4	2080665	WORD	n/a	wordpools/wordpool_EN.txt	HOOF	3	11	[0, 0, 0]	n/a	FR1	0	R1034D
9991.368	2.584	2084505	WORD	n/a	wordpools/wordpool_EN.txt	PARK	4	11	[0, 0, 0]	n/a	FR1	0	R1034D
9993.952	2.534	2088639	WORD	n/a	wordpools/wordpool_EN.txt	STICK	5	11	[0, 0, 0]	n/a	FR1	0	R1034D
9996.486	2.45	2092693	WORD	n/a	wordpools/wordpool_EN.txt	CASH	6	11	[0, 0, 0]	n/a	FR1	0	R1034D
9998.936	2.584	2096613	WORD	n/a	wordpools/wordpool_EN.txt	FUR	7	11	[0, 0, 0]	n/a	FR1	0	R1034D
10001.52	2.584	2100747	WORD	n/a	wordpools/wordpool_EN.txt	CAVE	8	11	[0, 0, 0]	n/a	FR1	0	R1034D
10004.104	2.617	2104881	WORD	n/a	wordpools/wordpool_EN.txt	CALF	9	11	[0, 0, 0]	n/a	FR1	0	R1034D
10006.721	2.617	2109068	WORD	n/a	wordpools/wordpool_EN.txt	ZOO	10	11	[0, 0, 0]	n/a	FR1	0	R1034D
10009.338	2.617	2113255	WORD	n/a	wordpools/wordpool_EN.txt	SPRING	11	11	[0, 0, 0]	n/a	FR1	0	R1034D
10011.955	1.617	2117442	WORD	n/a	wordpools/wordpool_EN.txt	ARM	12	11	[0, 0, 0]	n/a	FR1	0	R1034D
10013.572	0.001	2120029	DISTRACT_START	n/a	n/a	n/a	-999	11	[0, 0, 0]	n/a	FR1	0	R1034D
10013.573	0.016	2120031	START	n/a	n/a	n/a	-999	11	[-999, -999, -999]	n/a	FR1	0	R1034D
10013.589	9.667	2120056	PROB	9.667	n/a	n/a	-999	11	[3, 9, 4]	16	FR1	0	R1034D
10023.256	3.569	2135523	PROB	3.569	n/a	n/a	-999	11	[1, 6, 1]	8	FR1	0	R1034D
10026.825	6.084	2141233	PROB	6.084	n/a	n/a	-999	11	[8, 9, 2]	19	FR1	0	R1034D
10032.909	8.367	2150967	PROB	8.367	n/a	n/a	-999	11	[5, 6, 1]	11	FR1	0	R1034D
10041.276	0.018	2164353	STOP	n/a	n/a	n/a	-999	11	[-999, -999, -999]	n/a	FR1	0	R1034D
10041.294	1.201	2164382	DISTRACT_END	n/a	n/a	n/a	-999	11	[0, 0, 0]	n/a	FR1	0	R1034D
10042.495	9.79	2166303	REC_START	n/a	n/a	n/a	-999	11	[0, 0, 0]	n/a	FR1	0	R1034D
10052.285	1.0	2181967	REC_WORD_VV	1.0	n/a	<>	-999	11	[0, 0, 0]	n/a	FR1	0	R1034D
10053.285	1.0	2183567	REC_WORD_VV	1.0	n/a	<>	-999	11	[0, 0, 0]	n/a	FR1	0	R1034D
10054.285	1.0	2185166	REC_WORD_VV	1.0	n/a	<>	-999	11	[0, 0, 0]	n/a	FR1	0	R1034D
10055.285	3.231	2186766	REC_WORD_VV	3.231	n/a	<>	-999	11	[0, 0, 0]	n/a	FR1	0	R1034D
10058.516	1.0	2191936	REC_WORD_VV	1.0	n/a	<>	-999	11	[0, 0, 0]	n/a	FR1	0	R1034D
10059.516	2.209	2193536	REC_WORD_VV	2.209	n/a	<>	-999	11	[0, 0, 0]	n/a	FR1	0	R1034D
10061.725	1.0	2197070	REC_WORD_VV	1.0	n/a	<>	-999	11	[0, 0, 0]	n/a	FR1	0	R1034D
10062.725	1.0	2198670	REC_WORD_VV	1.0	n/a	<>	-999	11	[0, 0, 0]	n/a	FR1	0	R1034D
10063.725	1.0	2200270	REC_WORD_VV	1.0	n/a	<>	-999	11	[0, 0, 0]	n/a	FR1	0	R1034D
10064.725	4.338	2201870	REC_WORD_VV	4.338	n/a	<>	-999	11	[0, 0, 0]	n/a	FR1	0	R1034D
10069.063	3.442	2208810	REC_WORD_VV	3.442	n/a	<>	-999	11	[0, 0, 0]	n/a	FR1	0	R1034D
10072.505	0.0	2214317	REC_END	n/a	n/a	n/a	-999	11	[0, 0, 0]	n/a	FR1	0	R1034D
