onset	duration	sample	trial_type	response_time	stim_file	item_name	serialpos	list	test	answer	experiment	session	subject
0.0	0.0	161881	INSTRUCT_START	n/a	n/a	n/a	-999	-999	[0, 0, 0]	n/a	FR1	2	R1243T
0.0	11.185	161881	INSTRUCT_END	n/a	n/a	n/a	-999	-999	[0, 0, 0]	n/a	FR1	2	R1243T
11.185	0.0	172938	SESS_START	n/a	n/a	n/a	-999	-999	[0, 0, 0]	n/a	FR1	2	R1243T
11.185	60.001	172938	MIC_TEST	n/a	n/a	n/a	-999	-999	[0, 0, 0]	n/a	FR1	2	R1243T
71.186	107.714	232256	PRACTICE_TRIAL	n/a	n/a	n/a	-999	-1	[0, 0, 0]	n/a	FR1	2	R1243T
178.9	0.0	6833	INSTRUCT_START	n/a	n/a	n/a	-999	-1	[0, 0, 0]	n/a	FR1	2	R1243T
178.9	10.938	6833	INSTRUCT_END	n/a	n/a	n/a	-999	-1	[0, 0, 0]	n/a	FR1	2	R1243T
189.838	0.0	17770	SESS_START	n/a	n/a	n/a	-999	-1	[0, 0, 0]	n/a	FR1	2	R1243T
189.838	9.5	17770	MIC_TEST	n/a	n/a	n/a	-999	-1	[0, 0, 0]	n/a	FR1	2	R1243T
199.338	3.983	27270	PRACTICE_TRIAL	n/a	n/a	n/a	-999	-1	[0, 0, 0]	n/a	FR1	2	R1243T
203.321	10.428	31253	COUNTDOWN_START	n/a	n/a	n/a	-999	-1	[0, 0, 0]	n/a	FR1	2	R1243T
213.749	0.007	41680	COUNTDOWN_END	n/a	n/a	n/a	-999	-1	[0, 0, 0]	n/a	FR1	2	R1243T
213.756	1.617	41687	PRACTICE_ORIENT	n/a	n/a	n/a	-999	-1	[0, 0, 0]	n/a	FR1	2	R1243T
215.373	2.051	43304	PRACTICE_ORIENT_OFF	n/a	n/a	n/a	-999	-1	[0, 0, 0]	n/a	FR1	2	R1243T
217.424	1.617	45355	PRACTICE_WORD	n/a	n/a	CHEST	1	-1	[0, 0, 0]	n/a	FR1	2	R1243T
219.041	0.766	46972	PRACTICE_WORD_OFF	n/a	n/a	CHEST	-999	-1	[0, 0, 0]	n/a	FR1	2	R1243T
219.807	1.617	47738	PRACTICE_WORD	n/a	n/a	IRON	2	-1	[0, 0, 0]	n/a	FR1	2	R1243T
221.424	0.85	49355	PRACTICE_WORD_OFF	n/a	n/a	IRON	-999	-1	[0, 0, 0]	n/a	FR1	2	R1243T
222.274	1.617	50205	PRACTICE_WORD	n/a	n/a	TONGUE	3	-1	[0, 0, 0]	n/a	FR1	2	R1243T
223.891	1.017	51821	PRACTICE_WORD_OFF	n/a	n/a	TONGUE	-999	-1	[0, 0, 0]	n/a	FR1	2	R1243T
224.908	1.617	52838	PRACTICE_WORD	n/a	n/a	WAGON	4	-1	[0, 0, 0]	n/a	FR1	2	R1243T
226.525	0.9	54455	PRACTICE_WORD_OFF	n/a	n/a	WAGON	-999	-1	[0, 0, 0]	n/a	FR1	2	R1243T
227.425	1.617	55355	PRACTICE_WORD	n/a	n/a	ATTIC	5	-1	[0, 0, 0]	n/a	FR1	2	R1243T
229.042	0.817	56972	PRACTICE_WORD_OFF	n/a	n/a	ATTIC	-999	-1	[0, 0, 0]	n/a	FR1	2	R1243T
229.859	1.617	57789	PRACTICE_WORD	n/a	n/a	RING	6	-1	[0, 0, 0]	n/a	FR1	2	R1243T
231.476	0.784	59406	PRACTICE_WORD_OFF	n/a	n/a	RING	-999	-1	[0, 0, 0]	n/a	FR1	2	R1243T
232.26	1.617	60190	PRACTICE_WORD	n/a	n/a	FLOOD	7	-1	[0, 0, 0]	n/a	FR1	2	R1243T
233.877	0.816	61807	PRACTICE_WORD_OFF	n/a	n/a	FLOOD	-999	-1	[0, 0, 0]	n/a	FR1	2	R1243T
234.693	1.617	62623	PRACTICE_WORD	n/a	n/a	COTTON	8	-1	[0, 0, 0]	n/a	FR1	2	R1243T
236.31	0.849	64240	PRACTICE_WORD_OFF	n/a	n/a	COTTON	-999	-1	[0, 0, 0]	n/a	FR1	2	R1243T
237.159	1.619	65089	PRACTICE_WORD	n/a	n/a	CAMEL	9	-1	[0, 0, 0]	n/a	FR1	2	R1243T
238.778	0.766	66708	PRACTICE_WORD_OFF	n/a	n/a	CAMEL	-999	-1	[0, 0, 0]	n/a	FR1	2	R1243T
239.544	1.616	67473	PRACTICE_WORD	n/a	n/a	BEAM	10	-1	[0, 0, 0]	n/a	FR1	2	R1243T
241.16	0.967	69089	PRACTICE_WORD_OFF	n/a	n/a	BEAM	-999	-1	[0, 0, 0]	n/a	FR1	2	R1243T
242.127	1.618	70056	PRACTICE_WORD	n/a	n/a	WATCH	11	-1	[0, 0, 0]	n/a	FR1	2	R1243T
243.745	0.8	71674	PRACTICE_WORD_OFF	n/a	n/a	WATCH	-999	-1	[0, 0, 0]	n/a	FR1	2	R1243T
244.545	1.616	72474	PRACTICE_WORD	n/a	n/a	RHINO	12	-1	[0, 0, 0]	n/a	FR1	2	R1243T
246.161	0.0	74090	PRACTICE_WORD_OFF	n/a	n/a	RHINO	-999	-1	[0, 0, 0]	n/a	FR1	2	R1243T
246.161	0.001	74090	DISTRACT_START	n/a	n/a	n/a	-999	-1	[0, 0, 0]	n/a	FR1	2	R1243T
246.162	0.016	74091	START	n/a	n/a	n/a	-999	-1	[-999, -999, -999]	n/a	FR1	2	R1243T
246.178	8.069	74107	PROB	8.069	n/a	n/a	-999	-1	[9, 4, 5]	18	FR1	2	R1243T
254.247	5.734	82176	PROB	5.734	n/a	n/a	-999	-1	[3, 2, 2]	7	FR1	2	R1243T
259.981	7.582	87909	PROB	7.582	n/a	n/a	-999	-1	[5, 4, 9]	18	FR1	2	R1243T
267.563	0.02	95491	STOP	n/a	n/a	n/a	-999	-1	[-999, -999, -999]	n/a	FR1	2	R1243T
267.583	0.683	95511	DISTRACT_END	n/a	n/a	n/a	-999	-1	[0, 0, 0]	n/a	FR1	2	R1243T
268.266	0.518	96194	RETRIEVAL_ORIENT	n/a	n/a	n/a	-999	-1	[0, 0, 0]	n/a	FR1	2	R1243T
268.784	30.012	96712	PRACTICE_REC_START	n/a	n/a	n/a	-999	-1	[0, 0, 0]	n/a	FR1	2	R1243T
298.796	16.344	126722	PRACTICE_REC_END	n/a	n/a	n/a	-999	-1	[0, 0, 0]	n/a	FR1	2	R1243T
315.14	0.5	143065	TRIAL	n/a	n/a	n/a	-999	1	[0, 0, 0]	n/a	FR1	2	R1243T
315.64	10.428	143565	COUNTDOWN_START	n/a	n/a	n/a	-999	1	[0, 0, 0]	n/a	FR1	2	R1243T
326.068	0.009	153992	COUNTDOWN_END	n/a	n/a	n/a	-999	1	[0, 0, 0]	n/a	FR1	2	R1243T
326.077	1.617	154001	ORIENT	n/a	n/a	n/a	-999	1	[0, 0, 0]	n/a	FR1	2	R1243T
327.694	2.15	155618	ORIENT_OFF	n/a	n/a	n/a	-999	1	[0, 0, 0]	n/a	FR1	2	R1243T
329.844	1.617	157768	WORD	n/a	wordpools/wordpool_EN.txt	BEAN	1	1	[0, 0, 0]	n/a	FR1	2	R1243T
331.461	0.867	159385	WORD_OFF	n/a	n/a	BEAN	1	1	[0, 0, 0]	n/a	FR1	2	R1243T
332.328	1.617	160252	WORD	n/a	wordpools/wordpool_EN.txt	CAPE	2	1	[0, 0, 0]	n/a	FR1	2	R1243T
333.945	0.867	161869	WORD_OFF	n/a	n/a	CAPE	2	1	[0, 0, 0]	n/a	FR1	2	R1243T
334.812	1.617	162736	WORD	n/a	wordpools/wordpool_EN.txt	CLIFF	3	1	[0, 0, 0]	n/a	FR1	2	R1243T
336.429	0.883	164353	WORD_OFF	n/a	n/a	CLIFF	3	1	[0, 0, 0]	n/a	FR1	2	R1243T
337.312	1.617	165236	WORD	n/a	wordpools/wordpool_EN.txt	WEED	4	1	[0, 0, 0]	n/a	FR1	2	R1243T
338.929	0.817	166852	WORD_OFF	n/a	n/a	WEED	4	1	[0, 0, 0]	n/a	FR1	2	R1243T
339.746	1.617	167669	WORD	n/a	wordpools/wordpool_EN.txt	CALF	5	1	[0, 0, 0]	n/a	FR1	2	R1243T
341.363	0.983	169286	WORD_OFF	n/a	n/a	CALF	5	1	[0, 0, 0]	n/a	FR1	2	R1243T
342.346	1.617	170269	WORD	n/a	wordpools/wordpool_EN.txt	CLOUD	6	1	[0, 0, 0]	n/a	FR1	2	R1243T
343.963	0.967	171886	WORD_OFF	n/a	n/a	CLOUD	6	1	[0, 0, 0]	n/a	FR1	2	R1243T
344.93	1.617	172853	WORD	n/a	wordpools/wordpool_EN.txt	HEN	7	1	[0, 0, 0]	n/a	FR1	2	R1243T
346.547	0.884	174470	WORD_OFF	n/a	n/a	HEN	7	1	[0, 0, 0]	n/a	FR1	2	R1243T
347.431	1.617	175354	WORD	n/a	wordpools/wordpool_EN.txt	WOLF	8	1	[0, 0, 0]	n/a	FR1	2	R1243T
349.048	0.883	176971	WORD_OFF	n/a	n/a	WOLF	8	1	[0, 0, 0]	n/a	FR1	2	R1243T
349.931	1.617	177854	WORD	n/a	wordpools/wordpool_EN.txt	CROWN	9	1	[0, 0, 0]	n/a	FR1	2	R1243T
351.548	0.867	179471	WORD_OFF	n/a	n/a	CROWN	9	1	[0, 0, 0]	n/a	FR1	2	R1243T
352.415	1.617	180338	WORD	n/a	wordpools/wordpool_EN.txt	CAT	10	1	[0, 0, 0]	n/a	FR1	2	R1243T
354.032	0.917	181955	WORD_OFF	n/a	n/a	CAT	10	1	[0, 0, 0]	n/a	FR1	2	R1243T
354.949	1.617	182871	WORD	n/a	wordpools/wordpool_EN.txt	CRANE	11	1	[0, 0, 0]	n/a	FR1	2	R1243T
356.566	0.783	184488	WORD_OFF	n/a	n/a	CRANE	11	1	[0, 0, 0]	n/a	FR1	2	R1243T
357.349	1.617	185271	WORD	n/a	wordpools/wordpool_EN.txt	PIG	12	1	[0, 0, 0]	n/a	FR1	2	R1243T
358.966	0.0	186888	WORD_OFF	n/a	n/a	PIG	12	1	[0, 0, 0]	n/a	FR1	2	R1243T
358.966	0.001	186888	DISTRACT_START	n/a	n/a	n/a	-999	1	[0, 0, 0]	n/a	FR1	2	R1243T
358.967	0.016	186889	START	n/a	n/a	n/a	-999	1	[-999, -999, -999]	n/a	FR1	2	R1243T
358.983	10.102	186905	PROB	10.102	n/a	n/a	-999	1	[2, 8, 9]	19	FR1	2	R1243T
369.085	6.001	197007	PROB	6.001	n/a	n/a	-999	1	[7, 7, 7]	21	FR1	2	R1243T
375.086	5.766	203007	PROB	5.766	n/a	n/a	-999	1	[1, 7, 8]	16	FR1	2	R1243T
380.852	0.018	208773	STOP	n/a	n/a	n/a	-999	1	[-999, -999, -999]	n/a	FR1	2	R1243T
380.87	0.717	208791	DISTRACT_END	n/a	n/a	n/a	-999	1	[0, 0, 0]	n/a	FR1	2	R1243T
381.587	0.516	209508	RETRIEVAL_ORIENT	n/a	n/a	n/a	-999	1	[0, 0, 0]	n/a	FR1	2	R1243T
382.103	14.857	210024	REC_START	n/a	n/a	n/a	-999	1	[0, 0, 0]	n/a	FR1	2	R1243T
396.96	3.752	224880	REC_WORD	3.752	n/a	WOLF	-999	1	[0, 0, 0]	n/a	FR1	2	R1243T
400.712	6.841	228632	REC_WORD	6.841	n/a	TIGER	-999	1	[0, 0, 0]	n/a	FR1	2	R1243T
407.553	4.561	235472	REC_WORD	4.561	n/a	HAMMER	-999	1	[0, 0, 0]	n/a	FR1	2	R1243T
412.114	6.38	240033	REC_END	n/a	n/a	n/a	-999	1	[0, 0, 0]	n/a	FR1	2	R1243T
418.494	0.5	246413	TRIAL	n/a	n/a	n/a	-999	2	[0, 0, 0]	n/a	FR1	2	R1243T
418.994	10.428	246913	COUNTDOWN_START	n/a	n/a	n/a	-999	2	[0, 0, 0]	n/a	FR1	2	R1243T
429.422	0.007	257340	COUNTDOWN_END	n/a	n/a	n/a	-999	2	[0, 0, 0]	n/a	FR1	2	R1243T
429.429	1.617	257347	ORIENT	n/a	n/a	n/a	-999	2	[0, 0, 0]	n/a	FR1	2	R1243T
431.046	2.149	258964	ORIENT_OFF	n/a	n/a	n/a	-999	2	[0, 0, 0]	n/a	FR1	2	R1243T
433.195	1.601	261113	WORD	n/a	wordpools/wordpool_EN.txt	COW	1	2	[0, 0, 0]	n/a	FR1	2	R1243T
434.796	0.801	262714	WORD_OFF	n/a	n/a	COW	1	2	[0, 0, 0]	n/a	FR1	2	R1243T
435.597	1.616	263515	WORD	n/a	wordpools/wordpool_EN.txt	TRAIN	2	2	[0, 0, 0]	n/a	FR1	2	R1243T
437.213	0.834	265131	WORD_OFF	n/a	n/a	TRAIN	2	2	[0, 0, 0]	n/a	FR1	2	R1243T
438.047	1.617	265964	WORD	n/a	wordpools/wordpool_EN.txt	SHRIMP	3	2	[0, 0, 0]	n/a	FR1	2	R1243T
439.664	0.817	267581	WORD_OFF	n/a	n/a	SHRIMP	3	2	[0, 0, 0]	n/a	FR1	2	R1243T
440.481	1.616	268398	WORD	n/a	wordpools/wordpool_EN.txt	BEAK	4	2	[0, 0, 0]	n/a	FR1	2	R1243T
442.097	0.968	270014	WORD_OFF	n/a	n/a	BEAK	4	2	[0, 0, 0]	n/a	FR1	2	R1243T
443.065	1.617	270982	WORD	n/a	wordpools/wordpool_EN.txt	ICE	5	2	[0, 0, 0]	n/a	FR1	2	R1243T
444.682	0.9	272599	WORD_OFF	n/a	n/a	ICE	5	2	[0, 0, 0]	n/a	FR1	2	R1243T
445.582	1.616	273499	WORD	n/a	wordpools/wordpool_EN.txt	EGG	6	2	[0, 0, 0]	n/a	FR1	2	R1243T
447.198	0.818	275115	WORD_OFF	n/a	n/a	EGG	6	2	[0, 0, 0]	n/a	FR1	2	R1243T
448.016	1.617	275933	WORD	n/a	wordpools/wordpool_EN.txt	SEED	7	2	[0, 0, 0]	n/a	FR1	2	R1243T
449.633	0.783	277550	WORD_OFF	n/a	n/a	SEED	7	2	[0, 0, 0]	n/a	FR1	2	R1243T
450.416	1.617	278333	WORD	n/a	wordpools/wordpool_EN.txt	JAIL	8	2	[0, 0, 0]	n/a	FR1	2	R1243T
452.033	0.767	279950	WORD_OFF	n/a	n/a	JAIL	8	2	[0, 0, 0]	n/a	FR1	2	R1243T
452.8	1.617	280717	WORD	n/a	wordpools/wordpool_EN.txt	JAR	9	2	[0, 0, 0]	n/a	FR1	2	R1243T
454.417	0.85	282333	WORD_OFF	n/a	n/a	JAR	9	2	[0, 0, 0]	n/a	FR1	2	R1243T
455.267	1.617	283183	WORD	n/a	wordpools/wordpool_EN.txt	FOX	10	2	[0, 0, 0]	n/a	FR1	2	R1243T
456.884	0.983	284800	WORD_OFF	n/a	n/a	FOX	10	2	[0, 0, 0]	n/a	FR1	2	R1243T
457.867	1.617	285783	WORD	n/a	wordpools/wordpool_EN.txt	PEAR	11	2	[0, 0, 0]	n/a	FR1	2	R1243T
459.484	0.917	287400	WORD_OFF	n/a	n/a	PEAR	11	2	[0, 0, 0]	n/a	FR1	2	R1243T
460.401	1.617	288317	WORD	n/a	wordpools/wordpool_EN.txt	ROOT	12	2	[0, 0, 0]	n/a	FR1	2	R1243T
462.018	0.0	289934	WORD_OFF	n/a	n/a	ROOT	12	2	[0, 0, 0]	n/a	FR1	2	R1243T
462.018	0.001	289934	DISTRACT_START	n/a	n/a	n/a	-999	2	[0, 0, 0]	n/a	FR1	2	R1243T
462.019	0.016	289935	START	n/a	n/a	n/a	-999	2	[-999, -999, -999]	n/a	FR1	2	R1243T
462.035	7.167	289951	PROB	7.167	n/a	n/a	-999	2	[2, 8, 4]	14	FR1	2	R1243T
469.202	13.577	297118	PROB	13.577	n/a	n/a	-999	2	[9, 8, 9]	26	FR1	2	R1243T
482.779	0.01	310694	STOP	n/a	n/a	n/a	-999	2	[-999, -999, -999]	n/a	FR1	2	R1243T
482.789	0.566	310704	DISTRACT_END	n/a	n/a	n/a	-999	2	[0, 0, 0]	n/a	FR1	2	R1243T
483.355	0.518	311270	RETRIEVAL_ORIENT	n/a	n/a	n/a	-999	2	[0, 0, 0]	n/a	FR1	2	R1243T
483.873	3.253	311788	REC_START	n/a	n/a	n/a	-999	2	[0, 0, 0]	n/a	FR1	2	R1243T
487.126	1.806	315041	REC_WORD	1.806	n/a	COW	-999	2	[0, 0, 0]	n/a	FR1	2	R1243T
488.932	2.089	316846	REC_WORD	2.089	n/a	HEN	-999	2	[0, 0, 0]	n/a	FR1	2	R1243T
491.021	10.032	318935	REC_WORD	10.032	n/a	ICE	-999	2	[0, 0, 0]	n/a	FR1	2	R1243T
501.053	12.832	328967	REC_WORD	12.832	n/a	FENCE	-999	2	[0, 0, 0]	n/a	FR1	2	R1243T
513.885	7.711	341798	REC_END	n/a	n/a	n/a	-999	2	[0, 0, 0]	n/a	FR1	2	R1243T
521.596	0.5	349508	TRIAL	n/a	n/a	n/a	-999	3	[0, 0, 0]	n/a	FR1	2	R1243T
522.096	10.428	350008	COUNTDOWN_START	n/a	n/a	n/a	-999	3	[0, 0, 0]	n/a	FR1	2	R1243T
532.524	0.007	360436	COUNTDOWN_END	n/a	n/a	n/a	-999	3	[0, 0, 0]	n/a	FR1	2	R1243T
532.531	1.616	360443	ORIENT	n/a	n/a	n/a	-999	3	[0, 0, 0]	n/a	FR1	2	R1243T
534.147	2.118	362059	ORIENT_OFF	n/a	n/a	n/a	-999	3	[0, 0, 0]	n/a	FR1	2	R1243T
536.265	1.617	364177	WORD	n/a	wordpools/wordpool_EN.txt	ARK	1	3	[0, 0, 0]	n/a	FR1	2	R1243T
537.882	0.817	365793	WORD_OFF	n/a	n/a	ARK	1	3	[0, 0, 0]	n/a	FR1	2	R1243T
538.699	1.617	366610	WORD	n/a	wordpools/wordpool_EN.txt	DOG	2	3	[0, 0, 0]	n/a	FR1	2	R1243T
540.316	0.95	368227	WORD_OFF	n/a	n/a	DOG	2	3	[0, 0, 0]	n/a	FR1	2	R1243T
541.266	1.617	369177	WORD	n/a	wordpools/wordpool_EN.txt	CHIEF	3	3	[0, 0, 0]	n/a	FR1	2	R1243T
542.883	0.883	370794	WORD_OFF	n/a	n/a	CHIEF	3	3	[0, 0, 0]	n/a	FR1	2	R1243T
543.766	1.617	371677	WORD	n/a	wordpools/wordpool_EN.txt	MUD	4	3	[0, 0, 0]	n/a	FR1	2	R1243T
545.383	0.884	373294	WORD_OFF	n/a	n/a	MUD	4	3	[0, 0, 0]	n/a	FR1	2	R1243T
546.267	1.617	374178	WORD	n/a	wordpools/wordpool_EN.txt	SNAKE	5	3	[0, 0, 0]	n/a	FR1	2	R1243T
547.884	0.867	375795	WORD_OFF	n/a	n/a	SNAKE	5	3	[0, 0, 0]	n/a	FR1	2	R1243T
548.751	1.617	376662	WORD	n/a	wordpools/wordpool_EN.txt	SKUNK	6	3	[0, 0, 0]	n/a	FR1	2	R1243T
550.368	0.815	378279	WORD_OFF	n/a	n/a	SKUNK	6	3	[0, 0, 0]	n/a	FR1	2	R1243T
551.183	1.618	379094	WORD	n/a	wordpools/wordpool_EN.txt	MOUSE	7	3	[0, 0, 0]	n/a	FR1	2	R1243T
552.801	0.817	380712	WORD_OFF	n/a	n/a	MOUSE	7	3	[0, 0, 0]	n/a	FR1	2	R1243T
553.618	1.616	381528	WORD	n/a	wordpools/wordpool_EN.txt	FORK	8	3	[0, 0, 0]	n/a	FR1	2	R1243T
555.234	0.867	383144	WORD_OFF	n/a	n/a	FORK	8	3	[0, 0, 0]	n/a	FR1	2	R1243T
556.101	1.618	384011	WORD	n/a	wordpools/wordpool_EN.txt	POND	9	3	[0, 0, 0]	n/a	FR1	2	R1243T
557.719	0.95	385629	WORD_OFF	n/a	n/a	POND	9	3	[0, 0, 0]	n/a	FR1	2	R1243T
558.669	1.617	386579	WORD	n/a	wordpools/wordpool_EN.txt	BRANCH	10	3	[0, 0, 0]	n/a	FR1	2	R1243T
560.286	0.849	388196	WORD_OFF	n/a	n/a	BRANCH	10	3	[0, 0, 0]	n/a	FR1	2	R1243T
561.135	1.601	389045	WORD	n/a	wordpools/wordpool_EN.txt	BANK	11	3	[0, 0, 0]	n/a	FR1	2	R1243T
562.736	0.967	390646	WORD_OFF	n/a	n/a	BANK	11	3	[0, 0, 0]	n/a	FR1	2	R1243T
563.703	1.617	391613	WORD	n/a	wordpools/wordpool_EN.txt	SKY	12	3	[0, 0, 0]	n/a	FR1	2	R1243T
565.32	0.0	393230	WORD_OFF	n/a	n/a	SKY	12	3	[0, 0, 0]	n/a	FR1	2	R1243T
565.32	0.001	393230	DISTRACT_START	n/a	n/a	n/a	-999	3	[0, 0, 0]	n/a	FR1	2	R1243T
565.321	0.016	393231	START	n/a	n/a	n/a	-999	3	[-999, -999, -999]	n/a	FR1	2	R1243T
565.337	8.151	393247	PROB	8.151	n/a	n/a	-999	3	[8, 5, 4]	17	FR1	2	R1243T
573.488	6.052	401397	PROB	6.052	n/a	n/a	-999	3	[1, 7, 2]	10	FR1	2	R1243T
579.54	5.417	407449	PROB	5.417	n/a	n/a	-999	3	[4, 8, 9]	21	FR1	2	R1243T
584.957	5.615	412866	PROB	5.615	n/a	n/a	-999	3	[5, 3, 5]	13	FR1	2	R1243T
590.572	0.02	418480	STOP	n/a	n/a	n/a	-999	3	[-999, -999, -999]	n/a	FR1	2	R1243T
590.592	0.615	418500	DISTRACT_END	n/a	n/a	n/a	-999	3	[0, 0, 0]	n/a	FR1	2	R1243T
591.207	0.519	419115	RETRIEVAL_ORIENT	n/a	n/a	n/a	-999	3	[0, 0, 0]	n/a	FR1	2	R1243T
591.726	1.774	419634	REC_START	n/a	n/a	n/a	-999	3	[0, 0, 0]	n/a	FR1	2	R1243T
593.5	1.046	421408	REC_WORD	1.046	n/a	SNAKE	-999	3	[0, 0, 0]	n/a	FR1	2	R1243T
594.546	2.927	422454	REC_WORD	2.927	n/a	POND	-999	3	[0, 0, 0]	n/a	FR1	2	R1243T
597.473	24.263	425381	REC_WORD	24.263	n/a	DOG	-999	3	[0, 0, 0]	n/a	FR1	2	R1243T
621.736	8.213	449642	REC_END	n/a	n/a	n/a	-999	3	[0, 0, 0]	n/a	FR1	2	R1243T
629.949	0.5	457855	TRIAL	n/a	n/a	n/a	-999	4	[0, 0, 0]	n/a	FR1	2	R1243T
630.449	10.428	458355	COUNTDOWN_START	n/a	n/a	n/a	-999	4	[0, 0, 0]	n/a	FR1	2	R1243T
640.877	0.007	468782	COUNTDOWN_END	n/a	n/a	n/a	-999	4	[0, 0, 0]	n/a	FR1	2	R1243T
640.884	1.617	468789	ORIENT	n/a	n/a	n/a	-999	4	[0, 0, 0]	n/a	FR1	2	R1243T
642.501	2.3	470406	ORIENT_OFF	n/a	n/a	n/a	-999	4	[0, 0, 0]	n/a	FR1	2	R1243T
644.801	1.617	472706	WORD	n/a	wordpools/wordpool_EN.txt	BOOK	1	4	[0, 0, 0]	n/a	FR1	2	R1243T
646.418	0.816	474323	WORD_OFF	n/a	n/a	BOOK	1	4	[0, 0, 0]	n/a	FR1	2	R1243T
647.234	1.618	475139	WORD	n/a	wordpools/wordpool_EN.txt	FILM	2	4	[0, 0, 0]	n/a	FR1	2	R1243T
648.852	0.8	476757	WORD_OFF	n/a	n/a	FILM	2	4	[0, 0, 0]	n/a	FR1	2	R1243T
649.652	1.617	477557	WORD	n/a	wordpools/wordpool_EN.txt	MAZE	3	4	[0, 0, 0]	n/a	FR1	2	R1243T
651.269	0.784	479174	WORD_OFF	n/a	n/a	MAZE	3	4	[0, 0, 0]	n/a	FR1	2	R1243T
652.053	1.617	479958	WORD	n/a	wordpools/wordpool_EN.txt	PRINCE	4	4	[0, 0, 0]	n/a	FR1	2	R1243T
653.67	0.783	481574	WORD_OFF	n/a	n/a	PRINCE	4	4	[0, 0, 0]	n/a	FR1	2	R1243T
654.453	1.617	482357	WORD	n/a	wordpools/wordpool_EN.txt	NEST	5	4	[0, 0, 0]	n/a	FR1	2	R1243T
656.07	0.917	483974	WORD_OFF	n/a	n/a	NEST	5	4	[0, 0, 0]	n/a	FR1	2	R1243T
656.987	1.617	484891	WORD	n/a	wordpools/wordpool_EN.txt	JET	6	4	[0, 0, 0]	n/a	FR1	2	R1243T
658.604	0.817	486508	WORD_OFF	n/a	n/a	JET	6	4	[0, 0, 0]	n/a	FR1	2	R1243T
659.421	1.617	487325	WORD	n/a	wordpools/wordpool_EN.txt	LAWN	7	4	[0, 0, 0]	n/a	FR1	2	R1243T
661.038	0.95	488942	WORD_OFF	n/a	n/a	LAWN	7	4	[0, 0, 0]	n/a	FR1	2	R1243T
661.988	1.617	489892	WORD	n/a	wordpools/wordpool_EN.txt	SPARK	8	4	[0, 0, 0]	n/a	FR1	2	R1243T
663.605	0.816	491509	WORD_OFF	n/a	n/a	SPARK	8	4	[0, 0, 0]	n/a	FR1	2	R1243T
664.421	1.618	492325	WORD	n/a	wordpools/wordpool_EN.txt	STORM	9	4	[0, 0, 0]	n/a	FR1	2	R1243T
666.039	0.833	493943	WORD_OFF	n/a	n/a	STORM	9	4	[0, 0, 0]	n/a	FR1	2	R1243T
666.872	1.617	494776	WORD	n/a	wordpools/wordpool_EN.txt	DESK	10	4	[0, 0, 0]	n/a	FR1	2	R1243T
668.489	0.8	496393	WORD_OFF	n/a	n/a	DESK	10	4	[0, 0, 0]	n/a	FR1	2	R1243T
669.289	1.617	497193	WORD	n/a	wordpools/wordpool_EN.txt	KITE	11	4	[0, 0, 0]	n/a	FR1	2	R1243T
670.906	0.934	498809	WORD_OFF	n/a	n/a	KITE	11	4	[0, 0, 0]	n/a	FR1	2	R1243T
671.84	1.617	499743	WORD	n/a	wordpools/wordpool_EN.txt	SNAIL	12	4	[0, 0, 0]	n/a	FR1	2	R1243T
673.457	0.0	501360	DISTRACT_START	n/a	n/a	n/a	-999	4	[0, 0, 0]	n/a	FR1	2	R1243T
673.457	0.0	501360	WORD_OFF	n/a	n/a	SNAIL	12	4	[0, 0, 0]	n/a	FR1	2	R1243T
673.457	0.016	501360	START	n/a	n/a	n/a	-999	4	[-999, -999, -999]	n/a	FR1	2	R1243T
673.473	6.902	501376	PROB	6.902	n/a	n/a	-999	4	[8, 2, 8]	18	FR1	2	R1243T
680.375	5.534	508278	PROB	5.534	n/a	n/a	-999	4	[5, 2, 7]	14	FR1	2	R1243T
685.909	6.835	513812	PROB	6.835	n/a	n/a	-999	4	[6, 9, 5]	20	FR1	2	R1243T
692.744	6.418	520646	PROB	6.418	n/a	n/a	-999	4	[1, 9, 5]	15	FR1	2	R1243T
699.162	0.015	527064	STOP	n/a	n/a	n/a	-999	4	[-999, -999, -999]	n/a	FR1	2	R1243T
699.177	0.518	527079	DISTRACT_END	n/a	n/a	n/a	-999	4	[0, 0, 0]	n/a	FR1	2	R1243T
699.695	0.521	527597	RETRIEVAL_ORIENT	n/a	n/a	n/a	-999	4	[0, 0, 0]	n/a	FR1	2	R1243T
700.216	7.591	528118	REC_START	n/a	n/a	n/a	-999	4	[0, 0, 0]	n/a	FR1	2	R1243T
707.807	6.911	535708	REC_WORD	6.911	n/a	MUD	-999	4	[0, 0, 0]	n/a	FR1	2	R1243T
714.718	8.046	542619	REC_WORD	8.046	n/a	FENCE	-999	4	[0, 0, 0]	n/a	FR1	2	R1243T
722.764	2.309	550664	REC_WORD	2.309	n/a	POND	-999	4	[0, 0, 0]	n/a	FR1	2	R1243T
725.073	4.957	552973	REC_WORD	4.957	n/a	SNAKE	-999	4	[0, 0, 0]	n/a	FR1	2	R1243T
730.03	0.192	557930	REC_WORD_VV	0.192	n/a	<>	-999	4	[0, 0, 0]	n/a	FR1	2	R1243T
730.222	6.73	558122	REC_END	n/a	n/a	n/a	-999	4	[0, 0, 0]	n/a	FR1	2	R1243T
736.952	0.5	564851	TRIAL	n/a	n/a	n/a	-999	5	[0, 0, 0]	n/a	FR1	2	R1243T
737.452	10.428	565351	COUNTDOWN_START	n/a	n/a	n/a	-999	5	[0, 0, 0]	n/a	FR1	2	R1243T
747.88	0.007	575779	COUNTDOWN_END	n/a	n/a	n/a	-999	5	[0, 0, 0]	n/a	FR1	2	R1243T
747.887	1.617	575786	ORIENT	n/a	n/a	n/a	-999	5	[0, 0, 0]	n/a	FR1	2	R1243T
749.504	2.117	577403	ORIENT_OFF	n/a	n/a	n/a	-999	5	[0, 0, 0]	n/a	FR1	2	R1243T
751.621	1.616	579520	WORD	n/a	wordpools/wordpool_EN.txt	FORT	1	5	[0, 0, 0]	n/a	FR1	2	R1243T
753.237	0.967	581135	WORD_OFF	n/a	n/a	FORT	1	5	[0, 0, 0]	n/a	FR1	2	R1243T
754.204	1.618	582102	WORD	n/a	wordpools/wordpool_EN.txt	EAR	2	5	[0, 0, 0]	n/a	FR1	2	R1243T
755.822	0.916	583720	WORD_OFF	n/a	n/a	EAR	2	5	[0, 0, 0]	n/a	FR1	2	R1243T
756.738	1.617	584636	WORD	n/a	wordpools/wordpool_EN.txt	GLASS	3	5	[0, 0, 0]	n/a	FR1	2	R1243T
758.355	0.934	586253	WORD_OFF	n/a	n/a	GLASS	3	5	[0, 0, 0]	n/a	FR1	2	R1243T
759.289	1.617	587187	WORD	n/a	wordpools/wordpool_EN.txt	SPRING	4	5	[0, 0, 0]	n/a	FR1	2	R1243T
760.906	0.884	588804	WORD_OFF	n/a	n/a	SPRING	4	5	[0, 0, 0]	n/a	FR1	2	R1243T
761.79	1.616	589688	WORD	n/a	wordpools/wordpool_EN.txt	WOOD	5	5	[0, 0, 0]	n/a	FR1	2	R1243T
763.406	0.934	591304	WORD_OFF	n/a	n/a	WOOD	5	5	[0, 0, 0]	n/a	FR1	2	R1243T
764.34	1.617	592238	WORD	n/a	wordpools/wordpool_EN.txt	CAVE	6	5	[0, 0, 0]	n/a	FR1	2	R1243T
765.957	0.867	593855	WORD_OFF	n/a	n/a	CAVE	6	5	[0, 0, 0]	n/a	FR1	2	R1243T
766.824	1.617	594722	WORD	n/a	wordpools/wordpool_EN.txt	SLEEVE	7	5	[0, 0, 0]	n/a	FR1	2	R1243T
768.441	0.816	596339	WORD_OFF	n/a	n/a	SLEEVE	7	5	[0, 0, 0]	n/a	FR1	2	R1243T
769.257	1.617	597154	WORD	n/a	wordpools/wordpool_EN.txt	ELF	8	5	[0, 0, 0]	n/a	FR1	2	R1243T
770.874	0.951	598771	WORD_OFF	n/a	n/a	ELF	8	5	[0, 0, 0]	n/a	FR1	2	R1243T
771.825	1.617	599722	WORD	n/a	wordpools/wordpool_EN.txt	TOOTH	9	5	[0, 0, 0]	n/a	FR1	2	R1243T
773.442	0.933	601339	WORD_OFF	n/a	n/a	TOOTH	9	5	[0, 0, 0]	n/a	FR1	2	R1243T
774.375	1.617	602272	WORD	n/a	wordpools/wordpool_EN.txt	CAKE	10	5	[0, 0, 0]	n/a	FR1	2	R1243T
775.992	0.967	603889	WORD_OFF	n/a	n/a	CAKE	10	5	[0, 0, 0]	n/a	FR1	2	R1243T
776.959	1.617	604856	WORD	n/a	wordpools/wordpool_EN.txt	TOOL	11	5	[0, 0, 0]	n/a	FR1	2	R1243T
778.576	0.767	606473	WORD_OFF	n/a	n/a	TOOL	11	5	[0, 0, 0]	n/a	FR1	2	R1243T
779.343	1.617	607240	WORD	n/a	wordpools/wordpool_EN.txt	MOUTH	12	5	[0, 0, 0]	n/a	FR1	2	R1243T
780.96	0.0	608857	WORD_OFF	n/a	n/a	MOUTH	12	5	[0, 0, 0]	n/a	FR1	2	R1243T
780.96	0.0	608857	DISTRACT_START	n/a	n/a	n/a	-999	5	[0, 0, 0]	n/a	FR1	2	R1243T
780.96	0.016	608857	START	n/a	n/a	n/a	-999	5	[-999, -999, -999]	n/a	FR1	2	R1243T
780.976	9.002	608873	PROB	9.002	n/a	n/a	-999	5	[4, 2, 7]	13	FR1	2	R1243T
789.978	6.284	617874	PROB	6.284	n/a	n/a	-999	5	[9, 8, 2]	19	FR1	2	R1243T
796.262	10.117	624158	PROB	10.117	n/a	n/a	-999	5	[9, 8, 8]	25	FR1	2	R1243T
806.379	0.018	634274	STOP	n/a	n/a	n/a	-999	5	[-999, -999, -999]	n/a	FR1	2	R1243T
806.397	0.634	634292	DISTRACT_END	n/a	n/a	n/a	-999	5	[0, 0, 0]	n/a	FR1	2	R1243T
807.031	0.517	634926	RETRIEVAL_ORIENT	n/a	n/a	n/a	-999	5	[0, 0, 0]	n/a	FR1	2	R1243T
807.548	5.504	635443	REC_START	n/a	n/a	n/a	-999	5	[0, 0, 0]	n/a	FR1	2	R1243T
813.052	24.507	640947	REC_WORD_VV	24.507	n/a	<>	-999	5	[0, 0, 0]	n/a	FR1	2	R1243T
837.559	4.962	665452	REC_END	n/a	n/a	n/a	-999	5	[0, 0, 0]	n/a	FR1	2	R1243T
842.521	0.5	670414	TRIAL	n/a	n/a	n/a	-999	6	[0, 0, 0]	n/a	FR1	2	R1243T
843.021	10.428	670914	COUNTDOWN_START	n/a	n/a	n/a	-999	6	[0, 0, 0]	n/a	FR1	2	R1243T
853.449	0.007	681341	COUNTDOWN_END	n/a	n/a	n/a	-999	6	[0, 0, 0]	n/a	FR1	2	R1243T
853.456	1.617	681348	ORIENT	n/a	n/a	n/a	-999	6	[0, 0, 0]	n/a	FR1	2	R1243T
855.073	2.083	682965	ORIENT_OFF	n/a	n/a	n/a	-999	6	[0, 0, 0]	n/a	FR1	2	R1243T
857.156	1.618	685048	WORD	n/a	wordpools/wordpool_EN.txt	TREE	1	6	[0, 0, 0]	n/a	FR1	2	R1243T
858.774	0.933	686666	WORD_OFF	n/a	n/a	TREE	1	6	[0, 0, 0]	n/a	FR1	2	R1243T
859.707	1.617	687599	WORD	n/a	wordpools/wordpool_EN.txt	STAIR	2	6	[0, 0, 0]	n/a	FR1	2	R1243T
861.324	0.866	689216	WORD_OFF	n/a	n/a	STAIR	2	6	[0, 0, 0]	n/a	FR1	2	R1243T
862.19	1.618	690082	WORD	n/a	wordpools/wordpool_EN.txt	SPOON	3	6	[0, 0, 0]	n/a	FR1	2	R1243T
863.808	0.984	691700	WORD_OFF	n/a	n/a	SPOON	3	6	[0, 0, 0]	n/a	FR1	2	R1243T
864.792	1.617	692684	WORD	n/a	wordpools/wordpool_EN.txt	ROOM	4	6	[0, 0, 0]	n/a	FR1	2	R1243T
866.409	1.0	694301	WORD_OFF	n/a	n/a	ROOM	4	6	[0, 0, 0]	n/a	FR1	2	R1243T
867.409	1.617	695301	WORD	n/a	wordpools/wordpool_EN.txt	CAGE	5	6	[0, 0, 0]	n/a	FR1	2	R1243T
869.026	0.916	696917	WORD_OFF	n/a	n/a	CAGE	5	6	[0, 0, 0]	n/a	FR1	2	R1243T
869.942	1.617	697833	WORD	n/a	wordpools/wordpool_EN.txt	OAR	6	6	[0, 0, 0]	n/a	FR1	2	R1243T
871.559	0.767	699450	WORD_OFF	n/a	n/a	OAR	6	6	[0, 0, 0]	n/a	FR1	2	R1243T
872.326	1.617	700217	WORD	n/a	wordpools/wordpool_EN.txt	FLAME	7	6	[0, 0, 0]	n/a	FR1	2	R1243T
873.943	1.0	701834	WORD_OFF	n/a	n/a	FLAME	7	6	[0, 0, 0]	n/a	FR1	2	R1243T
874.943	1.617	702834	WORD	n/a	wordpools/wordpool_EN.txt	SHOE	8	6	[0, 0, 0]	n/a	FR1	2	R1243T
876.56	0.8	704451	WORD_OFF	n/a	n/a	SHOE	8	6	[0, 0, 0]	n/a	FR1	2	R1243T
877.36	1.617	705251	WORD	n/a	wordpools/wordpool_EN.txt	BENCH	9	6	[0, 0, 0]	n/a	FR1	2	R1243T
878.977	0.851	706868	WORD_OFF	n/a	n/a	BENCH	9	6	[0, 0, 0]	n/a	FR1	2	R1243T
879.828	1.617	707719	WORD	n/a	wordpools/wordpool_EN.txt	TRAY	10	6	[0, 0, 0]	n/a	FR1	2	R1243T
881.445	0.95	709336	WORD_OFF	n/a	n/a	TRAY	10	6	[0, 0, 0]	n/a	FR1	2	R1243T
882.395	1.617	710286	WORD	n/a	wordpools/wordpool_EN.txt	LIP	11	6	[0, 0, 0]	n/a	FR1	2	R1243T
884.012	0.883	711903	WORD_OFF	n/a	n/a	LIP	11	6	[0, 0, 0]	n/a	FR1	2	R1243T
884.895	1.617	712785	WORD	n/a	wordpools/wordpool_EN.txt	MOTH	12	6	[0, 0, 0]	n/a	FR1	2	R1243T
886.512	0.0	714402	WORD_OFF	n/a	n/a	MOTH	12	6	[0, 0, 0]	n/a	FR1	2	R1243T
886.512	0.001	714402	DISTRACT_START	n/a	n/a	n/a	-999	6	[0, 0, 0]	n/a	FR1	2	R1243T
886.513	0.016	714403	START	n/a	n/a	n/a	-999	6	[-999, -999, -999]	n/a	FR1	2	R1243T
886.529	5.6	714419	PROB	5.6	n/a	n/a	-999	6	[1, 3, 8]	12	FR1	2	R1243T
892.129	4.852	720019	PROB	4.852	n/a	n/a	-999	6	[2, 5, 7]	14	FR1	2	R1243T
896.981	6.133	724871	PROB	6.133	n/a	n/a	-999	6	[7, 5, 7]	19	FR1	2	R1243T
903.114	6.512	731003	PROB	6.512	n/a	n/a	-999	6	[5, 3, 4]	12	FR1	2	R1243T
909.626	0.007	737515	STOP	n/a	n/a	n/a	-999	6	[-999, -999, -999]	n/a	FR1	2	R1243T
909.633	0.532	737522	DISTRACT_END	n/a	n/a	n/a	-999	6	[0, 0, 0]	n/a	FR1	2	R1243T
910.165	0.519	738054	RETRIEVAL_ORIENT	n/a	n/a	n/a	-999	6	[0, 0, 0]	n/a	FR1	2	R1243T
910.684	7.992	738573	REC_START	n/a	n/a	n/a	-999	6	[0, 0, 0]	n/a	FR1	2	R1243T
918.676	10.391	746564	REC_WORD	10.391	n/a	CAT	-999	6	[0, 0, 0]	n/a	FR1	2	R1243T
929.067	2.927	756955	REC_WORD	2.927	n/a	MOTH	-999	6	[0, 0, 0]	n/a	FR1	2	R1243T
931.994	5.946	759882	REC_WORD	5.946	n/a	SPIDER	-999	6	[0, 0, 0]	n/a	FR1	2	R1243T
937.94	2.756	765827	REC_WORD	2.756	n/a	GLASS	-999	6	[0, 0, 0]	n/a	FR1	2	R1243T
940.696	5.677	768583	REC_END	n/a	n/a	n/a	-999	6	[0, 0, 0]	n/a	FR1	2	R1243T
946.373	0.5	774260	TRIAL	n/a	n/a	n/a	-999	7	[0, 0, 0]	n/a	FR1	2	R1243T
946.873	10.428	774760	COUNTDOWN_START	n/a	n/a	n/a	-999	7	[0, 0, 0]	n/a	FR1	2	R1243T
957.301	0.007	785187	COUNTDOWN_END	n/a	n/a	n/a	-999	7	[0, 0, 0]	n/a	FR1	2	R1243T
957.308	1.617	785194	ORIENT	n/a	n/a	n/a	-999	7	[0, 0, 0]	n/a	FR1	2	R1243T
958.925	2.117	786811	ORIENT_OFF	n/a	n/a	n/a	-999	7	[0, 0, 0]	n/a	FR1	2	R1243T
961.042	1.617	788928	WORD	n/a	wordpools/wordpool_EN.txt	CLAY	1	7	[0, 0, 0]	n/a	FR1	2	R1243T
962.659	0.8	790545	WORD_OFF	n/a	n/a	CLAY	1	7	[0, 0, 0]	n/a	FR1	2	R1243T
963.459	1.617	791345	WORD	n/a	wordpools/wordpool_EN.txt	SAIL	2	7	[0, 0, 0]	n/a	FR1	2	R1243T
965.076	0.967	792962	WORD_OFF	n/a	n/a	SAIL	2	7	[0, 0, 0]	n/a	FR1	2	R1243T
966.043	1.617	793929	WORD	n/a	wordpools/wordpool_EN.txt	CART	3	7	[0, 0, 0]	n/a	FR1	2	R1243T
967.66	0.934	795545	WORD_OFF	n/a	n/a	CART	3	7	[0, 0, 0]	n/a	FR1	2	R1243T
968.594	1.616	796479	WORD	n/a	wordpools/wordpool_EN.txt	SALT	4	7	[0, 0, 0]	n/a	FR1	2	R1243T
970.21	0.933	798095	WORD_OFF	n/a	n/a	SALT	4	7	[0, 0, 0]	n/a	FR1	2	R1243T
971.143	1.601	799028	WORD	n/a	wordpools/wordpool_EN.txt	RIB	5	7	[0, 0, 0]	n/a	FR1	2	R1243T
972.744	0.851	800629	WORD_OFF	n/a	n/a	RIB	5	7	[0, 0, 0]	n/a	FR1	2	R1243T
973.595	1.616	801480	WORD	n/a	wordpools/wordpool_EN.txt	MAT	6	7	[0, 0, 0]	n/a	FR1	2	R1243T
975.211	0.916	803096	WORD_OFF	n/a	n/a	MAT	6	7	[0, 0, 0]	n/a	FR1	2	R1243T
976.127	1.618	804012	WORD	n/a	wordpools/wordpool_EN.txt	PEACH	7	7	[0, 0, 0]	n/a	FR1	2	R1243T
977.745	0.784	805630	WORD_OFF	n/a	n/a	PEACH	7	7	[0, 0, 0]	n/a	FR1	2	R1243T
978.529	1.616	806414	WORD	n/a	wordpools/wordpool_EN.txt	SPEAR	8	7	[0, 0, 0]	n/a	FR1	2	R1243T
980.145	0.918	808030	WORD_OFF	n/a	n/a	SPEAR	8	7	[0, 0, 0]	n/a	FR1	2	R1243T
981.063	1.617	808948	WORD	n/a	wordpools/wordpool_EN.txt	YARD	9	7	[0, 0, 0]	n/a	FR1	2	R1243T
982.68	0.983	810565	WORD_OFF	n/a	n/a	YARD	9	7	[0, 0, 0]	n/a	FR1	2	R1243T
983.663	1.617	811548	WORD	n/a	wordpools/wordpool_EN.txt	BEAR	10	7	[0, 0, 0]	n/a	FR1	2	R1243T
985.28	0.833	813164	WORD_OFF	n/a	n/a	BEAR	10	7	[0, 0, 0]	n/a	FR1	2	R1243T
986.113	1.618	813997	WORD	n/a	wordpools/wordpool_EN.txt	DUCK	11	7	[0, 0, 0]	n/a	FR1	2	R1243T
987.731	0.833	815615	WORD_OFF	n/a	n/a	DUCK	11	7	[0, 0, 0]	n/a	FR1	2	R1243T
988.564	1.616	816448	WORD	n/a	wordpools/wordpool_EN.txt	PET	12	7	[0, 0, 0]	n/a	FR1	2	R1243T
990.18	0.0	818064	WORD_OFF	n/a	n/a	PET	12	7	[0, 0, 0]	n/a	FR1	2	R1243T
990.18	0.001	818064	DISTRACT_START	n/a	n/a	n/a	-999	7	[0, 0, 0]	n/a	FR1	2	R1243T
990.181	0.016	818065	START	n/a	n/a	n/a	-999	7	[-999, -999, -999]	n/a	FR1	2	R1243T
990.197	4.934	818081	PROB	4.934	n/a	n/a	-999	7	[6, 1, 1]	8	FR1	2	R1243T
995.131	6.552	823015	PROB	6.552	n/a	n/a	-999	7	[2, 7, 1]	10	FR1	2	R1243T
1001.683	10.079	829566	PROB	10.079	n/a	n/a	-999	7	[5, 7, 6]	18	FR1	2	R1243T
1011.762	0.006	839645	STOP	n/a	n/a	n/a	-999	7	[-999, -999, -999]	n/a	FR1	2	R1243T
1011.768	0.651	839651	DISTRACT_END	n/a	n/a	n/a	-999	7	[0, 0, 0]	n/a	FR1	2	R1243T
1012.419	0.517	840302	RETRIEVAL_ORIENT	n/a	n/a	n/a	-999	7	[0, 0, 0]	n/a	FR1	2	R1243T
1012.936	8.769	840819	REC_START	n/a	n/a	n/a	-999	7	[0, 0, 0]	n/a	FR1	2	R1243T
1021.705	10.623	849587	REC_WORD	10.623	n/a	PET	-999	7	[0, 0, 0]	n/a	FR1	2	R1243T
1032.328	7.247	860210	REC_WORD	7.247	n/a	TOOTH	-999	7	[0, 0, 0]	n/a	FR1	2	R1243T
1039.575	3.371	867456	REC_WORD	3.371	n/a	ICE	-999	7	[0, 0, 0]	n/a	FR1	2	R1243T
1042.946	6.195	870827	REC_END	n/a	n/a	n/a	-999	7	[0, 0, 0]	n/a	FR1	2	R1243T
1049.141	0.5	877022	TRIAL	n/a	n/a	n/a	-999	8	[0, 0, 0]	n/a	FR1	2	R1243T
1049.641	10.428	877522	COUNTDOWN_START	n/a	n/a	n/a	-999	8	[0, 0, 0]	n/a	FR1	2	R1243T
1060.069	0.008	887949	COUNTDOWN_END	n/a	n/a	n/a	-999	8	[0, 0, 0]	n/a	FR1	2	R1243T
1060.077	1.617	887957	ORIENT	n/a	n/a	n/a	-999	8	[0, 0, 0]	n/a	FR1	2	R1243T
1061.694	2.134	889574	ORIENT_OFF	n/a	n/a	n/a	-999	8	[0, 0, 0]	n/a	FR1	2	R1243T
1063.828	1.617	891708	WORD	n/a	wordpools/wordpool_EN.txt	LAMB	1	8	[0, 0, 0]	n/a	FR1	2	R1243T
1065.445	0.967	893325	WORD_OFF	n/a	n/a	LAMB	1	8	[0, 0, 0]	n/a	FR1	2	R1243T
1066.412	1.617	894292	WORD	n/a	wordpools/wordpool_EN.txt	MOON	2	8	[0, 0, 0]	n/a	FR1	2	R1243T
1068.029	0.933	895908	WORD_OFF	n/a	n/a	MOON	2	8	[0, 0, 0]	n/a	FR1	2	R1243T
1068.962	1.617	896841	WORD	n/a	wordpools/wordpool_EN.txt	POLE	3	8	[0, 0, 0]	n/a	FR1	2	R1243T
1070.579	0.884	898458	WORD_OFF	n/a	n/a	POLE	3	8	[0, 0, 0]	n/a	FR1	2	R1243T
1071.463	1.616	899342	WORD	n/a	wordpools/wordpool_EN.txt	RUG	4	8	[0, 0, 0]	n/a	FR1	2	R1243T
1073.079	0.984	900958	WORD_OFF	n/a	n/a	RUG	4	8	[0, 0, 0]	n/a	FR1	2	R1243T
1074.063	1.617	901942	WORD	n/a	wordpools/wordpool_EN.txt	BADGE	5	8	[0, 0, 0]	n/a	FR1	2	R1243T
1075.68	0.767	903559	WORD_OFF	n/a	n/a	BADGE	5	8	[0, 0, 0]	n/a	FR1	2	R1243T
1076.447	1.617	904326	WORD	n/a	wordpools/wordpool_EN.txt	CAR	6	8	[0, 0, 0]	n/a	FR1	2	R1243T
1078.064	0.817	905943	WORD_OFF	n/a	n/a	CAR	6	8	[0, 0, 0]	n/a	FR1	2	R1243T
1078.881	1.617	906760	WORD	n/a	wordpools/wordpool_EN.txt	CORN	7	8	[0, 0, 0]	n/a	FR1	2	R1243T
1080.498	0.783	908377	WORD_OFF	n/a	n/a	CORN	7	8	[0, 0, 0]	n/a	FR1	2	R1243T
1081.281	1.617	909160	WORD	n/a	wordpools/wordpool_EN.txt	RAKE	8	8	[0, 0, 0]	n/a	FR1	2	R1243T
1082.898	0.834	910777	WORD_OFF	n/a	n/a	RAKE	8	8	[0, 0, 0]	n/a	FR1	2	R1243T
1083.732	1.616	911610	WORD	n/a	wordpools/wordpool_EN.txt	SUIT	9	8	[0, 0, 0]	n/a	FR1	2	R1243T
1085.348	0.816	913226	WORD_OFF	n/a	n/a	SUIT	9	8	[0, 0, 0]	n/a	FR1	2	R1243T
1086.164	1.601	914042	WORD	n/a	wordpools/wordpool_EN.txt	WORLD	10	8	[0, 0, 0]	n/a	FR1	2	R1243T
1087.765	1.017	915643	WORD_OFF	n/a	n/a	WORLD	10	8	[0, 0, 0]	n/a	FR1	2	R1243T
1088.782	1.617	916660	WORD	n/a	wordpools/wordpool_EN.txt	STRING	11	8	[0, 0, 0]	n/a	FR1	2	R1243T
1090.399	1.001	918277	WORD_OFF	n/a	n/a	STRING	11	8	[0, 0, 0]	n/a	FR1	2	R1243T
1091.4	1.617	919278	WORD	n/a	wordpools/wordpool_EN.txt	STAR	12	8	[0, 0, 0]	n/a	FR1	2	R1243T
1093.017	0.0	920895	WORD_OFF	n/a	n/a	STAR	12	8	[0, 0, 0]	n/a	FR1	2	R1243T
1093.017	0.0	920895	DISTRACT_START	n/a	n/a	n/a	-999	8	[0, 0, 0]	n/a	FR1	2	R1243T
1093.017	0.016	920895	START	n/a	n/a	n/a	-999	8	[-999, -999, -999]	n/a	FR1	2	R1243T
1093.033	6.701	920911	PROB	6.701	n/a	n/a	-999	8	[6, 2, 4]	12	FR1	2	R1243T
1099.734	6.051	927612	PROB	6.051	n/a	n/a	-999	8	[4, 7, 6]	17	FR1	2	R1243T
1105.785	6.102	933662	PROB	6.102	n/a	n/a	-999	8	[9, 3, 2]	14	FR1	2	R1243T
1111.887	5.028	939764	PROB	5.028	n/a	n/a	-999	8	[7, 3, 5]	15	FR1	2	R1243T
1116.915	0.023	944791	STOP	n/a	n/a	n/a	-999	8	[-999, -999, -999]	n/a	FR1	2	R1243T
1116.938	0.683	944814	DISTRACT_END	n/a	n/a	n/a	-999	8	[0, 0, 0]	n/a	FR1	2	R1243T
1117.621	0.516	945497	RETRIEVAL_ORIENT	n/a	n/a	n/a	-999	8	[0, 0, 0]	n/a	FR1	2	R1243T
1118.137	14.866	946013	REC_START	n/a	n/a	n/a	-999	8	[0, 0, 0]	n/a	FR1	2	R1243T
1133.003	3.426	960878	REC_WORD	3.426	n/a	CHIEF	-999	8	[0, 0, 0]	n/a	FR1	2	R1243T
1136.429	5.182	964304	REC_WORD	5.182	n/a	ICE	-999	8	[0, 0, 0]	n/a	FR1	2	R1243T
1141.611	6.538	969486	REC_WORD	6.538	n/a	MOTH	-999	8	[0, 0, 0]	n/a	FR1	2	R1243T
1148.149	5.445	976024	REC_END	n/a	n/a	n/a	-999	8	[0, 0, 0]	n/a	FR1	2	R1243T
1153.594	0.5	981468	TRIAL	n/a	n/a	n/a	-999	9	[0, 0, 0]	n/a	FR1	2	R1243T
1154.094	10.428	981968	COUNTDOWN_START	n/a	n/a	n/a	-999	9	[0, 0, 0]	n/a	FR1	2	R1243T
1164.522	0.008	992396	COUNTDOWN_END	n/a	n/a	n/a	-999	9	[0, 0, 0]	n/a	FR1	2	R1243T
1164.53	1.616	992404	ORIENT	n/a	n/a	n/a	-999	9	[0, 0, 0]	n/a	FR1	2	R1243T
1166.146	1.901	994019	ORIENT_OFF	n/a	n/a	n/a	-999	9	[0, 0, 0]	n/a	FR1	2	R1243T
1168.047	1.617	995920	WORD	n/a	wordpools/wordpool_EN.txt	PEA	1	9	[0, 0, 0]	n/a	FR1	2	R1243T
1169.664	0.833	997537	WORD_OFF	n/a	n/a	PEA	1	9	[0, 0, 0]	n/a	FR1	2	R1243T
1170.497	1.616	998370	WORD	n/a	wordpools/wordpool_EN.txt	BAT	2	9	[0, 0, 0]	n/a	FR1	2	R1243T
1172.113	0.968	999986	WORD_OFF	n/a	n/a	BAT	2	9	[0, 0, 0]	n/a	FR1	2	R1243T
1173.081	1.617	1000954	WORD	n/a	wordpools/wordpool_EN.txt	SKI	3	9	[0, 0, 0]	n/a	FR1	2	R1243T
1174.698	1.0	1002571	WORD_OFF	n/a	n/a	SKI	3	9	[0, 0, 0]	n/a	FR1	2	R1243T
1175.698	1.617	1003571	WORD	n/a	wordpools/wordpool_EN.txt	CORD	4	9	[0, 0, 0]	n/a	FR1	2	R1243T
1177.315	0.883	1005188	WORD_OFF	n/a	n/a	CORD	4	9	[0, 0, 0]	n/a	FR1	2	R1243T
1178.198	1.618	1006071	WORD	n/a	wordpools/wordpool_EN.txt	CASH	5	9	[0, 0, 0]	n/a	FR1	2	R1243T
1179.816	0.917	1007689	WORD_OFF	n/a	n/a	CASH	5	9	[0, 0, 0]	n/a	FR1	2	R1243T
1180.733	1.616	1008606	WORD	n/a	wordpools/wordpool_EN.txt	FOG	6	9	[0, 0, 0]	n/a	FR1	2	R1243T
1182.349	0.783	1010222	WORD_OFF	n/a	n/a	FOG	6	9	[0, 0, 0]	n/a	FR1	2	R1243T
1183.132	1.601	1011004	WORD	n/a	wordpools/wordpool_EN.txt	NET	7	9	[0, 0, 0]	n/a	FR1	2	R1243T
1184.733	0.767	1012605	WORD_OFF	n/a	n/a	NET	7	9	[0, 0, 0]	n/a	FR1	2	R1243T
1185.5	1.616	1013372	WORD	n/a	wordpools/wordpool_EN.txt	NOSE	8	9	[0, 0, 0]	n/a	FR1	2	R1243T
1187.116	1.0	1014988	WORD_OFF	n/a	n/a	NOSE	8	9	[0, 0, 0]	n/a	FR1	2	R1243T
1188.116	1.618	1015988	WORD	n/a	wordpools/wordpool_EN.txt	PIT	9	9	[0, 0, 0]	n/a	FR1	2	R1243T
1189.734	0.867	1017606	WORD_OFF	n/a	n/a	PIT	9	9	[0, 0, 0]	n/a	FR1	2	R1243T
1190.601	1.616	1018473	WORD	n/a	wordpools/wordpool_EN.txt	POOL	10	9	[0, 0, 0]	n/a	FR1	2	R1243T
1192.217	0.801	1020089	WORD_OFF	n/a	n/a	POOL	10	9	[0, 0, 0]	n/a	FR1	2	R1243T
1193.018	1.617	1020890	WORD	n/a	wordpools/wordpool_EN.txt	STRAW	11	9	[0, 0, 0]	n/a	FR1	2	R1243T
1194.635	0.85	1022507	WORD_OFF	n/a	n/a	STRAW	11	9	[0, 0, 0]	n/a	FR1	2	R1243T
1195.485	1.616	1023357	WORD	n/a	wordpools/wordpool_EN.txt	SOUP	12	9	[0, 0, 0]	n/a	FR1	2	R1243T
1197.101	0.0	1024973	WORD_OFF	n/a	n/a	SOUP	12	9	[0, 0, 0]	n/a	FR1	2	R1243T
1197.101	0.001	1024973	DISTRACT_START	n/a	n/a	n/a	-999	9	[0, 0, 0]	n/a	FR1	2	R1243T
1197.102	0.016	1024974	START	n/a	n/a	n/a	-999	9	[-999, -999, -999]	n/a	FR1	2	R1243T
1197.118	6.452	1024990	PROB	6.452	n/a	n/a	-999	9	[1, 6, 4]	11	FR1	2	R1243T
1203.57	6.935	1031441	PROB	6.935	n/a	n/a	-999	9	[6, 8, 9]	23	FR1	2	R1243T
1210.505	7.617	1038376	PROB	7.617	n/a	n/a	-999	9	[8, 1, 7]	16	FR1	2	R1243T
1218.122	0.016	1045992	STOP	n/a	n/a	n/a	-999	9	[-999, -999, -999]	n/a	FR1	2	R1243T
1218.138	0.535	1046008	DISTRACT_END	n/a	n/a	n/a	-999	9	[0, 0, 0]	n/a	FR1	2	R1243T
1218.673	0.516	1046543	RETRIEVAL_ORIENT	n/a	n/a	n/a	-999	9	[0, 0, 0]	n/a	FR1	2	R1243T
1219.189	3.347	1047059	REC_START	n/a	n/a	n/a	-999	9	[0, 0, 0]	n/a	FR1	2	R1243T
1222.536	1.626	1050406	REC_WORD	1.626	n/a	PEA	-999	9	[0, 0, 0]	n/a	FR1	2	R1243T
1224.162	1.734	1052032	REC_WORD	1.734	n/a	BAT	-999	9	[0, 0, 0]	n/a	FR1	2	R1243T
1225.896	19.519	1053766	REC_WORD	19.519	n/a	COUCH	-999	9	[0, 0, 0]	n/a	FR1	2	R1243T
1245.415	3.787	1073284	REC_WORD	3.787	n/a	TOOLS	-999	9	[0, 0, 0]	n/a	FR1	2	R1243T
1249.202	5.926	1077070	REC_END	n/a	n/a	n/a	-999	9	[0, 0, 0]	n/a	FR1	2	R1243T
1255.128	0.5	1082996	TRIAL	n/a	n/a	n/a	-999	10	[0, 0, 0]	n/a	FR1	2	R1243T
1255.628	10.428	1083496	COUNTDOWN_START	n/a	n/a	n/a	-999	10	[0, 0, 0]	n/a	FR1	2	R1243T
1266.056	0.009	1093923	COUNTDOWN_END	n/a	n/a	n/a	-999	10	[0, 0, 0]	n/a	FR1	2	R1243T
1266.065	1.617	1093932	ORIENT	n/a	n/a	n/a	-999	10	[0, 0, 0]	n/a	FR1	2	R1243T
1267.682	2.283	1095549	ORIENT_OFF	n/a	n/a	n/a	-999	10	[0, 0, 0]	n/a	FR1	2	R1243T
1269.965	1.617	1097832	WORD	n/a	wordpools/wordpool_EN.txt	SINK	1	10	[0, 0, 0]	n/a	FR1	2	R1243T
1271.582	1.001	1099449	WORD_OFF	n/a	n/a	SINK	1	10	[0, 0, 0]	n/a	FR1	2	R1243T
1272.583	1.616	1100450	WORD	n/a	wordpools/wordpool_EN.txt	CROW	2	10	[0, 0, 0]	n/a	FR1	2	R1243T
1274.199	0.884	1102066	WORD_OFF	n/a	n/a	CROW	2	10	[0, 0, 0]	n/a	FR1	2	R1243T
1275.083	1.617	1102950	WORD	n/a	wordpools/wordpool_EN.txt	ROAD	3	10	[0, 0, 0]	n/a	FR1	2	R1243T
1276.7	0.867	1104567	WORD_OFF	n/a	n/a	ROAD	3	10	[0, 0, 0]	n/a	FR1	2	R1243T
1277.567	1.616	1105434	WORD	n/a	wordpools/wordpool_EN.txt	VASE	4	10	[0, 0, 0]	n/a	FR1	2	R1243T
1279.183	0.801	1107050	WORD_OFF	n/a	n/a	VASE	4	10	[0, 0, 0]	n/a	FR1	2	R1243T
1279.984	1.617	1107851	WORD	n/a	wordpools/wordpool_EN.txt	SPONGE	5	10	[0, 0, 0]	n/a	FR1	2	R1243T
1281.601	0.933	1109468	WORD_OFF	n/a	n/a	SPONGE	5	10	[0, 0, 0]	n/a	FR1	2	R1243T
1282.534	1.616	1110400	WORD	n/a	wordpools/wordpool_EN.txt	WAND	6	10	[0, 0, 0]	n/a	FR1	2	R1243T
1284.15	0.785	1112016	WORD_OFF	n/a	n/a	WAND	6	10	[0, 0, 0]	n/a	FR1	2	R1243T
1284.935	1.617	1112801	WORD	n/a	wordpools/wordpool_EN.txt	GUARD	7	10	[0, 0, 0]	n/a	FR1	2	R1243T
1286.552	0.833	1114418	WORD_OFF	n/a	n/a	GUARD	7	10	[0, 0, 0]	n/a	FR1	2	R1243T
1287.385	1.617	1115251	WORD	n/a	wordpools/wordpool_EN.txt	HAND	8	10	[0, 0, 0]	n/a	FR1	2	R1243T
1289.002	0.85	1116868	WORD_OFF	n/a	n/a	HAND	8	10	[0, 0, 0]	n/a	FR1	2	R1243T
1289.852	1.617	1117718	WORD	n/a	wordpools/wordpool_EN.txt	STOVE	9	10	[0, 0, 0]	n/a	FR1	2	R1243T
1291.469	0.8	1119335	WORD_OFF	n/a	n/a	STOVE	9	10	[0, 0, 0]	n/a	FR1	2	R1243T
1292.269	1.617	1120135	WORD	n/a	wordpools/wordpool_EN.txt	THREAD	10	10	[0, 0, 0]	n/a	FR1	2	R1243T
1293.886	0.917	1121752	WORD_OFF	n/a	n/a	THREAD	10	10	[0, 0, 0]	n/a	FR1	2	R1243T
1294.803	1.617	1122669	WORD	n/a	wordpools/wordpool_EN.txt	ROSE	11	10	[0, 0, 0]	n/a	FR1	2	R1243T
1296.42	0.95	1124286	WORD_OFF	n/a	n/a	ROSE	11	10	[0, 0, 0]	n/a	FR1	2	R1243T
1297.37	1.617	1125236	WORD	n/a	wordpools/wordpool_EN.txt	TRUCK	12	10	[0, 0, 0]	n/a	FR1	2	R1243T
1298.987	0.0	1126852	WORD_OFF	n/a	n/a	TRUCK	12	10	[0, 0, 0]	n/a	FR1	2	R1243T
1298.987	0.001	1126852	DISTRACT_START	n/a	n/a	n/a	-999	10	[0, 0, 0]	n/a	FR1	2	R1243T
1298.988	0.016	1126853	START	n/a	n/a	n/a	-999	10	[-999, -999, -999]	n/a	FR1	2	R1243T
1299.004	12.852	1126869	PROB	12.852	n/a	n/a	-999	10	[8, 9, 3]	20	FR1	2	R1243T
1311.856	6.102	1139721	PROB	6.102	n/a	n/a	-999	10	[1, 8, 7]	16	FR1	2	R1243T
1317.958	8.725	1145822	PROB	8.725	n/a	n/a	-999	10	[6, 2, 5]	13	FR1	2	R1243T
1326.683	0.01	1154547	STOP	n/a	n/a	n/a	-999	10	[-999, -999, -999]	n/a	FR1	2	R1243T
1326.693	0.532	1154557	DISTRACT_END	n/a	n/a	n/a	-999	10	[0, 0, 0]	n/a	FR1	2	R1243T
1327.225	0.525	1155089	RETRIEVAL_ORIENT	n/a	n/a	n/a	-999	10	[0, 0, 0]	n/a	FR1	2	R1243T
1327.75	2.554	1155614	REC_START	n/a	n/a	n/a	-999	10	[0, 0, 0]	n/a	FR1	2	R1243T
1330.304	2.694	1158168	REC_WORD	2.694	n/a	SINK	-999	10	[0, 0, 0]	n/a	FR1	2	R1243T
1332.998	2.539	1160861	REC_WORD	2.539	n/a	CROW	-999	10	[0, 0, 0]	n/a	FR1	2	R1243T
1335.537	3.31	1163400	REC_WORD	3.31	n/a	ROAD	-999	10	[0, 0, 0]	n/a	FR1	2	R1243T
1338.847	14.903	1166710	REC_WORD	14.903	n/a	RAISE	-999	10	[0, 0, 0]	n/a	FR1	2	R1243T
1353.75	4.004	1181612	REC_WORD	4.004	n/a	TOOTH	-999	10	[0, 0, 0]	n/a	FR1	2	R1243T
1357.754	6.129	1185616	REC_END	n/a	n/a	n/a	-999	10	[0, 0, 0]	n/a	FR1	2	R1243T
1363.883	0.5	1191745	TRIAL	n/a	n/a	n/a	-999	11	[0, 0, 0]	n/a	FR1	2	R1243T
1364.383	10.428	1192245	COUNTDOWN_START	n/a	n/a	n/a	-999	11	[0, 0, 0]	n/a	FR1	2	R1243T
1374.811	0.007	1202672	COUNTDOWN_END	n/a	n/a	n/a	-999	11	[0, 0, 0]	n/a	FR1	2	R1243T
1374.818	1.617	1202679	ORIENT	n/a	n/a	n/a	-999	11	[0, 0, 0]	n/a	FR1	2	R1243T
1376.435	2.233	1204296	ORIENT_OFF	n/a	n/a	n/a	-999	11	[0, 0, 0]	n/a	FR1	2	R1243T
1378.668	1.618	1206529	WORD	n/a	wordpools/wordpool_EN.txt	CANE	1	11	[0, 0, 0]	n/a	FR1	2	R1243T
1380.286	0.815	1208147	WORD_OFF	n/a	n/a	CANE	1	11	[0, 0, 0]	n/a	FR1	2	R1243T
1381.101	1.618	1208962	WORD	n/a	wordpools/wordpool_EN.txt	SWORD	2	11	[0, 0, 0]	n/a	FR1	2	R1243T
1382.719	0.8	1210579	WORD_OFF	n/a	n/a	SWORD	2	11	[0, 0, 0]	n/a	FR1	2	R1243T
1383.519	1.616	1211379	WORD	n/a	wordpools/wordpool_EN.txt	WALL	3	11	[0, 0, 0]	n/a	FR1	2	R1243T
1385.135	0.918	1212995	WORD_OFF	n/a	n/a	WALL	3	11	[0, 0, 0]	n/a	FR1	2	R1243T
1386.053	1.617	1213913	WORD	n/a	wordpools/wordpool_EN.txt	INK	4	11	[0, 0, 0]	n/a	FR1	2	R1243T
1387.67	0.867	1215530	WORD_OFF	n/a	n/a	INK	4	11	[0, 0, 0]	n/a	FR1	2	R1243T
1388.537	1.616	1216397	WORD	n/a	wordpools/wordpool_EN.txt	CHAIR	5	11	[0, 0, 0]	n/a	FR1	2	R1243T
1390.153	0.851	1218013	WORD_OFF	n/a	n/a	CHAIR	5	11	[0, 0, 0]	n/a	FR1	2	R1243T
1391.004	1.617	1218864	WORD	n/a	wordpools/wordpool_EN.txt	FLEA	6	11	[0, 0, 0]	n/a	FR1	2	R1243T
1392.621	0.933	1220481	WORD_OFF	n/a	n/a	FLEA	6	11	[0, 0, 0]	n/a	FR1	2	R1243T
1393.554	1.617	1221414	WORD	n/a	wordpools/wordpool_EN.txt	STORE	7	11	[0, 0, 0]	n/a	FR1	2	R1243T
1395.171	0.95	1223031	WORD_OFF	n/a	n/a	STORE	7	11	[0, 0, 0]	n/a	FR1	2	R1243T
1396.121	1.618	1223981	WORD	n/a	wordpools/wordpool_EN.txt	FLUTE	8	11	[0, 0, 0]	n/a	FR1	2	R1243T
1397.739	1.0	1225599	WORD_OFF	n/a	n/a	FLUTE	8	11	[0, 0, 0]	n/a	FR1	2	R1243T
1398.739	1.617	1226598	WORD	n/a	wordpools/wordpool_EN.txt	DITCH	9	11	[0, 0, 0]	n/a	FR1	2	R1243T
1400.356	0.849	1228215	WORD_OFF	n/a	n/a	DITCH	9	11	[0, 0, 0]	n/a	FR1	2	R1243T
1401.205	1.618	1229064	WORD	n/a	wordpools/wordpool_EN.txt	STONE	10	11	[0, 0, 0]	n/a	FR1	2	R1243T
1402.823	0.834	1230682	WORD_OFF	n/a	n/a	STONE	10	11	[0, 0, 0]	n/a	FR1	2	R1243T
1403.657	1.617	1231516	WORD	n/a	wordpools/wordpool_EN.txt	STOOL	11	11	[0, 0, 0]	n/a	FR1	2	R1243T
1405.274	0.816	1233133	WORD_OFF	n/a	n/a	STOOL	11	11	[0, 0, 0]	n/a	FR1	2	R1243T
1406.09	1.617	1233949	WORD	n/a	wordpools/wordpool_EN.txt	TENT	12	11	[0, 0, 0]	n/a	FR1	2	R1243T
1407.707	0.0	1235566	WORD_OFF	n/a	n/a	TENT	12	11	[0, 0, 0]	n/a	FR1	2	R1243T
1407.707	0.001	1235566	DISTRACT_START	n/a	n/a	n/a	-999	11	[0, 0, 0]	n/a	FR1	2	R1243T
1407.708	0.016	1235567	START	n/a	n/a	n/a	-999	11	[-999, -999, -999]	n/a	FR1	2	R1243T
1407.724	6.483	1235583	PROB	6.483	n/a	n/a	-999	11	[2, 5, 3]	10	FR1	2	R1243T
1414.207	7.902	1242066	PROB	7.902	n/a	n/a	-999	11	[6, 7, 4]	17	FR1	2	R1243T
1422.109	5.118	1249967	PROB	5.118	n/a	n/a	-999	11	[3, 4, 7]	14	FR1	2	R1243T
1427.227	4.664	1255085	PROB	4.664	n/a	n/a	-999	11	[1, 5, 2]	8	FR1	2	R1243T
1431.891	0.021	1259748	STOP	n/a	n/a	n/a	-999	11	[-999, -999, -999]	n/a	FR1	2	R1243T
1431.912	0.616	1259769	DISTRACT_END	n/a	n/a	n/a	-999	11	[0, 0, 0]	n/a	FR1	2	R1243T
1432.528	0.518	1260385	RETRIEVAL_ORIENT	n/a	n/a	n/a	-999	11	[0, 0, 0]	n/a	FR1	2	R1243T
1433.046	13.679	1260903	REC_START	n/a	n/a	n/a	-999	11	[0, 0, 0]	n/a	FR1	2	R1243T
1446.725	12.757	1274582	REC_WORD	12.757	n/a	SWORD	-999	11	[0, 0, 0]	n/a	FR1	2	R1243T
1459.482	3.575	1287338	REC_WORD	3.575	n/a	FLUTE	-999	11	[0, 0, 0]	n/a	FR1	2	R1243T
1463.057	5.811	1290913	REC_END	n/a	n/a	n/a	-999	11	[0, 0, 0]	n/a	FR1	2	R1243T
1468.868	0.5	1296723	TRIAL	n/a	n/a	n/a	-999	12	[0, 0, 0]	n/a	FR1	2	R1243T
1469.368	10.428	1297223	COUNTDOWN_START	n/a	n/a	n/a	-999	12	[0, 0, 0]	n/a	FR1	2	R1243T
1479.796	0.008	1307651	COUNTDOWN_END	n/a	n/a	n/a	-999	12	[0, 0, 0]	n/a	FR1	2	R1243T
1479.804	1.617	1307659	ORIENT	n/a	n/a	n/a	-999	12	[0, 0, 0]	n/a	FR1	2	R1243T
1481.421	2.1	1309275	ORIENT_OFF	n/a	n/a	n/a	-999	12	[0, 0, 0]	n/a	FR1	2	R1243T
1483.521	1.616	1311375	WORD	n/a	wordpools/wordpool_EN.txt	RAIN	1	12	[0, 0, 0]	n/a	FR1	2	R1243T
1485.137	1.0	1312991	WORD_OFF	n/a	n/a	RAIN	1	12	[0, 0, 0]	n/a	FR1	2	R1243T
1486.137	1.601	1313991	WORD	n/a	wordpools/wordpool_EN.txt	WAVE	2	12	[0, 0, 0]	n/a	FR1	2	R1243T
1487.738	0.934	1315592	WORD_OFF	n/a	n/a	WAVE	2	12	[0, 0, 0]	n/a	FR1	2	R1243T
1488.672	1.617	1316526	WORD	n/a	wordpools/wordpool_EN.txt	FLAG	3	12	[0, 0, 0]	n/a	FR1	2	R1243T
1490.289	0.916	1318143	WORD_OFF	n/a	n/a	FLAG	3	12	[0, 0, 0]	n/a	FR1	2	R1243T
1491.205	1.618	1319059	WORD	n/a	wordpools/wordpool_EN.txt	WEB	4	12	[0, 0, 0]	n/a	FR1	2	R1243T
1492.823	0.95	1320677	WORD_OFF	n/a	n/a	WEB	4	12	[0, 0, 0]	n/a	FR1	2	R1243T
1493.773	1.617	1321627	WORD	n/a	wordpools/wordpool_EN.txt	PLANE	5	12	[0, 0, 0]	n/a	FR1	2	R1243T
1495.39	0.799	1323244	WORD_OFF	n/a	n/a	PLANE	5	12	[0, 0, 0]	n/a	FR1	2	R1243T
1496.189	1.618	1324043	WORD	n/a	wordpools/wordpool_EN.txt	MAP	6	12	[0, 0, 0]	n/a	FR1	2	R1243T
1497.807	0.967	1325660	WORD_OFF	n/a	n/a	MAP	6	12	[0, 0, 0]	n/a	FR1	2	R1243T
1498.774	1.617	1326627	WORD	n/a	wordpools/wordpool_EN.txt	GRASS	7	12	[0, 0, 0]	n/a	FR1	2	R1243T
1500.391	0.967	1328244	WORD_OFF	n/a	n/a	GRASS	7	12	[0, 0, 0]	n/a	FR1	2	R1243T
1501.358	1.617	1329211	WORD	n/a	wordpools/wordpool_EN.txt	STREET	8	12	[0, 0, 0]	n/a	FR1	2	R1243T
1502.975	0.85	1330828	WORD_OFF	n/a	n/a	STREET	8	12	[0, 0, 0]	n/a	FR1	2	R1243T
1503.825	1.617	1331678	WORD	n/a	wordpools/wordpool_EN.txt	SHARK	9	12	[0, 0, 0]	n/a	FR1	2	R1243T
1505.442	0.782	1333295	WORD_OFF	n/a	n/a	SHARK	9	12	[0, 0, 0]	n/a	FR1	2	R1243T
1506.224	1.618	1334077	WORD	n/a	wordpools/wordpool_EN.txt	SUN	10	12	[0, 0, 0]	n/a	FR1	2	R1243T
1507.842	0.9	1335695	WORD_OFF	n/a	n/a	SUN	10	12	[0, 0, 0]	n/a	FR1	2	R1243T
1508.742	1.617	1336595	WORD	n/a	wordpools/wordpool_EN.txt	TANK	11	12	[0, 0, 0]	n/a	FR1	2	R1243T
1510.359	0.984	1338212	WORD_OFF	n/a	n/a	TANK	11	12	[0, 0, 0]	n/a	FR1	2	R1243T
1511.343	1.617	1339196	WORD	n/a	wordpools/wordpool_EN.txt	MAIL	12	12	[0, 0, 0]	n/a	FR1	2	R1243T
1512.96	0.0	1340813	WORD_OFF	n/a	n/a	MAIL	12	12	[0, 0, 0]	n/a	FR1	2	R1243T
1512.96	0.0	1340813	DISTRACT_START	n/a	n/a	n/a	-999	12	[0, 0, 0]	n/a	FR1	2	R1243T
1512.96	0.017	1340813	START	n/a	n/a	n/a	-999	12	[-999, -999, -999]	n/a	FR1	2	R1243T
1512.977	5.1	1340830	PROB	5.1	n/a	n/a	-999	12	[2, 2, 4]	8	FR1	2	R1243T
1518.077	7.885	1345929	PROB	7.885	n/a	n/a	-999	12	[6, 9, 4]	19	FR1	2	R1243T
1525.962	5.25	1353814	PROB	5.25	n/a	n/a	-999	12	[9, 6, 6]	21	FR1	2	R1243T
1531.212	6.727	1359063	PROB	6.727	n/a	n/a	-999	12	[7, 9, 5]	21	FR1	2	R1243T
1537.939	0.009	1365790	STOP	n/a	n/a	n/a	-999	12	[-999, -999, -999]	n/a	FR1	2	R1243T
1537.948	0.65	1365799	DISTRACT_END	n/a	n/a	n/a	-999	12	[0, 0, 0]	n/a	FR1	2	R1243T
1538.598	0.516	1366449	RETRIEVAL_ORIENT	n/a	n/a	n/a	-999	12	[0, 0, 0]	n/a	FR1	2	R1243T
1539.114	6.732	1366965	REC_START	n/a	n/a	n/a	-999	12	[0, 0, 0]	n/a	FR1	2	R1243T
1545.846	1.408	1373697	REC_WORD_VV	1.408	n/a	<>	-999	12	[0, 0, 0]	n/a	FR1	2	R1243T
1547.254	1.07	1375104	REC_WORD	1.07	n/a	RAIN	-999	12	[0, 0, 0]	n/a	FR1	2	R1243T
1548.324	5.199	1376174	REC_WORD	5.199	n/a	WAVE	-999	12	[0, 0, 0]	n/a	FR1	2	R1243T
1553.523	10.582	1381373	REC_WORD	10.582	n/a	GRASS	-999	12	[0, 0, 0]	n/a	FR1	2	R1243T
1564.105	5.02	1391954	REC_WORD	5.02	n/a	SIDEWALK	-999	12	[0, 0, 0]	n/a	FR1	2	R1243T
1569.125	12.547	1396974	REC_END	n/a	n/a	n/a	-999	12	[0, 0, 0]	n/a	FR1	2	R1243T
1581.672	0.5	1409520	TRIAL	n/a	n/a	n/a	-999	13	[0, 0, 0]	n/a	FR1	2	R1243T
1582.172	10.428	1410020	COUNTDOWN_START	n/a	n/a	n/a	-999	13	[0, 0, 0]	n/a	FR1	2	R1243T
1592.6	0.008	1420448	COUNTDOWN_END	n/a	n/a	n/a	-999	13	[0, 0, 0]	n/a	FR1	2	R1243T
1592.608	1.616	1420456	ORIENT	n/a	n/a	n/a	-999	13	[0, 0, 0]	n/a	FR1	2	R1243T
1594.224	2.068	1422072	ORIENT_OFF	n/a	n/a	n/a	-999	13	[0, 0, 0]	n/a	FR1	2	R1243T
1596.292	1.617	1424140	WORD	n/a	wordpools/wordpool_EN.txt	HOOF	1	13	[0, 0, 0]	n/a	FR1	2	R1243T
1597.909	0.95	1425756	WORD_OFF	n/a	n/a	HOOF	1	13	[0, 0, 0]	n/a	FR1	2	R1243T
1598.859	1.617	1426706	WORD	n/a	wordpools/wordpool_EN.txt	ANT	2	13	[0, 0, 0]	n/a	FR1	2	R1243T
1600.476	0.983	1428323	WORD_OFF	n/a	n/a	ANT	2	13	[0, 0, 0]	n/a	FR1	2	R1243T
1601.459	1.617	1429306	WORD	n/a	wordpools/wordpool_EN.txt	ROCK	3	13	[0, 0, 0]	n/a	FR1	2	R1243T
1603.076	0.967	1430923	WORD_OFF	n/a	n/a	ROCK	3	13	[0, 0, 0]	n/a	FR1	2	R1243T
1604.043	1.617	1431890	WORD	n/a	wordpools/wordpool_EN.txt	WING	4	13	[0, 0, 0]	n/a	FR1	2	R1243T
1605.66	0.834	1433507	WORD_OFF	n/a	n/a	WING	4	13	[0, 0, 0]	n/a	FR1	2	R1243T
1606.494	1.616	1434341	WORD	n/a	wordpools/wordpool_EN.txt	PARK	5	13	[0, 0, 0]	n/a	FR1	2	R1243T
1608.11	0.784	1435957	WORD_OFF	n/a	n/a	PARK	5	13	[0, 0, 0]	n/a	FR1	2	R1243T
1608.894	1.617	1436741	WORD	n/a	wordpools/wordpool_EN.txt	TAIL	6	13	[0, 0, 0]	n/a	FR1	2	R1243T
1610.511	0.8	1438358	WORD_OFF	n/a	n/a	TAIL	6	13	[0, 0, 0]	n/a	FR1	2	R1243T
1611.311	1.617	1439158	WORD	n/a	wordpools/wordpool_EN.txt	BREAD	7	13	[0, 0, 0]	n/a	FR1	2	R1243T
1612.928	0.884	1440775	WORD_OFF	n/a	n/a	BREAD	7	13	[0, 0, 0]	n/a	FR1	2	R1243T
1613.812	1.616	1441658	WORD	n/a	wordpools/wordpool_EN.txt	BEE	8	13	[0, 0, 0]	n/a	FR1	2	R1243T
1615.428	0.8	1443274	WORD_OFF	n/a	n/a	BEE	8	13	[0, 0, 0]	n/a	FR1	2	R1243T
1616.228	1.601	1444074	WORD	n/a	wordpools/wordpool_EN.txt	LOCK	9	13	[0, 0, 0]	n/a	FR1	2	R1243T
1617.829	1.017	1445675	WORD_OFF	n/a	n/a	LOCK	9	13	[0, 0, 0]	n/a	FR1	2	R1243T
1618.846	1.617	1446692	WORD	n/a	wordpools/wordpool_EN.txt	FOOD	10	13	[0, 0, 0]	n/a	FR1	2	R1243T
1620.463	0.833	1448309	WORD_OFF	n/a	n/a	FOOD	10	13	[0, 0, 0]	n/a	FR1	2	R1243T
1621.296	1.617	1449142	WORD	n/a	wordpools/wordpool_EN.txt	SEAL	11	13	[0, 0, 0]	n/a	FR1	2	R1243T
1622.913	0.917	1450759	WORD_OFF	n/a	n/a	SEAL	11	13	[0, 0, 0]	n/a	FR1	2	R1243T
1623.83	1.617	1451676	WORD	n/a	wordpools/wordpool_EN.txt	PHONE	12	13	[0, 0, 0]	n/a	FR1	2	R1243T
1625.447	0.0	1453293	DISTRACT_START	n/a	n/a	n/a	-999	13	[0, 0, 0]	n/a	FR1	2	R1243T
1625.447	0.001	1453293	WORD_OFF	n/a	n/a	PHONE	12	13	[0, 0, 0]	n/a	FR1	2	R1243T
1625.448	0.016	1453294	START	n/a	n/a	n/a	-999	13	[-999, -999, -999]	n/a	FR1	2	R1243T
1625.464	6.65	1453310	PROB	6.65	n/a	n/a	-999	13	[8, 4, 8]	20	FR1	2	R1243T
1632.114	3.685	1459959	PROB	3.685	n/a	n/a	-999	13	[7, 7, 7]	21	FR1	2	R1243T
1635.799	4.667	1463644	PROB	4.667	n/a	n/a	-999	13	[3, 2, 4]	9	FR1	2	R1243T
1640.466	8.169	1468311	PROB	8.169	n/a	n/a	-999	13	[9, 8, 5]	21	FR1	2	R1243T
1648.635	0.016	1476479	STOP	n/a	n/a	n/a	-999	13	[-999, -999, -999]	n/a	FR1	2	R1243T
1648.651	0.634	1476495	DISTRACT_END	n/a	n/a	n/a	-999	13	[0, 0, 0]	n/a	FR1	2	R1243T
1649.285	0.517	1477129	RETRIEVAL_ORIENT	n/a	n/a	n/a	-999	13	[0, 0, 0]	n/a	FR1	2	R1243T
1649.802	1.432	1477646	REC_START	n/a	n/a	n/a	-999	13	[0, 0, 0]	n/a	FR1	2	R1243T
1651.234	3.642	1479078	REC_WORD_VV	3.642	n/a	<>	-999	13	[0, 0, 0]	n/a	FR1	2	R1243T
1654.876	5.134	1482720	REC_WORD	5.134	n/a	SEAL	-999	13	[0, 0, 0]	n/a	FR1	2	R1243T
1660.01	5.23	1487854	REC_WORD	5.23	n/a	POT	-999	13	[0, 0, 0]	n/a	FR1	2	R1243T
1665.24	6.296	1493083	REC_WORD	6.296	n/a	TREE	-999	13	[0, 0, 0]	n/a	FR1	2	R1243T
1671.536	8.277	1499379	REC_WORD	8.277	n/a	GRASS	-999	13	[0, 0, 0]	n/a	FR1	2	R1243T
1679.813	5.411	1507655	REC_END	n/a	n/a	n/a	-999	13	[0, 0, 0]	n/a	FR1	2	R1243T
1685.224	0.5	1513066	TRIAL	n/a	n/a	n/a	-999	14	[0, 0, 0]	n/a	FR1	2	R1243T
1685.724	10.428	1513566	COUNTDOWN_START	n/a	n/a	n/a	-999	14	[0, 0, 0]	n/a	FR1	2	R1243T
1696.152	0.007	1523993	COUNTDOWN_END	n/a	n/a	n/a	-999	14	[0, 0, 0]	n/a	FR1	2	R1243T
1696.159	1.618	1524000	ORIENT	n/a	n/a	n/a	-999	14	[0, 0, 0]	n/a	FR1	2	R1243T
1697.777	1.984	1525618	ORIENT_OFF	n/a	n/a	n/a	-999	14	[0, 0, 0]	n/a	FR1	2	R1243T
1699.761	1.617	1527602	WORD	n/a	wordpools/wordpool_EN.txt	BOARD	1	14	[0, 0, 0]	n/a	FR1	2	R1243T
1701.378	0.933	1529219	WORD_OFF	n/a	n/a	BOARD	1	14	[0, 0, 0]	n/a	FR1	2	R1243T
1702.311	1.617	1530152	WORD	n/a	wordpools/wordpool_EN.txt	SLUSH	2	14	[0, 0, 0]	n/a	FR1	2	R1243T
1703.928	0.867	1531769	WORD_OFF	n/a	n/a	SLUSH	2	14	[0, 0, 0]	n/a	FR1	2	R1243T
1704.795	1.617	1532636	WORD	n/a	wordpools/wordpool_EN.txt	LAKE	3	14	[0, 0, 0]	n/a	FR1	2	R1243T
1706.412	0.983	1534253	WORD_OFF	n/a	n/a	LAKE	3	14	[0, 0, 0]	n/a	FR1	2	R1243T
1707.395	1.617	1535236	WORD	n/a	wordpools/wordpool_EN.txt	BOAT	4	14	[0, 0, 0]	n/a	FR1	2	R1243T
1709.012	0.934	1536853	WORD_OFF	n/a	n/a	BOAT	4	14	[0, 0, 0]	n/a	FR1	2	R1243T
1709.946	1.617	1537787	WORD	n/a	wordpools/wordpool_EN.txt	PASTE	5	14	[0, 0, 0]	n/a	FR1	2	R1243T
1711.563	0.8	1539404	WORD_OFF	n/a	n/a	PASTE	5	14	[0, 0, 0]	n/a	FR1	2	R1243T
1712.363	1.617	1540204	WORD	n/a	wordpools/wordpool_EN.txt	JUICE	6	14	[0, 0, 0]	n/a	FR1	2	R1243T
1713.98	0.9	1541820	WORD_OFF	n/a	n/a	JUICE	6	14	[0, 0, 0]	n/a	FR1	2	R1243T
1714.88	1.617	1542720	WORD	n/a	wordpools/wordpool_EN.txt	CLOCK	7	14	[0, 0, 0]	n/a	FR1	2	R1243T
1716.497	1.0	1544337	WORD_OFF	n/a	n/a	CLOCK	7	14	[0, 0, 0]	n/a	FR1	2	R1243T
1717.497	1.616	1545337	WORD	n/a	wordpools/wordpool_EN.txt	STEAK	8	14	[0, 0, 0]	n/a	FR1	2	R1243T
1719.113	0.868	1546953	WORD_OFF	n/a	n/a	STEAK	8	14	[0, 0, 0]	n/a	FR1	2	R1243T
1719.981	1.617	1547821	WORD	n/a	wordpools/wordpool_EN.txt	SHIRT	9	14	[0, 0, 0]	n/a	FR1	2	R1243T
1721.598	0.85	1549438	WORD_OFF	n/a	n/a	SHIRT	9	14	[0, 0, 0]	n/a	FR1	2	R1243T
1722.448	1.617	1550288	WORD	n/a	wordpools/wordpool_EN.txt	BOY	10	14	[0, 0, 0]	n/a	FR1	2	R1243T
1724.065	0.884	1551905	WORD_OFF	n/a	n/a	BOY	10	14	[0, 0, 0]	n/a	FR1	2	R1243T
1724.949	1.616	1552789	WORD	n/a	wordpools/wordpool_EN.txt	SHEET	11	14	[0, 0, 0]	n/a	FR1	2	R1243T
1726.565	0.767	1554405	WORD_OFF	n/a	n/a	SHEET	11	14	[0, 0, 0]	n/a	FR1	2	R1243T
1727.332	1.617	1555172	WORD	n/a	wordpools/wordpool_EN.txt	BAND	12	14	[0, 0, 0]	n/a	FR1	2	R1243T
1728.949	0.0	1556789	WORD_OFF	n/a	n/a	BAND	12	14	[0, 0, 0]	n/a	FR1	2	R1243T
1728.949	0.001	1556789	DISTRACT_START	n/a	n/a	n/a	-999	14	[0, 0, 0]	n/a	FR1	2	R1243T
1728.95	0.016	1556790	START	n/a	n/a	n/a	-999	14	[-999, -999, -999]	n/a	FR1	2	R1243T
1728.966	7.234	1556806	PROB	7.234	n/a	n/a	-999	14	[7, 2, 4]	13	FR1	2	R1243T
1736.2	3.301	1564039	PROB	3.301	n/a	n/a	-999	14	[4, 4, 4]	12	FR1	2	R1243T
1739.501	12.742	1567340	PROB	12.742	n/a	n/a	-999	14	[2, 7, 3]	12	FR1	2	R1243T
1752.243	0.01	1580081	STOP	n/a	n/a	n/a	-999	14	[-999, -999, -999]	n/a	FR1	2	R1243T
1752.253	0.651	1580091	DISTRACT_END	n/a	n/a	n/a	-999	14	[0, 0, 0]	n/a	FR1	2	R1243T
1752.904	0.521	1580742	RETRIEVAL_ORIENT	n/a	n/a	n/a	-999	14	[0, 0, 0]	n/a	FR1	2	R1243T
1753.425	24.724	1581263	REC_START	n/a	n/a	n/a	-999	14	[0, 0, 0]	n/a	FR1	2	R1243T
1778.149	2.841	1605986	REC_WORD	2.841	n/a	HAIR	-999	14	[0, 0, 0]	n/a	FR1	2	R1243T
1780.99	2.442	1608826	REC_WORD	2.442	n/a	PEACH	-999	14	[0, 0, 0]	n/a	FR1	2	R1243T
1783.432	4.378	1611268	REC_END	n/a	n/a	n/a	-999	14	[0, 0, 0]	n/a	FR1	2	R1243T
1787.81	0.5	1615646	TRIAL	n/a	n/a	n/a	-999	15	[0, 0, 0]	n/a	FR1	2	R1243T
1788.31	10.428	1616146	COUNTDOWN_START	n/a	n/a	n/a	-999	15	[0, 0, 0]	n/a	FR1	2	R1243T
1798.738	0.007	1626573	COUNTDOWN_END	n/a	n/a	n/a	-999	15	[0, 0, 0]	n/a	FR1	2	R1243T
1798.745	1.617	1626580	ORIENT	n/a	n/a	n/a	-999	15	[0, 0, 0]	n/a	FR1	2	R1243T
1800.362	1.917	1628197	ORIENT_OFF	n/a	n/a	n/a	-999	15	[0, 0, 0]	n/a	FR1	2	R1243T
1802.279	1.617	1630114	WORD	n/a	wordpools/wordpool_EN.txt	TEA	1	15	[0, 0, 0]	n/a	FR1	2	R1243T
1803.896	0.984	1631731	WORD_OFF	n/a	n/a	TEA	1	15	[0, 0, 0]	n/a	FR1	2	R1243T
1804.88	1.617	1632715	WORD	n/a	wordpools/wordpool_EN.txt	STEM	2	15	[0, 0, 0]	n/a	FR1	2	R1243T
1806.497	0.933	1634332	WORD_OFF	n/a	n/a	STEM	2	15	[0, 0, 0]	n/a	FR1	2	R1243T
1807.43	1.617	1635265	WORD	n/a	wordpools/wordpool_EN.txt	SNOW	3	15	[0, 0, 0]	n/a	FR1	2	R1243T
1809.047	0.767	1636882	WORD_OFF	n/a	n/a	SNOW	3	15	[0, 0, 0]	n/a	FR1	2	R1243T
1809.814	1.617	1637649	WORD	n/a	wordpools/wordpool_EN.txt	HAT	4	15	[0, 0, 0]	n/a	FR1	2	R1243T
1811.431	0.983	1639266	WORD_OFF	n/a	n/a	HAT	4	15	[0, 0, 0]	n/a	FR1	2	R1243T
1812.414	1.617	1640248	WORD	n/a	wordpools/wordpool_EN.txt	VINE	5	15	[0, 0, 0]	n/a	FR1	2	R1243T
1814.031	0.767	1641865	WORD_OFF	n/a	n/a	VINE	5	15	[0, 0, 0]	n/a	FR1	2	R1243T
1814.798	1.617	1642632	WORD	n/a	wordpools/wordpool_EN.txt	EEL	6	15	[0, 0, 0]	n/a	FR1	2	R1243T
1816.415	0.917	1644249	WORD_OFF	n/a	n/a	EEL	6	15	[0, 0, 0]	n/a	FR1	2	R1243T
1817.332	1.617	1645166	WORD	n/a	wordpools/wordpool_EN.txt	DRUM	7	15	[0, 0, 0]	n/a	FR1	2	R1243T
1818.949	0.95	1646783	WORD_OFF	n/a	n/a	DRUM	7	15	[0, 0, 0]	n/a	FR1	2	R1243T
1819.899	1.617	1647733	WORD	n/a	wordpools/wordpool_EN.txt	PIE	8	15	[0, 0, 0]	n/a	FR1	2	R1243T
1821.516	0.95	1649350	WORD_OFF	n/a	n/a	PIE	8	15	[0, 0, 0]	n/a	FR1	2	R1243T
1822.466	1.617	1650300	WORD	n/a	wordpools/wordpool_EN.txt	COUCH	9	15	[0, 0, 0]	n/a	FR1	2	R1243T
1824.083	0.9	1651917	WORD_OFF	n/a	n/a	COUCH	9	15	[0, 0, 0]	n/a	FR1	2	R1243T
1824.983	1.617	1652817	WORD	n/a	wordpools/wordpool_EN.txt	FAN	10	15	[0, 0, 0]	n/a	FR1	2	R1243T
1826.6	0.867	1654434	WORD_OFF	n/a	n/a	FAN	10	15	[0, 0, 0]	n/a	FR1	2	R1243T
1827.467	1.617	1655301	WORD	n/a	wordpools/wordpool_EN.txt	FUR	11	15	[0, 0, 0]	n/a	FR1	2	R1243T
1829.084	0.834	1656917	WORD_OFF	n/a	n/a	FUR	11	15	[0, 0, 0]	n/a	FR1	2	R1243T
1829.918	1.617	1657751	WORD	n/a	wordpools/wordpool_EN.txt	HAWK	12	15	[0, 0, 0]	n/a	FR1	2	R1243T
1831.535	0.0	1659368	WORD_OFF	n/a	n/a	HAWK	12	15	[0, 0, 0]	n/a	FR1	2	R1243T
1831.535	0.0	1659368	DISTRACT_START	n/a	n/a	n/a	-999	15	[0, 0, 0]	n/a	FR1	2	R1243T
1831.535	0.016	1659368	START	n/a	n/a	n/a	-999	15	[-999, -999, -999]	n/a	FR1	2	R1243T
1831.551	7.235	1659384	PROB	7.235	n/a	n/a	-999	15	[6, 6, 2]	14	FR1	2	R1243T
1838.786	3.4	1666619	PROB	3.4	n/a	n/a	-999	15	[9, 8, 2]	21	FR1	2	R1243T
1842.186	7.119	1670019	PROB	7.119	n/a	n/a	-999	15	[3, 4, 3]	11	FR1	2	R1243T
1849.305	6.808	1677137	PROB	6.808	n/a	n/a	-999	15	[8, 3, 2]	13	FR1	2	R1243T
1856.113	0.008	1683945	STOP	n/a	n/a	n/a	-999	15	[-999, -999, -999]	n/a	FR1	2	R1243T
1856.121	0.652	1683953	DISTRACT_END	n/a	n/a	n/a	-999	15	[0, 0, 0]	n/a	FR1	2	R1243T
1856.773	0.517	1684605	RETRIEVAL_ORIENT	n/a	n/a	n/a	-999	15	[0, 0, 0]	n/a	FR1	2	R1243T
1857.29	1.259	1685122	REC_START	n/a	n/a	n/a	-999	15	[0, 0, 0]	n/a	FR1	2	R1243T
1858.549	28.752	1686381	REC_WORD_VV	28.752	n/a	<>	-999	15	[0, 0, 0]	n/a	FR1	2	R1243T
1887.301	4.745	1715131	REC_END	n/a	n/a	n/a	-999	15	[0, 0, 0]	n/a	FR1	2	R1243T
1892.046	0.5	1719876	TRIAL	n/a	n/a	n/a	-999	16	[0, 0, 0]	n/a	FR1	2	R1243T
1892.546	10.428	1720376	COUNTDOWN_START	n/a	n/a	n/a	-999	16	[0, 0, 0]	n/a	FR1	2	R1243T
1902.974	0.007	1730803	COUNTDOWN_END	n/a	n/a	n/a	-999	16	[0, 0, 0]	n/a	FR1	2	R1243T
1902.981	1.617	1730810	ORIENT	n/a	n/a	n/a	-999	16	[0, 0, 0]	n/a	FR1	2	R1243T
1904.598	2.034	1732427	ORIENT_OFF	n/a	n/a	n/a	-999	16	[0, 0, 0]	n/a	FR1	2	R1243T
1906.632	1.617	1734461	WORD	n/a	wordpools/wordpool_EN.txt	OWL	1	16	[0, 0, 0]	n/a	FR1	2	R1243T
1908.249	0.949	1736078	WORD_OFF	n/a	n/a	OWL	1	16	[0, 0, 0]	n/a	FR1	2	R1243T
1909.198	1.618	1737027	WORD	n/a	wordpools/wordpool_EN.txt	FENCE	2	16	[0, 0, 0]	n/a	FR1	2	R1243T
1910.816	0.883	1738645	WORD_OFF	n/a	n/a	FENCE	2	16	[0, 0, 0]	n/a	FR1	2	R1243T
1911.699	1.617	1739527	WORD	n/a	wordpools/wordpool_EN.txt	GRAPE	3	16	[0, 0, 0]	n/a	FR1	2	R1243T
1913.316	0.883	1741144	WORD_OFF	n/a	n/a	GRAPE	3	16	[0, 0, 0]	n/a	FR1	2	R1243T
1914.199	1.618	1742027	WORD	n/a	wordpools/wordpool_EN.txt	STICK	4	16	[0, 0, 0]	n/a	FR1	2	R1243T
1915.817	0.783	1743645	WORD_OFF	n/a	n/a	STICK	4	16	[0, 0, 0]	n/a	FR1	2	R1243T
1916.6	1.616	1744428	WORD	n/a	wordpools/wordpool_EN.txt	BALL	5	16	[0, 0, 0]	n/a	FR1	2	R1243T
1918.216	0.768	1746044	WORD_OFF	n/a	n/a	BALL	5	16	[0, 0, 0]	n/a	FR1	2	R1243T
1918.984	1.617	1746812	WORD	n/a	wordpools/wordpool_EN.txt	BAG	6	16	[0, 0, 0]	n/a	FR1	2	R1243T
1920.601	0.917	1748429	WORD_OFF	n/a	n/a	BAG	6	16	[0, 0, 0]	n/a	FR1	2	R1243T
1921.518	1.616	1749346	WORD	n/a	wordpools/wordpool_EN.txt	VEST	7	16	[0, 0, 0]	n/a	FR1	2	R1243T
1923.134	0.817	1750962	WORD_OFF	n/a	n/a	VEST	7	16	[0, 0, 0]	n/a	FR1	2	R1243T
1923.951	1.617	1751779	WORD	n/a	wordpools/wordpool_EN.txt	DOCK	8	16	[0, 0, 0]	n/a	FR1	2	R1243T
1925.568	0.951	1753396	WORD_OFF	n/a	n/a	DOCK	8	16	[0, 0, 0]	n/a	FR1	2	R1243T
1926.519	1.616	1754347	WORD	n/a	wordpools/wordpool_EN.txt	HILL	9	16	[0, 0, 0]	n/a	FR1	2	R1243T
1928.135	0.917	1755962	WORD_OFF	n/a	n/a	HILL	9	16	[0, 0, 0]	n/a	FR1	2	R1243T
1929.052	1.617	1756879	WORD	n/a	wordpools/wordpool_EN.txt	DIME	10	16	[0, 0, 0]	n/a	FR1	2	R1243T
1930.669	0.767	1758496	WORD_OFF	n/a	n/a	DIME	10	16	[0, 0, 0]	n/a	FR1	2	R1243T
1931.436	1.617	1759263	WORD	n/a	wordpools/wordpool_EN.txt	CLOTH	11	16	[0, 0, 0]	n/a	FR1	2	R1243T
1933.053	0.834	1760880	WORD_OFF	n/a	n/a	CLOTH	11	16	[0, 0, 0]	n/a	FR1	2	R1243T
1933.887	1.617	1761714	WORD	n/a	wordpools/wordpool_EN.txt	FUDGE	12	16	[0, 0, 0]	n/a	FR1	2	R1243T
1935.504	0.0	1763331	WORD_OFF	n/a	n/a	FUDGE	12	16	[0, 0, 0]	n/a	FR1	2	R1243T
1935.504	0.0	1763331	DISTRACT_START	n/a	n/a	n/a	-999	16	[0, 0, 0]	n/a	FR1	2	R1243T
1935.504	0.016	1763331	START	n/a	n/a	n/a	-999	16	[-999, -999, -999]	n/a	FR1	2	R1243T
1935.52	5.268	1763347	PROB	5.268	n/a	n/a	-999	16	[2, 9, 1]	12	FR1	2	R1243T
1940.788	6.333	1768615	PROB	6.333	n/a	n/a	-999	16	[4, 9, 6]	19	FR1	2	R1243T
1947.121	5.051	1774947	PROB	5.051	n/a	n/a	-999	16	[1, 9, 8]	18	FR1	2	R1243T
1952.172	9.695	1779998	PROB	9.695	n/a	n/a	-999	16	[4, 3, 6]	13	FR1	2	R1243T
1961.867	0.008	1789692	STOP	n/a	n/a	n/a	-999	16	[-999, -999, -999]	n/a	FR1	2	R1243T
1961.875	0.6	1789700	DISTRACT_END	n/a	n/a	n/a	-999	16	[0, 0, 0]	n/a	FR1	2	R1243T
1962.475	0.518	1790300	RETRIEVAL_ORIENT	n/a	n/a	n/a	-999	16	[0, 0, 0]	n/a	FR1	2	R1243T
1962.993	2.199	1790818	REC_START	n/a	n/a	n/a	-999	16	[0, 0, 0]	n/a	FR1	2	R1243T
1965.192	1.151	1793017	REC_WORD	1.151	n/a	OWL	-999	16	[0, 0, 0]	n/a	FR1	2	R1243T
1966.343	11.804	1794168	REC_WORD	11.804	n/a	FENCE	-999	16	[0, 0, 0]	n/a	FR1	2	R1243T
1978.147	10.233	1805971	REC_WORD	10.233	n/a	FIX	-999	16	[0, 0, 0]	n/a	FR1	2	R1243T
1988.38	4.623	1816204	REC_WORD	4.623	n/a	STEAK	-999	16	[0, 0, 0]	n/a	FR1	2	R1243T
1993.003	7.363	1820827	REC_END	n/a	n/a	n/a	-999	16	[0, 0, 0]	n/a	FR1	2	R1243T
2000.366	0.5	1828189	TRIAL	n/a	n/a	n/a	-999	17	[0, 0, 0]	n/a	FR1	2	R1243T
2000.866	10.428	1828689	COUNTDOWN_START	n/a	n/a	n/a	-999	17	[0, 0, 0]	n/a	FR1	2	R1243T
2011.294	0.007	1839116	COUNTDOWN_END	n/a	n/a	n/a	-999	17	[0, 0, 0]	n/a	FR1	2	R1243T
2011.301	1.617	1839123	ORIENT	n/a	n/a	n/a	-999	17	[0, 0, 0]	n/a	FR1	2	R1243T
2012.918	2.016	1840740	ORIENT_OFF	n/a	n/a	n/a	-999	17	[0, 0, 0]	n/a	FR1	2	R1243T
2014.934	1.601	1842756	WORD	n/a	wordpools/wordpool_EN.txt	RAT	1	17	[0, 0, 0]	n/a	FR1	2	R1243T
2016.535	0.95	1844357	WORD_OFF	n/a	n/a	RAT	1	17	[0, 0, 0]	n/a	FR1	2	R1243T
2017.485	1.616	1845307	WORD	n/a	wordpools/wordpool_EN.txt	BOX	2	17	[0, 0, 0]	n/a	FR1	2	R1243T
2019.101	0.801	1846923	WORD_OFF	n/a	n/a	BOX	2	17	[0, 0, 0]	n/a	FR1	2	R1243T
2019.902	1.617	1847724	WORD	n/a	wordpools/wordpool_EN.txt	SEA	3	17	[0, 0, 0]	n/a	FR1	2	R1243T
2021.519	0.784	1849341	WORD_OFF	n/a	n/a	SEA	3	17	[0, 0, 0]	n/a	FR1	2	R1243T
2022.303	1.617	1850125	WORD	n/a	wordpools/wordpool_EN.txt	BIRD	4	17	[0, 0, 0]	n/a	FR1	2	R1243T
2023.92	0.867	1851742	WORD_OFF	n/a	n/a	BIRD	4	17	[0, 0, 0]	n/a	FR1	2	R1243T
2024.787	1.616	1852609	WORD	n/a	wordpools/wordpool_EN.txt	DRESS	5	17	[0, 0, 0]	n/a	FR1	2	R1243T
2026.403	0.884	1854225	WORD_OFF	n/a	n/a	DRESS	5	17	[0, 0, 0]	n/a	FR1	2	R1243T
2027.287	1.617	1855108	WORD	n/a	wordpools/wordpool_EN.txt	CUBE	6	17	[0, 0, 0]	n/a	FR1	2	R1243T
2028.904	0.967	1856725	WORD_OFF	n/a	n/a	CUBE	6	17	[0, 0, 0]	n/a	FR1	2	R1243T
2029.871	1.617	1857692	WORD	n/a	wordpools/wordpool_EN.txt	BRICK	7	17	[0, 0, 0]	n/a	FR1	2	R1243T
2031.488	0.8	1859309	WORD_OFF	n/a	n/a	BRICK	7	17	[0, 0, 0]	n/a	FR1	2	R1243T
2032.288	1.617	1860109	WORD	n/a	wordpools/wordpool_EN.txt	SIGN	8	17	[0, 0, 0]	n/a	FR1	2	R1243T
2033.905	0.883	1861726	WORD_OFF	n/a	n/a	SIGN	8	17	[0, 0, 0]	n/a	FR1	2	R1243T
2034.788	1.617	1862609	WORD	n/a	wordpools/wordpool_EN.txt	SWAMP	9	17	[0, 0, 0]	n/a	FR1	2	R1243T
2036.405	0.917	1864226	WORD_OFF	n/a	n/a	SWAMP	9	17	[0, 0, 0]	n/a	FR1	2	R1243T
2037.322	1.617	1865143	WORD	n/a	wordpools/wordpool_EN.txt	BRUSH	10	17	[0, 0, 0]	n/a	FR1	2	R1243T
2038.939	0.967	1866760	WORD_OFF	n/a	n/a	BRUSH	10	17	[0, 0, 0]	n/a	FR1	2	R1243T
2039.906	1.617	1867727	WORD	n/a	wordpools/wordpool_EN.txt	BARN	11	17	[0, 0, 0]	n/a	FR1	2	R1243T
2041.523	0.934	1869344	WORD_OFF	n/a	n/a	BARN	11	17	[0, 0, 0]	n/a	FR1	2	R1243T
2042.457	1.616	1870278	WORD	n/a	wordpools/wordpool_EN.txt	GATE	12	17	[0, 0, 0]	n/a	FR1	2	R1243T
2044.073	0.0	1871893	WORD_OFF	n/a	n/a	GATE	12	17	[0, 0, 0]	n/a	FR1	2	R1243T
2044.073	0.001	1871893	DISTRACT_START	n/a	n/a	n/a	-999	17	[0, 0, 0]	n/a	FR1	2	R1243T
2044.074	0.016	1871894	START	n/a	n/a	n/a	-999	17	[-999, -999, -999]	n/a	FR1	2	R1243T
2044.09	6.451	1871910	PROB	6.451	n/a	n/a	-999	17	[5, 2, 7]	14	FR1	2	R1243T
2050.541	4.567	1878361	PROB	4.567	n/a	n/a	-999	17	[9, 1, 5]	15	FR1	2	R1243T
2055.108	6.685	1882928	PROB	6.685	n/a	n/a	-999	17	[9, 9, 6]	24	FR1	2	R1243T
2061.793	3.946	1889612	PROB	3.946	n/a	n/a	-999	17	[1, 1, 1]	3	FR1	2	R1243T
2065.739	0.022	1893558	STOP	n/a	n/a	n/a	-999	17	[-999, -999, -999]	n/a	FR1	2	R1243T
2065.761	0.55	1893580	DISTRACT_END	n/a	n/a	n/a	-999	17	[0, 0, 0]	n/a	FR1	2	R1243T
2066.311	0.523	1894130	RETRIEVAL_ORIENT	n/a	n/a	n/a	-999	17	[0, 0, 0]	n/a	FR1	2	R1243T
2066.834	7.662	1894653	REC_START	n/a	n/a	n/a	-999	17	[0, 0, 0]	n/a	FR1	2	R1243T
2074.496	8.16	1902315	REC_WORD_VV	8.16	n/a	<>	-999	17	[0, 0, 0]	n/a	FR1	2	R1243T
2082.656	6.028	1910474	REC_WORD	6.028	n/a	BITE	-999	17	[0, 0, 0]	n/a	FR1	2	R1243T
2088.684	6.258	1916502	REC_WORD	6.258	n/a	SEED	-999	17	[0, 0, 0]	n/a	FR1	2	R1243T
2094.942	1.899	1922759	REC_WORD	1.899	n/a	GRAPE	-999	17	[0, 0, 0]	n/a	FR1	2	R1243T
2096.841	5.443	1924658	REC_END	n/a	n/a	n/a	-999	17	[0, 0, 0]	n/a	FR1	2	R1243T
2102.284	0.5	1930101	TRIAL	n/a	n/a	n/a	-999	18	[0, 0, 0]	n/a	FR1	2	R1243T
2102.784	10.428	1930601	COUNTDOWN_START	n/a	n/a	n/a	-999	18	[0, 0, 0]	n/a	FR1	2	R1243T
2113.212	0.006	1941028	COUNTDOWN_END	n/a	n/a	n/a	-999	18	[0, 0, 0]	n/a	FR1	2	R1243T
2113.218	1.618	1941034	ORIENT	n/a	n/a	n/a	-999	18	[0, 0, 0]	n/a	FR1	2	R1243T
2114.836	2.283	1942652	ORIENT_OFF	n/a	n/a	n/a	-999	18	[0, 0, 0]	n/a	FR1	2	R1243T
2117.119	1.618	1944935	WORD	n/a	wordpools/wordpool_EN.txt	JEEP	1	18	[0, 0, 0]	n/a	FR1	2	R1243T
2118.737	0.884	1946553	WORD_OFF	n/a	n/a	JEEP	1	18	[0, 0, 0]	n/a	FR1	2	R1243T
2119.621	1.615	1947437	WORD	n/a	wordpools/wordpool_EN.txt	ARM	2	18	[0, 0, 0]	n/a	FR1	2	R1243T
2121.236	0.785	1949052	WORD_OFF	n/a	n/a	ARM	2	18	[0, 0, 0]	n/a	FR1	2	R1243T
2122.021	1.617	1949837	WORD	n/a	wordpools/wordpool_EN.txt	LEG	3	18	[0, 0, 0]	n/a	FR1	2	R1243T
2123.638	0.933	1951454	WORD_OFF	n/a	n/a	LEG	3	18	[0, 0, 0]	n/a	FR1	2	R1243T
2124.571	1.616	1952387	WORD	n/a	wordpools/wordpool_EN.txt	BUSH	4	18	[0, 0, 0]	n/a	FR1	2	R1243T
2126.187	0.802	1954003	WORD_OFF	n/a	n/a	BUSH	4	18	[0, 0, 0]	n/a	FR1	2	R1243T
2126.989	1.616	1954804	WORD	n/a	wordpools/wordpool_EN.txt	FOOT	5	18	[0, 0, 0]	n/a	FR1	2	R1243T
2128.605	1.001	1956420	WORD_OFF	n/a	n/a	FOOT	5	18	[0, 0, 0]	n/a	FR1	2	R1243T
2129.606	1.616	1957421	WORD	n/a	wordpools/wordpool_EN.txt	BROOM	6	18	[0, 0, 0]	n/a	FR1	2	R1243T
2131.222	0.784	1959037	WORD_OFF	n/a	n/a	BROOM	6	18	[0, 0, 0]	n/a	FR1	2	R1243T
2132.006	1.617	1959821	WORD	n/a	wordpools/wordpool_EN.txt	CHALK	7	18	[0, 0, 0]	n/a	FR1	2	R1243T
2133.623	0.9	1961438	WORD_OFF	n/a	n/a	CHALK	7	18	[0, 0, 0]	n/a	FR1	2	R1243T
2134.523	1.616	1962338	WORD	n/a	wordpools/wordpool_EN.txt	APE	8	18	[0, 0, 0]	n/a	FR1	2	R1243T
2136.139	0.785	1963954	WORD_OFF	n/a	n/a	APE	8	18	[0, 0, 0]	n/a	FR1	2	R1243T
2136.924	1.617	1964739	WORD	n/a	wordpools/wordpool_EN.txt	HEART	9	18	[0, 0, 0]	n/a	FR1	2	R1243T
2138.541	0.95	1966356	WORD_OFF	n/a	n/a	HEART	9	18	[0, 0, 0]	n/a	FR1	2	R1243T
2139.491	1.616	1967306	WORD	n/a	wordpools/wordpool_EN.txt	CHIN	10	18	[0, 0, 0]	n/a	FR1	2	R1243T
2141.107	0.784	1968922	WORD_OFF	n/a	n/a	CHIN	10	18	[0, 0, 0]	n/a	FR1	2	R1243T
2141.891	1.617	1969706	WORD	n/a	wordpools/wordpool_EN.txt	HORSE	11	18	[0, 0, 0]	n/a	FR1	2	R1243T
2143.508	0.967	1971322	WORD_OFF	n/a	n/a	HORSE	11	18	[0, 0, 0]	n/a	FR1	2	R1243T
2144.475	1.617	1972289	WORD	n/a	wordpools/wordpool_EN.txt	PEN	12	18	[0, 0, 0]	n/a	FR1	2	R1243T
2146.092	0.0	1973906	DISTRACT_START	n/a	n/a	n/a	-999	18	[0, 0, 0]	n/a	FR1	2	R1243T
2146.092	0.001	1973906	WORD_OFF	n/a	n/a	PEN	12	18	[0, 0, 0]	n/a	FR1	2	R1243T
2146.093	0.015	1973907	START	n/a	n/a	n/a	-999	18	[-999, -999, -999]	n/a	FR1	2	R1243T
2146.108	4.818	1973922	PROB	4.818	n/a	n/a	-999	18	[9, 1, 1]	11	FR1	2	R1243T
2150.926	6.818	1978740	PROB	6.818	n/a	n/a	-999	18	[7, 9, 7]	23	FR1	2	R1243T
2157.744	6.685	1985558	PROB	6.685	n/a	n/a	-999	18	[2, 9, 7]	18	FR1	2	R1243T
2164.429	4.527	1992242	PROB	4.527	n/a	n/a	-999	18	[8, 2, 6]	16	FR1	2	R1243T
2168.956	0.007	1996769	STOP	n/a	n/a	n/a	-999	18	[-999, -999, -999]	n/a	FR1	2	R1243T
2168.963	0.7	1996776	DISTRACT_END	n/a	n/a	n/a	-999	18	[0, 0, 0]	n/a	FR1	2	R1243T
2169.663	0.516	1997476	RETRIEVAL_ORIENT	n/a	n/a	n/a	-999	18	[0, 0, 0]	n/a	FR1	2	R1243T
2170.179	1.576	1997992	REC_START	n/a	n/a	n/a	-999	18	[0, 0, 0]	n/a	FR1	2	R1243T
2171.755	1.463	1999568	REC_WORD	1.463	n/a	HORSE	-999	18	[0, 0, 0]	n/a	FR1	2	R1243T
2173.218	3.739	2001031	REC_WORD	3.739	n/a	PEN	-999	18	[0, 0, 0]	n/a	FR1	2	R1243T
2176.957	1.85	2004769	REC_WORD	1.85	n/a	LEG	-999	18	[0, 0, 0]	n/a	FR1	2	R1243T
2178.807	2.096	2006619	REC_WORD	2.096	n/a	ARM	-999	18	[0, 0, 0]	n/a	FR1	2	R1243T
2180.903	2.321	2008715	REC_WORD	2.321	n/a	FOOT	-999	18	[0, 0, 0]	n/a	FR1	2	R1243T
2183.224	3.749	2011036	REC_WORD	3.749	n/a	CHIN	-999	18	[0, 0, 0]	n/a	FR1	2	R1243T
2186.973	13.218	2014785	REC_WORD	13.218	n/a	HAND	-999	18	[0, 0, 0]	n/a	FR1	2	R1243T
2200.191	6.978	2028002	REC_END	n/a	n/a	n/a	-999	18	[0, 0, 0]	n/a	FR1	2	R1243T
2207.169	0.5	2034980	TRIAL	n/a	n/a	n/a	-999	19	[0, 0, 0]	n/a	FR1	2	R1243T
2207.669	10.428	2035480	COUNTDOWN_START	n/a	n/a	n/a	-999	19	[0, 0, 0]	n/a	FR1	2	R1243T
2218.097	0.007	2045907	COUNTDOWN_END	n/a	n/a	n/a	-999	19	[0, 0, 0]	n/a	FR1	2	R1243T
2218.104	1.618	2045914	ORIENT	n/a	n/a	n/a	-999	19	[0, 0, 0]	n/a	FR1	2	R1243T
2219.722	2.134	2047532	ORIENT_OFF	n/a	n/a	n/a	-999	19	[0, 0, 0]	n/a	FR1	2	R1243T
2221.856	1.617	2049666	WORD	n/a	wordpools/wordpool_EN.txt	MILK	1	19	[0, 0, 0]	n/a	FR1	2	R1243T
2223.473	1.017	2051283	WORD_OFF	n/a	n/a	MILK	1	19	[0, 0, 0]	n/a	FR1	2	R1243T
2224.49	1.616	2052300	WORD	n/a	wordpools/wordpool_EN.txt	FISH	2	19	[0, 0, 0]	n/a	FR1	2	R1243T
2226.106	0.917	2053915	WORD_OFF	n/a	n/a	FISH	2	19	[0, 0, 0]	n/a	FR1	2	R1243T
2227.023	1.617	2054832	WORD	n/a	wordpools/wordpool_EN.txt	PURSE	3	19	[0, 0, 0]	n/a	FR1	2	R1243T
2228.64	0.884	2056449	WORD_OFF	n/a	n/a	PURSE	3	19	[0, 0, 0]	n/a	FR1	2	R1243T
2229.524	1.616	2057333	WORD	n/a	wordpools/wordpool_EN.txt	BRIDGE	4	19	[0, 0, 0]	n/a	FR1	2	R1243T
2231.14	0.934	2058949	WORD_OFF	n/a	n/a	BRIDGE	4	19	[0, 0, 0]	n/a	FR1	2	R1243T
2232.074	1.617	2059883	WORD	n/a	wordpools/wordpool_EN.txt	BEACH	5	19	[0, 0, 0]	n/a	FR1	2	R1243T
2233.691	0.917	2061500	WORD_OFF	n/a	n/a	BEACH	5	19	[0, 0, 0]	n/a	FR1	2	R1243T
2234.608	1.616	2062417	WORD	n/a	wordpools/wordpool_EN.txt	SMILE	6	19	[0, 0, 0]	n/a	FR1	2	R1243T
2236.224	0.967	2064033	WORD_OFF	n/a	n/a	SMILE	6	19	[0, 0, 0]	n/a	FR1	2	R1243T
2237.191	1.601	2065000	WORD	n/a	wordpools/wordpool_EN.txt	FROG	7	19	[0, 0, 0]	n/a	FR1	2	R1243T
2238.792	0.801	2066601	WORD_OFF	n/a	n/a	FROG	7	19	[0, 0, 0]	n/a	FR1	2	R1243T
2239.593	1.615	2067402	WORD	n/a	wordpools/wordpool_EN.txt	BOMB	8	19	[0, 0, 0]	n/a	FR1	2	R1243T
2241.208	0.802	2069017	WORD_OFF	n/a	n/a	BOMB	8	19	[0, 0, 0]	n/a	FR1	2	R1243T
2242.01	1.616	2069819	WORD	n/a	wordpools/wordpool_EN.txt	CONE	9	19	[0, 0, 0]	n/a	FR1	2	R1243T
2243.626	0.867	2071434	WORD_OFF	n/a	n/a	CONE	9	19	[0, 0, 0]	n/a	FR1	2	R1243T
2244.493	1.616	2072301	WORD	n/a	wordpools/wordpool_EN.txt	WHEEL	10	19	[0, 0, 0]	n/a	FR1	2	R1243T
2246.109	0.868	2073917	WORD_OFF	n/a	n/a	WHEEL	10	19	[0, 0, 0]	n/a	FR1	2	R1243T
2246.977	1.617	2074785	WORD	n/a	wordpools/wordpool_EN.txt	SCHOOL	11	19	[0, 0, 0]	n/a	FR1	2	R1243T
2248.594	0.8	2076402	WORD_OFF	n/a	n/a	SCHOOL	11	19	[0, 0, 0]	n/a	FR1	2	R1243T
2249.394	1.617	2077202	WORD	n/a	wordpools/wordpool_EN.txt	WORM	12	19	[0, 0, 0]	n/a	FR1	2	R1243T
2251.011	0.0	2078819	WORD_OFF	n/a	n/a	WORM	12	19	[0, 0, 0]	n/a	FR1	2	R1243T
2251.011	0.001	2078819	DISTRACT_START	n/a	n/a	n/a	-999	19	[0, 0, 0]	n/a	FR1	2	R1243T
2251.012	0.016	2078820	START	n/a	n/a	n/a	-999	19	[-999, -999, -999]	n/a	FR1	2	R1243T
2251.028	7.268	2078836	PROB	7.268	n/a	n/a	-999	19	[9, 4, 6]	19	FR1	2	R1243T
2258.296	4.8	2086104	PROB	4.8	n/a	n/a	-999	19	[9, 4, 9]	22	FR1	2	R1243T
2263.096	5.101	2090903	PROB	5.101	n/a	n/a	-999	19	[9, 4, 4]	17	FR1	2	R1243T
2268.197	6.862	2096004	PROB	6.862	n/a	n/a	-999	19	[9, 9, 6]	24	FR1	2	R1243T
2275.059	0.006	2102866	STOP	n/a	n/a	n/a	-999	19	[-999, -999, -999]	n/a	FR1	2	R1243T
2275.065	0.701	2102872	DISTRACT_END	n/a	n/a	n/a	-999	19	[0, 0, 0]	n/a	FR1	2	R1243T
2275.766	0.517	2103572	RETRIEVAL_ORIENT	n/a	n/a	n/a	-999	19	[0, 0, 0]	n/a	FR1	2	R1243T
2276.283	2.769	2104089	REC_START	n/a	n/a	n/a	-999	19	[0, 0, 0]	n/a	FR1	2	R1243T
2279.052	1.545	2106858	REC_WORD	1.545	n/a	FISH	-999	19	[0, 0, 0]	n/a	FR1	2	R1243T
2280.597	2.57	2108403	REC_WORD	2.57	n/a	BEACH	-999	19	[0, 0, 0]	n/a	FR1	2	R1243T
2283.167	8.981	2110973	REC_WORD	8.981	n/a	POND	-999	19	[0, 0, 0]	n/a	FR1	2	R1243T
2292.148	7.953	2119953	REC_WORD	7.953	n/a	CHALK	-999	19	[0, 0, 0]	n/a	FR1	2	R1243T
2300.101	6.193	2127906	REC_WORD	6.193	n/a	PEN	-999	19	[0, 0, 0]	n/a	FR1	2	R1243T
2306.294	6.062	2134099	REC_END	n/a	n/a	n/a	-999	19	[0, 0, 0]	n/a	FR1	2	R1243T
2312.356	0.5	2140160	TRIAL	n/a	n/a	n/a	-999	20	[0, 0, 0]	n/a	FR1	2	R1243T
2312.856	10.428	2140660	COUNTDOWN_START	n/a	n/a	n/a	-999	20	[0, 0, 0]	n/a	FR1	2	R1243T
2323.284	0.007	2151088	COUNTDOWN_END	n/a	n/a	n/a	-999	20	[0, 0, 0]	n/a	FR1	2	R1243T
2323.291	1.617	2151095	ORIENT	n/a	n/a	n/a	-999	20	[0, 0, 0]	n/a	FR1	2	R1243T
2324.908	2.067	2152712	ORIENT_OFF	n/a	n/a	n/a	-999	20	[0, 0, 0]	n/a	FR1	2	R1243T
2326.975	1.617	2154778	WORD	n/a	wordpools/wordpool_EN.txt	HORN	1	20	[0, 0, 0]	n/a	FR1	2	R1243T
2328.592	0.9	2156395	WORD_OFF	n/a	n/a	HORN	1	20	[0, 0, 0]	n/a	FR1	2	R1243T
2329.492	1.616	2157295	WORD	n/a	wordpools/wordpool_EN.txt	DOLL	2	20	[0, 0, 0]	n/a	FR1	2	R1243T
2331.108	0.868	2158911	WORD_OFF	n/a	n/a	DOLL	2	20	[0, 0, 0]	n/a	FR1	2	R1243T
2331.976	1.617	2159779	WORD	n/a	wordpools/wordpool_EN.txt	THUMB	3	20	[0, 0, 0]	n/a	FR1	2	R1243T
2333.593	0.817	2161396	WORD_OFF	n/a	n/a	THUMB	3	20	[0, 0, 0]	n/a	FR1	2	R1243T
2334.41	1.617	2162213	WORD	n/a	wordpools/wordpool_EN.txt	MULE	4	20	[0, 0, 0]	n/a	FR1	2	R1243T
2336.027	0.8	2163830	WORD_OFF	n/a	n/a	MULE	4	20	[0, 0, 0]	n/a	FR1	2	R1243T
2336.827	1.617	2164630	WORD	n/a	wordpools/wordpool_EN.txt	TOAD	5	20	[0, 0, 0]	n/a	FR1	2	R1243T
2338.444	0.85	2166247	WORD_OFF	n/a	n/a	TOAD	5	20	[0, 0, 0]	n/a	FR1	2	R1243T
2339.294	1.617	2167097	WORD	n/a	wordpools/wordpool_EN.txt	DEER	6	20	[0, 0, 0]	n/a	FR1	2	R1243T
2340.911	0.95	2168714	WORD_OFF	n/a	n/a	DEER	6	20	[0, 0, 0]	n/a	FR1	2	R1243T
2341.861	1.617	2169663	WORD	n/a	wordpools/wordpool_EN.txt	FRUIT	7	20	[0, 0, 0]	n/a	FR1	2	R1243T
2343.478	0.9	2171280	WORD_OFF	n/a	n/a	FRUIT	7	20	[0, 0, 0]	n/a	FR1	2	R1243T
2344.378	1.617	2172180	WORD	n/a	wordpools/wordpool_EN.txt	MUG	8	20	[0, 0, 0]	n/a	FR1	2	R1243T
2345.995	0.967	2173797	WORD_OFF	n/a	n/a	MUG	8	20	[0, 0, 0]	n/a	FR1	2	R1243T
2346.962	1.617	2174764	WORD	n/a	wordpools/wordpool_EN.txt	HOLE	9	20	[0, 0, 0]	n/a	FR1	2	R1243T
2348.579	1.0	2176381	WORD_OFF	n/a	n/a	HOLE	9	20	[0, 0, 0]	n/a	FR1	2	R1243T
2349.579	1.616	2177381	WORD	n/a	wordpools/wordpool_EN.txt	MOOSE	10	20	[0, 0, 0]	n/a	FR1	2	R1243T
2351.195	0.868	2178997	WORD_OFF	n/a	n/a	MOOSE	10	20	[0, 0, 0]	n/a	FR1	2	R1243T
2352.063	1.617	2179865	WORD	n/a	wordpools/wordpool_EN.txt	GOAT	11	20	[0, 0, 0]	n/a	FR1	2	R1243T
2353.68	0.9	2181482	WORD_OFF	n/a	n/a	GOAT	11	20	[0, 0, 0]	n/a	FR1	2	R1243T
2354.58	1.616	2182382	WORD	n/a	wordpools/wordpool_EN.txt	LAND	12	20	[0, 0, 0]	n/a	FR1	2	R1243T
2356.196	0.0	2183998	WORD_OFF	n/a	n/a	LAND	12	20	[0, 0, 0]	n/a	FR1	2	R1243T
2356.196	0.001	2183998	DISTRACT_START	n/a	n/a	n/a	-999	20	[0, 0, 0]	n/a	FR1	2	R1243T
2356.197	0.016	2183999	START	n/a	n/a	n/a	-999	20	[-999, -999, -999]	n/a	FR1	2	R1243T
2356.213	7.285	2184015	PROB	7.285	n/a	n/a	-999	20	[7, 1, 7]	15	FR1	2	R1243T
2363.498	4.501	2191299	PROB	4.501	n/a	n/a	-999	20	[4, 2, 2]	8	FR1	2	R1243T
2367.999	4.651	2195800	PROB	4.651	n/a	n/a	-999	20	[7, 4, 8]	19	FR1	2	R1243T
2372.65	5.433	2200451	PROB	5.433	n/a	n/a	-999	20	[7, 6, 2]	15	FR1	2	R1243T
2378.083	0.017	2205883	STOP	n/a	n/a	n/a	-999	20	[-999, -999, -999]	n/a	FR1	2	R1243T
2378.1	0.551	2205900	DISTRACT_END	n/a	n/a	n/a	-999	20	[0, 0, 0]	n/a	FR1	2	R1243T
2378.651	0.521	2206451	RETRIEVAL_ORIENT	n/a	n/a	n/a	-999	20	[0, 0, 0]	n/a	FR1	2	R1243T
2379.172	27.38	2206972	REC_START	n/a	n/a	n/a	-999	20	[0, 0, 0]	n/a	FR1	2	R1243T
2406.552	1.832	2234351	REC_WORD	1.832	n/a	FENCE	-999	20	[0, 0, 0]	n/a	FR1	2	R1243T
2408.384	0.796	2236182	REC_WORD	0.796	n/a	FIELD	-999	20	[0, 0, 0]	n/a	FR1	2	R1243T
2409.18	6.128	2236978	REC_END	n/a	n/a	n/a	-999	20	[0, 0, 0]	n/a	FR1	2	R1243T
2415.308	0.5	2243106	TRIAL	n/a	n/a	n/a	-999	21	[0, 0, 0]	n/a	FR1	2	R1243T
2415.808	10.428	2243606	COUNTDOWN_START	n/a	n/a	n/a	-999	21	[0, 0, 0]	n/a	FR1	2	R1243T
2426.236	0.006	2254033	COUNTDOWN_END	n/a	n/a	n/a	-999	21	[0, 0, 0]	n/a	FR1	2	R1243T
2426.242	1.601	2254039	ORIENT	n/a	n/a	n/a	-999	21	[0, 0, 0]	n/a	FR1	2	R1243T
2427.843	1.934	2255640	ORIENT_OFF	n/a	n/a	n/a	-999	21	[0, 0, 0]	n/a	FR1	2	R1243T
2429.777	1.617	2257574	WORD	n/a	wordpools/wordpool_EN.txt	SOCK	1	21	[0, 0, 0]	n/a	FR1	2	R1243T
2431.394	0.849	2259191	WORD_OFF	n/a	n/a	SOCK	1	21	[0, 0, 0]	n/a	FR1	2	R1243T
2432.243	1.601	2260040	WORD	n/a	wordpools/wordpool_EN.txt	PANTS	2	21	[0, 0, 0]	n/a	FR1	2	R1243T
2433.844	0.984	2261641	WORD_OFF	n/a	n/a	PANTS	2	21	[0, 0, 0]	n/a	FR1	2	R1243T
2434.828	1.617	2262625	WORD	n/a	wordpools/wordpool_EN.txt	GLOVE	3	21	[0, 0, 0]	n/a	FR1	2	R1243T
2436.445	0.817	2264242	WORD_OFF	n/a	n/a	GLOVE	3	21	[0, 0, 0]	n/a	FR1	2	R1243T
2437.262	1.617	2265059	WORD	n/a	wordpools/wordpool_EN.txt	SOAP	4	21	[0, 0, 0]	n/a	FR1	2	R1243T
2438.879	0.933	2266676	WORD_OFF	n/a	n/a	SOAP	4	21	[0, 0, 0]	n/a	FR1	2	R1243T
2439.812	1.617	2267609	WORD	n/a	wordpools/wordpool_EN.txt	RICE	5	21	[0, 0, 0]	n/a	FR1	2	R1243T
2441.429	0.917	2269225	WORD_OFF	n/a	n/a	RICE	5	21	[0, 0, 0]	n/a	FR1	2	R1243T
2442.346	1.617	2270142	WORD	n/a	wordpools/wordpool_EN.txt	OAK	6	21	[0, 0, 0]	n/a	FR1	2	R1243T
2443.963	0.9	2271759	WORD_OFF	n/a	n/a	OAK	6	21	[0, 0, 0]	n/a	FR1	2	R1243T
2444.863	1.617	2272659	WORD	n/a	wordpools/wordpool_EN.txt	ROOF	7	21	[0, 0, 0]	n/a	FR1	2	R1243T
2446.48	0.934	2274276	WORD_OFF	n/a	n/a	ROOF	7	21	[0, 0, 0]	n/a	FR1	2	R1243T
2447.414	1.617	2275210	WORD	n/a	wordpools/wordpool_EN.txt	SMOKE	8	21	[0, 0, 0]	n/a	FR1	2	R1243T
2449.031	0.85	2276827	WORD_OFF	n/a	n/a	SMOKE	8	21	[0, 0, 0]	n/a	FR1	2	R1243T
2449.881	1.617	2277677	WORD	n/a	wordpools/wordpool_EN.txt	PALM	9	21	[0, 0, 0]	n/a	FR1	2	R1243T
2451.498	0.85	2279294	WORD_OFF	n/a	n/a	PALM	9	21	[0, 0, 0]	n/a	FR1	2	R1243T
2452.348	1.617	2280144	WORD	n/a	wordpools/wordpool_EN.txt	WHALE	10	21	[0, 0, 0]	n/a	FR1	2	R1243T
2453.965	0.817	2281761	WORD_OFF	n/a	n/a	WHALE	10	21	[0, 0, 0]	n/a	FR1	2	R1243T
2454.782	1.617	2282578	WORD	n/a	wordpools/wordpool_EN.txt	FARM	11	21	[0, 0, 0]	n/a	FR1	2	R1243T
2456.399	0.782	2284195	WORD_OFF	n/a	n/a	FARM	11	21	[0, 0, 0]	n/a	FR1	2	R1243T
2457.181	1.618	2284977	WORD	n/a	wordpools/wordpool_EN.txt	DOOR	12	21	[0, 0, 0]	n/a	FR1	2	R1243T
2458.799	0.0	2286594	WORD_OFF	n/a	n/a	DOOR	12	21	[0, 0, 0]	n/a	FR1	2	R1243T
2458.799	0.001	2286594	DISTRACT_START	n/a	n/a	n/a	-999	21	[0, 0, 0]	n/a	FR1	2	R1243T
2458.8	0.016	2286595	START	n/a	n/a	n/a	-999	21	[-999, -999, -999]	n/a	FR1	2	R1243T
2458.816	7.134	2286611	PROB	7.134	n/a	n/a	-999	21	[1, 4, 8]	13	FR1	2	R1243T
2465.95	5.952	2293745	PROB	5.952	n/a	n/a	-999	21	[6, 7, 1]	14	FR1	2	R1243T
2471.902	3.767	2299697	PROB	3.767	n/a	n/a	-999	21	[5, 2, 5]	11	FR1	2	R1243T
2475.669	4.685	2303463	PROB	4.685	n/a	n/a	-999	21	[2, 6, 4]	10	FR1	2	R1243T
2480.354	0.016	2308148	STOP	n/a	n/a	n/a	-999	21	[-999, -999, -999]	n/a	FR1	2	R1243T
2480.37	0.7	2308164	DISTRACT_END	n/a	n/a	n/a	-999	21	[0, 0, 0]	n/a	FR1	2	R1243T
2481.07	0.517	2308864	RETRIEVAL_ORIENT	n/a	n/a	n/a	-999	21	[0, 0, 0]	n/a	FR1	2	R1243T
2481.587	23.932	2309381	REC_START	n/a	n/a	n/a	-999	21	[0, 0, 0]	n/a	FR1	2	R1243T
2505.519	2.296	2333312	REC_WORD	2.296	n/a	ROOF	-999	21	[0, 0, 0]	n/a	FR1	2	R1243T
2507.815	3.784	2335607	REC_WORD	3.784	n/a	FARM	-999	21	[0, 0, 0]	n/a	FR1	2	R1243T
2511.599	4.477	2339391	REC_END	n/a	n/a	n/a	-999	21	[0, 0, 0]	n/a	FR1	2	R1243T
2516.076	0.5	2343868	TRIAL	n/a	n/a	n/a	-999	22	[0, 0, 0]	n/a	FR1	2	R1243T
2516.576	10.428	2344368	COUNTDOWN_START	n/a	n/a	n/a	-999	22	[0, 0, 0]	n/a	FR1	2	R1243T
2527.004	0.008	2354795	COUNTDOWN_END	n/a	n/a	n/a	-999	22	[0, 0, 0]	n/a	FR1	2	R1243T
2527.012	1.617	2354803	ORIENT	n/a	n/a	n/a	-999	22	[0, 0, 0]	n/a	FR1	2	R1243T
2528.629	2.383	2356420	ORIENT_OFF	n/a	n/a	n/a	-999	22	[0, 0, 0]	n/a	FR1	2	R1243T
2531.012	1.617	2358803	WORD	n/a	wordpools/wordpool_EN.txt	MOLE	1	22	[0, 0, 0]	n/a	FR1	2	R1243T
2532.629	0.984	2360420	WORD_OFF	n/a	n/a	MOLE	1	22	[0, 0, 0]	n/a	FR1	2	R1243T
2533.613	1.616	2361404	WORD	n/a	wordpools/wordpool_EN.txt	PEARL	2	22	[0, 0, 0]	n/a	FR1	2	R1243T
2535.229	0.95	2363020	WORD_OFF	n/a	n/a	PEARL	2	22	[0, 0, 0]	n/a	FR1	2	R1243T
2536.179	1.618	2363970	WORD	n/a	wordpools/wordpool_EN.txt	DART	3	22	[0, 0, 0]	n/a	FR1	2	R1243T
2537.797	0.967	2365588	WORD_OFF	n/a	n/a	DART	3	22	[0, 0, 0]	n/a	FR1	2	R1243T
2538.764	1.617	2366555	WORD	n/a	wordpools/wordpool_EN.txt	ZOO	4	22	[0, 0, 0]	n/a	FR1	2	R1243T
2540.381	0.9	2368172	WORD_OFF	n/a	n/a	ZOO	4	22	[0, 0, 0]	n/a	FR1	2	R1243T
2541.281	1.617	2369071	WORD	n/a	wordpools/wordpool_EN.txt	SHEEP	5	22	[0, 0, 0]	n/a	FR1	2	R1243T
2542.898	1.0	2370688	WORD_OFF	n/a	n/a	SHEEP	5	22	[0, 0, 0]	n/a	FR1	2	R1243T
2543.898	1.617	2371688	WORD	n/a	wordpools/wordpool_EN.txt	LEAF	6	22	[0, 0, 0]	n/a	FR1	2	R1243T
2545.515	0.767	2373305	WORD_OFF	n/a	n/a	LEAF	6	22	[0, 0, 0]	n/a	FR1	2	R1243T
2546.282	1.617	2374072	WORD	n/a	wordpools/wordpool_EN.txt	CHEEK	7	22	[0, 0, 0]	n/a	FR1	2	R1243T
2547.899	0.967	2375689	WORD_OFF	n/a	n/a	CHEEK	7	22	[0, 0, 0]	n/a	FR1	2	R1243T
2548.866	1.617	2376656	WORD	n/a	wordpools/wordpool_EN.txt	KEY	8	22	[0, 0, 0]	n/a	FR1	2	R1243T
2550.483	0.766	2378273	WORD_OFF	n/a	n/a	KEY	8	22	[0, 0, 0]	n/a	FR1	2	R1243T
2551.249	1.617	2379039	WORD	n/a	wordpools/wordpool_EN.txt	TEETH	9	22	[0, 0, 0]	n/a	FR1	2	R1243T
2552.866	0.784	2380656	WORD_OFF	n/a	n/a	TEETH	9	22	[0, 0, 0]	n/a	FR1	2	R1243T
2553.65	1.617	2381440	WORD	n/a	wordpools/wordpool_EN.txt	TOAST	10	22	[0, 0, 0]	n/a	FR1	2	R1243T
2555.267	0.932	2383057	WORD_OFF	n/a	n/a	TOAST	10	22	[0, 0, 0]	n/a	FR1	2	R1243T
2556.199	1.618	2383989	WORD	n/a	wordpools/wordpool_EN.txt	TRASH	11	22	[0, 0, 0]	n/a	FR1	2	R1243T
2557.817	0.817	2385606	WORD_OFF	n/a	n/a	TRASH	11	22	[0, 0, 0]	n/a	FR1	2	R1243T
2558.634	1.617	2386423	WORD	n/a	wordpools/wordpool_EN.txt	GOLD	12	22	[0, 0, 0]	n/a	FR1	2	R1243T
2560.251	0.0	2388040	WORD_OFF	n/a	n/a	GOLD	12	22	[0, 0, 0]	n/a	FR1	2	R1243T
2560.251	0.001	2388040	DISTRACT_START	n/a	n/a	n/a	-999	22	[0, 0, 0]	n/a	FR1	2	R1243T
2560.252	0.016	2388041	START	n/a	n/a	n/a	-999	22	[-999, -999, -999]	n/a	FR1	2	R1243T
2560.268	6.967	2388057	PROB	6.967	n/a	n/a	-999	22	[5, 3, 2]	10	FR1	2	R1243T
2567.235	4.585	2395024	PROB	4.585	n/a	n/a	-999	22	[1, 9, 3]	13	FR1	2	R1243T
2571.82	4.984	2399609	PROB	4.984	n/a	n/a	-999	22	[9, 5, 3]	17	FR1	2	R1243T
2576.804	6.04	2404592	PROB	6.04	n/a	n/a	-999	22	[9, 9, 9]	27	FR1	2	R1243T
2582.844	0.011	2410632	STOP	n/a	n/a	n/a	-999	22	[-999, -999, -999]	n/a	FR1	2	R1243T
2582.855	0.534	2410643	DISTRACT_END	n/a	n/a	n/a	-999	22	[0, 0, 0]	n/a	FR1	2	R1243T
2583.389	0.517	2411177	RETRIEVAL_ORIENT	n/a	n/a	n/a	-999	22	[0, 0, 0]	n/a	FR1	2	R1243T
2583.906	8.623	2411694	REC_START	n/a	n/a	n/a	-999	22	[0, 0, 0]	n/a	FR1	2	R1243T
2592.529	6.443	2420316	REC_WORD	6.443	n/a	MOW	-999	22	[0, 0, 0]	n/a	FR1	2	R1243T
2598.972	3.572	2426759	REC_WORD	3.572	n/a	BIRD	-999	22	[0, 0, 0]	n/a	FR1	2	R1243T
2602.544	4.766	2430331	REC_WORD	4.766	n/a	GOLD	-999	22	[0, 0, 0]	n/a	FR1	2	R1243T
2607.31	3.825	2435096	REC_WORD	3.825	n/a	TOOTH	-999	22	[0, 0, 0]	n/a	FR1	2	R1243T
2611.135	2.782	2438921	REC_WORD	2.782	n/a	ARM	-999	22	[0, 0, 0]	n/a	FR1	2	R1243T
2613.917	5.545	2441703	REC_END	n/a	n/a	n/a	-999	22	[0, 0, 0]	n/a	FR1	2	R1243T
2619.462	0.5	2447248	TRIAL	n/a	n/a	n/a	-999	23	[0, 0, 0]	n/a	FR1	2	R1243T
2619.962	10.428	2447748	COUNTDOWN_START	n/a	n/a	n/a	-999	23	[0, 0, 0]	n/a	FR1	2	R1243T
2630.39	0.007	2458175	COUNTDOWN_END	n/a	n/a	n/a	-999	23	[0, 0, 0]	n/a	FR1	2	R1243T
2630.397	1.617	2458182	ORIENT	n/a	n/a	n/a	-999	23	[0, 0, 0]	n/a	FR1	2	R1243T
2632.014	1.984	2459799	ORIENT_OFF	n/a	n/a	n/a	-999	23	[0, 0, 0]	n/a	FR1	2	R1243T
2633.998	1.617	2461783	WORD	n/a	wordpools/wordpool_EN.txt	BED	1	23	[0, 0, 0]	n/a	FR1	2	R1243T
2635.615	0.85	2463400	WORD_OFF	n/a	n/a	BED	1	23	[0, 0, 0]	n/a	FR1	2	R1243T
2636.465	1.617	2464250	WORD	n/a	wordpools/wordpool_EN.txt	PIN	2	23	[0, 0, 0]	n/a	FR1	2	R1243T
2638.082	0.767	2465867	WORD_OFF	n/a	n/a	PIN	2	23	[0, 0, 0]	n/a	FR1	2	R1243T
2638.849	1.617	2466634	WORD	n/a	wordpools/wordpool_EN.txt	BATH	3	23	[0, 0, 0]	n/a	FR1	2	R1243T
2640.466	0.967	2468250	WORD_OFF	n/a	n/a	BATH	3	23	[0, 0, 0]	n/a	FR1	2	R1243T
2641.433	1.616	2469217	WORD	n/a	wordpools/wordpool_EN.txt	CUP	4	23	[0, 0, 0]	n/a	FR1	2	R1243T
2643.049	0.767	2470833	WORD_OFF	n/a	n/a	CUP	4	23	[0, 0, 0]	n/a	FR1	2	R1243T
2643.816	1.617	2471600	WORD	n/a	wordpools/wordpool_EN.txt	NAIL	5	23	[0, 0, 0]	n/a	FR1	2	R1243T
2645.433	0.867	2473217	WORD_OFF	n/a	n/a	NAIL	5	23	[0, 0, 0]	n/a	FR1	2	R1243T
2646.3	1.617	2474084	WORD	n/a	wordpools/wordpool_EN.txt	SHIELD	6	23	[0, 0, 0]	n/a	FR1	2	R1243T
2647.917	0.884	2475701	WORD_OFF	n/a	n/a	SHIELD	6	23	[0, 0, 0]	n/a	FR1	2	R1243T
2648.801	1.616	2476585	WORD	n/a	wordpools/wordpool_EN.txt	BLUSH	7	23	[0, 0, 0]	n/a	FR1	2	R1243T
2650.417	0.884	2478201	WORD_OFF	n/a	n/a	BLUSH	7	23	[0, 0, 0]	n/a	FR1	2	R1243T
2651.301	1.617	2479085	WORD	n/a	wordpools/wordpool_EN.txt	PIPE	8	23	[0, 0, 0]	n/a	FR1	2	R1243T
2652.918	0.983	2480702	WORD_OFF	n/a	n/a	PIPE	8	23	[0, 0, 0]	n/a	FR1	2	R1243T
2653.901	1.617	2481685	WORD	n/a	wordpools/wordpool_EN.txt	PLATE	9	23	[0, 0, 0]	n/a	FR1	2	R1243T
2655.518	0.951	2483302	WORD_OFF	n/a	n/a	PLATE	9	23	[0, 0, 0]	n/a	FR1	2	R1243T
2656.469	1.617	2484252	WORD	n/a	wordpools/wordpool_EN.txt	JUDGE	10	23	[0, 0, 0]	n/a	FR1	2	R1243T
2658.086	0.816	2485869	WORD_OFF	n/a	n/a	JUDGE	10	23	[0, 0, 0]	n/a	FR1	2	R1243T
2658.902	1.617	2486685	WORD	n/a	wordpools/wordpool_EN.txt	SQUARE	11	23	[0, 0, 0]	n/a	FR1	2	R1243T
2660.519	0.984	2488302	WORD_OFF	n/a	n/a	SQUARE	11	23	[0, 0, 0]	n/a	FR1	2	R1243T
2661.503	1.616	2489286	WORD	n/a	wordpools/wordpool_EN.txt	HOSE	12	23	[0, 0, 0]	n/a	FR1	2	R1243T
2663.119	0.0	2490902	WORD_OFF	n/a	n/a	HOSE	12	23	[0, 0, 0]	n/a	FR1	2	R1243T
2663.119	0.0	2490902	DISTRACT_START	n/a	n/a	n/a	-999	23	[0, 0, 0]	n/a	FR1	2	R1243T
2663.119	0.017	2490902	START	n/a	n/a	n/a	-999	23	[-999, -999, -999]	n/a	FR1	2	R1243T
2663.136	6.017	2490919	PROB	6.017	n/a	n/a	-999	23	[6, 6, 9]	21	FR1	2	R1243T
2669.153	5.369	2496936	PROB	5.369	n/a	n/a	-999	23	[2, 3, 9]	14	FR1	2	R1243T
2674.522	5.633	2502304	PROB	5.633	n/a	n/a	-999	23	[8, 1, 9]	18	FR1	2	R1243T
2680.155	5.808	2507937	PROB	5.808	n/a	n/a	-999	23	[2, 6, 5]	13	FR1	2	R1243T
2685.963	0.011	2513745	STOP	n/a	n/a	n/a	-999	23	[-999, -999, -999]	n/a	FR1	2	R1243T
2685.974	0.533	2513756	DISTRACT_END	n/a	n/a	n/a	-999	23	[0, 0, 0]	n/a	FR1	2	R1243T
2686.507	0.518	2514289	RETRIEVAL_ORIENT	n/a	n/a	n/a	-999	23	[0, 0, 0]	n/a	FR1	2	R1243T
2687.025	15.677	2514807	REC_START	n/a	n/a	n/a	-999	23	[0, 0, 0]	n/a	FR1	2	R1243T
2702.702	4.655	2530483	REC_WORD	4.655	n/a	BED	-999	23	[0, 0, 0]	n/a	FR1	2	R1243T
2707.357	9.679	2535137	REC_WORD	9.679	n/a	HOUSE	-999	23	[0, 0, 0]	n/a	FR1	2	R1243T
2717.036	5.461	2544816	REC_END	n/a	n/a	n/a	-999	23	[0, 0, 0]	n/a	FR1	2	R1243T
2722.497	0.5	2550277	TRIAL	n/a	n/a	n/a	-999	24	[0, 0, 0]	n/a	FR1	2	R1243T
2722.997	10.428	2550776	COUNTDOWN_START	n/a	n/a	n/a	-999	24	[0, 0, 0]	n/a	FR1	2	R1243T
2733.425	0.008	2561204	COUNTDOWN_END	n/a	n/a	n/a	-999	24	[0, 0, 0]	n/a	FR1	2	R1243T
2733.433	1.617	2561212	ORIENT	n/a	n/a	n/a	-999	24	[0, 0, 0]	n/a	FR1	2	R1243T
2735.05	1.95	2562829	ORIENT_OFF	n/a	n/a	n/a	-999	24	[0, 0, 0]	n/a	FR1	2	R1243T
2737.0	1.617	2564779	WORD	n/a	wordpools/wordpool_EN.txt	FACE	1	24	[0, 0, 0]	n/a	FR1	2	R1243T
2738.617	0.833	2566396	WORD_OFF	n/a	n/a	FACE	1	24	[0, 0, 0]	n/a	FR1	2	R1243T
2739.45	1.617	2567228	WORD	n/a	wordpools/wordpool_EN.txt	VAN	2	24	[0, 0, 0]	n/a	FR1	2	R1243T
2741.067	0.934	2568845	WORD_OFF	n/a	n/a	VAN	2	24	[0, 0, 0]	n/a	FR1	2	R1243T
2742.001	1.617	2569779	WORD	n/a	wordpools/wordpool_EN.txt	SEAT	3	24	[0, 0, 0]	n/a	FR1	2	R1243T
2743.618	0.833	2571396	WORD_OFF	n/a	n/a	SEAT	3	24	[0, 0, 0]	n/a	FR1	2	R1243T
2744.451	1.617	2572229	WORD	n/a	wordpools/wordpool_EN.txt	LAMP	4	24	[0, 0, 0]	n/a	FR1	2	R1243T
2746.068	0.917	2573846	WORD_OFF	n/a	n/a	LAMP	4	24	[0, 0, 0]	n/a	FR1	2	R1243T
2746.985	1.617	2574763	WORD	n/a	wordpools/wordpool_EN.txt	BOWL	5	24	[0, 0, 0]	n/a	FR1	2	R1243T
2748.602	0.967	2576380	WORD_OFF	n/a	n/a	BOWL	5	24	[0, 0, 0]	n/a	FR1	2	R1243T
2749.569	1.616	2577347	WORD	n/a	wordpools/wordpool_EN.txt	SLIME	6	24	[0, 0, 0]	n/a	FR1	2	R1243T
2751.185	0.818	2578963	WORD_OFF	n/a	n/a	SLIME	6	24	[0, 0, 0]	n/a	FR1	2	R1243T
2752.003	1.617	2579781	WORD	n/a	wordpools/wordpool_EN.txt	TOE	7	24	[0, 0, 0]	n/a	FR1	2	R1243T
2753.62	0.833	2581398	WORD_OFF	n/a	n/a	TOE	7	24	[0, 0, 0]	n/a	FR1	2	R1243T
2754.453	1.617	2582231	WORD	n/a	wordpools/wordpool_EN.txt	FLOOR	8	24	[0, 0, 0]	n/a	FR1	2	R1243T
2756.07	0.95	2583847	WORD_OFF	n/a	n/a	FLOOR	8	24	[0, 0, 0]	n/a	FR1	2	R1243T
2757.02	1.617	2584797	WORD	n/a	wordpools/wordpool_EN.txt	AXE	9	24	[0, 0, 0]	n/a	FR1	2	R1243T
2758.637	0.8	2586414	WORD_OFF	n/a	n/a	AXE	9	24	[0, 0, 0]	n/a	FR1	2	R1243T
2759.437	1.617	2587214	WORD	n/a	wordpools/wordpool_EN.txt	BOOT	10	24	[0, 0, 0]	n/a	FR1	2	R1243T
2761.054	0.784	2588831	WORD_OFF	n/a	n/a	BOOT	10	24	[0, 0, 0]	n/a	FR1	2	R1243T
2761.838	1.617	2589615	WORD	n/a	wordpools/wordpool_EN.txt	TIE	11	24	[0, 0, 0]	n/a	FR1	2	R1243T
2763.455	0.816	2591232	WORD_OFF	n/a	n/a	TIE	11	24	[0, 0, 0]	n/a	FR1	2	R1243T
2764.271	1.618	2592048	WORD	n/a	wordpools/wordpool_EN.txt	BLOOM	12	24	[0, 0, 0]	n/a	FR1	2	R1243T
2765.889	0.0	2593666	WORD_OFF	n/a	n/a	BLOOM	12	24	[0, 0, 0]	n/a	FR1	2	R1243T
2765.889	0.0	2593666	DISTRACT_START	n/a	n/a	n/a	-999	24	[0, 0, 0]	n/a	FR1	2	R1243T
2765.889	0.016	2593666	START	n/a	n/a	n/a	-999	24	[-999, -999, -999]	n/a	FR1	2	R1243T
2765.905	7.135	2593682	PROB	7.135	n/a	n/a	-999	24	[9, 7, 3]	19	FR1	2	R1243T
2773.04	4.451	2600816	PROB	4.451	n/a	n/a	-999	24	[8, 2, 6]	16	FR1	2	R1243T
2777.491	4.934	2605267	PROB	4.934	n/a	n/a	-999	24	[1, 4, 7]	11	FR1	2	R1243T
2782.425	6.962	2610201	PROB	6.962	n/a	n/a	-999	24	[3, 9, 6]	18	FR1	2	R1243T
2789.387	0.006	2617162	STOP	n/a	n/a	n/a	-999	24	[-999, -999, -999]	n/a	FR1	2	R1243T
2789.393	0.683	2617168	DISTRACT_END	n/a	n/a	n/a	-999	24	[0, 0, 0]	n/a	FR1	2	R1243T
2790.076	0.518	2617851	RETRIEVAL_ORIENT	n/a	n/a	n/a	-999	24	[0, 0, 0]	n/a	FR1	2	R1243T
2790.594	2.112	2618369	REC_START	n/a	n/a	n/a	-999	24	[0, 0, 0]	n/a	FR1	2	R1243T
2792.706	1.923	2620481	REC_WORD	1.923	n/a	SLIME	-999	24	[0, 0, 0]	n/a	FR1	2	R1243T
2794.629	3.839	2622404	REC_WORD	3.839	n/a	TOE	-999	24	[0, 0, 0]	n/a	FR1	2	R1243T
2798.468	16.776	2626243	REC_WORD	16.776	n/a	PORCH	-999	24	[0, 0, 0]	n/a	FR1	2	R1243T
2815.244	0.986	2643018	REC_WORD	0.986	n/a	CHILD	-999	24	[0, 0, 0]	n/a	FR1	2	R1243T
2816.23	4.373	2644004	REC_WORD	4.373	n/a	CHILD	-999	24	[0, 0, 0]	n/a	FR1	2	R1243T
2820.603	6.612	2648377	REC_END	n/a	n/a	n/a	-999	24	[0, 0, 0]	n/a	FR1	2	R1243T
2827.215	0.5	2654988	TRIAL	n/a	n/a	n/a	-999	25	[0, 0, 0]	n/a	FR1	2	R1243T
2827.715	10.428	2655488	COUNTDOWN_START	n/a	n/a	n/a	-999	25	[0, 0, 0]	n/a	FR1	2	R1243T
2838.143	0.008	2665916	COUNTDOWN_END	n/a	n/a	n/a	-999	25	[0, 0, 0]	n/a	FR1	2	R1243T
2838.151	1.618	2665924	ORIENT	n/a	n/a	n/a	-999	25	[0, 0, 0]	n/a	FR1	2	R1243T
2839.769	1.833	2667541	ORIENT_OFF	n/a	n/a	n/a	-999	25	[0, 0, 0]	n/a	FR1	2	R1243T
2841.602	1.616	2669374	WORD	n/a	wordpools/wordpool_EN.txt	SHELL	1	25	[0, 0, 0]	n/a	FR1	2	R1243T
2843.218	0.884	2670990	WORD_OFF	n/a	n/a	SHELL	1	25	[0, 0, 0]	n/a	FR1	2	R1243T
2844.102	1.618	2671874	WORD	n/a	wordpools/wordpool_EN.txt	PLANT	2	25	[0, 0, 0]	n/a	FR1	2	R1243T
2845.72	0.983	2673492	WORD_OFF	n/a	n/a	PLANT	2	25	[0, 0, 0]	n/a	FR1	2	R1243T
2846.703	1.617	2674475	WORD	n/a	wordpools/wordpool_EN.txt	FOAM	3	25	[0, 0, 0]	n/a	FR1	2	R1243T
2848.32	0.783	2676092	WORD_OFF	n/a	n/a	FOAM	3	25	[0, 0, 0]	n/a	FR1	2	R1243T
2849.103	1.601	2676875	WORD	n/a	wordpools/wordpool_EN.txt	TOY	4	25	[0, 0, 0]	n/a	FR1	2	R1243T
2850.704	0.834	2678476	WORD_OFF	n/a	n/a	TOY	4	25	[0, 0, 0]	n/a	FR1	2	R1243T
2851.538	1.615	2679310	WORD	n/a	wordpools/wordpool_EN.txt	HOOK	5	25	[0, 0, 0]	n/a	FR1	2	R1243T
2853.153	0.835	2680925	WORD_OFF	n/a	n/a	HOOK	5	25	[0, 0, 0]	n/a	FR1	2	R1243T
2853.988	1.617	2681760	WORD	n/a	wordpools/wordpool_EN.txt	HOUSE	6	25	[0, 0, 0]	n/a	FR1	2	R1243T
2855.605	1.017	2683376	WORD_OFF	n/a	n/a	HOUSE	6	25	[0, 0, 0]	n/a	FR1	2	R1243T
2856.622	1.616	2684393	WORD	n/a	wordpools/wordpool_EN.txt	STEAM	7	25	[0, 0, 0]	n/a	FR1	2	R1243T
2858.238	0.867	2686009	WORD_OFF	n/a	n/a	STEAM	7	25	[0, 0, 0]	n/a	FR1	2	R1243T
2859.105	1.618	2686876	WORD	n/a	wordpools/wordpool_EN.txt	GEESE	8	25	[0, 0, 0]	n/a	FR1	2	R1243T
2860.723	0.866	2688494	WORD_OFF	n/a	n/a	GEESE	8	25	[0, 0, 0]	n/a	FR1	2	R1243T
2861.589	1.616	2689360	WORD	n/a	wordpools/wordpool_EN.txt	SHIP	9	25	[0, 0, 0]	n/a	FR1	2	R1243T
2863.205	0.785	2690976	WORD_OFF	n/a	n/a	SHIP	9	25	[0, 0, 0]	n/a	FR1	2	R1243T
2863.99	1.617	2691761	WORD	n/a	wordpools/wordpool_EN.txt	COIN	10	25	[0, 0, 0]	n/a	FR1	2	R1243T
2865.607	0.883	2693378	WORD_OFF	n/a	n/a	COIN	10	25	[0, 0, 0]	n/a	FR1	2	R1243T
2866.49	1.616	2694261	WORD	n/a	wordpools/wordpool_EN.txt	ROPE	11	25	[0, 0, 0]	n/a	FR1	2	R1243T
2868.106	1.0	2695877	WORD_OFF	n/a	n/a	ROPE	11	25	[0, 0, 0]	n/a	FR1	2	R1243T
2869.106	1.618	2696877	WORD	n/a	wordpools/wordpool_EN.txt	CLOWN	12	25	[0, 0, 0]	n/a	FR1	2	R1243T
2870.724	0.0	2698495	WORD_OFF	n/a	n/a	CLOWN	12	25	[0, 0, 0]	n/a	FR1	2	R1243T
2870.724	0.001	2698495	DISTRACT_START	n/a	n/a	n/a	-999	25	[0, 0, 0]	n/a	FR1	2	R1243T
2870.725	0.016	2698496	START	n/a	n/a	n/a	-999	25	[-999, -999, -999]	n/a	FR1	2	R1243T
2870.741	6.901	2698512	PROB	6.901	n/a	n/a	-999	25	[5, 1, 7]	13	FR1	2	R1243T
2877.642	4.5	2705412	PROB	4.5	n/a	n/a	-999	25	[5, 1, 3]	9	FR1	2	R1243T
2882.142	13.069	2709912	PROB	13.069	n/a	n/a	-999	25	[4, 2, 4]	10	FR1	2	R1243T
2895.211	0.017	2722980	STOP	n/a	n/a	n/a	-999	25	[-999, -999, -999]	n/a	FR1	2	R1243T
2895.228	0.584	2722997	DISTRACT_END	n/a	n/a	n/a	-999	25	[0, 0, 0]	n/a	FR1	2	R1243T
2895.812	0.522	2723581	RETRIEVAL_ORIENT	n/a	n/a	n/a	-999	25	[0, 0, 0]	n/a	FR1	2	R1243T
2896.334	2.776	2724103	REC_START	n/a	n/a	n/a	-999	25	[0, 0, 0]	n/a	FR1	2	R1243T
2899.11	2.019	2726879	REC_WORD	2.019	n/a	SHELL	-999	25	[0, 0, 0]	n/a	FR1	2	R1243T
2901.129	2.276	2728898	REC_WORD	2.276	n/a	HOUSE	-999	25	[0, 0, 0]	n/a	FR1	2	R1243T
2903.405	2.574	2731174	REC_WORD	2.574	n/a	GEESE	-999	25	[0, 0, 0]	n/a	FR1	2	R1243T
2905.979	9.265	2733747	REC_WORD	9.265	n/a	SHIP	-999	25	[0, 0, 0]	n/a	FR1	2	R1243T
2915.244	11.097	2743012	REC_WORD	11.097	n/a	BOWL	-999	25	[0, 0, 0]	n/a	FR1	2	R1243T
2926.341	27.432	2754108	REC_END	n/a	n/a	n/a	-999	25	[0, 0, 0]	n/a	FR1	2	R1243T
2953.773	0.0	2781539	SESS_END	n/a	n/a	n/a	-999	25	[0, 0, 0]	n/a	FR1	2	R1243T
