onset	duration	sample	trial_type	response_time	stim_file	item_name	serialpos	list	test	answer	experiment	session	subject
0.0	85.811	-1	SESS_START	n/a	n/a	n/a	-999	-999	[0, 0, 0]	n/a	FR1	0	R1048E
85.811	10.428	8747	COUNTDOWN_START	n/a	n/a	n/a	-999	-999	[0, 0, 0]	n/a	FR1	0	R1048E
96.239	3.674	13961	COUNTDOWN_END	n/a	n/a	n/a	-999	-999	[0, 0, 0]	n/a	FR1	0	R1048E
99.913	2.551	15798	PRACTICE_WORD	n/a	n/a	IRON	1	-1	[0, 0, 0]	n/a	FR1	0	R1048E
102.464	2.583	17073	PRACTICE_WORD	n/a	n/a	RHINO	2	-1	[0, 0, 0]	n/a	FR1	0	R1048E
105.047	2.401	18365	PRACTICE_WORD	n/a	n/a	TONGUE	3	-1	[0, 0, 0]	n/a	FR1	0	R1048E
107.448	2.384	19565	PRACTICE_WORD	n/a	n/a	BEAM	4	-1	[0, 0, 0]	n/a	FR1	0	R1048E
109.832	2.501	20757	PRACTICE_WORD	n/a	n/a	RING	5	-1	[0, 0, 0]	n/a	FR1	0	R1048E
112.333	2.433	22008	PRACTICE_WORD	n/a	n/a	FLOOD	6	-1	[0, 0, 0]	n/a	FR1	0	R1048E
114.766	2.567	23224	PRACTICE_WORD	n/a	n/a	COTTON	7	-1	[0, 0, 0]	n/a	FR1	0	R1048E
117.333	2.384	24507	PRACTICE_WORD	n/a	n/a	CHEST	8	-1	[0, 0, 0]	n/a	FR1	0	R1048E
119.717	2.601	25699	PRACTICE_WORD	n/a	n/a	WATCH	9	-1	[0, 0, 0]	n/a	FR1	0	R1048E
122.318	2.416	27000	PRACTICE_WORD	n/a	n/a	WAGON	10	-1	[0, 0, 0]	n/a	FR1	0	R1048E
124.734	2.601	28208	PRACTICE_WORD	n/a	n/a	CAMEL	11	-1	[0, 0, 0]	n/a	FR1	0	R1048E
127.335	1.617	29508	PRACTICE_WORD	n/a	n/a	ATTIC	12	-1	[0, 0, 0]	n/a	FR1	0	R1048E
128.952	0.0	30317	PRACTICE_DISTRACT_START	n/a	n/a	n/a	-999	-1	[0, 0, 0]	n/a	FR1	0	R1048E
128.952	0.017	30317	START	n/a	n/a	n/a	-999	-1	[-999, -999, -999]	n/a	FR1	0	R1048E
128.969	8.167	30325	PROB	8.167	n/a	n/a	-999	-1	[6, 9, 1]	16	FR1	0	R1048E
137.136	5.535	34408	PROB	5.535	n/a	n/a	-999	-1	[9, 2, 1]	12	FR1	0	R1048E
142.671	4.684	37176	PROB	4.684	n/a	n/a	-999	-1	[5, 6, 1]	12	FR1	0	R1048E
147.355	9.146	39518	PROB	9.146	n/a	n/a	-999	-1	[8, 7, 1]	16	FR1	0	R1048E
156.501	0.006	44090	STOP	n/a	n/a	n/a	-999	-1	[-999, -999, -999]	n/a	FR1	0	R1048E
156.507	0.617	44093	PRACTICE_DISTRACT_END	n/a	n/a	n/a	-999	-1	[0, 0, 0]	n/a	FR1	0	R1048E
157.124	30.516	44402	PRACTICE_REC_START	n/a	n/a	n/a	-999	-1	[0, 0, 0]	n/a	FR1	0	R1048E
187.64	44.764	59659	PRACTICE_REC_END	n/a	n/a	n/a	-999	-1	[0, 0, 0]	n/a	FR1	0	R1048E
232.404	0.0	82040	TRIAL	n/a	n/a	n/a	-999	1	[0, 0, 0]	n/a	FR1	0	R1048E
232.404	10.428	82040	COUNTDOWN_START	n/a	n/a	n/a	-999	1	[0, 0, 0]	n/a	FR1	0	R1048E
242.832	0.007	87253	COUNTDOWN_END	n/a	n/a	n/a	-999	1	[0, 0, 0]	n/a	FR1	0	R1048E
242.839	2.399	87257	ORIENT	n/a	n/a	n/a	-999	1	[0, 0, 0]	n/a	FR1	0	R1048E
245.238	2.401	88456	WORD	n/a	wordpools/wordpool_EN.txt	PASTE	1	1	[0, 0, 0]	n/a	FR1	0	R1048E
247.639	2.618	89657	WORD	n/a	wordpools/wordpool_EN.txt	PEAR	2	1	[0, 0, 0]	n/a	FR1	0	R1048E
250.257	2.583	90966	WORD	n/a	wordpools/wordpool_EN.txt	LEG	3	1	[0, 0, 0]	n/a	FR1	0	R1048E
252.84	2.484	92257	WORD	n/a	wordpools/wordpool_EN.txt	APE	4	1	[0, 0, 0]	n/a	FR1	0	R1048E
255.324	2.567	93499	WORD	n/a	wordpools/wordpool_EN.txt	CONE	5	1	[0, 0, 0]	n/a	FR1	0	R1048E
257.891	2.384	94783	WORD	n/a	wordpools/wordpool_EN.txt	SEED	6	1	[0, 0, 0]	n/a	FR1	0	R1048E
260.275	2.567	95974	WORD	n/a	wordpools/wordpool_EN.txt	CLOTH	7	1	[0, 0, 0]	n/a	FR1	0	R1048E
262.842	2.584	97258	WORD	n/a	wordpools/wordpool_EN.txt	LEAF	8	1	[0, 0, 0]	n/a	FR1	0	R1048E
265.426	2.517	98550	WORD	n/a	wordpools/wordpool_EN.txt	RAT	9	1	[0, 0, 0]	n/a	FR1	0	R1048E
267.943	2.467	99808	WORD	n/a	wordpools/wordpool_EN.txt	WING	10	1	[0, 0, 0]	n/a	FR1	0	R1048E
270.41	2.467	101042	WORD	n/a	wordpools/wordpool_EN.txt	CHIEF	11	1	[0, 0, 0]	n/a	FR1	0	R1048E
272.877	1.617	102275	WORD	n/a	wordpools/wordpool_EN.txt	PLANT	12	1	[0, 0, 0]	n/a	FR1	0	R1048E
274.494	0.001	103084	DISTRACT_START	n/a	n/a	n/a	-999	1	[0, 0, 0]	n/a	FR1	0	R1048E
274.495	0.016	103084	START	n/a	n/a	n/a	-999	1	[-999, -999, -999]	n/a	FR1	0	R1048E
274.511	9.068	103092	PROB	9.068	n/a	n/a	-999	1	[3, 7, 4]	14	FR1	0	R1048E
283.579	6.051	107626	PROB	6.051	n/a	n/a	-999	1	[9, 7, 9]	25	FR1	0	R1048E
289.63	4.018	110651	PROB	4.018	n/a	n/a	-999	1	[6, 2, 5]	13	FR1	0	R1048E
293.648	3.316	112660	PROB	3.316	n/a	n/a	-999	1	[3, 2, 2]	7	FR1	0	R1048E
296.964	0.017	114318	STOP	n/a	n/a	n/a	-999	1	[-999, -999, -999]	n/a	FR1	0	R1048E
296.981	1.19	114326	DISTRACT_END	n/a	n/a	n/a	-999	1	[0, 0, 0]	n/a	FR1	0	R1048E
298.171	1.504	114921	REC_START	n/a	n/a	n/a	-999	1	[0, 0, 0]	n/a	FR1	0	R1048E
299.675	3.294	115673	REC_WORD	3.294	n/a	RAT	-999	1	[0, 0, 0]	n/a	FR1	0	R1048E
302.969	1.396	117320	REC_WORD	1.396	n/a	HAIR	-999	1	[0, 0, 0]	n/a	FR1	0	R1048E
304.365	9.781	118018	REC_WORD	9.781	n/a	SEED	-999	1	[0, 0, 0]	n/a	FR1	0	R1048E
314.146	14.029	122908	REC_WORD	14.029	n/a	NOSE	-999	1	[0, 0, 0]	n/a	FR1	0	R1048E
328.175	17.198	129923	REC_END	n/a	n/a	n/a	-999	1	[0, 0, 0]	n/a	FR1	0	R1048E
345.373	0.0	138521	COUNTDOWN_START	n/a	n/a	n/a	-999	2	[0, 0, 0]	n/a	FR1	0	R1048E
345.373	10.428	138521	TRIAL	n/a	n/a	n/a	-999	2	[0, 0, 0]	n/a	FR1	0	R1048E
355.801	0.007	143735	COUNTDOWN_END	n/a	n/a	n/a	-999	2	[0, 0, 0]	n/a	FR1	0	R1048E
355.808	2.501	143738	ORIENT	n/a	n/a	n/a	-999	2	[0, 0, 0]	n/a	FR1	0	R1048E
358.309	2.6	144989	WORD	n/a	wordpools/wordpool_EN.txt	HAWK	1	2	[0, 0, 0]	n/a	FR1	0	R1048E
360.909	2.501	146289	WORD	n/a	wordpools/wordpool_EN.txt	BEE	2	2	[0, 0, 0]	n/a	FR1	0	R1048E
363.41	2.5	147539	WORD	n/a	wordpools/wordpool_EN.txt	SEAT	3	2	[0, 0, 0]	n/a	FR1	0	R1048E
365.91	2.434	148789	WORD	n/a	wordpools/wordpool_EN.txt	CORN	4	2	[0, 0, 0]	n/a	FR1	0	R1048E
368.344	2.5	150006	WORD	n/a	wordpools/wordpool_EN.txt	COW	5	2	[0, 0, 0]	n/a	FR1	0	R1048E
370.844	2.434	151256	WORD	n/a	wordpools/wordpool_EN.txt	BARN	6	2	[0, 0, 0]	n/a	FR1	0	R1048E
373.278	2.601	152473	WORD	n/a	wordpools/wordpool_EN.txt	OWL	7	2	[0, 0, 0]	n/a	FR1	0	R1048E
375.879	2.616	153773	WORD	n/a	wordpools/wordpool_EN.txt	PET	8	2	[0, 0, 0]	n/a	FR1	0	R1048E
378.495	2.518	155081	WORD	n/a	wordpools/wordpool_EN.txt	LAMB	9	2	[0, 0, 0]	n/a	FR1	0	R1048E
381.013	2.483	156340	WORD	n/a	wordpools/wordpool_EN.txt	SKY	10	2	[0, 0, 0]	n/a	FR1	0	R1048E
383.496	2.468	157582	WORD	n/a	wordpools/wordpool_EN.txt	FLEA	11	2	[0, 0, 0]	n/a	FR1	0	R1048E
385.964	1.617	158816	WORD	n/a	wordpools/wordpool_EN.txt	EEL	12	2	[0, 0, 0]	n/a	FR1	0	R1048E
387.581	0.0	159624	DISTRACT_START	n/a	n/a	n/a	-999	2	[0, 0, 0]	n/a	FR1	0	R1048E
387.581	0.016	159624	START	n/a	n/a	n/a	-999	2	[-999, -999, -999]	n/a	FR1	0	R1048E
387.597	4.734	159632	PROB	4.734	n/a	n/a	-999	2	[3, 1, 3]	7	FR1	0	R1048E
392.331	2.701	161999	PROB	2.701	n/a	n/a	-999	2	[6, 6, 1]	13	FR1	0	R1048E
395.032	3.484	163349	PROB	3.484	n/a	n/a	-999	2	[2, 8, 8]	18	FR1	0	R1048E
398.516	3.267	165091	PROB	3.267	n/a	n/a	-999	2	[2, 2, 1]	5	FR1	0	R1048E
401.783	3.034	166725	PROB	3.034	n/a	n/a	-999	2	[6, 9, 1]	16	FR1	0	R1048E
404.817	5.421	168242	PROB	5.421	n/a	n/a	-999	2	[6, 7, 9]	22	FR1	0	R1048E
410.238	0.012	170952	STOP	n/a	n/a	n/a	-999	2	[-999, -999, -999]	n/a	FR1	0	R1048E
410.25	1.069	170958	DISTRACT_END	n/a	n/a	n/a	-999	2	[0, 0, 0]	n/a	FR1	0	R1048E
411.319	2.033	171492	REC_START	n/a	n/a	n/a	-999	2	[0, 0, 0]	n/a	FR1	0	R1048E
413.352	1.233	172509	REC_WORD	1.233	n/a	BARN	-999	2	[0, 0, 0]	n/a	FR1	0	R1048E
414.585	2.136	173125	REC_WORD	2.136	n/a	COW	-999	2	[0, 0, 0]	n/a	FR1	0	R1048E
416.721	2.057	174193	REC_WORD	2.057	n/a	OWL	-999	2	[0, 0, 0]	n/a	FR1	0	R1048E
418.778	2.377	175222	REC_WORD	2.377	n/a	SKY	-999	2	[0, 0, 0]	n/a	FR1	0	R1048E
421.155	8.738	176410	REC_WORD	8.738	n/a	FLEA	-999	2	[0, 0, 0]	n/a	FR1	0	R1048E
429.893	11.435	180779	REC_WORD	11.435	n/a	LAMB	-999	2	[0, 0, 0]	n/a	FR1	0	R1048E
441.328	3.446	186496	REC_END	n/a	n/a	n/a	-999	2	[0, 0, 0]	n/a	FR1	0	R1048E
444.774	0.0	188219	TRIAL	n/a	n/a	n/a	-999	3	[0, 0, 0]	n/a	FR1	0	R1048E
444.774	10.428	188219	COUNTDOWN_START	n/a	n/a	n/a	-999	3	[0, 0, 0]	n/a	FR1	0	R1048E
455.202	0.006	193433	COUNTDOWN_END	n/a	n/a	n/a	-999	3	[0, 0, 0]	n/a	FR1	0	R1048E
455.208	2.385	193436	ORIENT	n/a	n/a	n/a	-999	3	[0, 0, 0]	n/a	FR1	0	R1048E
457.593	2.599	194628	WORD	n/a	wordpools/wordpool_EN.txt	TEA	1	3	[0, 0, 0]	n/a	FR1	0	R1048E
460.192	2.502	195928	WORD	n/a	wordpools/wordpool_EN.txt	SHRIMP	2	3	[0, 0, 0]	n/a	FR1	0	R1048E
462.694	2.499	197178	WORD	n/a	wordpools/wordpool_EN.txt	LAMP	3	3	[0, 0, 0]	n/a	FR1	0	R1048E
465.193	2.485	198428	WORD	n/a	wordpools/wordpool_EN.txt	SUIT	4	3	[0, 0, 0]	n/a	FR1	0	R1048E
467.678	2.432	199670	WORD	n/a	wordpools/wordpool_EN.txt	FOOD	5	3	[0, 0, 0]	n/a	FR1	0	R1048E
470.11	2.419	200886	WORD	n/a	wordpools/wordpool_EN.txt	TOE	6	3	[0, 0, 0]	n/a	FR1	0	R1048E
472.529	2.483	202096	WORD	n/a	wordpools/wordpool_EN.txt	HOOF	7	3	[0, 0, 0]	n/a	FR1	0	R1048E
475.012	2.401	203337	WORD	n/a	wordpools/wordpool_EN.txt	ROOT	8	3	[0, 0, 0]	n/a	FR1	0	R1048E
477.413	2.567	204538	WORD	n/a	wordpools/wordpool_EN.txt	BEAN	9	3	[0, 0, 0]	n/a	FR1	0	R1048E
479.98	2.484	205821	WORD	n/a	wordpools/wordpool_EN.txt	RAKE	10	3	[0, 0, 0]	n/a	FR1	0	R1048E
482.464	2.5	207063	WORD	n/a	wordpools/wordpool_EN.txt	SOCK	11	3	[0, 0, 0]	n/a	FR1	0	R1048E
484.964	1.617	208313	WORD	n/a	wordpools/wordpool_EN.txt	BATH	12	3	[0, 0, 0]	n/a	FR1	0	R1048E
486.581	0.001	209121	DISTRACT_START	n/a	n/a	n/a	-999	3	[0, 0, 0]	n/a	FR1	0	R1048E
486.582	0.016	209122	START	n/a	n/a	n/a	-999	3	[-999, -999, -999]	n/a	FR1	0	R1048E
486.598	3.483	209130	PROB	3.483	n/a	n/a	-999	3	[1, 5, 1]	7	FR1	0	R1048E
490.081	6.552	210871	PROB	6.552	n/a	n/a	-999	3	[7, 3, 8]	18	FR1	0	R1048E
496.633	3.901	214147	PROB	3.901	n/a	n/a	-999	3	[9, 2, 8]	19	FR1	0	R1048E
500.534	2.582	216097	PROB	2.582	n/a	n/a	-999	3	[1, 9, 3]	13	FR1	0	R1048E
503.116	3.118	217388	PROB	3.118	n/a	n/a	-999	3	[4, 9, 2]	15	FR1	0	R1048E
506.234	5.584	218947	PROB	5.584	n/a	n/a	-999	3	[7, 7, 9]	23	FR1	0	R1048E
511.818	0.018	221739	STOP	n/a	n/a	n/a	-999	3	[-999, -999, -999]	n/a	FR1	0	R1048E
511.836	1.117	221748	DISTRACT_END	n/a	n/a	n/a	-999	3	[0, 0, 0]	n/a	FR1	0	R1048E
512.953	2.993	222307	REC_START	n/a	n/a	n/a	-999	3	[0, 0, 0]	n/a	FR1	0	R1048E
515.946	1.659	223803	REC_WORD	1.659	n/a	SOCK	-999	3	[0, 0, 0]	n/a	FR1	0	R1048E
517.605	1.587	224632	REC_WORD	1.587	n/a	TOE	-999	3	[0, 0, 0]	n/a	FR1	0	R1048E
519.192	3.046	225426	REC_WORD	3.046	n/a	BATH	-999	3	[0, 0, 0]	n/a	FR1	0	R1048E
522.238	20.73	226949	REC_WORD	20.73	n/a	HOOF	-999	3	[0, 0, 0]	n/a	FR1	0	R1048E
542.968	253.183	237313	REC_END	n/a	n/a	n/a	-999	3	[0, 0, 0]	n/a	FR1	0	R1048E
796.151	0.0	363898	TRIAL	n/a	n/a	n/a	-999	4	[0, 0, 0]	n/a	FR1	0	R1048E
796.151	10.428	363898	COUNTDOWN_START	n/a	n/a	n/a	-999	4	[0, 0, 0]	n/a	FR1	0	R1048E
806.579	0.008	369112	COUNTDOWN_END	n/a	n/a	n/a	-999	4	[0, 0, 0]	n/a	FR1	0	R1048E
806.587	2.434	369116	ORIENT	n/a	n/a	n/a	-999	4	[0, 0, 0]	n/a	FR1	0	R1048E
809.021	2.567	370332	WORD	n/a	wordpools/wordpool_EN.txt	CAT	1	4	[0, 0, 0]	n/a	FR1	0	R1048E
811.588	2.434	371616	WORD	n/a	wordpools/wordpool_EN.txt	TANK	2	4	[0, 0, 0]	n/a	FR1	0	R1048E
814.022	2.533	372833	WORD	n/a	wordpools/wordpool_EN.txt	BOAT	3	4	[0, 0, 0]	n/a	FR1	0	R1048E
816.555	2.6	374099	WORD	n/a	wordpools/wordpool_EN.txt	SPARK	4	4	[0, 0, 0]	n/a	FR1	0	R1048E
819.155	2.568	375399	WORD	n/a	wordpools/wordpool_EN.txt	WORM	5	4	[0, 0, 0]	n/a	FR1	0	R1048E
821.723	2.483	376683	WORD	n/a	wordpools/wordpool_EN.txt	HOSE	6	4	[0, 0, 0]	n/a	FR1	0	R1048E
824.206	2.468	377925	WORD	n/a	wordpools/wordpool_EN.txt	TRASH	7	4	[0, 0, 0]	n/a	FR1	0	R1048E
826.674	2.483	379158	WORD	n/a	wordpools/wordpool_EN.txt	KITE	8	4	[0, 0, 0]	n/a	FR1	0	R1048E
829.157	2.401	380400	WORD	n/a	wordpools/wordpool_EN.txt	FISH	9	4	[0, 0, 0]	n/a	FR1	0	R1048E
831.558	2.434	381600	WORD	n/a	wordpools/wordpool_EN.txt	WHEEL	10	4	[0, 0, 0]	n/a	FR1	0	R1048E
833.992	2.517	382817	WORD	n/a	wordpools/wordpool_EN.txt	DOG	11	4	[0, 0, 0]	n/a	FR1	0	R1048E
836.509	1.616	384076	WORD	n/a	wordpools/wordpool_EN.txt	LAND	12	4	[0, 0, 0]	n/a	FR1	0	R1048E
838.125	0.001	384884	DISTRACT_START	n/a	n/a	n/a	-999	4	[0, 0, 0]	n/a	FR1	0	R1048E
838.126	0.016	384884	START	n/a	n/a	n/a	-999	4	[-999, -999, -999]	n/a	FR1	0	R1048E
838.142	9.034	384892	PROB	9.034	n/a	n/a	-999	4	[4, 5, 8]	17	FR1	0	R1048E
847.176	3.252	389409	PROB	3.252	n/a	n/a	-999	4	[2, 4, 6]	12	FR1	0	R1048E
850.428	2.984	391035	PROB	2.984	n/a	n/a	-999	4	[5, 9, 5]	19	FR1	0	R1048E
853.412	3.7	392527	PROB	3.7	n/a	n/a	-999	4	[4, 8, 3]	15	FR1	0	R1048E
857.112	6.287	394377	PROB	6.287	n/a	n/a	-999	4	[5, 7, 9]	21	FR1	0	R1048E
863.399	0.015	397520	STOP	n/a	n/a	n/a	-999	4	[-999, -999, -999]	n/a	FR1	0	R1048E
863.414	1.2	397527	DISTRACT_END	n/a	n/a	n/a	-999	4	[0, 0, 0]	n/a	FR1	0	R1048E
864.614	1.452	398127	REC_START	n/a	n/a	n/a	-999	4	[0, 0, 0]	n/a	FR1	0	R1048E
866.066	1.193	398853	REC_WORD	1.193	n/a	CAT	-999	4	[0, 0, 0]	n/a	FR1	0	R1048E
867.259	1.68	399450	REC_WORD	1.68	n/a	KITE	-999	4	[0, 0, 0]	n/a	FR1	0	R1048E
868.939	2.421	400290	REC_WORD	2.421	n/a	TANK	-999	4	[0, 0, 0]	n/a	FR1	0	R1048E
871.36	7.328	401500	REC_WORD	7.328	n/a	HOSE	-999	4	[0, 0, 0]	n/a	FR1	0	R1048E
878.688	15.941	405164	REC_WORD	15.941	n/a	FISH	-999	4	[0, 0, 0]	n/a	FR1	0	R1048E
894.629	65.035	413134	REC_END	n/a	n/a	n/a	-999	4	[0, 0, 0]	n/a	FR1	0	R1048E
959.664	0.0	445650	TRIAL	n/a	n/a	n/a	-999	5	[0, 0, 0]	n/a	FR1	0	R1048E
959.664	10.428	445650	COUNTDOWN_START	n/a	n/a	n/a	-999	5	[0, 0, 0]	n/a	FR1	0	R1048E
970.092	0.006	450864	COUNTDOWN_END	n/a	n/a	n/a	-999	5	[0, 0, 0]	n/a	FR1	0	R1048E
970.098	2.501	450867	ORIENT	n/a	n/a	n/a	-999	5	[0, 0, 0]	n/a	FR1	0	R1048E
972.599	2.417	452117	WORD	n/a	wordpools/wordpool_EN.txt	BALL	1	5	[0, 0, 0]	n/a	FR1	0	R1048E
975.016	2.451	453325	WORD	n/a	wordpools/wordpool_EN.txt	GLOVE	2	5	[0, 0, 0]	n/a	FR1	0	R1048E
977.467	2.467	454551	WORD	n/a	wordpools/wordpool_EN.txt	DRUM	3	5	[0, 0, 0]	n/a	FR1	0	R1048E
979.934	2.517	455784	WORD	n/a	wordpools/wordpool_EN.txt	PALM	4	5	[0, 0, 0]	n/a	FR1	0	R1048E
982.451	2.4	457043	WORD	n/a	wordpools/wordpool_EN.txt	PLATE	5	5	[0, 0, 0]	n/a	FR1	0	R1048E
984.851	2.451	458243	WORD	n/a	wordpools/wordpool_EN.txt	PRINCE	6	5	[0, 0, 0]	n/a	FR1	0	R1048E
987.302	2.4	459468	WORD	n/a	wordpools/wordpool_EN.txt	CHAIR	7	5	[0, 0, 0]	n/a	FR1	0	R1048E
989.702	2.618	460668	WORD	n/a	wordpools/wordpool_EN.txt	NET	8	5	[0, 0, 0]	n/a	FR1	0	R1048E
992.32	2.567	461977	WORD	n/a	wordpools/wordpool_EN.txt	TREE	9	5	[0, 0, 0]	n/a	FR1	0	R1048E
994.887	2.467	463260	WORD	n/a	wordpools/wordpool_EN.txt	VASE	10	5	[0, 0, 0]	n/a	FR1	0	R1048E
997.354	2.55	464494	WORD	n/a	wordpools/wordpool_EN.txt	SHARK	11	5	[0, 0, 0]	n/a	FR1	0	R1048E
999.904	1.617	465769	WORD	n/a	wordpools/wordpool_EN.txt	COIN	12	5	[0, 0, 0]	n/a	FR1	0	R1048E
1001.521	0.001	466577	DISTRACT_START	n/a	n/a	n/a	-999	5	[0, 0, 0]	n/a	FR1	0	R1048E
1001.522	0.016	466578	START	n/a	n/a	n/a	-999	5	[-999, -999, -999]	n/a	FR1	0	R1048E
1001.538	6.318	466586	PROB	6.318	n/a	n/a	-999	5	[3, 5, 2]	10	FR1	0	R1048E
1007.856	4.316	469745	PROB	4.316	n/a	n/a	-999	5	[4, 4, 7]	15	FR1	0	R1048E
1012.172	4.352	471902	PROB	4.352	n/a	n/a	-999	5	[3, 8, 3]	14	FR1	0	R1048E
1016.524	7.407	474078	PROB	7.407	n/a	n/a	-999	5	[3, 7, 6]	16	FR1	0	R1048E
1023.931	0.011	477782	STOP	n/a	n/a	n/a	-999	5	[-999, -999, -999]	n/a	FR1	0	R1048E
1023.942	1.084	477787	DISTRACT_END	n/a	n/a	n/a	-999	5	[0, 0, 0]	n/a	FR1	0	R1048E
1025.026	3.1	478329	REC_START	n/a	n/a	n/a	-999	5	[0, 0, 0]	n/a	FR1	0	R1048E
1028.126	1.21	479879	REC_WORD	1.21	n/a	GLOVE	-999	5	[0, 0, 0]	n/a	FR1	0	R1048E
1029.336	2.023	480484	REC_WORD	2.023	n/a	PALM	-999	5	[0, 0, 0]	n/a	FR1	0	R1048E
1031.359	1.891	481495	REC_WORD	1.891	n/a	SHARK	-999	5	[0, 0, 0]	n/a	FR1	0	R1048E
1033.25	1.361	482441	REC_WORD	1.361	n/a	COIN	-999	5	[0, 0, 0]	n/a	FR1	0	R1048E
1034.611	3.948	483121	REC_WORD	3.948	n/a	TREE	-999	5	[0, 0, 0]	n/a	FR1	0	R1048E
1038.559	2.917	485095	REC_WORD	2.917	n/a	PRINCE	-999	5	[0, 0, 0]	n/a	FR1	0	R1048E
1041.476	13.559	486554	REC_WORD	13.559	n/a	VASE	-999	5	[0, 0, 0]	n/a	FR1	0	R1048E
1055.035	2.579	493333	REC_END	n/a	n/a	n/a	-999	5	[0, 0, 0]	n/a	FR1	0	R1048E
1057.614	0.0	494622	TRIAL	n/a	n/a	n/a	-999	6	[0, 0, 0]	n/a	FR1	0	R1048E
1057.614	10.428	494622	COUNTDOWN_START	n/a	n/a	n/a	-999	6	[0, 0, 0]	n/a	FR1	0	R1048E
1068.042	0.006	499836	COUNTDOWN_END	n/a	n/a	n/a	-999	6	[0, 0, 0]	n/a	FR1	0	R1048E
1068.048	2.568	499839	ORIENT	n/a	n/a	n/a	-999	6	[0, 0, 0]	n/a	FR1	0	R1048E
1070.616	2.5	501123	WORD	n/a	wordpools/wordpool_EN.txt	SOAP	1	6	[0, 0, 0]	n/a	FR1	0	R1048E
1073.116	2.551	502373	WORD	n/a	wordpools/wordpool_EN.txt	GRAPE	2	6	[0, 0, 0]	n/a	FR1	0	R1048E
1075.667	2.5	503648	WORD	n/a	wordpools/wordpool_EN.txt	FLUTE	3	6	[0, 0, 0]	n/a	FR1	0	R1048E
1078.167	2.385	504898	WORD	n/a	wordpools/wordpool_EN.txt	BENCH	4	6	[0, 0, 0]	n/a	FR1	0	R1048E
1080.552	2.483	506091	WORD	n/a	wordpools/wordpool_EN.txt	FAN	5	6	[0, 0, 0]	n/a	FR1	0	R1048E
1083.035	2.501	507332	WORD	n/a	wordpools/wordpool_EN.txt	JUICE	6	6	[0, 0, 0]	n/a	FR1	0	R1048E
1085.536	2.583	508582	WORD	n/a	wordpools/wordpool_EN.txt	FRUIT	7	6	[0, 0, 0]	n/a	FR1	0	R1048E
1088.119	2.518	509874	WORD	n/a	wordpools/wordpool_EN.txt	COUCH	8	6	[0, 0, 0]	n/a	FR1	0	R1048E
1090.637	2.449	511133	WORD	n/a	wordpools/wordpool_EN.txt	GLASS	9	6	[0, 0, 0]	n/a	FR1	0	R1048E
1093.086	2.552	512357	WORD	n/a	wordpools/wordpool_EN.txt	BOWL	10	6	[0, 0, 0]	n/a	FR1	0	R1048E
1095.638	2.399	513633	WORD	n/a	wordpools/wordpool_EN.txt	BOOT	11	6	[0, 0, 0]	n/a	FR1	0	R1048E
1098.037	1.601	514833	WORD	n/a	wordpools/wordpool_EN.txt	CANE	12	6	[0, 0, 0]	n/a	FR1	0	R1048E
1099.638	0.001	515633	DISTRACT_START	n/a	n/a	n/a	-999	6	[0, 0, 0]	n/a	FR1	0	R1048E
1099.639	0.016	515634	START	n/a	n/a	n/a	-999	6	[-999, -999, -999]	n/a	FR1	0	R1048E
1099.655	5.851	515642	PROB	5.851	n/a	n/a	-999	6	[5, 6, 8]	19	FR1	0	R1048E
1105.506	3.484	518567	PROB	3.484	n/a	n/a	-999	6	[4, 8, 1]	13	FR1	0	R1048E
1108.99	8.318	520309	PROB	8.318	n/a	n/a	-999	6	[7, 5, 8]	20	FR1	0	R1048E
1117.308	6.089	524468	PROB	6.089	n/a	n/a	-999	6	[6, 5, 7]	18	FR1	0	R1048E
1123.397	0.012	527512	STOP	n/a	n/a	n/a	-999	6	[-999, -999, -999]	n/a	FR1	0	R1048E
1123.409	1.151	527518	DISTRACT_END	n/a	n/a	n/a	-999	6	[0, 0, 0]	n/a	FR1	0	R1048E
1124.56	2.871	528093	REC_START	n/a	n/a	n/a	-999	6	[0, 0, 0]	n/a	FR1	0	R1048E
1127.431	1.921	529529	REC_WORD	1.921	n/a	FLUTE	-999	6	[0, 0, 0]	n/a	FR1	0	R1048E
1129.352	1.341	530489	REC_WORD	1.341	n/a	FAN	-999	6	[0, 0, 0]	n/a	FR1	0	R1048E
1130.693	1.243	531160	REC_WORD	1.243	n/a	BENCH	-999	6	[0, 0, 0]	n/a	FR1	0	R1048E
1131.936	14.248	531781	REC_WORD	14.248	n/a	COUCH	-999	6	[0, 0, 0]	n/a	FR1	0	R1048E
1146.184	1.7	538905	REC_WORD	1.7	n/a	GRAPE	-999	6	[0, 0, 0]	n/a	FR1	0	R1048E
1147.884	0.641	539755	REC_WORD	0.641	n/a	JUICE	-999	6	[0, 0, 0]	n/a	FR1	0	R1048E
1148.525	6.044	540075	REC_WORD	6.044	n/a	FRUIT	-999	6	[0, 0, 0]	n/a	FR1	0	R1048E
1154.569	118.316	543097	REC_END	n/a	n/a	n/a	-999	6	[0, 0, 0]	n/a	FR1	0	R1048E
1272.885	0.0	602252	TRIAL	n/a	n/a	n/a	-999	7	[0, 0, 0]	n/a	FR1	0	R1048E
1272.885	10.428	602252	COUNTDOWN_START	n/a	n/a	n/a	-999	7	[0, 0, 0]	n/a	FR1	0	R1048E
1283.313	0.007	607466	COUNTDOWN_END	n/a	n/a	n/a	-999	7	[0, 0, 0]	n/a	FR1	0	R1048E
1283.32	2.434	607469	ORIENT	n/a	n/a	n/a	-999	7	[0, 0, 0]	n/a	FR1	0	R1048E
1285.754	2.584	608686	WORD	n/a	wordpools/wordpool_EN.txt	DUCK	1	7	[0, 0, 0]	n/a	FR1	0	R1048E
1288.338	2.567	609978	WORD	n/a	wordpools/wordpool_EN.txt	ZOO	2	7	[0, 0, 0]	n/a	FR1	0	R1048E
1290.905	2.6	611261	WORD	n/a	wordpools/wordpool_EN.txt	SOUP	3	7	[0, 0, 0]	n/a	FR1	0	R1048E
1293.505	2.384	612561	WORD	n/a	wordpools/wordpool_EN.txt	CLAY	4	7	[0, 0, 0]	n/a	FR1	0	R1048E
1295.889	2.401	613753	WORD	n/a	wordpools/wordpool_EN.txt	MOUSE	5	7	[0, 0, 0]	n/a	FR1	0	R1048E
1298.29	2.567	614954	WORD	n/a	wordpools/wordpool_EN.txt	SKUNK	6	7	[0, 0, 0]	n/a	FR1	0	R1048E
1300.857	2.5	616237	WORD	n/a	wordpools/wordpool_EN.txt	ANT	7	7	[0, 0, 0]	n/a	FR1	0	R1048E
1303.357	2.434	617487	WORD	n/a	wordpools/wordpool_EN.txt	MOOSE	8	7	[0, 0, 0]	n/a	FR1	0	R1048E
1305.791	2.449	618704	WORD	n/a	wordpools/wordpool_EN.txt	ROCK	9	7	[0, 0, 0]	n/a	FR1	0	R1048E
1308.24	2.502	619928	WORD	n/a	wordpools/wordpool_EN.txt	SPONGE	10	7	[0, 0, 0]	n/a	FR1	0	R1048E
1310.742	2.6	621179	WORD	n/a	wordpools/wordpool_EN.txt	TENT	11	7	[0, 0, 0]	n/a	FR1	0	R1048E
1313.342	1.617	622479	WORD	n/a	wordpools/wordpool_EN.txt	SNAKE	12	7	[0, 0, 0]	n/a	FR1	0	R1048E
1314.959	0.001	623288	DISTRACT_START	n/a	n/a	n/a	-999	7	[0, 0, 0]	n/a	FR1	0	R1048E
1314.96	0.016	623288	START	n/a	n/a	n/a	-999	7	[-999, -999, -999]	n/a	FR1	0	R1048E
1314.976	5.183	623296	PROB	5.183	n/a	n/a	-999	7	[7, 1, 4]	12	FR1	0	R1048E
1320.159	4.901	625887	PROB	4.901	n/a	n/a	-999	7	[7, 8, 8]	23	FR1	0	R1048E
1325.06	3.768	628338	PROB	3.768	n/a	n/a	-999	7	[2, 3, 1]	6	FR1	0	R1048E
1328.828	5.885	630222	PROB	5.885	n/a	n/a	-999	7	[8, 4, 7]	19	FR1	0	R1048E
1334.713	2.633	633164	PROB	2.633	n/a	n/a	-999	7	[2, 5, 1]	8	FR1	0	R1048E
1337.346	0.017	634481	STOP	n/a	n/a	n/a	-999	7	[-999, -999, -999]	n/a	FR1	0	R1048E
1337.363	1.084	634489	DISTRACT_END	n/a	n/a	n/a	-999	7	[0, 0, 0]	n/a	FR1	0	R1048E
1338.447	1.935	635031	REC_START	n/a	n/a	n/a	-999	7	[0, 0, 0]	n/a	FR1	0	R1048E
1340.382	1.107	635998	REC_WORD	1.107	n/a	DUCK	-999	7	[0, 0, 0]	n/a	FR1	0	R1048E
1341.489	1.52	636552	REC_WORD	1.52	n/a	SOUP	-999	7	[0, 0, 0]	n/a	FR1	0	R1048E
1343.009	1.857	637312	REC_WORD	1.857	n/a	CLAY	-999	7	[0, 0, 0]	n/a	FR1	0	R1048E
1344.866	2.375	638240	REC_WORD	2.375	n/a	MOOSE	-999	7	[0, 0, 0]	n/a	FR1	0	R1048E
1347.241	2.344	639428	REC_WORD	2.344	n/a	SKUNK	-999	7	[0, 0, 0]	n/a	FR1	0	R1048E
1349.585	1.505	640600	REC_WORD	1.505	n/a	ANT	-999	7	[0, 0, 0]	n/a	FR1	0	R1048E
1351.09	4.292	641352	REC_WORD	4.292	n/a	MOOSE	-999	7	[0, 0, 0]	n/a	FR1	0	R1048E
1355.382	11.28	643498	REC_WORD	11.28	n/a	ZOO	-999	7	[0, 0, 0]	n/a	FR1	0	R1048E
1366.662	1.8	649138	REC_WORD	1.8	n/a	GOAT	-999	7	[0, 0, 0]	n/a	FR1	0	R1048E
1368.462	14.176	650038	REC_END	n/a	n/a	n/a	-999	7	[0, 0, 0]	n/a	FR1	0	R1048E
1382.638	0.0	657125	TRIAL	n/a	n/a	n/a	-999	8	[0, 0, 0]	n/a	FR1	0	R1048E
1382.638	10.428	657125	COUNTDOWN_START	n/a	n/a	n/a	-999	8	[0, 0, 0]	n/a	FR1	0	R1048E
1393.066	0.006	662339	COUNTDOWN_END	n/a	n/a	n/a	-999	8	[0, 0, 0]	n/a	FR1	0	R1048E
1393.072	2.418	662342	ORIENT	n/a	n/a	n/a	-999	8	[0, 0, 0]	n/a	FR1	0	R1048E
1395.49	2.534	663551	WORD	n/a	wordpools/wordpool_EN.txt	STEAM	1	8	[0, 0, 0]	n/a	FR1	0	R1048E
1398.024	2.433	664818	WORD	n/a	wordpools/wordpool_EN.txt	SIGN	2	8	[0, 0, 0]	n/a	FR1	0	R1048E
1400.457	2.534	666034	WORD	n/a	wordpools/wordpool_EN.txt	WHALE	3	8	[0, 0, 0]	n/a	FR1	0	R1048E
1402.991	2.567	667301	WORD	n/a	wordpools/wordpool_EN.txt	SHIELD	4	8	[0, 0, 0]	n/a	FR1	0	R1048E
1405.558	2.55	668585	WORD	n/a	wordpools/wordpool_EN.txt	ICE	5	8	[0, 0, 0]	n/a	FR1	0	R1048E
1408.108	2.568	669860	WORD	n/a	wordpools/wordpool_EN.txt	CROW	6	8	[0, 0, 0]	n/a	FR1	0	R1048E
1410.676	2.6	671144	WORD	n/a	wordpools/wordpool_EN.txt	AXE	7	8	[0, 0, 0]	n/a	FR1	0	R1048E
1413.276	2.451	672443	WORD	n/a	wordpools/wordpool_EN.txt	JEEP	8	8	[0, 0, 0]	n/a	FR1	0	R1048E
1415.727	2.416	673669	WORD	n/a	wordpools/wordpool_EN.txt	SPRING	9	8	[0, 0, 0]	n/a	FR1	0	R1048E
1418.143	2.568	674877	WORD	n/a	wordpools/wordpool_EN.txt	SLEEVE	10	8	[0, 0, 0]	n/a	FR1	0	R1048E
1420.711	2.499	676161	WORD	n/a	wordpools/wordpool_EN.txt	GEESE	11	8	[0, 0, 0]	n/a	FR1	0	R1048E
1423.21	1.601	677410	WORD	n/a	wordpools/wordpool_EN.txt	GATE	12	8	[0, 0, 0]	n/a	FR1	0	R1048E
1424.811	0.001	678211	DISTRACT_START	n/a	n/a	n/a	-999	8	[0, 0, 0]	n/a	FR1	0	R1048E
1424.812	0.016	678211	START	n/a	n/a	n/a	-999	8	[-999, -999, -999]	n/a	FR1	0	R1048E
1424.828	7.502	678219	PROB	7.502	n/a	n/a	-999	8	[7, 6, 9]	21	FR1	0	R1048E
1432.33	6.184	681970	PROB	6.184	n/a	n/a	-999	8	[8, 9, 3]	20	FR1	0	R1048E
1438.514	6.201	685062	PROB	6.201	n/a	n/a	-999	8	[6, 4, 6]	16	FR1	0	R1048E
1444.715	2.91	688162	PROB	2.91	n/a	n/a	-999	8	[6, 5, 5]	16	FR1	0	R1048E
1447.625	0.007	689617	STOP	n/a	n/a	n/a	-999	8	[-999, -999, -999]	n/a	FR1	0	R1048E
1447.632	1.018	689621	DISTRACT_END	n/a	n/a	n/a	-999	8	[0, 0, 0]	n/a	FR1	0	R1048E
1448.65	4.245	690129	REC_START	n/a	n/a	n/a	-999	8	[0, 0, 0]	n/a	FR1	0	R1048E
1452.895	2.29	692252	REC_WORD	2.29	n/a	CROW	-999	8	[0, 0, 0]	n/a	FR1	0	R1048E
1455.185	2.265	693397	REC_WORD	2.265	n/a	WHALE	-999	8	[0, 0, 0]	n/a	FR1	0	R1048E
1457.45	1.863	694529	REC_WORD	1.863	n/a	SIGN	-999	8	[0, 0, 0]	n/a	FR1	0	R1048E
1459.313	2.12	695461	REC_WORD	2.12	n/a	SHIELD	-999	8	[0, 0, 0]	n/a	FR1	0	R1048E
1461.433	2.558	696521	REC_WORD	2.558	n/a	ICE	-999	8	[0, 0, 0]	n/a	FR1	0	R1048E
1463.991	3.179	697800	REC_WORD	3.179	n/a	SLEEVE	-999	8	[0, 0, 0]	n/a	FR1	0	R1048E
1467.17	3.004	699389	REC_WORD	3.004	n/a	GEESE	-999	8	[0, 0, 0]	n/a	FR1	0	R1048E
1470.174	8.485	700891	REC_WORD	8.485	n/a	GATE	-999	8	[0, 0, 0]	n/a	FR1	0	R1048E
1478.659	4.529	705133	REC_END	n/a	n/a	n/a	-999	8	[0, 0, 0]	n/a	FR1	0	R1048E
1483.188	0.0	707398	COUNTDOWN_START	n/a	n/a	n/a	-999	9	[0, 0, 0]	n/a	FR1	0	R1048E
1483.188	10.428	707398	TRIAL	n/a	n/a	n/a	-999	9	[0, 0, 0]	n/a	FR1	0	R1048E
1493.616	0.008	712611	COUNTDOWN_END	n/a	n/a	n/a	-999	9	[0, 0, 0]	n/a	FR1	0	R1048E
1493.624	2.433	712615	ORIENT	n/a	n/a	n/a	-999	9	[0, 0, 0]	n/a	FR1	0	R1048E
1496.057	2.401	713832	WORD	n/a	wordpools/wordpool_EN.txt	EAR	1	9	[0, 0, 0]	n/a	FR1	0	R1048E
1498.458	2.467	715032	WORD	n/a	wordpools/wordpool_EN.txt	HOUSE	2	9	[0, 0, 0]	n/a	FR1	0	R1048E
1500.925	2.567	716266	WORD	n/a	wordpools/wordpool_EN.txt	DOOR	3	9	[0, 0, 0]	n/a	FR1	0	R1048E
1503.492	2.484	717549	WORD	n/a	wordpools/wordpool_EN.txt	STREET	4	9	[0, 0, 0]	n/a	FR1	0	R1048E
1505.976	2.534	718791	WORD	n/a	wordpools/wordpool_EN.txt	DIME	5	9	[0, 0, 0]	n/a	FR1	0	R1048E
1508.51	2.433	720058	WORD	n/a	wordpools/wordpool_EN.txt	BED	6	9	[0, 0, 0]	n/a	FR1	0	R1048E
1510.943	2.618	721274	WORD	n/a	wordpools/wordpool_EN.txt	CAKE	7	9	[0, 0, 0]	n/a	FR1	0	R1048E
1513.561	2.482	722583	WORD	n/a	wordpools/wordpool_EN.txt	CART	8	9	[0, 0, 0]	n/a	FR1	0	R1048E
1516.043	2.485	723824	WORD	n/a	wordpools/wordpool_EN.txt	FENCE	9	9	[0, 0, 0]	n/a	FR1	0	R1048E
1518.528	2.467	725067	WORD	n/a	wordpools/wordpool_EN.txt	CUP	10	9	[0, 0, 0]	n/a	FR1	0	R1048E
1520.995	2.601	726300	WORD	n/a	wordpools/wordpool_EN.txt	SLUSH	11	9	[0, 0, 0]	n/a	FR1	0	R1048E
1523.596	1.616	727600	WORD	n/a	wordpools/wordpool_EN.txt	STAIR	12	9	[0, 0, 0]	n/a	FR1	0	R1048E
1525.212	0.0	728408	DISTRACT_START	n/a	n/a	n/a	-999	9	[0, 0, 0]	n/a	FR1	0	R1048E
1525.212	0.016	728408	START	n/a	n/a	n/a	-999	9	[-999, -999, -999]	n/a	FR1	0	R1048E
1525.228	5.901	728416	PROB	5.901	n/a	n/a	-999	9	[6, 4, 3]	13	FR1	0	R1048E
1531.129	4.702	731367	PROB	4.702	n/a	n/a	-999	9	[9, 4, 4]	17	FR1	0	R1048E
1535.831	5.634	733718	PROB	5.634	n/a	n/a	-999	9	[7, 5, 9]	21	FR1	0	R1048E
1541.465	10.269	736534	PROB	10.269	n/a	n/a	-999	9	[7, 5, 6]	18	FR1	0	R1048E
1551.734	0.017	741669	STOP	n/a	n/a	n/a	-999	9	[-999, -999, -999]	n/a	FR1	0	R1048E
1551.751	1.05	741677	DISTRACT_END	n/a	n/a	n/a	-999	9	[0, 0, 0]	n/a	FR1	0	R1048E
1552.801	2.142	742202	REC_START	n/a	n/a	n/a	-999	9	[0, 0, 0]	n/a	FR1	0	R1048E
1554.943	2.694	743273	REC_WORD	2.694	n/a	EAR	-999	9	[0, 0, 0]	n/a	FR1	0	R1048E
1557.637	1.631	744620	REC_WORD	1.631	n/a	CUP	-999	9	[0, 0, 0]	n/a	FR1	0	R1048E
1559.268	1.337	745435	REC_WORD	1.337	n/a	COIN	-999	9	[0, 0, 0]	n/a	FR1	0	R1048E
1560.605	1.614	746104	REC_WORD	1.614	n/a	BED	-999	9	[0, 0, 0]	n/a	FR1	0	R1048E
1562.219	2.26	746911	REC_WORD	2.26	n/a	SLUSH	-999	9	[0, 0, 0]	n/a	FR1	0	R1048E
1564.479	6.263	748041	REC_WORD	6.263	n/a	CART	-999	9	[0, 0, 0]	n/a	FR1	0	R1048E
1570.742	2.662	751172	REC_WORD	2.662	n/a	DIME	-999	9	[0, 0, 0]	n/a	FR1	0	R1048E
1573.404	7.774	752503	REC_WORD	7.774	n/a	CAKE	-999	9	[0, 0, 0]	n/a	FR1	0	R1048E
1581.178	1.638	756390	REC_WORD	1.638	n/a	STREET	-999	9	[0, 0, 0]	n/a	FR1	0	R1048E
1582.816	4.858	757209	REC_END	n/a	n/a	n/a	-999	9	[0, 0, 0]	n/a	FR1	0	R1048E
1587.674	0.0	759638	TRIAL	n/a	n/a	n/a	-999	10	[0, 0, 0]	n/a	FR1	0	R1048E
1587.674	10.428	759638	COUNTDOWN_START	n/a	n/a	n/a	-999	10	[0, 0, 0]	n/a	FR1	0	R1048E
1598.102	0.006	764851	COUNTDOWN_END	n/a	n/a	n/a	-999	10	[0, 0, 0]	n/a	FR1	0	R1048E
1598.108	2.468	764854	ORIENT	n/a	n/a	n/a	-999	10	[0, 0, 0]	n/a	FR1	0	R1048E
1600.576	2.434	766088	WORD	n/a	wordpools/wordpool_EN.txt	SEAL	1	10	[0, 0, 0]	n/a	FR1	0	R1048E
1603.01	2.467	767305	WORD	n/a	wordpools/wordpool_EN.txt	GOLD	2	10	[0, 0, 0]	n/a	FR1	0	R1048E
1605.477	2.533	768539	WORD	n/a	wordpools/wordpool_EN.txt	GUARD	3	10	[0, 0, 0]	n/a	FR1	0	R1048E
1608.01	2.401	769805	WORD	n/a	wordpools/wordpool_EN.txt	NAIL	4	10	[0, 0, 0]	n/a	FR1	0	R1048E
1610.411	2.5	771006	WORD	n/a	wordpools/wordpool_EN.txt	SQUARE	5	10	[0, 0, 0]	n/a	FR1	0	R1048E
1612.911	2.417	772255	WORD	n/a	wordpools/wordpool_EN.txt	CAPE	6	10	[0, 0, 0]	n/a	FR1	0	R1048E
1615.328	2.534	773464	WORD	n/a	wordpools/wordpool_EN.txt	TOOL	7	10	[0, 0, 0]	n/a	FR1	0	R1048E
1617.862	2.567	774731	WORD	n/a	wordpools/wordpool_EN.txt	CROWN	8	10	[0, 0, 0]	n/a	FR1	0	R1048E
1620.429	2.451	776014	WORD	n/a	wordpools/wordpool_EN.txt	SWORD	9	10	[0, 0, 0]	n/a	FR1	0	R1048E
1622.88	2.517	777240	WORD	n/a	wordpools/wordpool_EN.txt	HAND	10	10	[0, 0, 0]	n/a	FR1	0	R1048E
1625.397	2.484	778498	WORD	n/a	wordpools/wordpool_EN.txt	BLUSH	11	10	[0, 0, 0]	n/a	FR1	0	R1048E
1627.881	1.617	779740	WORD	n/a	wordpools/wordpool_EN.txt	PIT	12	10	[0, 0, 0]	n/a	FR1	0	R1048E
1629.498	0.0	780549	DISTRACT_START	n/a	n/a	n/a	-999	10	[0, 0, 0]	n/a	FR1	0	R1048E
1629.498	0.016	780549	START	n/a	n/a	n/a	-999	10	[-999, -999, -999]	n/a	FR1	0	R1048E
1629.514	7.952	780557	PROB	7.952	n/a	n/a	-999	10	[4, 9, 6]	19	FR1	0	R1048E
1637.466	6.217	784532	PROB	6.217	n/a	n/a	-999	10	[7, 5, 8]	20	FR1	0	R1048E
1643.683	5.084	787641	PROB	5.084	n/a	n/a	-999	10	[9, 5, 7]	21	FR1	0	R1048E
1648.767	5.066	790183	PROB	5.066	n/a	n/a	-999	10	[2, 7, 9]	18	FR1	0	R1048E
1653.833	0.019	792715	STOP	n/a	n/a	n/a	-999	10	[-999, -999, -999]	n/a	FR1	0	R1048E
1653.852	1.067	792725	DISTRACT_END	n/a	n/a	n/a	-999	10	[0, 0, 0]	n/a	FR1	0	R1048E
1654.919	1.681	793258	REC_START	n/a	n/a	n/a	-999	10	[0, 0, 0]	n/a	FR1	0	R1048E
1656.6	1.967	794099	REC_WORD	1.967	n/a	SEAL	-999	10	[0, 0, 0]	n/a	FR1	0	R1048E
1658.567	1.556	795082	REC_WORD	1.556	n/a	CAPE	-999	10	[0, 0, 0]	n/a	FR1	0	R1048E
1660.123	3.32	795860	REC_WORD	3.32	n/a	CROWN	-999	10	[0, 0, 0]	n/a	FR1	0	R1048E
1663.443	2.047	797520	REC_WORD	2.047	n/a	SQUARE	-999	10	[0, 0, 0]	n/a	FR1	0	R1048E
1665.49	2.747	798544	REC_WORD	2.747	n/a	NAIL	-999	10	[0, 0, 0]	n/a	FR1	0	R1048E
1668.237	4.196	799917	REC_WORD	4.196	n/a	SWORD	-999	10	[0, 0, 0]	n/a	FR1	0	R1048E
1672.433	2.133	802015	REC_WORD	2.133	n/a	BLUSH	-999	10	[0, 0, 0]	n/a	FR1	0	R1048E
1674.566	10.363	803081	REC_WORD	10.363	n/a	PIT	-999	10	[0, 0, 0]	n/a	FR1	0	R1048E
1684.929	5.145	808263	REC_END	n/a	n/a	n/a	-999	10	[0, 0, 0]	n/a	FR1	0	R1048E
1690.074	0.0	810835	TRIAL	n/a	n/a	n/a	-999	11	[0, 0, 0]	n/a	FR1	0	R1048E
1690.074	10.428	810835	COUNTDOWN_START	n/a	n/a	n/a	-999	11	[0, 0, 0]	n/a	FR1	0	R1048E
1700.502	0.008	816049	COUNTDOWN_END	n/a	n/a	n/a	-999	11	[0, 0, 0]	n/a	FR1	0	R1048E
1700.51	2.5	816053	ORIENT	n/a	n/a	n/a	-999	11	[0, 0, 0]	n/a	FR1	0	R1048E
1703.01	2.634	817303	WORD	n/a	wordpools/wordpool_EN.txt	STONE	1	11	[0, 0, 0]	n/a	FR1	0	R1048E
1705.644	2.433	818619	WORD	n/a	wordpools/wordpool_EN.txt	FOAM	2	11	[0, 0, 0]	n/a	FR1	0	R1048E
1708.077	2.401	819836	WORD	n/a	wordpools/wordpool_EN.txt	CUBE	3	11	[0, 0, 0]	n/a	FR1	0	R1048E
1710.478	2.451	821036	WORD	n/a	wordpools/wordpool_EN.txt	BEACH	4	11	[0, 0, 0]	n/a	FR1	0	R1048E
1712.929	2.533	822262	WORD	n/a	wordpools/wordpool_EN.txt	ROOF	5	11	[0, 0, 0]	n/a	FR1	0	R1048E
1715.462	2.434	823528	WORD	n/a	wordpools/wordpool_EN.txt	CAVE	6	11	[0, 0, 0]	n/a	FR1	0	R1048E
1717.896	2.534	824745	WORD	n/a	wordpools/wordpool_EN.txt	WEB	7	11	[0, 0, 0]	n/a	FR1	0	R1048E
1720.43	2.417	826012	WORD	n/a	wordpools/wordpool_EN.txt	HOLE	8	11	[0, 0, 0]	n/a	FR1	0	R1048E
1722.847	2.551	827220	WORD	n/a	wordpools/wordpool_EN.txt	BUSH	9	11	[0, 0, 0]	n/a	FR1	0	R1048E
1725.398	2.567	828496	WORD	n/a	wordpools/wordpool_EN.txt	SNAIL	10	11	[0, 0, 0]	n/a	FR1	0	R1048E
1727.965	2.55	829779	WORD	n/a	wordpools/wordpool_EN.txt	LAKE	11	11	[0, 0, 0]	n/a	FR1	0	R1048E
1730.515	1.616	831054	WORD	n/a	wordpools/wordpool_EN.txt	SPEAR	12	11	[0, 0, 0]	n/a	FR1	0	R1048E
1732.131	0.001	831862	DISTRACT_START	n/a	n/a	n/a	-999	11	[0, 0, 0]	n/a	FR1	0	R1048E
1732.132	0.016	831863	START	n/a	n/a	n/a	-999	11	[-999, -999, -999]	n/a	FR1	0	R1048E
1732.148	5.967	831871	PROB	5.967	n/a	n/a	-999	11	[4, 5, 6]	15	FR1	0	R1048E
1738.115	2.984	834854	PROB	2.984	n/a	n/a	-999	11	[3, 1, 4]	8	FR1	0	R1048E
1741.099	2.785	836346	PROB	2.785	n/a	n/a	-999	11	[3, 7, 2]	12	FR1	0	R1048E
1743.884	4.183	837738	PROB	4.183	n/a	n/a	-999	11	[4, 7, 2]	13	FR1	0	R1048E
1748.067	3.084	839830	PROB	3.084	n/a	n/a	-999	11	[9, 3, 3]	15	FR1	0	R1048E
1751.151	3.02	841372	PROB	3.02	n/a	n/a	-999	11	[2, 8, 1]	11	FR1	0	R1048E
1754.171	0.014	842882	STOP	n/a	n/a	n/a	-999	11	[-999, -999, -999]	n/a	FR1	0	R1048E
1754.185	1.185	842889	DISTRACT_END	n/a	n/a	n/a	-999	11	[0, 0, 0]	n/a	FR1	0	R1048E
1755.37	2.21	843481	REC_START	n/a	n/a	n/a	-999	11	[0, 0, 0]	n/a	FR1	0	R1048E
1757.58	1.313	844586	REC_WORD	1.313	n/a	CAVE	-999	11	[0, 0, 0]	n/a	FR1	0	R1048E
1758.893	1.61	845243	REC_WORD	1.61	n/a	HOLE	-999	11	[0, 0, 0]	n/a	FR1	0	R1048E
1760.503	2.671	846047	REC_WORD	2.671	n/a	BUSH	-999	11	[0, 0, 0]	n/a	FR1	0	R1048E
1763.174	3.473	847383	REC_WORD	3.473	n/a	BEACH	-999	11	[0, 0, 0]	n/a	FR1	0	R1048E
1766.647	3.356	849119	REC_WORD	3.356	n/a	SNAIL	-999	11	[0, 0, 0]	n/a	FR1	0	R1048E
1770.003	9.644	850797	REC_WORD	9.644	n/a	ROOF	-999	11	[0, 0, 0]	n/a	FR1	0	R1048E
1779.647	5.737	855619	REC_WORD	5.737	n/a	STONE	-999	11	[0, 0, 0]	n/a	FR1	0	R1048E
1785.384	5.492	858487	REC_END	n/a	n/a	n/a	-999	11	[0, 0, 0]	n/a	FR1	0	R1048E
1790.876	0.0	861233	TRIAL	n/a	n/a	n/a	-999	12	[0, 0, 0]	n/a	FR1	0	R1048E
1790.876	10.428	861233	COUNTDOWN_START	n/a	n/a	n/a	-999	12	[0, 0, 0]	n/a	FR1	0	R1048E
1801.304	0.007	866447	COUNTDOWN_END	n/a	n/a	n/a	-999	12	[0, 0, 0]	n/a	FR1	0	R1048E
1801.311	2.45	866450	ORIENT	n/a	n/a	n/a	-999	12	[0, 0, 0]	n/a	FR1	0	R1048E
1803.761	2.433	867675	WORD	n/a	wordpools/wordpool_EN.txt	MULE	1	12	[0, 0, 0]	n/a	FR1	0	R1048E
1806.194	2.602	868892	WORD	n/a	wordpools/wordpool_EN.txt	STORM	2	12	[0, 0, 0]	n/a	FR1	0	R1048E
1808.796	2.399	870193	WORD	n/a	wordpools/wordpool_EN.txt	HEN	3	12	[0, 0, 0]	n/a	FR1	0	R1048E
1811.195	2.451	871392	WORD	n/a	wordpools/wordpool_EN.txt	EGG	4	12	[0, 0, 0]	n/a	FR1	0	R1048E
1813.646	2.4	872618	WORD	n/a	wordpools/wordpool_EN.txt	SKI	5	12	[0, 0, 0]	n/a	FR1	0	R1048E
1816.046	2.384	873817	WORD	n/a	wordpools/wordpool_EN.txt	PEN	6	12	[0, 0, 0]	n/a	FR1	0	R1048E
1818.43	2.534	875009	WORD	n/a	wordpools/wordpool_EN.txt	FORT	7	12	[0, 0, 0]	n/a	FR1	0	R1048E
1820.964	2.534	876276	WORD	n/a	wordpools/wordpool_EN.txt	BEAK	8	12	[0, 0, 0]	n/a	FR1	0	R1048E
1823.498	2.467	877543	WORD	n/a	wordpools/wordpool_EN.txt	SAIL	9	12	[0, 0, 0]	n/a	FR1	0	R1048E
1825.965	2.584	878777	WORD	n/a	wordpools/wordpool_EN.txt	FARM	10	12	[0, 0, 0]	n/a	FR1	0	R1048E
1828.549	2.434	880069	WORD	n/a	wordpools/wordpool_EN.txt	FUR	11	12	[0, 0, 0]	n/a	FR1	0	R1048E
1830.983	1.617	881286	WORD	n/a	wordpools/wordpool_EN.txt	TRAIN	12	12	[0, 0, 0]	n/a	FR1	0	R1048E
1832.6	0.0	882094	DISTRACT_START	n/a	n/a	n/a	-999	12	[0, 0, 0]	n/a	FR1	0	R1048E
1832.6	0.016	882094	START	n/a	n/a	n/a	-999	12	[-999, -999, -999]	n/a	FR1	0	R1048E
1832.616	8.368	882102	PROB	8.368	n/a	n/a	-999	12	[9, 7, 5]	20	FR1	0	R1048E
1840.984	3.668	886286	PROB	3.668	n/a	n/a	-999	12	[1, 3, 7]	11	FR1	0	R1048E
1844.652	4.234	888120	PROB	4.234	n/a	n/a	-999	12	[2, 5, 9]	16	FR1	0	R1048E
1848.886	3.249	890237	PROB	3.249	n/a	n/a	-999	12	[4, 4, 5]	13	FR1	0	R1048E
1852.135	2.333	891861	PROB	2.333	n/a	n/a	-999	12	[1, 4, 9]	14	FR1	0	R1048E
1854.468	0.019	893027	STOP	n/a	n/a	n/a	-999	12	[-999, -999, -999]	n/a	FR1	0	R1048E
1854.487	1.167	893037	DISTRACT_END	n/a	n/a	n/a	-999	12	[0, 0, 0]	n/a	FR1	0	R1048E
1855.654	4.942	893620	REC_START	n/a	n/a	n/a	-999	12	[0, 0, 0]	n/a	FR1	0	R1048E
1860.596	1.71	896091	REC_WORD	1.71	n/a	HEN	-999	12	[0, 0, 0]	n/a	FR1	0	R1048E
1862.306	1.231	896946	REC_WORD	1.231	n/a	EGG	-999	12	[0, 0, 0]	n/a	FR1	0	R1048E
1863.537	1.821	897562	REC_WORD	1.821	n/a	MULE	-999	12	[0, 0, 0]	n/a	FR1	0	R1048E
1865.358	1.455	898472	REC_WORD	1.455	n/a	BEAK	-999	12	[0, 0, 0]	n/a	FR1	0	R1048E
1866.813	1.873	899200	REC_WORD	1.873	n/a	FARM	-999	12	[0, 0, 0]	n/a	FR1	0	R1048E
1868.686	1.985	900136	REC_WORD	1.985	n/a	TRAIN	-999	12	[0, 0, 0]	n/a	FR1	0	R1048E
1870.671	3.892	901128	REC_WORD	3.892	n/a	FUR	-999	12	[0, 0, 0]	n/a	FR1	0	R1048E
1874.563	5.287	903074	REC_WORD	5.287	n/a	FORT	-999	12	[0, 0, 0]	n/a	FR1	0	R1048E
1879.85	5.31	905718	REC_WORD	5.31	n/a	STORM	-999	12	[0, 0, 0]	n/a	FR1	0	R1048E
1885.16	0.508	908373	REC_WORD	0.508	n/a	SKI	-999	12	[0, 0, 0]	n/a	FR1	0	R1048E
1885.668	5.292	908627	REC_END	n/a	n/a	n/a	-999	12	[0, 0, 0]	n/a	FR1	0	R1048E
1890.96	0.0	911272	TRIAL	n/a	n/a	n/a	-999	13	[0, 0, 0]	n/a	FR1	0	R1048E
1890.96	10.428	911272	COUNTDOWN_START	n/a	n/a	n/a	-999	13	[0, 0, 0]	n/a	FR1	0	R1048E
1901.388	0.007	916486	COUNTDOWN_END	n/a	n/a	n/a	-999	13	[0, 0, 0]	n/a	FR1	0	R1048E
1901.395	2.6	916490	ORIENT	n/a	n/a	n/a	-999	13	[0, 0, 0]	n/a	FR1	0	R1048E
1903.995	2.584	917790	WORD	n/a	wordpools/wordpool_EN.txt	RUG	1	13	[0, 0, 0]	n/a	FR1	0	R1048E
1906.579	2.401	919081	WORD	n/a	wordpools/wordpool_EN.txt	YARD	2	13	[0, 0, 0]	n/a	FR1	0	R1048E
1908.98	2.417	920282	WORD	n/a	wordpools/wordpool_EN.txt	STOVE	3	13	[0, 0, 0]	n/a	FR1	0	R1048E
1911.397	2.617	921490	WORD	n/a	wordpools/wordpool_EN.txt	LOCK	4	13	[0, 0, 0]	n/a	FR1	0	R1048E
1914.014	2.434	922799	WORD	n/a	wordpools/wordpool_EN.txt	FACE	5	13	[0, 0, 0]	n/a	FR1	0	R1048E
1916.448	2.483	924016	WORD	n/a	wordpools/wordpool_EN.txt	BOARD	6	13	[0, 0, 0]	n/a	FR1	0	R1048E
1918.931	2.451	925257	WORD	n/a	wordpools/wordpool_EN.txt	CAGE	7	13	[0, 0, 0]	n/a	FR1	0	R1048E
1921.382	2.6	926483	WORD	n/a	wordpools/wordpool_EN.txt	HORN	8	13	[0, 0, 0]	n/a	FR1	0	R1048E
1923.982	2.551	927782	WORD	n/a	wordpools/wordpool_EN.txt	DRESS	9	13	[0, 0, 0]	n/a	FR1	0	R1048E
1926.533	2.616	929058	WORD	n/a	wordpools/wordpool_EN.txt	DOCK	10	13	[0, 0, 0]	n/a	FR1	0	R1048E
1929.149	2.401	930366	WORD	n/a	wordpools/wordpool_EN.txt	WOOD	11	13	[0, 0, 0]	n/a	FR1	0	R1048E
1931.55	1.616	931566	WORD	n/a	wordpools/wordpool_EN.txt	TOY	12	13	[0, 0, 0]	n/a	FR1	0	R1048E
1933.166	0.001	932374	DISTRACT_START	n/a	n/a	n/a	-999	13	[0, 0, 0]	n/a	FR1	0	R1048E
1933.167	0.016	932375	START	n/a	n/a	n/a	-999	13	[-999, -999, -999]	n/a	FR1	0	R1048E
1933.183	4.302	932383	PROB	4.302	n/a	n/a	-999	13	[3, 4, 2]	9	FR1	0	R1048E
1937.485	4.35	934534	PROB	4.35	n/a	n/a	-999	13	[1, 7, 5]	13	FR1	0	R1048E
1941.835	3.784	936709	PROB	3.784	n/a	n/a	-999	13	[1, 9, 8]	18	FR1	0	R1048E
1945.619	4.068	938600	PROB	4.068	n/a	n/a	-999	13	[6, 2, 8]	16	FR1	0	R1048E
1949.687	2.75	940634	PROB	2.75	n/a	n/a	-999	13	[5, 8, 2]	15	FR1	0	R1048E
1952.437	4.317	942009	PROB	4.317	n/a	n/a	-999	13	[5, 8, 4]	17	FR1	0	R1048E
1956.754	0.017	944168	STOP	n/a	n/a	n/a	-999	13	[-999, -999, -999]	n/a	FR1	0	R1048E
1956.771	1.168	944176	DISTRACT_END	n/a	n/a	n/a	-999	13	[0, 0, 0]	n/a	FR1	0	R1048E
1957.939	2.625	944760	REC_START	n/a	n/a	n/a	-999	13	[0, 0, 0]	n/a	FR1	0	R1048E
1960.564	2.33	946072	REC_WORD	2.33	n/a	STOVE	-999	13	[0, 0, 0]	n/a	FR1	0	R1048E
1962.894	2.535	947237	REC_WORD	2.535	n/a	WOOD	-999	13	[0, 0, 0]	n/a	FR1	0	R1048E
1965.429	3.808	948505	REC_WORD	3.808	n/a	TOY	-999	13	[0, 0, 0]	n/a	FR1	0	R1048E
1969.237	1.378	950409	REC_WORD	1.378	n/a	DOCK	-999	13	[0, 0, 0]	n/a	FR1	0	R1048E
1970.615	17.333	951098	REC_WORD	17.333	n/a	DRESS	-999	13	[0, 0, 0]	n/a	FR1	0	R1048E
1987.948	4.496	959764	REC_END	n/a	n/a	n/a	-999	13	[0, 0, 0]	n/a	FR1	0	R1048E
1992.444	0.001	962012	COUNTDOWN_START	n/a	n/a	n/a	-999	14	[0, 0, 0]	n/a	FR1	0	R1048E
1992.445	10.427	962012	TRIAL	n/a	n/a	n/a	-999	14	[0, 0, 0]	n/a	FR1	0	R1048E
2002.872	0.007	967225	COUNTDOWN_END	n/a	n/a	n/a	-999	14	[0, 0, 0]	n/a	FR1	0	R1048E
2002.879	2.601	967229	ORIENT	n/a	n/a	n/a	-999	14	[0, 0, 0]	n/a	FR1	0	R1048E
2005.48	2.616	968529	WORD	n/a	wordpools/wordpool_EN.txt	BRICK	1	14	[0, 0, 0]	n/a	FR1	0	R1048E
2008.096	2.518	969837	WORD	n/a	wordpools/wordpool_EN.txt	POLE	2	14	[0, 0, 0]	n/a	FR1	0	R1048E
2010.614	2.384	971096	WORD	n/a	wordpools/wordpool_EN.txt	JAIL	3	14	[0, 0, 0]	n/a	FR1	0	R1048E
2012.998	2.484	972288	WORD	n/a	wordpools/wordpool_EN.txt	MAP	4	14	[0, 0, 0]	n/a	FR1	0	R1048E
2015.482	2.4	973530	WORD	n/a	wordpools/wordpool_EN.txt	MOON	5	14	[0, 0, 0]	n/a	FR1	0	R1048E
2017.882	2.484	974730	WORD	n/a	wordpools/wordpool_EN.txt	CORD	6	14	[0, 0, 0]	n/a	FR1	0	R1048E
2020.366	2.567	975972	WORD	n/a	wordpools/wordpool_EN.txt	BOMB	7	14	[0, 0, 0]	n/a	FR1	0	R1048E
2022.933	2.434	977255	WORD	n/a	wordpools/wordpool_EN.txt	OAR	8	14	[0, 0, 0]	n/a	FR1	0	R1048E
2025.367	2.6	978472	WORD	n/a	wordpools/wordpool_EN.txt	STAR	9	14	[0, 0, 0]	n/a	FR1	0	R1048E
2027.967	2.584	979772	WORD	n/a	wordpools/wordpool_EN.txt	STEM	10	14	[0, 0, 0]	n/a	FR1	0	R1048E
2030.551	2.6	981064	WORD	n/a	wordpools/wordpool_EN.txt	BAT	11	14	[0, 0, 0]	n/a	FR1	0	R1048E
2033.151	1.617	982364	WORD	n/a	wordpools/wordpool_EN.txt	TOOTH	12	14	[0, 0, 0]	n/a	FR1	0	R1048E
2034.768	0.001	983172	DISTRACT_START	n/a	n/a	n/a	-999	14	[0, 0, 0]	n/a	FR1	0	R1048E
2034.769	0.016	983173	START	n/a	n/a	n/a	-999	14	[-999, -999, -999]	n/a	FR1	0	R1048E
2034.785	4.117	983181	PROB	4.117	n/a	n/a	-999	14	[7, 2, 7]	16	FR1	0	R1048E
2038.902	6.052	985239	PROB	6.052	n/a	n/a	-999	14	[4, 8, 6]	18	FR1	0	R1048E
2044.954	3.199	988265	PROB	3.199	n/a	n/a	-999	14	[5, 5, 9]	19	FR1	0	R1048E
2048.153	5.951	989865	PROB	5.951	n/a	n/a	-999	14	[4, 9, 8]	21	FR1	0	R1048E
2054.104	5.447	992840	PROB	5.447	n/a	n/a	-999	14	[3, 8, 5]	16	FR1	0	R1048E
2059.551	0.005	995563	STOP	n/a	n/a	n/a	-999	14	[-999, -999, -999]	n/a	FR1	0	R1048E
2059.556	1.235	995566	DISTRACT_END	n/a	n/a	n/a	-999	14	[0, 0, 0]	n/a	FR1	0	R1048E
2060.791	4.057	996183	REC_START	n/a	n/a	n/a	-999	14	[0, 0, 0]	n/a	FR1	0	R1048E
2064.848	1.182	998212	REC_WORD	1.182	n/a	MOON	-999	14	[0, 0, 0]	n/a	FR1	0	R1048E
2066.03	1.996	998803	REC_WORD	1.996	n/a	STAR	-999	14	[0, 0, 0]	n/a	FR1	0	R1048E
2068.026	1.59	999801	REC_WORD	1.59	n/a	BAT	-999	14	[0, 0, 0]	n/a	FR1	0	R1048E
2069.616	4.091	1000596	REC_WORD	4.091	n/a	STEM	-999	14	[0, 0, 0]	n/a	FR1	0	R1048E
2073.707	3.217	1002641	REC_WORD	3.217	n/a	POLE	-999	14	[0, 0, 0]	n/a	FR1	0	R1048E
2076.924	5.589	1004249	REC_WORD	5.589	n/a	JAIL	-999	14	[0, 0, 0]	n/a	FR1	0	R1048E
2082.513	7.852	1007044	REC_WORD	7.852	n/a	BRICK	-999	14	[0, 0, 0]	n/a	FR1	0	R1048E
2090.365	0.435	1010969	REC_WORD	0.435	n/a	CORD	-999	14	[0, 0, 0]	n/a	FR1	0	R1048E
2090.8	4.196	1011187	REC_END	n/a	n/a	n/a	-999	14	[0, 0, 0]	n/a	FR1	0	R1048E
2094.996	0.0	1013285	COUNTDOWN_START	n/a	n/a	n/a	-999	15	[0, 0, 0]	n/a	FR1	0	R1048E
2094.996	10.428	1013285	TRIAL	n/a	n/a	n/a	-999	15	[0, 0, 0]	n/a	FR1	0	R1048E
2105.424	0.007	1018499	COUNTDOWN_END	n/a	n/a	n/a	-999	15	[0, 0, 0]	n/a	FR1	0	R1048E
2105.431	2.567	1018502	ORIENT	n/a	n/a	n/a	-999	15	[0, 0, 0]	n/a	FR1	0	R1048E
2107.998	2.384	1019785	WORD	n/a	wordpools/wordpool_EN.txt	FOOT	1	15	[0, 0, 0]	n/a	FR1	0	R1048E
2110.382	2.55	1020977	WORD	n/a	wordpools/wordpool_EN.txt	HORSE	2	15	[0, 0, 0]	n/a	FR1	0	R1048E
2112.932	2.534	1022252	WORD	n/a	wordpools/wordpool_EN.txt	CALF	3	15	[0, 0, 0]	n/a	FR1	0	R1048E
2115.466	2.616	1023519	WORD	n/a	wordpools/wordpool_EN.txt	BAG	4	15	[0, 0, 0]	n/a	FR1	0	R1048E
2118.082	2.535	1024827	WORD	n/a	wordpools/wordpool_EN.txt	NOSE	5	15	[0, 0, 0]	n/a	FR1	0	R1048E
2120.617	2.449	1026095	WORD	n/a	wordpools/wordpool_EN.txt	DITCH	6	15	[0, 0, 0]	n/a	FR1	0	R1048E
2123.066	2.502	1027319	WORD	n/a	wordpools/wordpool_EN.txt	WAND	7	15	[0, 0, 0]	n/a	FR1	0	R1048E
2125.568	2.383	1028570	WORD	n/a	wordpools/wordpool_EN.txt	SHIRT	8	15	[0, 0, 0]	n/a	FR1	0	R1048E
2127.951	2.601	1029761	WORD	n/a	wordpools/wordpool_EN.txt	MOUTH	9	15	[0, 0, 0]	n/a	FR1	0	R1048E
2130.552	2.566	1031062	WORD	n/a	wordpools/wordpool_EN.txt	CHALK	10	15	[0, 0, 0]	n/a	FR1	0	R1048E
2133.118	2.568	1032345	WORD	n/a	wordpools/wordpool_EN.txt	SINK	11	15	[0, 0, 0]	n/a	FR1	0	R1048E
2135.686	1.617	1033629	WORD	n/a	wordpools/wordpool_EN.txt	MUD	12	15	[0, 0, 0]	n/a	FR1	0	R1048E
2137.303	0.001	1034437	DISTRACT_START	n/a	n/a	n/a	-999	15	[0, 0, 0]	n/a	FR1	0	R1048E
2137.304	0.016	1034438	START	n/a	n/a	n/a	-999	15	[-999, -999, -999]	n/a	FR1	0	R1048E
2137.32	11.452	1034446	PROB	11.452	n/a	n/a	-999	15	[6, 8, 9]	22	FR1	0	R1048E
2148.772	3.967	1040171	PROB	3.967	n/a	n/a	-999	15	[7, 7, 1]	15	FR1	0	R1048E
2152.739	2.917	1042155	PROB	2.917	n/a	n/a	-999	15	[3, 2, 2]	7	FR1	0	R1048E
2155.656	3.094	1043613	PROB	3.094	n/a	n/a	-999	15	[2, 3, 9]	14	FR1	0	R1048E
2158.75	0.007	1045160	STOP	n/a	n/a	n/a	-999	15	[-999, -999, -999]	n/a	FR1	0	R1048E
2158.757	1.167	1045164	DISTRACT_END	n/a	n/a	n/a	-999	15	[0, 0, 0]	n/a	FR1	0	R1048E
2159.924	2.705	1045747	REC_START	n/a	n/a	n/a	-999	15	[0, 0, 0]	n/a	FR1	0	R1048E
2162.629	1.531	1047099	REC_WORD	1.531	n/a	SHIRT	-999	15	[0, 0, 0]	n/a	FR1	0	R1048E
2164.16	2.152	1047865	REC_WORD	2.152	n/a	CHALK	-999	15	[0, 0, 0]	n/a	FR1	0	R1048E
2166.312	23.626	1048941	REC_WORD	23.626	n/a	MOUTH	-999	15	[0, 0, 0]	n/a	FR1	0	R1048E
2189.938	483.909	1060753	REC_END	n/a	n/a	n/a	-999	15	[0, 0, 0]	n/a	FR1	0	R1048E
2673.847	0.0	1302694	TRIAL	n/a	n/a	n/a	-999	16	[0, 0, 0]	n/a	FR1	0	R1048E
2673.847	10.428	1302694	COUNTDOWN_START	n/a	n/a	n/a	-999	16	[0, 0, 0]	n/a	FR1	0	R1048E
2684.275	0.007	1307908	COUNTDOWN_END	n/a	n/a	n/a	-999	16	[0, 0, 0]	n/a	FR1	0	R1048E
2684.282	2.467	1307912	ORIENT	n/a	n/a	n/a	-999	16	[0, 0, 0]	n/a	FR1	0	R1048E
2686.749	2.584	1309145	WORD	n/a	wordpools/wordpool_EN.txt	BADGE	1	16	[0, 0, 0]	n/a	FR1	0	R1048E
2689.333	2.417	1310437	WORD	n/a	wordpools/wordpool_EN.txt	JUDGE	2	16	[0, 0, 0]	n/a	FR1	0	R1048E
2691.75	2.634	1311646	WORD	n/a	wordpools/wordpool_EN.txt	BOOK	3	16	[0, 0, 0]	n/a	FR1	0	R1048E
2694.384	2.617	1312962	WORD	n/a	wordpools/wordpool_EN.txt	PIG	4	16	[0, 0, 0]	n/a	FR1	0	R1048E
2697.001	2.584	1314271	WORD	n/a	wordpools/wordpool_EN.txt	PLANE	5	16	[0, 0, 0]	n/a	FR1	0	R1048E
2699.585	2.533	1315563	WORD	n/a	wordpools/wordpool_EN.txt	SHEET	6	16	[0, 0, 0]	n/a	FR1	0	R1048E
2702.118	2.551	1316829	WORD	n/a	wordpools/wordpool_EN.txt	CAR	7	16	[0, 0, 0]	n/a	FR1	0	R1048E
2704.669	2.466	1318105	WORD	n/a	wordpools/wordpool_EN.txt	SMOKE	8	16	[0, 0, 0]	n/a	FR1	0	R1048E
2707.135	2.568	1319338	WORD	n/a	wordpools/wordpool_EN.txt	SHEEP	9	16	[0, 0, 0]	n/a	FR1	0	R1048E
2709.703	2.483	1320622	WORD	n/a	wordpools/wordpool_EN.txt	WAVE	10	16	[0, 0, 0]	n/a	FR1	0	R1048E
2712.186	2.468	1321863	WORD	n/a	wordpools/wordpool_EN.txt	ARK	11	16	[0, 0, 0]	n/a	FR1	0	R1048E
2714.654	1.617	1323097	WORD	n/a	wordpools/wordpool_EN.txt	JET	12	16	[0, 0, 0]	n/a	FR1	0	R1048E
2716.271	0.001	1323905	DISTRACT_START	n/a	n/a	n/a	-999	16	[0, 0, 0]	n/a	FR1	0	R1048E
2716.272	0.016	1323906	START	n/a	n/a	n/a	-999	16	[-999, -999, -999]	n/a	FR1	0	R1048E
2716.288	4.849	1323914	PROB	4.849	n/a	n/a	-999	16	[6, 6, 6]	18	FR1	0	R1048E
2721.137	3.752	1326338	PROB	3.752	n/a	n/a	-999	16	[1, 6, 2]	9	FR1	0	R1048E
2724.889	7.551	1328214	PROB	7.551	n/a	n/a	-999	16	[7, 5, 9]	21	FR1	0	R1048E
2732.44	4.072	1331989	PROB	4.072	n/a	n/a	-999	16	[6, 7, 7]	21	FR1	0	R1048E
2736.512	0.013	1334025	STOP	n/a	n/a	n/a	-999	16	[-999, -999, -999]	n/a	FR1	0	R1048E
2736.525	1.217	1334032	DISTRACT_END	n/a	n/a	n/a	-999	16	[0, 0, 0]	n/a	FR1	0	R1048E
2737.742	2.777	1334640	REC_START	n/a	n/a	n/a	-999	16	[0, 0, 0]	n/a	FR1	0	R1048E
2740.519	1.242	1336029	REC_WORD	1.242	n/a	PLANE	-999	16	[0, 0, 0]	n/a	FR1	0	R1048E
2741.761	0.944	1336650	REC_WORD	0.944	n/a	JET	-999	16	[0, 0, 0]	n/a	FR1	0	R1048E
2742.705	1.507	1337122	REC_WORD	1.507	n/a	PIG	-999	16	[0, 0, 0]	n/a	FR1	0	R1048E
2744.212	1.286	1337875	REC_WORD	1.286	n/a	BADGE	-999	16	[0, 0, 0]	n/a	FR1	0	R1048E
2745.498	2.129	1338518	REC_WORD	2.129	n/a	JUDGE	-999	16	[0, 0, 0]	n/a	FR1	0	R1048E
2747.627	1.816	1339582	REC_WORD	1.816	n/a	BOOK	-999	16	[0, 0, 0]	n/a	FR1	0	R1048E
2749.443	3.556	1340490	REC_WORD	3.556	n/a	ARK	-999	16	[0, 0, 0]	n/a	FR1	0	R1048E
2752.999	14.049	1342268	REC_WORD	14.049	n/a	WAVE	-999	16	[0, 0, 0]	n/a	FR1	0	R1048E
2767.048	0.703	1349292	REC_WORD	0.703	n/a	PIG	-999	16	[0, 0, 0]	n/a	FR1	0	R1048E
2767.751	4.596	1349644	REC_END	n/a	n/a	n/a	-999	16	[0, 0, 0]	n/a	FR1	0	R1048E
2772.347	0.001	1351942	COUNTDOWN_START	n/a	n/a	n/a	-999	17	[0, 0, 0]	n/a	FR1	0	R1048E
2772.348	10.427	1351942	TRIAL	n/a	n/a	n/a	-999	17	[0, 0, 0]	n/a	FR1	0	R1048E
2782.775	0.008	1357156	COUNTDOWN_END	n/a	n/a	n/a	-999	17	[0, 0, 0]	n/a	FR1	0	R1048E
2782.783	2.449	1357160	ORIENT	n/a	n/a	n/a	-999	17	[0, 0, 0]	n/a	FR1	0	R1048E
2785.232	2.535	1358384	WORD	n/a	wordpools/wordpool_EN.txt	MAIL	1	17	[0, 0, 0]	n/a	FR1	0	R1048E
2787.767	2.483	1359651	WORD	n/a	wordpools/wordpool_EN.txt	BANK	2	17	[0, 0, 0]	n/a	FR1	0	R1048E
2790.25	2.468	1360893	WORD	n/a	wordpools/wordpool_EN.txt	STORE	3	17	[0, 0, 0]	n/a	FR1	0	R1048E
2792.718	2.583	1362127	WORD	n/a	wordpools/wordpool_EN.txt	LAWN	4	17	[0, 0, 0]	n/a	FR1	0	R1048E
2795.301	2.501	1363418	WORD	n/a	wordpools/wordpool_EN.txt	PHONE	5	17	[0, 0, 0]	n/a	FR1	0	R1048E
2797.802	2.433	1364669	WORD	n/a	wordpools/wordpool_EN.txt	KEY	6	17	[0, 0, 0]	n/a	FR1	0	R1048E
2800.235	2.418	1365885	WORD	n/a	wordpools/wordpool_EN.txt	FUDGE	7	17	[0, 0, 0]	n/a	FR1	0	R1048E
2802.653	2.599	1367094	WORD	n/a	wordpools/wordpool_EN.txt	CASH	8	17	[0, 0, 0]	n/a	FR1	0	R1048E
2805.252	2.551	1368393	WORD	n/a	wordpools/wordpool_EN.txt	WALL	9	17	[0, 0, 0]	n/a	FR1	0	R1048E
2807.803	2.501	1369669	WORD	n/a	wordpools/wordpool_EN.txt	MILK	10	17	[0, 0, 0]	n/a	FR1	0	R1048E
2810.304	2.467	1370919	WORD	n/a	wordpools/wordpool_EN.txt	FOG	11	17	[0, 0, 0]	n/a	FR1	0	R1048E
2812.771	1.617	1372153	WORD	n/a	wordpools/wordpool_EN.txt	HEART	12	17	[0, 0, 0]	n/a	FR1	0	R1048E
2814.388	0.001	1372961	DISTRACT_START	n/a	n/a	n/a	-999	17	[0, 0, 0]	n/a	FR1	0	R1048E
2814.389	0.016	1372962	START	n/a	n/a	n/a	-999	17	[-999, -999, -999]	n/a	FR1	0	R1048E
2814.405	3.766	1372970	PROB	3.766	n/a	n/a	-999	17	[1, 2, 9]	12	FR1	0	R1048E
2818.171	3.368	1374853	PROB	3.368	n/a	n/a	-999	17	[1, 5, 9]	15	FR1	0	R1048E
2821.539	2.666	1376536	PROB	2.666	n/a	n/a	-999	17	[3, 6, 1]	10	FR1	0	R1048E
2824.205	4.802	1377869	PROB	4.802	n/a	n/a	-999	17	[8, 6, 1]	15	FR1	0	R1048E
2829.007	3.668	1380270	PROB	3.668	n/a	n/a	-999	17	[7, 4, 5]	16	FR1	0	R1048E
2832.675	4.119	1382104	PROB	4.119	n/a	n/a	-999	17	[2, 7, 6]	15	FR1	0	R1048E
2836.794	0.015	1384164	STOP	n/a	n/a	n/a	-999	17	[-999, -999, -999]	n/a	FR1	0	R1048E
2836.809	1.134	1384171	DISTRACT_END	n/a	n/a	n/a	-999	17	[0, 0, 0]	n/a	FR1	0	R1048E
2837.943	3.033	1384738	REC_START	n/a	n/a	n/a	-999	17	[0, 0, 0]	n/a	FR1	0	R1048E
2840.976	0.955	1386254	REC_WORD	0.955	n/a	FOG	-999	17	[0, 0, 0]	n/a	FR1	0	R1048E
2841.931	2.267	1386732	REC_WORD	2.267	n/a	HEART	-999	17	[0, 0, 0]	n/a	FR1	0	R1048E
2844.198	7.518	1387865	REC_WORD	7.518	n/a	MILK	-999	17	[0, 0, 0]	n/a	FR1	0	R1048E
2851.716	12.06	1391624	REC_WORD	12.06	n/a	MAIL	-999	17	[0, 0, 0]	n/a	FR1	0	R1048E
2863.776	2.608	1397654	REC_WORD	2.608	n/a	STORE	-999	17	[0, 0, 0]	n/a	FR1	0	R1048E
2866.384	1.568	1398958	REC_WORD	1.568	n/a	KEY	-999	17	[0, 0, 0]	n/a	FR1	0	R1048E
2867.952	3.095	1399742	REC_END	n/a	n/a	n/a	-999	17	[0, 0, 0]	n/a	FR1	0	R1048E
2871.047	0.0	1401289	TRIAL	n/a	n/a	n/a	-999	18	[0, 0, 0]	n/a	FR1	0	R1048E
2871.047	10.428	1401289	COUNTDOWN_START	n/a	n/a	n/a	-999	18	[0, 0, 0]	n/a	FR1	0	R1048E
2881.475	0.008	1406503	COUNTDOWN_END	n/a	n/a	n/a	-999	18	[0, 0, 0]	n/a	FR1	0	R1048E
2881.483	2.566	1406507	ORIENT	n/a	n/a	n/a	-999	18	[0, 0, 0]	n/a	FR1	0	R1048E
2884.049	2.585	1407790	WORD	n/a	wordpools/wordpool_EN.txt	BRUSH	1	18	[0, 0, 0]	n/a	FR1	0	R1048E
2886.634	2.616	1409082	WORD	n/a	wordpools/wordpool_EN.txt	FLAME	2	18	[0, 0, 0]	n/a	FR1	0	R1048E
2889.25	2.518	1410390	WORD	n/a	wordpools/wordpool_EN.txt	STICK	3	18	[0, 0, 0]	n/a	FR1	0	R1048E
2891.768	2.433	1411649	WORD	n/a	wordpools/wordpool_EN.txt	ROSE	4	18	[0, 0, 0]	n/a	FR1	0	R1048E
2894.201	2.451	1412865	WORD	n/a	wordpools/wordpool_EN.txt	POND	5	18	[0, 0, 0]	n/a	FR1	0	R1048E
2896.652	2.384	1414091	WORD	n/a	wordpools/wordpool_EN.txt	PARK	6	18	[0, 0, 0]	n/a	FR1	0	R1048E
2899.036	2.584	1415283	WORD	n/a	wordpools/wordpool_EN.txt	SLIME	7	18	[0, 0, 0]	n/a	FR1	0	R1048E
2901.62	2.566	1416575	WORD	n/a	wordpools/wordpool_EN.txt	DEER	8	18	[0, 0, 0]	n/a	FR1	0	R1048E
2904.186	2.452	1417858	WORD	n/a	wordpools/wordpool_EN.txt	LIP	9	18	[0, 0, 0]	n/a	FR1	0	R1048E
2906.638	2.516	1419084	WORD	n/a	wordpools/wordpool_EN.txt	MAT	10	18	[0, 0, 0]	n/a	FR1	0	R1048E
2909.154	2.468	1420342	WORD	n/a	wordpools/wordpool_EN.txt	CLIFF	11	18	[0, 0, 0]	n/a	FR1	0	R1048E
2911.622	1.616	1421575	WORD	n/a	wordpools/wordpool_EN.txt	JAR	12	18	[0, 0, 0]	n/a	FR1	0	R1048E
2913.238	0.001	1422383	DISTRACT_START	n/a	n/a	n/a	-999	18	[0, 0, 0]	n/a	FR1	0	R1048E
2913.239	0.015	1422384	START	n/a	n/a	n/a	-999	18	[-999, -999, -999]	n/a	FR1	0	R1048E
2913.254	8.353	1422391	PROB	8.353	n/a	n/a	-999	18	[2, 7, 8]	17	FR1	0	R1048E
2921.607	2.684	1426568	PROB	2.684	n/a	n/a	-999	18	[7, 3, 2]	12	FR1	0	R1048E
2924.291	4.05	1427910	PROB	4.05	n/a	n/a	-999	18	[9, 8, 5]	22	FR1	0	R1048E
2928.341	5.587	1429935	PROB	5.587	n/a	n/a	-999	18	[4, 7, 4]	15	FR1	0	R1048E
2933.928	0.014	1432728	STOP	n/a	n/a	n/a	-999	18	[-999, -999, -999]	n/a	FR1	0	R1048E
2933.942	1.051	1432735	DISTRACT_END	n/a	n/a	n/a	-999	18	[0, 0, 0]	n/a	FR1	0	R1048E
2934.993	2.658	1433260	REC_START	n/a	n/a	n/a	-999	18	[0, 0, 0]	n/a	FR1	0	R1048E
2937.651	2.653	1434589	REC_WORD	2.653	n/a	LAKE	-999	18	[0, 0, 0]	n/a	FR1	0	R1048E
2940.304	1.447	1435916	REC_WORD	1.447	n/a	PARK	-999	18	[0, 0, 0]	n/a	FR1	0	R1048E
2941.751	1.569	1436639	REC_WORD	1.569	n/a	BRUSH	-999	18	[0, 0, 0]	n/a	FR1	0	R1048E
2943.32	1.881	1437424	REC_WORD	1.881	n/a	STICK	-999	18	[0, 0, 0]	n/a	FR1	0	R1048E
2945.201	2.106	1438364	REC_WORD	2.106	n/a	FLAME	-999	18	[0, 0, 0]	n/a	FR1	0	R1048E
2947.307	2.298	1439417	REC_WORD	2.298	n/a	ROSE	-999	18	[0, 0, 0]	n/a	FR1	0	R1048E
2949.605	3.02	1440566	REC_WORD	3.02	n/a	SUN	-999	18	[0, 0, 0]	n/a	FR1	0	R1048E
2952.625	2.456	1442076	REC_WORD	2.456	n/a	DEER	-999	18	[0, 0, 0]	n/a	FR1	0	R1048E
2955.081	2.684	1443304	REC_WORD	2.684	n/a	JAR	-999	18	[0, 0, 0]	n/a	FR1	0	R1048E
2957.765	6.091	1444646	REC_WORD	6.091	n/a	LIP	-999	18	[0, 0, 0]	n/a	FR1	0	R1048E
2963.856	1.152	1447691	REC_WORD	1.152	n/a	CLIFF	-999	18	[0, 0, 0]	n/a	FR1	0	R1048E
2965.008	6.308	1448267	REC_END	n/a	n/a	n/a	-999	18	[0, 0, 0]	n/a	FR1	0	R1048E
2971.316	0.0	1451421	COUNTDOWN_START	n/a	n/a	n/a	-999	19	[0, 0, 0]	n/a	FR1	0	R1048E
2971.316	10.428	1451421	TRIAL	n/a	n/a	n/a	-999	19	[0, 0, 0]	n/a	FR1	0	R1048E
2981.744	0.007	1456635	COUNTDOWN_END	n/a	n/a	n/a	-999	19	[0, 0, 0]	n/a	FR1	0	R1048E
2981.751	2.55	1456638	ORIENT	n/a	n/a	n/a	-999	19	[0, 0, 0]	n/a	FR1	0	R1048E
2984.301	2.551	1457913	WORD	n/a	wordpools/wordpool_EN.txt	SCHOOL	1	19	[0, 0, 0]	n/a	FR1	0	R1048E
2986.852	2.55	1459188	WORD	n/a	wordpools/wordpool_EN.txt	PIN	2	19	[0, 0, 0]	n/a	FR1	0	R1048E
2989.402	2.484	1460463	WORD	n/a	wordpools/wordpool_EN.txt	CLOCK	3	19	[0, 0, 0]	n/a	FR1	0	R1048E
2991.886	2.5	1461705	WORD	n/a	wordpools/wordpool_EN.txt	FLAG	4	19	[0, 0, 0]	n/a	FR1	0	R1048E
2994.386	2.601	1462955	WORD	n/a	wordpools/wordpool_EN.txt	THUMB	5	19	[0, 0, 0]	n/a	FR1	0	R1048E
2996.987	2.383	1464256	WORD	n/a	wordpools/wordpool_EN.txt	BOY	6	19	[0, 0, 0]	n/a	FR1	0	R1048E
2999.37	2.534	1465447	WORD	n/a	wordpools/wordpool_EN.txt	WORLD	7	19	[0, 0, 0]	n/a	FR1	0	R1048E
3001.904	2.567	1466714	WORD	n/a	wordpools/wordpool_EN.txt	DESK	8	19	[0, 0, 0]	n/a	FR1	0	R1048E
3004.471	2.501	1467997	WORD	n/a	wordpools/wordpool_EN.txt	BRIDGE	9	19	[0, 0, 0]	n/a	FR1	0	R1048E
3006.972	2.417	1469248	WORD	n/a	wordpools/wordpool_EN.txt	THREAD	10	19	[0, 0, 0]	n/a	FR1	0	R1048E
3009.389	2.6	1470456	WORD	n/a	wordpools/wordpool_EN.txt	INK	11	19	[0, 0, 0]	n/a	FR1	0	R1048E
3011.989	1.617	1471756	WORD	n/a	wordpools/wordpool_EN.txt	POOL	12	19	[0, 0, 0]	n/a	FR1	0	R1048E
3013.606	0.001	1472565	DISTRACT_START	n/a	n/a	n/a	-999	19	[0, 0, 0]	n/a	FR1	0	R1048E
3013.607	0.016	1472565	START	n/a	n/a	n/a	-999	19	[-999, -999, -999]	n/a	FR1	0	R1048E
3013.623	7.635	1472573	PROB	7.635	n/a	n/a	-999	19	[4, 7, 9]	20	FR1	0	R1048E
3021.258	3.883	1476390	PROB	3.883	n/a	n/a	-999	19	[9, 3, 5]	17	FR1	0	R1048E
3025.141	5.268	1478332	PROB	5.268	n/a	n/a	-999	19	[3, 8, 3]	14	FR1	0	R1048E
3030.409	4.471	1480966	PROB	4.471	n/a	n/a	-999	19	[6, 5, 9]	20	FR1	0	R1048E
3034.88	0.013	1483201	STOP	n/a	n/a	n/a	-999	19	[-999, -999, -999]	n/a	FR1	0	R1048E
3034.893	1.15	1483208	DISTRACT_END	n/a	n/a	n/a	-999	19	[0, 0, 0]	n/a	FR1	0	R1048E
3036.043	2.726	1483783	REC_START	n/a	n/a	n/a	-999	19	[0, 0, 0]	n/a	FR1	0	R1048E
3038.769	1.167	1485146	REC_WORD	1.167	n/a	CLOCK	-999	19	[0, 0, 0]	n/a	FR1	0	R1048E
3039.936	1.607	1485729	REC_WORD	1.607	n/a	FLAG	-999	19	[0, 0, 0]	n/a	FR1	0	R1048E
3041.543	1.398	1486532	REC_WORD	1.398	n/a	THUMB	-999	19	[0, 0, 0]	n/a	FR1	0	R1048E
3042.941	2.079	1487231	REC_WORD	2.079	n/a	SCHOOL	-999	19	[0, 0, 0]	n/a	FR1	0	R1048E
3045.02	3.943	1488271	REC_WORD	3.943	n/a	DESK	-999	19	[0, 0, 0]	n/a	FR1	0	R1048E
3048.963	1.671	1490242	REC_WORD	1.671	n/a	POOL	-999	19	[0, 0, 0]	n/a	FR1	0	R1048E
3050.634	3.484	1491078	REC_WORD	3.484	n/a	BRIDGE	-999	19	[0, 0, 0]	n/a	FR1	0	R1048E
3054.118	2.193	1492820	REC_WORD	2.193	n/a	THREAD	-999	19	[0, 0, 0]	n/a	FR1	0	R1048E
3056.311	1.82	1493916	REC_WORD	1.82	n/a	INK	-999	19	[0, 0, 0]	n/a	FR1	0	R1048E
3058.131	7.925	1494826	REC_WORD	7.925	n/a	THUMB	-999	19	[0, 0, 0]	n/a	FR1	0	R1048E
3066.056	3.092	1498788	REC_END	n/a	n/a	n/a	-999	19	[0, 0, 0]	n/a	FR1	0	R1048E
3069.148	0.001	1500334	COUNTDOWN_START	n/a	n/a	n/a	-999	20	[0, 0, 0]	n/a	FR1	0	R1048E
3069.149	10.427	1500335	TRIAL	n/a	n/a	n/a	-999	20	[0, 0, 0]	n/a	FR1	0	R1048E
3079.576	0.009	1505548	COUNTDOWN_END	n/a	n/a	n/a	-999	20	[0, 0, 0]	n/a	FR1	0	R1048E
3079.585	2.466	1505552	ORIENT	n/a	n/a	n/a	-999	20	[0, 0, 0]	n/a	FR1	0	R1048E
3082.051	2.518	1506785	WORD	n/a	wordpools/wordpool_EN.txt	MUG	1	20	[0, 0, 0]	n/a	FR1	0	R1048E
3084.569	2.583	1508044	WORD	n/a	wordpools/wordpool_EN.txt	TRUCK	2	20	[0, 0, 0]	n/a	FR1	0	R1048E
3087.152	2.451	1509336	WORD	n/a	wordpools/wordpool_EN.txt	STOOL	3	20	[0, 0, 0]	n/a	FR1	0	R1048E
3089.603	2.466	1510561	WORD	n/a	wordpools/wordpool_EN.txt	PURSE	4	20	[0, 0, 0]	n/a	FR1	0	R1048E
3092.069	2.568	1511794	WORD	n/a	wordpools/wordpool_EN.txt	SHELL	5	20	[0, 0, 0]	n/a	FR1	0	R1048E
3094.637	2.433	1513078	WORD	n/a	wordpools/wordpool_EN.txt	PEARL	6	20	[0, 0, 0]	n/a	FR1	0	R1048E
3097.07	2.418	1514294	WORD	n/a	wordpools/wordpool_EN.txt	MAZE	7	20	[0, 0, 0]	n/a	FR1	0	R1048E
3099.488	2.583	1515503	WORD	n/a	wordpools/wordpool_EN.txt	FLOOR	8	20	[0, 0, 0]	n/a	FR1	0	R1048E
3102.071	2.518	1516795	WORD	n/a	wordpools/wordpool_EN.txt	VAN	9	20	[0, 0, 0]	n/a	FR1	0	R1048E
3104.589	2.417	1518054	WORD	n/a	wordpools/wordpool_EN.txt	HOOK	10	20	[0, 0, 0]	n/a	FR1	0	R1048E
3107.006	2.567	1519262	WORD	n/a	wordpools/wordpool_EN.txt	PEA	11	20	[0, 0, 0]	n/a	FR1	0	R1048E
3109.573	1.616	1520546	WORD	n/a	wordpools/wordpool_EN.txt	CLOWN	12	20	[0, 0, 0]	n/a	FR1	0	R1048E
3111.189	0.001	1521354	DISTRACT_START	n/a	n/a	n/a	-999	20	[0, 0, 0]	n/a	FR1	0	R1048E
3111.19	0.016	1521354	START	n/a	n/a	n/a	-999	20	[-999, -999, -999]	n/a	FR1	0	R1048E
3111.206	4.268	1521362	PROB	4.268	n/a	n/a	-999	20	[4, 3, 7]	14	FR1	0	R1048E
3115.474	2.117	1523496	PROB	2.117	n/a	n/a	-999	20	[6, 6, 2]	14	FR1	0	R1048E
3117.591	3.668	1524554	PROB	3.668	n/a	n/a	-999	20	[3, 4, 3]	10	FR1	0	R1048E
3121.259	3.35	1526388	PROB	3.35	n/a	n/a	-999	20	[4, 1, 2]	7	FR1	0	R1048E
3124.609	3.384	1528063	PROB	3.384	n/a	n/a	-999	20	[8, 8, 8]	24	FR1	0	R1048E
3127.993	4.271	1529755	PROB	4.271	n/a	n/a	-999	20	[7, 7, 5]	19	FR1	0	R1048E
3132.264	0.013	1531890	STOP	n/a	n/a	n/a	-999	20	[-999, -999, -999]	n/a	FR1	0	R1048E
3132.277	1.217	1531897	DISTRACT_END	n/a	n/a	n/a	-999	20	[0, 0, 0]	n/a	FR1	0	R1048E
3133.494	2.337	1532505	REC_START	n/a	n/a	n/a	-999	20	[0, 0, 0]	n/a	FR1	0	R1048E
3135.831	3.333	1533674	REC_WORD	3.333	n/a	VAN	-999	20	[0, 0, 0]	n/a	FR1	0	R1048E
3139.164	3.723	1535340	REC_WORD	3.723	n/a	FLOOR	-999	20	[0, 0, 0]	n/a	FR1	0	R1048E
3142.887	1.994	1537202	REC_WORD	1.994	n/a	SHELL	-999	20	[0, 0, 0]	n/a	FR1	0	R1048E
3144.881	3.251	1538199	REC_WORD	3.251	n/a	TRUCK	-999	20	[0, 0, 0]	n/a	FR1	0	R1048E
3148.132	7.369	1539824	REC_WORD	7.369	n/a	PEARL	-999	20	[0, 0, 0]	n/a	FR1	0	R1048E
3155.501	1.802	1543508	REC_WORD	1.802	n/a	HOOK	-999	20	[0, 0, 0]	n/a	FR1	0	R1048E
3157.303	2.064	1544409	REC_WORD	2.064	n/a	PEA	-999	20	[0, 0, 0]	n/a	FR1	0	R1048E
3159.367	4.145	1545441	REC_WORD	4.145	n/a	CLOWN	-999	20	[0, 0, 0]	n/a	FR1	0	R1048E
3163.512	2.838	1547514	REC_END	n/a	n/a	n/a	-999	20	[0, 0, 0]	n/a	FR1	0	R1048E
3166.35	0.0	1548933	TRIAL	n/a	n/a	n/a	-999	21	[0, 0, 0]	n/a	FR1	0	R1048E
3166.35	10.428	1548933	COUNTDOWN_START	n/a	n/a	n/a	-999	21	[0, 0, 0]	n/a	FR1	0	R1048E
3176.778	0.007	1554146	COUNTDOWN_END	n/a	n/a	n/a	-999	21	[0, 0, 0]	n/a	FR1	0	R1048E
3176.785	2.484	1554150	ORIENT	n/a	n/a	n/a	-999	21	[0, 0, 0]	n/a	FR1	0	R1048E
3179.269	2.55	1555392	WORD	n/a	wordpools/wordpool_EN.txt	BLOOM	1	21	[0, 0, 0]	n/a	FR1	0	R1048E
3181.819	2.416	1556667	WORD	n/a	wordpools/wordpool_EN.txt	BROOM	2	21	[0, 0, 0]	n/a	FR1	0	R1048E
3184.235	2.418	1557875	WORD	n/a	wordpools/wordpool_EN.txt	BRANCH	3	21	[0, 0, 0]	n/a	FR1	0	R1048E
3186.653	2.416	1559083	WORD	n/a	wordpools/wordpool_EN.txt	ROAD	4	21	[0, 0, 0]	n/a	FR1	0	R1048E
3189.069	2.485	1560291	WORD	n/a	wordpools/wordpool_EN.txt	OAK	5	21	[0, 0, 0]	n/a	FR1	0	R1048E
3191.554	2.6	1561534	WORD	n/a	wordpools/wordpool_EN.txt	GRASS	6	21	[0, 0, 0]	n/a	FR1	0	R1048E
3194.154	2.584	1562834	WORD	n/a	wordpools/wordpool_EN.txt	VINE	7	21	[0, 0, 0]	n/a	FR1	0	R1048E
3196.738	2.4	1564126	WORD	n/a	wordpools/wordpool_EN.txt	STRAW	8	21	[0, 0, 0]	n/a	FR1	0	R1048E
3199.138	2.468	1565326	WORD	n/a	wordpools/wordpool_EN.txt	ROPE	9	21	[0, 0, 0]	n/a	FR1	0	R1048E
3201.606	2.499	1566560	WORD	n/a	wordpools/wordpool_EN.txt	PANTS	10	21	[0, 0, 0]	n/a	FR1	0	R1048E
3204.105	2.435	1567809	WORD	n/a	wordpools/wordpool_EN.txt	PEACH	11	21	[0, 0, 0]	n/a	FR1	0	R1048E
3206.54	1.616	1569026	WORD	n/a	wordpools/wordpool_EN.txt	WEED	12	21	[0, 0, 0]	n/a	FR1	0	R1048E
3208.156	0.001	1569834	DISTRACT_START	n/a	n/a	n/a	-999	21	[0, 0, 0]	n/a	FR1	0	R1048E
3208.157	0.016	1569835	START	n/a	n/a	n/a	-999	21	[-999, -999, -999]	n/a	FR1	0	R1048E
3208.173	4.251	1569843	PROB	4.251	n/a	n/a	-999	21	[7, 2, 3]	12	FR1	0	R1048E
3212.424	5.101	1571968	PROB	5.101	n/a	n/a	-999	21	[4, 8, 7]	19	FR1	0	R1048E
3217.525	1.901	1574519	PROB	1.901	n/a	n/a	-999	21	[9, 1, 2]	12	FR1	0	R1048E
3219.426	2.6	1575469	PROB	2.6	n/a	n/a	-999	21	[3, 6, 3]	12	FR1	0	R1048E
3222.026	3.484	1576769	PROB	3.484	n/a	n/a	-999	21	[2, 7, 2]	11	FR1	0	R1048E
3225.51	5.759	1578511	PROB	5.759	n/a	n/a	-999	21	[2, 9, 6]	17	FR1	0	R1048E
3231.269	0.008	1581390	STOP	n/a	n/a	n/a	-999	21	[-999, -999, -999]	n/a	FR1	0	R1048E
3231.277	1.202	1581394	DISTRACT_END	n/a	n/a	n/a	-999	21	[0, 0, 0]	n/a	FR1	0	R1048E
3232.479	2.134	1581995	REC_START	n/a	n/a	n/a	-999	21	[0, 0, 0]	n/a	FR1	0	R1048E
3234.613	1.41	1583062	REC_WORD	1.41	n/a	BRANCH	-999	21	[0, 0, 0]	n/a	FR1	0	R1048E
3236.023	1.771	1583767	REC_WORD	1.771	n/a	PEACH	-999	21	[0, 0, 0]	n/a	FR1	0	R1048E
3237.794	1.749	1584653	REC_WORD	1.749	n/a	VINE	-999	21	[0, 0, 0]	n/a	FR1	0	R1048E
3239.543	1.913	1585527	REC_WORD	1.913	n/a	ROPE	-999	21	[0, 0, 0]	n/a	FR1	0	R1048E
3241.456	2.944	1586483	REC_WORD	2.944	n/a	PANTS	-999	21	[0, 0, 0]	n/a	FR1	0	R1048E
3244.4	3.721	1587955	REC_WORD	3.721	n/a	GRASS	-999	21	[0, 0, 0]	n/a	FR1	0	R1048E
3248.121	11.388	1589816	REC_WORD	11.388	n/a	LIMB	-999	21	[0, 0, 0]	n/a	FR1	0	R1048E
3259.509	2.978	1595509	REC_WORD	2.978	n/a	ROAD	-999	21	[0, 0, 0]	n/a	FR1	0	R1048E
3262.487	3.263	1596998	REC_END	n/a	n/a	n/a	-999	21	[0, 0, 0]	n/a	FR1	0	R1048E
3265.75	0.001	1598630	COUNTDOWN_START	n/a	n/a	n/a	-999	22	[0, 0, 0]	n/a	FR1	0	R1048E
3265.751	10.427	1598630	TRIAL	n/a	n/a	n/a	-999	22	[0, 0, 0]	n/a	FR1	0	R1048E
3276.178	0.007	1603844	COUNTDOWN_END	n/a	n/a	n/a	-999	22	[0, 0, 0]	n/a	FR1	0	R1048E
3276.185	2.468	1603847	ORIENT	n/a	n/a	n/a	-999	22	[0, 0, 0]	n/a	FR1	0	R1048E
3278.653	2.583	1605081	WORD	n/a	wordpools/wordpool_EN.txt	HILL	1	22	[0, 0, 0]	n/a	FR1	0	R1048E
3281.236	2.418	1606372	WORD	n/a	wordpools/wordpool_EN.txt	CLOUD	2	22	[0, 0, 0]	n/a	FR1	0	R1048E
3283.654	2.566	1607581	WORD	n/a	wordpools/wordpool_EN.txt	SHOE	3	22	[0, 0, 0]	n/a	FR1	0	R1048E
3286.22	2.535	1608864	WORD	n/a	wordpools/wordpool_EN.txt	BOX	4	22	[0, 0, 0]	n/a	FR1	0	R1048E
3288.755	2.499	1610132	WORD	n/a	wordpools/wordpool_EN.txt	RICE	5	22	[0, 0, 0]	n/a	FR1	0	R1048E
3291.254	2.601	1611381	WORD	n/a	wordpools/wordpool_EN.txt	TOAST	6	22	[0, 0, 0]	n/a	FR1	0	R1048E
3293.855	2.468	1612682	WORD	n/a	wordpools/wordpool_EN.txt	RAIN	7	22	[0, 0, 0]	n/a	FR1	0	R1048E
3296.323	2.617	1613915	WORD	n/a	wordpools/wordpool_EN.txt	ELF	8	22	[0, 0, 0]	n/a	FR1	0	R1048E
3298.94	2.617	1615224	WORD	n/a	wordpools/wordpool_EN.txt	FILM	9	22	[0, 0, 0]	n/a	FR1	0	R1048E
3301.557	2.417	1616532	WORD	n/a	wordpools/wordpool_EN.txt	CHIN	10	22	[0, 0, 0]	n/a	FR1	0	R1048E
3303.974	2.4	1617741	WORD	n/a	wordpools/wordpool_EN.txt	SWAMP	11	22	[0, 0, 0]	n/a	FR1	0	R1048E
3306.374	1.617	1618941	WORD	n/a	wordpools/wordpool_EN.txt	SALT	12	22	[0, 0, 0]	n/a	FR1	0	R1048E
3307.991	0.001	1619749	DISTRACT_START	n/a	n/a	n/a	-999	22	[0, 0, 0]	n/a	FR1	0	R1048E
3307.992	0.016	1619750	START	n/a	n/a	n/a	-999	22	[-999, -999, -999]	n/a	FR1	0	R1048E
3308.008	4.834	1619758	PROB	4.834	n/a	n/a	-999	22	[1, 8, 4]	13	FR1	0	R1048E
3312.842	2.501	1622175	PROB	2.501	n/a	n/a	-999	22	[1, 8, 2]	12	FR1	0	R1048E
3315.343	4.917	1623425	PROB	4.917	n/a	n/a	-999	22	[5, 1, 3]	9	FR1	0	R1048E
3320.26	4.151	1625883	PROB	4.151	n/a	n/a	-999	22	[3, 5, 9]	17	FR1	0	R1048E
3324.411	4.036	1627959	PROB	4.036	n/a	n/a	-999	22	[5, 7, 2]	14	FR1	0	R1048E
3328.447	0.015	1629977	STOP	n/a	n/a	n/a	-999	22	[-999, -999, -999]	n/a	FR1	0	R1048E
3328.462	1.183	1629984	DISTRACT_END	n/a	n/a	n/a	-999	22	[0, 0, 0]	n/a	FR1	0	R1048E
3329.645	6.681	1630576	REC_START	n/a	n/a	n/a	-999	22	[0, 0, 0]	n/a	FR1	0	R1048E
3336.326	1.984	1633916	REC_WORD	1.984	n/a	ELF	-999	22	[0, 0, 0]	n/a	FR1	0	R1048E
3338.31	1.233	1634908	REC_WORD	1.233	n/a	HILL	-999	22	[0, 0, 0]	n/a	FR1	0	R1048E
3339.543	4.112	1635524	REC_WORD	4.112	n/a	STORM	-999	22	[0, 0, 0]	n/a	FR1	0	R1048E
3343.655	1.564	1637580	REC_WORD	1.564	n/a	CLOUD	-999	22	[0, 0, 0]	n/a	FR1	0	R1048E
3345.219	7.003	1638362	REC_WORD	7.003	n/a	RAIN	-999	22	[0, 0, 0]	n/a	FR1	0	R1048E
3352.222	1.936	1641863	REC_WORD	1.936	n/a	RICE	-999	22	[0, 0, 0]	n/a	FR1	0	R1048E
3354.158	5.5	1642831	REC_WORD	5.5	n/a	BREAD	-999	22	[0, 0, 0]	n/a	FR1	0	R1048E
3359.658	2.976	1645581	REC_END	n/a	n/a	n/a	-999	22	[0, 0, 0]	n/a	FR1	0	R1048E
3362.634	0.0	1647069	TRIAL	n/a	n/a	n/a	-999	23	[0, 0, 0]	n/a	FR1	0	R1048E
3362.634	10.428	1647069	COUNTDOWN_START	n/a	n/a	n/a	-999	23	[0, 0, 0]	n/a	FR1	0	R1048E
3373.062	0.006	1652283	COUNTDOWN_END	n/a	n/a	n/a	-999	23	[0, 0, 0]	n/a	FR1	0	R1048E
3373.068	2.535	1652286	ORIENT	n/a	n/a	n/a	-999	23	[0, 0, 0]	n/a	FR1	0	R1048E
3375.603	2.616	1653553	WORD	n/a	wordpools/wordpool_EN.txt	TRAY	1	23	[0, 0, 0]	n/a	FR1	0	R1048E
3378.219	2.618	1654861	WORD	n/a	wordpools/wordpool_EN.txt	SPOON	2	23	[0, 0, 0]	n/a	FR1	0	R1048E
3380.837	2.383	1656170	WORD	n/a	wordpools/wordpool_EN.txt	TIE	3	23	[0, 0, 0]	n/a	FR1	0	R1048E
3383.22	2.468	1657362	WORD	n/a	wordpools/wordpool_EN.txt	FROG	4	23	[0, 0, 0]	n/a	FR1	0	R1048E
3385.688	2.617	1658596	WORD	n/a	wordpools/wordpool_EN.txt	SMILE	5	23	[0, 0, 0]	n/a	FR1	0	R1048E
3388.305	2.451	1659904	WORD	n/a	wordpools/wordpool_EN.txt	FORK	6	23	[0, 0, 0]	n/a	FR1	0	R1048E
3390.756	2.449	1661129	WORD	n/a	wordpools/wordpool_EN.txt	VEST	7	23	[0, 0, 0]	n/a	FR1	0	R1048E
3393.205	2.585	1662354	WORD	n/a	wordpools/wordpool_EN.txt	ARM	8	23	[0, 0, 0]	n/a	FR1	0	R1048E
3395.79	2.534	1663646	WORD	n/a	wordpools/wordpool_EN.txt	BREAD	9	23	[0, 0, 0]	n/a	FR1	0	R1048E
3398.324	2.467	1664913	WORD	n/a	wordpools/wordpool_EN.txt	GOAT	10	23	[0, 0, 0]	n/a	FR1	0	R1048E
3400.791	2.5	1666147	WORD	n/a	wordpools/wordpool_EN.txt	PIE	11	23	[0, 0, 0]	n/a	FR1	0	R1048E
3403.291	1.617	1667397	WORD	n/a	wordpools/wordpool_EN.txt	STEAK	12	23	[0, 0, 0]	n/a	FR1	0	R1048E
3404.908	0.001	1668205	DISTRACT_START	n/a	n/a	n/a	-999	23	[0, 0, 0]	n/a	FR1	0	R1048E
3404.909	0.016	1668206	START	n/a	n/a	n/a	-999	23	[-999, -999, -999]	n/a	FR1	0	R1048E
3404.925	5.334	1668214	PROB	5.334	n/a	n/a	-999	23	[9, 5, 4]	18	FR1	0	R1048E
3410.259	5.833	1670880	PROB	5.833	n/a	n/a	-999	23	[6, 1, 8]	15	FR1	0	R1048E
3416.092	5.653	1673797	PROB	5.653	n/a	n/a	-999	23	[2, 5, 7]	14	FR1	0	R1048E
3421.745	4.845	1676623	PROB	4.845	n/a	n/a	-999	23	[7, 3, 9]	19	FR1	0	R1048E
3426.59	0.005	1679045	STOP	n/a	n/a	n/a	-999	23	[-999, -999, -999]	n/a	FR1	0	R1048E
3426.595	1.201	1679048	DISTRACT_END	n/a	n/a	n/a	-999	23	[0, 0, 0]	n/a	FR1	0	R1048E
3427.796	3.035	1679648	REC_START	n/a	n/a	n/a	-999	23	[0, 0, 0]	n/a	FR1	0	R1048E
3430.831	1.772	1681166	REC_WORD	1.772	n/a	STEAK	-999	23	[0, 0, 0]	n/a	FR1	0	R1048E
3432.603	1.168	1682052	REC_WORD	1.168	n/a	FROG	-999	23	[0, 0, 0]	n/a	FR1	0	R1048E
3433.771	1.895	1682636	REC_WORD	1.895	n/a	TIE	-999	23	[0, 0, 0]	n/a	FR1	0	R1048E
3435.666	1.75	1683583	REC_WORD	1.75	n/a	TRAY	-999	23	[0, 0, 0]	n/a	FR1	0	R1048E
3437.416	1.95	1684458	REC_WORD	1.95	n/a	SPOON	-999	23	[0, 0, 0]	n/a	FR1	0	R1048E
3439.366	12.116	1685433	REC_WORD	12.116	n/a	FORK	-999	23	[0, 0, 0]	n/a	FR1	0	R1048E
3451.482	6.327	1691491	REC_WORD	6.327	n/a	SMILE	-999	23	[0, 0, 0]	n/a	FR1	0	R1048E
3457.809	2.676	1694654	REC_END	n/a	n/a	n/a	-999	23	[0, 0, 0]	n/a	FR1	0	R1048E
3460.485	0.0	1695992	TRIAL	n/a	n/a	n/a	-999	24	[0, 0, 0]	n/a	FR1	0	R1048E
3460.485	10.428	1695992	COUNTDOWN_START	n/a	n/a	n/a	-999	24	[0, 0, 0]	n/a	FR1	0	R1048E
3470.913	0.007	1701206	COUNTDOWN_END	n/a	n/a	n/a	-999	24	[0, 0, 0]	n/a	FR1	0	R1048E
3470.92	2.467	1701209	ORIENT	n/a	n/a	n/a	-999	24	[0, 0, 0]	n/a	FR1	0	R1048E
3473.387	2.384	1702443	WORD	n/a	wordpools/wordpool_EN.txt	SUN	1	24	[0, 0, 0]	n/a	FR1	0	R1048E
3475.771	2.583	1703635	WORD	n/a	wordpools/wordpool_EN.txt	TOAD	2	24	[0, 0, 0]	n/a	FR1	0	R1048E
3478.354	2.501	1704926	WORD	n/a	wordpools/wordpool_EN.txt	SEA	3	24	[0, 0, 0]	n/a	FR1	0	R1048E
3480.855	2.484	1706176	WORD	n/a	wordpools/wordpool_EN.txt	SNOW	4	24	[0, 0, 0]	n/a	FR1	0	R1048E
3483.339	2.45	1707418	WORD	n/a	wordpools/wordpool_EN.txt	WOLF	5	24	[0, 0, 0]	n/a	FR1	0	R1048E
3485.789	2.601	1708643	WORD	n/a	wordpools/wordpool_EN.txt	SHIP	6	24	[0, 0, 0]	n/a	FR1	0	R1048E
3488.39	2.55	1709944	WORD	n/a	wordpools/wordpool_EN.txt	RIB	7	24	[0, 0, 0]	n/a	FR1	0	R1048E
3490.94	2.434	1711219	WORD	n/a	wordpools/wordpool_EN.txt	MOLE	8	24	[0, 0, 0]	n/a	FR1	0	R1048E
3493.374	2.384	1712436	WORD	n/a	wordpools/wordpool_EN.txt	MOTH	9	24	[0, 0, 0]	n/a	FR1	0	R1048E
3495.758	2.399	1713628	WORD	n/a	wordpools/wordpool_EN.txt	TEETH	10	24	[0, 0, 0]	n/a	FR1	0	R1048E
3498.157	2.485	1714827	WORD	n/a	wordpools/wordpool_EN.txt	FOX	11	24	[0, 0, 0]	n/a	FR1	0	R1048E
3500.642	1.617	1716069	WORD	n/a	wordpools/wordpool_EN.txt	BEAR	12	24	[0, 0, 0]	n/a	FR1	0	R1048E
3502.259	0.0	1716878	DISTRACT_START	n/a	n/a	n/a	-999	24	[0, 0, 0]	n/a	FR1	0	R1048E
3502.259	0.016	1716878	START	n/a	n/a	n/a	-999	24	[-999, -999, -999]	n/a	FR1	0	R1048E
3502.275	3.501	1716886	PROB	3.501	n/a	n/a	-999	24	[1, 3, 3]	7	FR1	0	R1048E
3505.776	5.568	1718636	PROB	5.568	n/a	n/a	-999	24	[7, 3, 3]	13	FR1	0	R1048E
3511.344	4.334	1721420	PROB	4.334	n/a	n/a	-999	24	[3, 9, 7]	19	FR1	0	R1048E
3515.678	4.217	1723587	PROB	4.217	n/a	n/a	-999	24	[6, 7, 7]	20	FR1	0	R1048E
3519.895	5.743	1725695	PROB	5.743	n/a	n/a	-999	24	[7, 9, 5]	19	FR1	0	R1048E
3525.638	0.008	1728567	STOP	n/a	n/a	n/a	-999	24	[-999, -999, -999]	n/a	FR1	0	R1048E
3525.646	1.034	1728571	DISTRACT_END	n/a	n/a	n/a	-999	24	[0, 0, 0]	n/a	FR1	0	R1048E
3526.68	4.799	1729088	REC_START	n/a	n/a	n/a	-999	24	[0, 0, 0]	n/a	FR1	0	R1048E
3531.479	1.6	1731487	REC_WORD	1.6	n/a	BEAR	-999	24	[0, 0, 0]	n/a	FR1	0	R1048E
3533.079	1.663	1732287	REC_WORD	1.663	n/a	WOLF	-999	24	[0, 0, 0]	n/a	FR1	0	R1048E
3534.742	1.791	1733118	REC_WORD	1.791	n/a	TEETH	-999	24	[0, 0, 0]	n/a	FR1	0	R1048E
3536.533	4.457	1734014	REC_WORD	4.457	n/a	FOX	-999	24	[0, 0, 0]	n/a	FR1	0	R1048E
3540.99	4.199	1736242	REC_WORD	4.199	n/a	SNOW	-999	24	[0, 0, 0]	n/a	FR1	0	R1048E
3545.189	3.289	1738342	REC_WORD	3.289	n/a	SHORE	-999	24	[0, 0, 0]	n/a	FR1	0	R1048E
3548.478	2.722	1739986	REC_WORD	2.722	n/a	TOAD	-999	24	[0, 0, 0]	n/a	FR1	0	R1048E
3551.2	3.869	1741347	REC_WORD	3.869	n/a	SUN	-999	24	[0, 0, 0]	n/a	FR1	0	R1048E
3555.069	1.627	1743281	REC_WORD	1.627	n/a	SHIP	-999	24	[0, 0, 0]	n/a	FR1	0	R1048E
3556.696	4.723	1744095	REC_END	n/a	n/a	n/a	-999	24	[0, 0, 0]	n/a	FR1	0	R1048E
3561.419	0.0	1746456	TRIAL	n/a	n/a	n/a	-999	25	[0, 0, 0]	n/a	FR1	0	R1048E
3561.419	10.428	1746456	COUNTDOWN_START	n/a	n/a	n/a	-999	25	[0, 0, 0]	n/a	FR1	0	R1048E
3571.847	0.007	1751670	COUNTDOWN_END	n/a	n/a	n/a	-999	25	[0, 0, 0]	n/a	FR1	0	R1048E
3571.854	2.584	1751673	ORIENT	n/a	n/a	n/a	-999	25	[0, 0, 0]	n/a	FR1	0	R1048E
3574.438	2.55	1752965	WORD	n/a	wordpools/wordpool_EN.txt	PIPE	1	25	[0, 0, 0]	n/a	FR1	0	R1048E
3576.988	2.567	1754240	WORD	n/a	wordpools/wordpool_EN.txt	STRING	2	25	[0, 0, 0]	n/a	FR1	0	R1048E
3579.555	2.533	1755524	WORD	n/a	wordpools/wordpool_EN.txt	ROOM	3	25	[0, 0, 0]	n/a	FR1	0	R1048E
3582.088	2.368	1756790	WORD	n/a	wordpools/wordpool_EN.txt	DART	4	25	[0, 0, 0]	n/a	FR1	0	R1048E
3584.456	2.434	1757974	WORD	n/a	wordpools/wordpool_EN.txt	BAND	5	25	[0, 0, 0]	n/a	FR1	0	R1048E
3586.89	2.601	1759191	WORD	n/a	wordpools/wordpool_EN.txt	CHEEK	6	25	[0, 0, 0]	n/a	FR1	0	R1048E
3589.491	2.483	1760491	WORD	n/a	wordpools/wordpool_EN.txt	NEST	7	25	[0, 0, 0]	n/a	FR1	0	R1048E
3591.974	2.451	1761733	WORD	n/a	wordpools/wordpool_EN.txt	HAT	8	25	[0, 0, 0]	n/a	FR1	0	R1048E
3594.425	2.484	1762958	WORD	n/a	wordpools/wordpool_EN.txt	DOLL	9	25	[0, 0, 0]	n/a	FR1	0	R1048E
3596.909	2.383	1764200	WORD	n/a	wordpools/wordpool_EN.txt	BIRD	10	25	[0, 0, 0]	n/a	FR1	0	R1048E
3599.292	2.534	1765392	WORD	n/a	wordpools/wordpool_EN.txt	CRANE	11	25	[0, 0, 0]	n/a	FR1	0	R1048E
3601.826	1.617	1766659	WORD	n/a	wordpools/wordpool_EN.txt	TAIL	12	25	[0, 0, 0]	n/a	FR1	0	R1048E
3603.443	0.001	1767467	DISTRACT_START	n/a	n/a	n/a	-999	25	[0, 0, 0]	n/a	FR1	0	R1048E
3603.444	0.016	1767468	START	n/a	n/a	n/a	-999	25	[-999, -999, -999]	n/a	FR1	0	R1048E
3603.46	3.834	1767476	PROB	3.834	n/a	n/a	-999	25	[4, 6, 1]	11	FR1	0	R1048E
3607.294	4.749	1769392	PROB	4.749	n/a	n/a	-999	25	[7, 5, 1]	13	FR1	0	R1048E
3612.043	4.686	1771767	PROB	4.686	n/a	n/a	-999	25	[8, 7, 3]	18	FR1	0	R1048E
3616.729	6.5	1774110	PROB	6.5	n/a	n/a	-999	25	[4, 8, 6]	18	FR1	0	R1048E
3623.229	2.082	1777360	PROB	2.082	n/a	n/a	-999	25	[5, 1, 6]	12	FR1	0	R1048E
3625.311	0.019	1778400	STOP	n/a	n/a	n/a	-999	25	[-999, -999, -999]	n/a	FR1	0	R1048E
3625.33	1.218	1778410	DISTRACT_END	n/a	n/a	n/a	-999	25	[0, 0, 0]	n/a	FR1	0	R1048E
3626.548	2.775	1779019	REC_START	n/a	n/a	n/a	-999	25	[0, 0, 0]	n/a	FR1	0	R1048E
3629.323	1.737	1780406	REC_WORD	1.737	n/a	DART	-999	25	[0, 0, 0]	n/a	FR1	0	R1048E
3631.06	1.621	1781275	REC_WORD	1.621	n/a	PIPE	-999	25	[0, 0, 0]	n/a	FR1	0	R1048E
3632.681	2.377	1782085	REC_WORD	2.377	n/a	HAT	-999	25	[0, 0, 0]	n/a	FR1	0	R1048E
3635.058	1.71	1783274	REC_WORD	1.71	n/a	DOLL	-999	25	[0, 0, 0]	n/a	FR1	0	R1048E
3636.768	2.106	1784129	REC_WORD	2.106	n/a	BIRD	-999	25	[0, 0, 0]	n/a	FR1	0	R1048E
3638.874	2.243	1785182	REC_WORD	2.243	n/a	CRANE	-999	25	[0, 0, 0]	n/a	FR1	0	R1048E
3641.117	1.938	1786303	REC_WORD	1.938	n/a	TAIL	-999	25	[0, 0, 0]	n/a	FR1	0	R1048E
3643.055	3.607	1787272	REC_WORD	3.607	n/a	NEST	-999	25	[0, 0, 0]	n/a	FR1	0	R1048E
3646.662	4.257	1789075	REC_WORD	4.257	n/a	ROOM	-999	25	[0, 0, 0]	n/a	FR1	0	R1048E
3650.919	5.637	1791204	REC_WORD	5.637	n/a	CHEEK	-999	25	[0, 0, 0]	n/a	FR1	0	R1048E
3656.556	3.764	1794022	REC_END	n/a	n/a	n/a	-999	25	[0, 0, 0]	n/a	FR1	0	R1048E
3660.32	0.0	1795904	SESS_END	n/a	n/a	n/a	-999	25	[0, 0, 0]	n/a	FR1	0	R1048E
