onset	duration	sample	trial_type	response_time	stim_file	item_name	serialpos	list	test	answer	experiment	session	subject
0.0	15.913	467461	SESS_START	n/a	n/a	n/a	-999	-999	[0, 0, 0]	n/a	FR1	1	R1083J
15.913	10.428	483374	COUNTDOWN_START	n/a	n/a	n/a	-999	-999	[0, 0, 0]	n/a	FR1	1	R1083J
26.341	3.808	493802	COUNTDOWN_END	n/a	n/a	n/a	-999	-999	[0, 0, 0]	n/a	FR1	1	R1083J
30.149	2.633	497610	PRACTICE_WORD	n/a	n/a	IRON	1	-1	[0, 0, 0]	n/a	FR1	1	R1083J
32.782	2.385	500243	PRACTICE_WORD	n/a	n/a	TONGUE	2	-1	[0, 0, 0]	n/a	FR1	1	R1083J
35.167	2.517	502628	PRACTICE_WORD	n/a	n/a	ATTIC	3	-1	[0, 0, 0]	n/a	FR1	1	R1083J
37.684	2.6	505145	PRACTICE_WORD	n/a	n/a	CAMEL	4	-1	[0, 0, 0]	n/a	FR1	1	R1083J
40.284	2.533	507745	PRACTICE_WORD	n/a	n/a	RING	5	-1	[0, 0, 0]	n/a	FR1	1	R1083J
42.817	2.485	510278	PRACTICE_WORD	n/a	n/a	RHINO	6	-1	[0, 0, 0]	n/a	FR1	1	R1083J
45.302	2.515	512763	PRACTICE_WORD	n/a	n/a	FLOOD	7	-1	[0, 0, 0]	n/a	FR1	1	R1083J
47.817	2.385	515278	PRACTICE_WORD	n/a	n/a	WAGON	8	-1	[0, 0, 0]	n/a	FR1	1	R1083J
50.202	2.4	517663	PRACTICE_WORD	n/a	n/a	CHEST	9	-1	[0, 0, 0]	n/a	FR1	1	R1083J
52.602	2.45	520063	PRACTICE_WORD	n/a	n/a	WATCH	10	-1	[0, 0, 0]	n/a	FR1	1	R1083J
55.052	2.568	522513	PRACTICE_WORD	n/a	n/a	BEAM	11	-1	[0, 0, 0]	n/a	FR1	1	R1083J
57.62	1.617	525081	PRACTICE_WORD	n/a	n/a	COTTON	12	-1	[0, 0, 0]	n/a	FR1	1	R1083J
59.237	0.0	526698	PRACTICE_DISTRACT_START	n/a	n/a	n/a	-999	-1	[0, 0, 0]	n/a	FR1	1	R1083J
59.237	0.017	526698	START	n/a	n/a	n/a	-999	-1	[-999, -999, -999]	n/a	FR1	1	R1083J
59.254	10.151	526715	PROB	10.151	n/a	n/a	-999	-1	[4, 1, 1]	6	FR1	1	R1083J
69.405	2.917	536866	PROB	2.917	n/a	n/a	-999	-1	[4, 4, 7]	18	FR1	1	R1083J
72.322	2.1	539783	PROB	2.1	n/a	n/a	-999	-1	[5, 4, 2]	11	FR1	1	R1083J
74.422	3.483	541883	PROB	3.483	n/a	n/a	-999	-1	[6, 8, 6]	20	FR1	1	R1083J
77.905	2.291	545366	PROB	2.291	n/a	n/a	-999	-1	[4, 2, 7]	13	FR1	1	R1083J
80.196	0.01	547657	STOP	n/a	n/a	n/a	-999	-1	[-999, -999, -999]	n/a	FR1	1	R1083J
80.206	0.702	547667	PRACTICE_DISTRACT_END	n/a	n/a	n/a	-999	-1	[0, 0, 0]	n/a	FR1	1	R1083J
80.908	30.515	548369	PRACTICE_REC_START	n/a	n/a	n/a	-999	-1	[0, 0, 0]	n/a	FR1	1	R1083J
111.423	16.039	578884	PRACTICE_REC_END	n/a	n/a	n/a	-999	-1	[0, 0, 0]	n/a	FR1	1	R1083J
127.462	0.001	594923	COUNTDOWN_START	n/a	n/a	n/a	-999	1	[0, 0, 0]	n/a	FR1	1	R1083J
127.463	10.427	594924	TRIAL	n/a	n/a	n/a	-999	1	[0, 0, 0]	n/a	FR1	1	R1083J
137.89	0.006	605351	COUNTDOWN_END	n/a	n/a	n/a	-999	1	[0, 0, 0]	n/a	FR1	1	R1083J
137.896	2.585	605357	ORIENT	n/a	n/a	n/a	-999	1	[0, 0, 0]	n/a	FR1	1	R1083J
140.481	2.499	607942	WORD	n/a	wordpools/wordpool_EN.txt	NOSE	1	1	[0, 0, 0]	n/a	FR1	1	R1083J
142.98	2.568	610441	WORD	n/a	wordpools/wordpool_EN.txt	TAIL	2	1	[0, 0, 0]	n/a	FR1	1	R1083J
145.548	2.6	613009	WORD	n/a	wordpools/wordpool_EN.txt	PIT	3	1	[0, 0, 0]	n/a	FR1	1	R1083J
148.148	2.501	615609	WORD	n/a	wordpools/wordpool_EN.txt	PRINCE	4	1	[0, 0, 0]	n/a	FR1	1	R1083J
150.649	2.517	618110	WORD	n/a	wordpools/wordpool_EN.txt	MOUSE	5	1	[0, 0, 0]	n/a	FR1	1	R1083J
153.166	2.616	620627	WORD	n/a	wordpools/wordpool_EN.txt	SHIELD	6	1	[0, 0, 0]	n/a	FR1	1	R1083J
155.782	2.451	623243	WORD	n/a	wordpools/wordpool_EN.txt	ARM	7	1	[0, 0, 0]	n/a	FR1	1	R1083J
158.233	2.483	625694	WORD	n/a	wordpools/wordpool_EN.txt	TOE	8	1	[0, 0, 0]	n/a	FR1	1	R1083J
160.716	2.568	628177	WORD	n/a	wordpools/wordpool_EN.txt	WALL	9	1	[0, 0, 0]	n/a	FR1	1	R1083J
163.284	2.599	630745	WORD	n/a	wordpools/wordpool_EN.txt	SPEAR	10	1	[0, 0, 0]	n/a	FR1	1	R1083J
165.883	2.468	633344	WORD	n/a	wordpools/wordpool_EN.txt	HOOF	11	1	[0, 0, 0]	n/a	FR1	1	R1083J
168.351	1.616	635812	WORD	n/a	wordpools/wordpool_EN.txt	LAWN	12	1	[0, 0, 0]	n/a	FR1	1	R1083J
169.967	0.001	637428	DISTRACT_START	n/a	n/a	n/a	-999	1	[0, 0, 0]	n/a	FR1	1	R1083J
169.968	0.015	637429	START	n/a	n/a	n/a	-999	1	[-999, -999, -999]	n/a	FR1	1	R1083J
169.983	3.285	637444	PROB	3.285	n/a	n/a	-999	1	[1, 1, 2]	4	FR1	1	R1083J
173.268	2.917	640728	PROB	2.917	n/a	n/a	-999	1	[3, 4, 1]	8	FR1	1	R1083J
176.185	2.251	643645	PROB	2.251	n/a	n/a	-999	1	[5, 5, 2]	12	FR1	1	R1083J
178.436	2.349	645896	PROB	2.349	n/a	n/a	-999	1	[6, 4, 4]	14	FR1	1	R1083J
180.785	2.485	648245	PROB	2.485	n/a	n/a	-999	1	[3, 8, 8]	19	FR1	1	R1083J
183.27	2.217	650730	PROB	2.217	n/a	n/a	-999	1	[8, 6, 1]	15	FR1	1	R1083J
185.487	2.382	652947	PROB	2.382	n/a	n/a	-999	1	[6, 2, 5]	13	FR1	1	R1083J
187.869	3.105	655329	PROB	3.105	n/a	n/a	-999	1	[6, 7, 9]	22	FR1	1	R1083J
190.974	0.012	658434	STOP	n/a	n/a	n/a	-999	1	[-999, -999, -999]	n/a	FR1	1	R1083J
190.986	1.219	658446	DISTRACT_END	n/a	n/a	n/a	-999	1	[0, 0, 0]	n/a	FR1	1	R1083J
192.205	1.695	659665	REC_START	n/a	n/a	n/a	-999	1	[0, 0, 0]	n/a	FR1	1	R1083J
193.9	1.397	661360	REC_WORD	1.397	n/a	TAIL	-999	1	[0, 0, 0]	n/a	FR1	1	R1083J
195.297	2.001	662757	REC_WORD	2.001	n/a	IRON	-999	1	[0, 0, 0]	n/a	FR1	1	R1083J
197.298	3.806	664758	REC_WORD	3.806	n/a	PIT	-999	1	[0, 0, 0]	n/a	FR1	1	R1083J
201.104	4.268	668564	REC_WORD_VV	4.268	n/a	<>	-999	1	[0, 0, 0]	n/a	FR1	1	R1083J
205.372	0.49	672832	REC_WORD	0.49	n/a	TAIL	-999	1	[0, 0, 0]	n/a	FR1	1	R1083J
205.862	0.771	673322	REC_WORD	0.771	n/a	IRON	-999	1	[0, 0, 0]	n/a	FR1	1	R1083J
206.633	4.138	674093	REC_WORD	4.138	n/a	PIT	-999	1	[0, 0, 0]	n/a	FR1	1	R1083J
210.771	0.608	678231	REC_WORD	0.608	n/a	FINGER	-999	1	[0, 0, 0]	n/a	FR1	1	R1083J
211.379	10.837	678839	REC_WORD	10.837	n/a	SEAM	-999	1	[0, 0, 0]	n/a	FR1	1	R1083J
222.216	2.475	689676	REC_END	n/a	n/a	n/a	-999	1	[0, 0, 0]	n/a	FR1	1	R1083J
224.691	0.0	692151	COUNTDOWN_START	n/a	n/a	n/a	-999	2	[0, 0, 0]	n/a	FR1	1	R1083J
224.691	10.428	692151	TRIAL	n/a	n/a	n/a	-999	2	[0, 0, 0]	n/a	FR1	1	R1083J
235.119	0.007	702579	COUNTDOWN_END	n/a	n/a	n/a	-999	2	[0, 0, 0]	n/a	FR1	1	R1083J
235.126	2.6	702586	ORIENT	n/a	n/a	n/a	-999	2	[0, 0, 0]	n/a	FR1	1	R1083J
237.726	2.618	705186	WORD	n/a	wordpools/wordpool_EN.txt	BRUSH	1	2	[0, 0, 0]	n/a	FR1	1	R1083J
240.344	2.533	707804	WORD	n/a	wordpools/wordpool_EN.txt	MUD	2	2	[0, 0, 0]	n/a	FR1	1	R1083J
242.877	2.451	710337	WORD	n/a	wordpools/wordpool_EN.txt	PHONE	3	2	[0, 0, 0]	n/a	FR1	1	R1083J
245.328	2.432	712788	WORD	n/a	wordpools/wordpool_EN.txt	CHALK	4	2	[0, 0, 0]	n/a	FR1	1	R1083J
247.76	2.552	715220	WORD	n/a	wordpools/wordpool_EN.txt	SMOKE	5	2	[0, 0, 0]	n/a	FR1	1	R1083J
250.312	2.449	717772	WORD	n/a	wordpools/wordpool_EN.txt	BATH	6	2	[0, 0, 0]	n/a	FR1	1	R1083J
252.761	2.535	720221	WORD	n/a	wordpools/wordpool_EN.txt	FOAM	7	2	[0, 0, 0]	n/a	FR1	1	R1083J
255.296	2.516	722756	WORD	n/a	wordpools/wordpool_EN.txt	FROG	8	2	[0, 0, 0]	n/a	FR1	1	R1083J
257.812	2.568	725272	WORD	n/a	wordpools/wordpool_EN.txt	STRING	9	2	[0, 0, 0]	n/a	FR1	1	R1083J
260.38	2.383	727840	WORD	n/a	wordpools/wordpool_EN.txt	BOARD	10	2	[0, 0, 0]	n/a	FR1	1	R1083J
262.763	2.551	730223	WORD	n/a	wordpools/wordpool_EN.txt	PIE	11	2	[0, 0, 0]	n/a	FR1	1	R1083J
265.314	1.615	732774	WORD	n/a	wordpools/wordpool_EN.txt	TOOTH	12	2	[0, 0, 0]	n/a	FR1	1	R1083J
266.929	0.001	734389	DISTRACT_START	n/a	n/a	n/a	-999	2	[0, 0, 0]	n/a	FR1	1	R1083J
266.93	0.016	734390	START	n/a	n/a	n/a	-999	2	[-999, -999, -999]	n/a	FR1	1	R1083J
266.946	3.718	734406	PROB	3.718	n/a	n/a	-999	2	[9, 2, 1]	13	FR1	1	R1083J
270.664	3.751	738124	PROB	3.751	n/a	n/a	-999	2	[2, 5, 3]	10	FR1	1	R1083J
274.415	4.834	741875	PROB	4.834	n/a	n/a	-999	2	[7, 6, 9]	24	FR1	1	R1083J
279.249	3.834	746709	PROB	3.834	n/a	n/a	-999	2	[5, 6, 1]	12	FR1	1	R1083J
283.083	2.283	750543	PROB	2.283	n/a	n/a	-999	2	[2, 9, 6]	17	FR1	1	R1083J
285.366	1.709	752826	PROB	1.709	n/a	n/a	-999	2	[7, 3, 2]	12	FR1	1	R1083J
287.075	0.007	754535	STOP	n/a	n/a	n/a	-999	2	[-999, -999, -999]	n/a	FR1	1	R1083J
287.082	1.235	754542	DISTRACT_END	n/a	n/a	n/a	-999	2	[0, 0, 0]	n/a	FR1	1	R1083J
288.317	7.894	755777	REC_START	n/a	n/a	n/a	-999	2	[0, 0, 0]	n/a	FR1	1	R1083J
296.211	5.061	763671	REC_WORD	5.061	n/a	BROOM	-999	2	[0, 0, 0]	n/a	FR1	1	R1083J
301.272	2.01	768732	REC_WORD	2.01	n/a	KIT	-999	2	[0, 0, 0]	n/a	FR1	1	R1083J
303.282	6.592	770742	REC_WORD	6.592	n/a	CHALK	-999	2	[0, 0, 0]	n/a	FR1	1	R1083J
309.874	3.689	777334	REC_WORD	3.689	n/a	SHIELD	-999	2	[0, 0, 0]	n/a	FR1	1	R1083J
313.563	4.764	781023	REC_WORD	4.764	n/a	SEAM	-999	2	[0, 0, 0]	n/a	FR1	1	R1083J
318.327	3.761	785787	REC_END	n/a	n/a	n/a	-999	2	[0, 0, 0]	n/a	FR1	1	R1083J
322.088	0.0	789548	TRIAL	n/a	n/a	n/a	-999	3	[0, 0, 0]	n/a	FR1	1	R1083J
322.088	10.428	789548	COUNTDOWN_START	n/a	n/a	n/a	-999	3	[0, 0, 0]	n/a	FR1	1	R1083J
332.516	0.007	799976	COUNTDOWN_END	n/a	n/a	n/a	-999	3	[0, 0, 0]	n/a	FR1	1	R1083J
332.523	2.432	799983	ORIENT	n/a	n/a	n/a	-999	3	[0, 0, 0]	n/a	FR1	1	R1083J
334.955	2.484	802415	WORD	n/a	wordpools/wordpool_EN.txt	ROPE	1	3	[0, 0, 0]	n/a	FR1	1	R1083J
337.439	2.617	804899	WORD	n/a	wordpools/wordpool_EN.txt	DUCK	2	3	[0, 0, 0]	n/a	FR1	1	R1083J
340.056	2.534	807516	WORD	n/a	wordpools/wordpool_EN.txt	SNAKE	3	3	[0, 0, 0]	n/a	FR1	1	R1083J
342.59	2.617	810050	WORD	n/a	wordpools/wordpool_EN.txt	TENT	4	3	[0, 0, 0]	n/a	FR1	1	R1083J
345.207	2.467	812667	WORD	n/a	wordpools/wordpool_EN.txt	MAZE	5	3	[0, 0, 0]	n/a	FR1	1	R1083J
347.674	2.45	815134	WORD	n/a	wordpools/wordpool_EN.txt	HAWK	6	3	[0, 0, 0]	n/a	FR1	1	R1083J
350.124	2.551	817584	WORD	n/a	wordpools/wordpool_EN.txt	WEED	7	3	[0, 0, 0]	n/a	FR1	1	R1083J
352.675	2.4	820135	WORD	n/a	wordpools/wordpool_EN.txt	OWL	8	3	[0, 0, 0]	n/a	FR1	1	R1083J
355.075	2.401	822535	WORD	n/a	wordpools/wordpool_EN.txt	DEER	9	3	[0, 0, 0]	n/a	FR1	1	R1083J
357.476	2.482	824936	WORD	n/a	wordpools/wordpool_EN.txt	BROOM	10	3	[0, 0, 0]	n/a	FR1	1	R1083J
359.958	2.385	827418	WORD	n/a	wordpools/wordpool_EN.txt	ROAD	11	3	[0, 0, 0]	n/a	FR1	1	R1083J
362.343	1.616	829803	WORD	n/a	wordpools/wordpool_EN.txt	DOCK	12	3	[0, 0, 0]	n/a	FR1	1	R1083J
363.959	0.001	831419	DISTRACT_START	n/a	n/a	n/a	-999	3	[0, 0, 0]	n/a	FR1	1	R1083J
363.96	0.016	831420	START	n/a	n/a	n/a	-999	3	[-999, -999, -999]	n/a	FR1	1	R1083J
363.976	4.151	831436	PROB	4.151	n/a	n/a	-999	3	[7, 6, 3]	16	FR1	1	R1083J
368.127	2.766	835587	PROB	2.766	n/a	n/a	-999	3	[3, 1, 3]	7	FR1	1	R1083J
370.893	2.468	838353	PROB	2.468	n/a	n/a	-999	3	[7, 1, 2]	10	FR1	1	R1083J
373.361	2.8	840821	PROB	2.8	n/a	n/a	-999	3	[3, 9, 7]	19	FR1	1	R1083J
376.161	6.301	843621	PROB	6.301	n/a	n/a	-999	3	[9, 8, 8]	18	FR1	1	R1083J
382.462	2.881	849922	PROB	2.881	n/a	n/a	-999	3	[4, 4, 6]	14	FR1	1	R1083J
385.343	0.02	852803	STOP	n/a	n/a	n/a	-999	3	[-999, -999, -999]	n/a	FR1	1	R1083J
385.363	1.05	852823	DISTRACT_END	n/a	n/a	n/a	-999	3	[0, 0, 0]	n/a	FR1	1	R1083J
386.413	5.18	853873	REC_START	n/a	n/a	n/a	-999	3	[0, 0, 0]	n/a	FR1	1	R1083J
391.593	3.226	859053	REC_WORD	3.226	n/a	WITCH	-999	3	[0, 0, 0]	n/a	FR1	1	R1083J
394.819	2.785	862279	REC_WORD	2.785	n/a	BROOM	-999	3	[0, 0, 0]	n/a	FR1	1	R1083J
397.604	4.06	865064	REC_WORD_VV	4.06	n/a	<>	-999	3	[0, 0, 0]	n/a	FR1	1	R1083J
401.664	3.668	869124	REC_WORD	3.668	n/a	ROOF	-999	3	[0, 0, 0]	n/a	FR1	1	R1083J
405.332	2.912	872792	REC_WORD	2.912	n/a	WEED	-999	3	[0, 0, 0]	n/a	FR1	1	R1083J
408.244	6.303	875704	REC_WORD	6.303	n/a	ROAD	-999	3	[0, 0, 0]	n/a	FR1	1	R1083J
414.547	1.876	882007	REC_WORD	1.876	n/a	FORK	-999	3	[0, 0, 0]	n/a	FR1	1	R1083J
416.423	8.577	883883	REC_END	n/a	n/a	n/a	-999	3	[0, 0, 0]	n/a	FR1	1	R1083J
425.0	0.001	892460	COUNTDOWN_START	n/a	n/a	n/a	-999	4	[0, 0, 0]	n/a	FR1	1	R1083J
425.001	10.427	892461	TRIAL	n/a	n/a	n/a	-999	4	[0, 0, 0]	n/a	FR1	1	R1083J
435.428	0.008	902888	COUNTDOWN_END	n/a	n/a	n/a	-999	4	[0, 0, 0]	n/a	FR1	1	R1083J
435.436	2.466	902896	ORIENT	n/a	n/a	n/a	-999	4	[0, 0, 0]	n/a	FR1	1	R1083J
437.902	2.534	905362	WORD	n/a	wordpools/wordpool_EN.txt	MOUTH	1	4	[0, 0, 0]	n/a	FR1	1	R1083J
440.436	2.4	907896	WORD	n/a	wordpools/wordpool_EN.txt	ROSE	2	4	[0, 0, 0]	n/a	FR1	1	R1083J
442.836	2.435	910296	WORD	n/a	wordpools/wordpool_EN.txt	FLOOR	3	4	[0, 0, 0]	n/a	FR1	1	R1083J
445.271	2.548	912731	WORD	n/a	wordpools/wordpool_EN.txt	PARK	4	4	[0, 0, 0]	n/a	FR1	1	R1083J
447.819	2.469	915278	WORD	n/a	wordpools/wordpool_EN.txt	SHOE	5	4	[0, 0, 0]	n/a	FR1	1	R1083J
450.288	2.582	917747	WORD	n/a	wordpools/wordpool_EN.txt	BOOT	6	4	[0, 0, 0]	n/a	FR1	1	R1083J
452.87	2.552	920329	WORD	n/a	wordpools/wordpool_EN.txt	CLOWN	7	4	[0, 0, 0]	n/a	FR1	1	R1083J
455.422	2.415	922881	WORD	n/a	wordpools/wordpool_EN.txt	SUIT	8	4	[0, 0, 0]	n/a	FR1	1	R1083J
457.837	2.552	925296	WORD	n/a	wordpools/wordpool_EN.txt	CAPE	9	4	[0, 0, 0]	n/a	FR1	1	R1083J
460.389	2.533	927848	WORD	n/a	wordpools/wordpool_EN.txt	JUICE	10	4	[0, 0, 0]	n/a	FR1	1	R1083J
462.922	2.484	930381	WORD	n/a	wordpools/wordpool_EN.txt	WORLD	11	4	[0, 0, 0]	n/a	FR1	1	R1083J
465.406	1.616	932865	WORD	n/a	wordpools/wordpool_EN.txt	BAG	12	4	[0, 0, 0]	n/a	FR1	1	R1083J
467.022	0.001	934481	DISTRACT_START	n/a	n/a	n/a	-999	4	[0, 0, 0]	n/a	FR1	1	R1083J
467.023	0.015	934482	START	n/a	n/a	n/a	-999	4	[-999, -999, -999]	n/a	FR1	1	R1083J
467.038	4.801	934497	PROB	4.801	n/a	n/a	-999	4	[4, 8, 3]	15	FR1	1	R1083J
471.839	4.151	939298	PROB	4.151	n/a	n/a	-999	4	[8, 7, 9]	24	FR1	1	R1083J
475.99	2.75	943449	PROB	2.75	n/a	n/a	-999	4	[5, 6, 4]	15	FR1	1	R1083J
478.74	4.836	946199	PROB	4.836	n/a	n/a	-999	4	[5, 2, 1]	8	FR1	1	R1083J
483.576	1.9	951035	PROB	1.9	n/a	n/a	-999	4	[4, 6, 1]	11	FR1	1	R1083J
485.476	2.704	952935	PROB	2.704	n/a	n/a	-999	4	[5, 5, 8]	18	FR1	1	R1083J
488.18	0.013	955639	STOP	n/a	n/a	n/a	-999	4	[-999, -999, -999]	n/a	FR1	1	R1083J
488.193	1.184	955652	DISTRACT_END	n/a	n/a	n/a	-999	4	[0, 0, 0]	n/a	FR1	1	R1083J
489.377	2.527	956836	REC_START	n/a	n/a	n/a	-999	4	[0, 0, 0]	n/a	FR1	1	R1083J
491.904	2.23	959363	REC_WORD	2.23	n/a	WORLD	-999	4	[0, 0, 0]	n/a	FR1	1	R1083J
494.134	2.661	961593	REC_WORD	2.661	n/a	BAG	-999	4	[0, 0, 0]	n/a	FR1	1	R1083J
496.795	2.384	964254	REC_WORD	2.384	n/a	BRICK	-999	4	[0, 0, 0]	n/a	FR1	1	R1083J
499.179	8.854	966638	REC_WORD	8.854	n/a	CLOWN	-999	4	[0, 0, 0]	n/a	FR1	1	R1083J
508.033	3.849	975492	REC_WORD	3.849	n/a	HEAD	-999	4	[0, 0, 0]	n/a	FR1	1	R1083J
511.882	7.505	979341	REC_WORD	7.505	n/a	WATER	-999	4	[0, 0, 0]	n/a	FR1	1	R1083J
519.387	2.626	986846	REC_END	n/a	n/a	n/a	-999	4	[0, 0, 0]	n/a	FR1	1	R1083J
522.013	0.0	989472	TRIAL	n/a	n/a	n/a	-999	5	[0, 0, 0]	n/a	FR1	1	R1083J
522.013	10.428	989472	COUNTDOWN_START	n/a	n/a	n/a	-999	5	[0, 0, 0]	n/a	FR1	1	R1083J
532.441	0.007	999900	COUNTDOWN_END	n/a	n/a	n/a	-999	5	[0, 0, 0]	n/a	FR1	1	R1083J
532.448	2.466	999907	ORIENT	n/a	n/a	n/a	-999	5	[0, 0, 0]	n/a	FR1	1	R1083J
534.914	2.518	1002373	WORD	n/a	wordpools/wordpool_EN.txt	SLEEVE	1	5	[0, 0, 0]	n/a	FR1	1	R1083J
537.432	2.433	1004891	WORD	n/a	wordpools/wordpool_EN.txt	DITCH	2	5	[0, 0, 0]	n/a	FR1	1	R1083J
539.865	2.468	1007324	WORD	n/a	wordpools/wordpool_EN.txt	VINE	3	5	[0, 0, 0]	n/a	FR1	1	R1083J
542.333	2.383	1009792	WORD	n/a	wordpools/wordpool_EN.txt	BUSH	4	5	[0, 0, 0]	n/a	FR1	1	R1083J
544.716	2.584	1012175	WORD	n/a	wordpools/wordpool_EN.txt	SNAIL	5	5	[0, 0, 0]	n/a	FR1	1	R1083J
547.3	2.5	1014759	WORD	n/a	wordpools/wordpool_EN.txt	WHEEL	6	5	[0, 0, 0]	n/a	FR1	1	R1083J
549.8	2.418	1017259	WORD	n/a	wordpools/wordpool_EN.txt	BIRD	7	5	[0, 0, 0]	n/a	FR1	1	R1083J
552.218	2.516	1019677	WORD	n/a	wordpools/wordpool_EN.txt	EAR	8	5	[0, 0, 0]	n/a	FR1	1	R1083J
554.734	2.618	1022193	WORD	n/a	wordpools/wordpool_EN.txt	SWAMP	9	5	[0, 0, 0]	n/a	FR1	1	R1083J
557.352	2.432	1024811	WORD	n/a	wordpools/wordpool_EN.txt	HOLE	10	5	[0, 0, 0]	n/a	FR1	1	R1083J
559.784	2.418	1027243	WORD	n/a	wordpools/wordpool_EN.txt	EEL	11	5	[0, 0, 0]	n/a	FR1	1	R1083J
562.202	1.616	1029661	WORD	n/a	wordpools/wordpool_EN.txt	CRANE	12	5	[0, 0, 0]	n/a	FR1	1	R1083J
563.818	0.001	1031277	DISTRACT_START	n/a	n/a	n/a	-999	5	[0, 0, 0]	n/a	FR1	1	R1083J
563.819	0.016	1031278	START	n/a	n/a	n/a	-999	5	[-999, -999, -999]	n/a	FR1	1	R1083J
563.835	4.701	1031294	PROB	4.701	n/a	n/a	-999	5	[5, 7, 6]	18	FR1	1	R1083J
568.536	2.717	1035995	PROB	2.717	n/a	n/a	-999	5	[3, 1, 4]	8	FR1	1	R1083J
571.253	3.068	1038712	PROB	3.068	n/a	n/a	-999	5	[2, 9, 5]	16	FR1	1	R1083J
574.321	2.033	1041780	PROB	2.033	n/a	n/a	-999	5	[8, 8, 5]	21	FR1	1	R1083J
576.354	3.317	1043813	PROB	3.317	n/a	n/a	-999	5	[8, 9, 6]	23	FR1	1	R1083J
579.671	3.717	1047130	PROB	3.717	n/a	n/a	-999	5	[3, 1, 4]	8	FR1	1	R1083J
583.388	3.187	1050847	PROB	3.187	n/a	n/a	-999	5	[8, 1, 7]	23	FR1	1	R1083J
586.575	0.013	1054034	STOP	n/a	n/a	n/a	-999	5	[-999, -999, -999]	n/a	FR1	1	R1083J
586.588	1.051	1054047	DISTRACT_END	n/a	n/a	n/a	-999	5	[0, 0, 0]	n/a	FR1	1	R1083J
587.639	3.105	1055098	REC_START	n/a	n/a	n/a	-999	5	[0, 0, 0]	n/a	FR1	1	R1083J
590.744	1.851	1058203	REC_WORD	1.851	n/a	EEL	-999	5	[0, 0, 0]	n/a	FR1	1	R1083J
592.595	3.003	1060054	REC_WORD	3.003	n/a	SLEEVE	-999	5	[0, 0, 0]	n/a	FR1	1	R1083J
595.598	6.352	1063057	REC_WORD	6.352	n/a	SWAMP	-999	5	[0, 0, 0]	n/a	FR1	1	R1083J
601.95	1.843	1069409	REC_WORD	1.843	n/a	VASE	-999	5	[0, 0, 0]	n/a	FR1	1	R1083J
603.793	7.002	1071252	REC_WORD	7.002	n/a	TRIP	-999	5	[0, 0, 0]	n/a	FR1	1	R1083J
610.795	6.853	1078254	REC_WORD	6.853	n/a	BROOM	-999	5	[0, 0, 0]	n/a	FR1	1	R1083J
617.648	65.737	1085107	REC_END	n/a	n/a	n/a	-999	5	[0, 0, 0]	n/a	FR1	1	R1083J
683.385	0.0	1150844	TRIAL	n/a	n/a	n/a	-999	6	[0, 0, 0]	n/a	FR1	1	R1083J
683.385	10.428	1150844	COUNTDOWN_START	n/a	n/a	n/a	-999	6	[0, 0, 0]	n/a	FR1	1	R1083J
693.813	0.005	1161272	COUNTDOWN_END	n/a	n/a	n/a	-999	6	[0, 0, 0]	n/a	FR1	1	R1083J
693.818	2.401	1161277	ORIENT	n/a	n/a	n/a	-999	6	[0, 0, 0]	n/a	FR1	1	R1083J
696.219	2.434	1163678	WORD	n/a	wordpools/wordpool_EN.txt	FARM	1	6	[0, 0, 0]	n/a	FR1	1	R1083J
698.653	2.451	1166112	WORD	n/a	wordpools/wordpool_EN.txt	LAKE	2	6	[0, 0, 0]	n/a	FR1	1	R1083J
701.104	2.383	1168563	WORD	n/a	wordpools/wordpool_EN.txt	SNOW	3	6	[0, 0, 0]	n/a	FR1	1	R1083J
703.487	2.633	1170946	WORD	n/a	wordpools/wordpool_EN.txt	RAKE	4	6	[0, 0, 0]	n/a	FR1	1	R1083J
706.12	2.451	1173579	WORD	n/a	wordpools/wordpool_EN.txt	CALF	5	6	[0, 0, 0]	n/a	FR1	1	R1083J
708.571	2.433	1176030	WORD	n/a	wordpools/wordpool_EN.txt	SPRING	6	6	[0, 0, 0]	n/a	FR1	1	R1083J
711.004	2.617	1178463	WORD	n/a	wordpools/wordpool_EN.txt	GRASS	7	6	[0, 0, 0]	n/a	FR1	1	R1083J
713.621	2.618	1181080	WORD	n/a	wordpools/wordpool_EN.txt	SKUNK	8	6	[0, 0, 0]	n/a	FR1	1	R1083J
716.239	2.549	1183698	WORD	n/a	wordpools/wordpool_EN.txt	WOOD	9	6	[0, 0, 0]	n/a	FR1	1	R1083J
718.788	2.518	1186247	WORD	n/a	wordpools/wordpool_EN.txt	SIGN	10	6	[0, 0, 0]	n/a	FR1	1	R1083J
721.306	2.433	1188764	WORD	n/a	wordpools/wordpool_EN.txt	ELF	11	6	[0, 0, 0]	n/a	FR1	1	R1083J
723.739	1.601	1191197	WORD	n/a	wordpools/wordpool_EN.txt	MOTH	12	6	[0, 0, 0]	n/a	FR1	1	R1083J
725.34	0.001	1192798	DISTRACT_START	n/a	n/a	n/a	-999	6	[0, 0, 0]	n/a	FR1	1	R1083J
725.341	0.016	1192799	START	n/a	n/a	n/a	-999	6	[-999, -999, -999]	n/a	FR1	1	R1083J
725.357	4.167	1192815	PROB	4.167	n/a	n/a	-999	6	[8, 5, 5]	18	FR1	1	R1083J
729.524	3.266	1196982	PROB	3.266	n/a	n/a	-999	6	[2, 6, 5]	13	FR1	1	R1083J
732.79	4.435	1200248	PROB	4.435	n/a	n/a	-999	6	[1, 7, 9]	15	FR1	1	R1083J
737.225	2.716	1204683	PROB	2.716	n/a	n/a	-999	6	[7, 5, 1]	13	FR1	1	R1083J
739.941	2.967	1207399	PROB	2.967	n/a	n/a	-999	6	[3, 2, 4]	9	FR1	1	R1083J
742.908	2.765	1210366	PROB	2.765	n/a	n/a	-999	6	[3, 8, 2]	13	FR1	1	R1083J
745.673	0.019	1213131	STOP	n/a	n/a	n/a	-999	6	[-999, -999, -999]	n/a	FR1	1	R1083J
745.692	1.134	1213150	DISTRACT_END	n/a	n/a	n/a	-999	6	[0, 0, 0]	n/a	FR1	1	R1083J
746.826	1.724	1214284	REC_START	n/a	n/a	n/a	-999	6	[0, 0, 0]	n/a	FR1	1	R1083J
748.55	1.945	1216008	REC_WORD	1.945	n/a	SIGN	-999	6	[0, 0, 0]	n/a	FR1	1	R1083J
750.495	2.0	1217953	REC_WORD	2.0	n/a	ELF	-999	6	[0, 0, 0]	n/a	FR1	1	R1083J
752.495	2.933	1219953	REC_WORD	2.933	n/a	MOTH	-999	6	[0, 0, 0]	n/a	FR1	1	R1083J
755.428	2.878	1222886	REC_WORD	2.878	n/a	WELL	-999	6	[0, 0, 0]	n/a	FR1	1	R1083J
758.306	2.695	1225764	REC_WORD	2.695	n/a	BRICK	-999	6	[0, 0, 0]	n/a	FR1	1	R1083J
761.001	3.299	1228459	REC_WORD	3.299	n/a	STONE	-999	6	[0, 0, 0]	n/a	FR1	1	R1083J
764.3	2.838	1231758	REC_WORD	2.838	n/a	SPRING	-999	6	[0, 0, 0]	n/a	FR1	1	R1083J
767.138	2.549	1234596	REC_WORD	2.549	n/a	FARM	-999	6	[0, 0, 0]	n/a	FR1	1	R1083J
769.687	5.721	1237145	REC_WORD	5.721	n/a	WEED	-999	6	[0, 0, 0]	n/a	FR1	1	R1083J
775.408	1.428	1242866	REC_WORD	1.428	n/a	CALF	-999	6	[0, 0, 0]	n/a	FR1	1	R1083J
776.836	2.561	1244294	REC_END	n/a	n/a	n/a	-999	6	[0, 0, 0]	n/a	FR1	1	R1083J
779.397	0.0	1246855	TRIAL	n/a	n/a	n/a	-999	7	[0, 0, 0]	n/a	FR1	1	R1083J
779.397	10.428	1246855	COUNTDOWN_START	n/a	n/a	n/a	-999	7	[0, 0, 0]	n/a	FR1	1	R1083J
789.825	0.006	1257283	COUNTDOWN_END	n/a	n/a	n/a	-999	7	[0, 0, 0]	n/a	FR1	1	R1083J
789.831	2.518	1257289	ORIENT	n/a	n/a	n/a	-999	7	[0, 0, 0]	n/a	FR1	1	R1083J
792.349	2.516	1259807	WORD	n/a	wordpools/wordpool_EN.txt	WOLF	1	7	[0, 0, 0]	n/a	FR1	1	R1083J
794.865	2.551	1262323	WORD	n/a	wordpools/wordpool_EN.txt	SHEEP	2	7	[0, 0, 0]	n/a	FR1	1	R1083J
797.416	2.399	1264874	WORD	n/a	wordpools/wordpool_EN.txt	RUG	3	7	[0, 0, 0]	n/a	FR1	1	R1083J
799.815	2.552	1267273	WORD	n/a	wordpools/wordpool_EN.txt	SPARK	4	7	[0, 0, 0]	n/a	FR1	1	R1083J
802.367	2.416	1269825	WORD	n/a	wordpools/wordpool_EN.txt	SUN	5	7	[0, 0, 0]	n/a	FR1	1	R1083J
804.783	2.401	1272241	WORD	n/a	wordpools/wordpool_EN.txt	CONE	6	7	[0, 0, 0]	n/a	FR1	1	R1083J
807.184	2.45	1274642	WORD	n/a	wordpools/wordpool_EN.txt	ICE	7	7	[0, 0, 0]	n/a	FR1	1	R1083J
809.634	2.551	1277092	WORD	n/a	wordpools/wordpool_EN.txt	WHALE	8	7	[0, 0, 0]	n/a	FR1	1	R1083J
812.185	2.532	1279643	WORD	n/a	wordpools/wordpool_EN.txt	NAIL	9	7	[0, 0, 0]	n/a	FR1	1	R1083J
814.717	2.501	1282175	WORD	n/a	wordpools/wordpool_EN.txt	CLIFF	10	7	[0, 0, 0]	n/a	FR1	1	R1083J
817.218	2.434	1284676	WORD	n/a	wordpools/wordpool_EN.txt	JEEP	11	7	[0, 0, 0]	n/a	FR1	1	R1083J
819.652	1.617	1287110	WORD	n/a	wordpools/wordpool_EN.txt	CROW	12	7	[0, 0, 0]	n/a	FR1	1	R1083J
821.269	0.001	1288727	DISTRACT_START	n/a	n/a	n/a	-999	7	[0, 0, 0]	n/a	FR1	1	R1083J
821.27	0.016	1288728	START	n/a	n/a	n/a	-999	7	[-999, -999, -999]	n/a	FR1	1	R1083J
821.286	4.067	1288744	PROB	4.067	n/a	n/a	-999	7	[3, 4, 8]	14	FR1	1	R1083J
825.353	4.666	1292811	PROB	4.666	n/a	n/a	-999	7	[9, 1, 9]	10	FR1	1	R1083J
830.019	5.901	1297477	PROB	5.901	n/a	n/a	-999	7	[5, 9, 2]	16	FR1	1	R1083J
835.92	3.402	1303378	PROB	3.402	n/a	n/a	-999	7	[7, 4, 8]	19	FR1	1	R1083J
839.322	3.108	1306780	PROB	3.108	n/a	n/a	-999	7	[3, 6, 9]	19	FR1	1	R1083J
842.43	0.009	1309888	STOP	n/a	n/a	n/a	-999	7	[-999, -999, -999]	n/a	FR1	1	R1083J
842.439	1.034	1309897	DISTRACT_END	n/a	n/a	n/a	-999	7	[0, 0, 0]	n/a	FR1	1	R1083J
843.473	2.834	1310931	REC_START	n/a	n/a	n/a	-999	7	[0, 0, 0]	n/a	FR1	1	R1083J
846.307	1.377	1313765	REC_WORD	1.377	n/a	WHALE	-999	7	[0, 0, 0]	n/a	FR1	1	R1083J
847.684	2.602	1315142	REC_WORD	2.602	n/a	NAIL	-999	7	[0, 0, 0]	n/a	FR1	1	R1083J
850.286	3.74	1317744	REC_WORD	3.74	n/a	CLIFF	-999	7	[0, 0, 0]	n/a	FR1	1	R1083J
854.026	2.802	1321484	REC_WORD	2.802	n/a	RIDE	-999	7	[0, 0, 0]	n/a	FR1	1	R1083J
856.828	3.93	1324286	REC_WORD	3.93	n/a	MOTH	-999	7	[0, 0, 0]	n/a	FR1	1	R1083J
860.758	10.562	1328216	REC_WORD	10.562	n/a	STONE	-999	7	[0, 0, 0]	n/a	FR1	1	R1083J
871.32	2.163	1338778	REC_WORD	2.163	n/a	DRAPE	-999	7	[0, 0, 0]	n/a	FR1	1	R1083J
873.483	3.359	1340941	REC_END	n/a	n/a	n/a	-999	7	[0, 0, 0]	n/a	FR1	1	R1083J
876.842	0.0	1344300	TRIAL	n/a	n/a	n/a	-999	8	[0, 0, 0]	n/a	FR1	1	R1083J
876.842	10.428	1344300	COUNTDOWN_START	n/a	n/a	n/a	-999	8	[0, 0, 0]	n/a	FR1	1	R1083J
887.27	0.007	1354728	COUNTDOWN_END	n/a	n/a	n/a	-999	8	[0, 0, 0]	n/a	FR1	1	R1083J
887.277	2.6	1354735	ORIENT	n/a	n/a	n/a	-999	8	[0, 0, 0]	n/a	FR1	1	R1083J
889.877	2.551	1357335	WORD	n/a	wordpools/wordpool_EN.txt	GUARD	1	8	[0, 0, 0]	n/a	FR1	1	R1083J
892.428	2.616	1359886	WORD	n/a	wordpools/wordpool_EN.txt	FENCE	2	8	[0, 0, 0]	n/a	FR1	1	R1083J
895.044	2.418	1362502	WORD	n/a	wordpools/wordpool_EN.txt	DOLL	3	8	[0, 0, 0]	n/a	FR1	1	R1083J
897.462	2.5	1364920	WORD	n/a	wordpools/wordpool_EN.txt	BAT	4	8	[0, 0, 0]	n/a	FR1	1	R1083J
899.962	2.418	1367420	WORD	n/a	wordpools/wordpool_EN.txt	LEG	5	8	[0, 0, 0]	n/a	FR1	1	R1083J
902.38	2.383	1369838	WORD	n/a	wordpools/wordpool_EN.txt	HORN	6	8	[0, 0, 0]	n/a	FR1	1	R1083J
904.763	2.5	1372221	WORD	n/a	wordpools/wordpool_EN.txt	OAR	7	8	[0, 0, 0]	n/a	FR1	1	R1083J
907.263	2.55	1374721	WORD	n/a	wordpools/wordpool_EN.txt	FOOT	8	8	[0, 0, 0]	n/a	FR1	1	R1083J
909.813	2.485	1377271	WORD	n/a	wordpools/wordpool_EN.txt	BOY	9	8	[0, 0, 0]	n/a	FR1	1	R1083J
912.298	2.566	1379756	WORD	n/a	wordpools/wordpool_EN.txt	SOCK	10	8	[0, 0, 0]	n/a	FR1	1	R1083J
914.864	2.484	1382322	WORD	n/a	wordpools/wordpool_EN.txt	LOCK	11	8	[0, 0, 0]	n/a	FR1	1	R1083J
917.348	1.616	1384806	WORD	n/a	wordpools/wordpool_EN.txt	PEN	12	8	[0, 0, 0]	n/a	FR1	1	R1083J
918.964	0.001	1386422	DISTRACT_START	n/a	n/a	n/a	-999	8	[0, 0, 0]	n/a	FR1	1	R1083J
918.965	0.016	1386423	START	n/a	n/a	n/a	-999	8	[-999, -999, -999]	n/a	FR1	1	R1083J
918.981	3.601	1386439	PROB	3.601	n/a	n/a	-999	8	[3, 3, 3]	9	FR1	1	R1083J
922.582	2.951	1390040	PROB	2.951	n/a	n/a	-999	8	[2, 4, 5]	11	FR1	1	R1083J
925.533	3.366	1392991	PROB	3.366	n/a	n/a	-999	8	[6, 3, 4]	13	FR1	1	R1083J
928.899	3.817	1396357	PROB	3.817	n/a	n/a	-999	8	[3, 1, 6]	10	FR1	1	R1083J
932.716	3.501	1400174	PROB	3.501	n/a	n/a	-999	8	[1, 3, 6]	10	FR1	1	R1083J
936.217	3.321	1403675	PROB	3.321	n/a	n/a	-999	8	[1, 4, 2]	7	FR1	1	R1083J
939.538	0.013	1406996	STOP	n/a	n/a	n/a	-999	8	[-999, -999, -999]	n/a	FR1	1	R1083J
939.551	1.117	1407009	DISTRACT_END	n/a	n/a	n/a	-999	8	[0, 0, 0]	n/a	FR1	1	R1083J
940.668	1.908	1408126	REC_START	n/a	n/a	n/a	-999	8	[0, 0, 0]	n/a	FR1	1	R1083J
942.576	1.6	1410034	REC_WORD	1.6	n/a	BOAT	-999	8	[0, 0, 0]	n/a	FR1	1	R1083J
944.176	2.038	1411634	REC_WORD	2.038	n/a	LOCK	-999	8	[0, 0, 0]	n/a	FR1	1	R1083J
946.214	2.457	1413672	REC_WORD	2.457	n/a	PEN	-999	8	[0, 0, 0]	n/a	FR1	1	R1083J
948.671	3.269	1416129	REC_WORD	3.269	n/a	BOARD	-999	8	[0, 0, 0]	n/a	FR1	1	R1083J
951.94	4.101	1419398	REC_WORD	4.101	n/a	CHALK	-999	8	[0, 0, 0]	n/a	FR1	1	R1083J
956.041	5.482	1423499	REC_WORD	5.482	n/a	WOOD	-999	8	[0, 0, 0]	n/a	FR1	1	R1083J
961.523	0.798	1428981	REC_WORD_VV	0.798	n/a	<>	-999	8	[0, 0, 0]	n/a	FR1	1	R1083J
962.321	4.898	1429779	REC_WORD	4.898	n/a	BOAT	-999	8	[0, 0, 0]	n/a	FR1	1	R1083J
967.219	2.754	1434677	REC_WORD	2.754	n/a	PIT	-999	8	[0, 0, 0]	n/a	FR1	1	R1083J
969.973	0.507	1437431	REC_WORD	0.507	n/a	FAT	-999	8	[0, 0, 0]	n/a	FR1	1	R1083J
970.48	0.198	1437938	REC_WORD_VV	0.198	n/a	<>	-999	8	[0, 0, 0]	n/a	FR1	1	R1083J
970.678	2.444	1438136	REC_END	n/a	n/a	n/a	-999	8	[0, 0, 0]	n/a	FR1	1	R1083J
973.122	0.0	1440580	TRIAL	n/a	n/a	n/a	-999	9	[0, 0, 0]	n/a	FR1	1	R1083J
973.122	10.428	1440580	COUNTDOWN_START	n/a	n/a	n/a	-999	9	[0, 0, 0]	n/a	FR1	1	R1083J
983.55	0.007	1451008	COUNTDOWN_END	n/a	n/a	n/a	-999	9	[0, 0, 0]	n/a	FR1	1	R1083J
983.557	2.617	1451015	ORIENT	n/a	n/a	n/a	-999	9	[0, 0, 0]	n/a	FR1	1	R1083J
986.174	2.517	1453632	WORD	n/a	wordpools/wordpool_EN.txt	NET	1	9	[0, 0, 0]	n/a	FR1	1	R1083J
988.691	2.4	1456149	WORD	n/a	wordpools/wordpool_EN.txt	MILK	2	9	[0, 0, 0]	n/a	FR1	1	R1083J
991.091	2.4	1458549	WORD	n/a	wordpools/wordpool_EN.txt	CASH	3	9	[0, 0, 0]	n/a	FR1	1	R1083J
993.491	2.5	1460949	WORD	n/a	wordpools/wordpool_EN.txt	GOLD	4	9	[0, 0, 0]	n/a	FR1	1	R1083J
995.991	2.384	1463449	WORD	n/a	wordpools/wordpool_EN.txt	STEAK	5	9	[0, 0, 0]	n/a	FR1	1	R1083J
998.375	2.583	1465832	WORD	n/a	wordpools/wordpool_EN.txt	GRAPE	6	9	[0, 0, 0]	n/a	FR1	1	R1083J
1000.958	2.568	1468415	WORD	n/a	wordpools/wordpool_EN.txt	CORN	7	9	[0, 0, 0]	n/a	FR1	1	R1083J
1003.526	2.416	1470983	WORD	n/a	wordpools/wordpool_EN.txt	CLOTH	8	9	[0, 0, 0]	n/a	FR1	1	R1083J
1005.942	2.534	1473399	WORD	n/a	wordpools/wordpool_EN.txt	FILM	9	9	[0, 0, 0]	n/a	FR1	1	R1083J
1008.476	2.516	1475933	WORD	n/a	wordpools/wordpool_EN.txt	PIG	10	9	[0, 0, 0]	n/a	FR1	1	R1083J
1010.992	2.419	1478449	WORD	n/a	wordpools/wordpool_EN.txt	BEAK	11	9	[0, 0, 0]	n/a	FR1	1	R1083J
1013.411	1.616	1480868	WORD	n/a	wordpools/wordpool_EN.txt	PEARL	12	9	[0, 0, 0]	n/a	FR1	1	R1083J
1015.027	0.001	1482484	DISTRACT_START	n/a	n/a	n/a	-999	9	[0, 0, 0]	n/a	FR1	1	R1083J
1015.028	0.015	1482485	START	n/a	n/a	n/a	-999	9	[-999, -999, -999]	n/a	FR1	1	R1083J
1015.043	4.635	1482500	PROB	4.635	n/a	n/a	-999	9	[6, 4, 5]	15	FR1	1	R1083J
1019.678	4.451	1487135	PROB	4.451	n/a	n/a	-999	9	[9, 7, 9]	25	FR1	1	R1083J
1024.129	2.25	1491586	PROB	2.25	n/a	n/a	-999	9	[1, 2, 1]	4	FR1	1	R1083J
1026.379	3.483	1493836	PROB	3.483	n/a	n/a	-999	9	[2, 2, 9]	13	FR1	1	R1083J
1029.862	3.385	1497319	PROB	3.385	n/a	n/a	-999	9	[8, 3, 7]	17	FR1	1	R1083J
1033.247	4.215	1500704	PROB	4.215	n/a	n/a	-999	9	[4, 9, 3]	16	FR1	1	R1083J
1037.462	0.018	1504919	STOP	n/a	n/a	n/a	-999	9	[-999, -999, -999]	n/a	FR1	1	R1083J
1037.48	1.201	1504937	DISTRACT_END	n/a	n/a	n/a	-999	9	[0, 0, 0]	n/a	FR1	1	R1083J
1038.681	1.944	1506138	REC_START	n/a	n/a	n/a	-999	9	[0, 0, 0]	n/a	FR1	1	R1083J
1040.625	2.95	1508082	REC_WORD	2.95	n/a	PEARL	-999	9	[0, 0, 0]	n/a	FR1	1	R1083J
1043.575	3.397	1511032	REC_WORD	3.397	n/a	PIG	-999	9	[0, 0, 0]	n/a	FR1	1	R1083J
1046.972	3.698	1514429	REC_WORD	3.698	n/a	FENCE	-999	9	[0, 0, 0]	n/a	FR1	1	R1083J
1050.67	7.625	1518127	REC_WORD	7.625	n/a	DOG	-999	9	[0, 0, 0]	n/a	FR1	1	R1083J
1058.295	1.232	1525752	REC_WORD	1.232	n/a	GATE	-999	9	[0, 0, 0]	n/a	FR1	1	R1083J
1059.527	6.32	1526984	REC_WORD	6.32	n/a	CLOTH	-999	9	[0, 0, 0]	n/a	FR1	1	R1083J
1065.847	2.844	1533304	REC_WORD	2.844	n/a	CHIMP	-999	9	[0, 0, 0]	n/a	FR1	1	R1083J
1068.691	3.477	1536148	REC_END	n/a	n/a	n/a	-999	9	[0, 0, 0]	n/a	FR1	1	R1083J
1072.168	0.0	1539625	TRIAL	n/a	n/a	n/a	-999	10	[0, 0, 0]	n/a	FR1	1	R1083J
1072.168	10.428	1539625	COUNTDOWN_START	n/a	n/a	n/a	-999	10	[0, 0, 0]	n/a	FR1	1	R1083J
1082.596	0.007	1550053	COUNTDOWN_END	n/a	n/a	n/a	-999	10	[0, 0, 0]	n/a	FR1	1	R1083J
1082.603	2.416	1550060	ORIENT	n/a	n/a	n/a	-999	10	[0, 0, 0]	n/a	FR1	1	R1083J
1085.019	2.468	1552476	WORD	n/a	wordpools/wordpool_EN.txt	LIP	1	10	[0, 0, 0]	n/a	FR1	1	R1083J
1087.487	2.499	1554944	WORD	n/a	wordpools/wordpool_EN.txt	STORE	2	10	[0, 0, 0]	n/a	FR1	1	R1083J
1089.986	2.502	1557443	WORD	n/a	wordpools/wordpool_EN.txt	SHIRT	3	10	[0, 0, 0]	n/a	FR1	1	R1083J
1092.488	2.566	1559945	WORD	n/a	wordpools/wordpool_EN.txt	RIB	4	10	[0, 0, 0]	n/a	FR1	1	R1083J
1095.054	2.551	1562511	WORD	n/a	wordpools/wordpool_EN.txt	MULE	5	10	[0, 0, 0]	n/a	FR1	1	R1083J
1097.605	2.416	1565062	WORD	n/a	wordpools/wordpool_EN.txt	BOWL	6	10	[0, 0, 0]	n/a	FR1	1	R1083J
1100.021	2.418	1567478	WORD	n/a	wordpools/wordpool_EN.txt	BREAD	7	10	[0, 0, 0]	n/a	FR1	1	R1083J
1102.439	2.499	1569896	WORD	n/a	wordpools/wordpool_EN.txt	CHAIR	8	10	[0, 0, 0]	n/a	FR1	1	R1083J
1104.938	2.451	1572395	WORD	n/a	wordpools/wordpool_EN.txt	BEAN	9	10	[0, 0, 0]	n/a	FR1	1	R1083J
1107.389	2.433	1574846	WORD	n/a	wordpools/wordpool_EN.txt	PANTS	10	10	[0, 0, 0]	n/a	FR1	1	R1083J
1109.822	2.602	1577279	WORD	n/a	wordpools/wordpool_EN.txt	BARN	11	10	[0, 0, 0]	n/a	FR1	1	R1083J
1112.424	1.616	1579881	WORD	n/a	wordpools/wordpool_EN.txt	STOVE	12	10	[0, 0, 0]	n/a	FR1	1	R1083J
1114.04	0.0	1581497	DISTRACT_START	n/a	n/a	n/a	-999	10	[0, 0, 0]	n/a	FR1	1	R1083J
1114.04	0.016	1581497	START	n/a	n/a	n/a	-999	10	[-999, -999, -999]	n/a	FR1	1	R1083J
1114.056	4.135	1581513	PROB	4.135	n/a	n/a	-999	10	[5, 8, 2]	15	FR1	1	R1083J
1118.191	3.184	1585648	PROB	3.184	n/a	n/a	-999	10	[7, 1, 3]	11	FR1	1	R1083J
1121.375	3.382	1588832	PROB	3.382	n/a	n/a	-999	10	[3, 9, 3]	15	FR1	1	R1083J
1124.757	3.951	1592214	PROB	3.951	n/a	n/a	-999	10	[7, 2, 8]	17	FR1	1	R1083J
1128.708	3.033	1596165	PROB	3.033	n/a	n/a	-999	10	[8, 2, 4]	14	FR1	1	R1083J
1131.741	3.629	1599198	PROB	3.629	n/a	n/a	-999	10	[2, 4, 9]	15	FR1	1	R1083J
1135.37	0.006	1602827	STOP	n/a	n/a	n/a	-999	10	[-999, -999, -999]	n/a	FR1	1	R1083J
1135.376	1.201	1602833	DISTRACT_END	n/a	n/a	n/a	-999	10	[0, 0, 0]	n/a	FR1	1	R1083J
1136.577	2.454	1604034	REC_START	n/a	n/a	n/a	-999	10	[0, 0, 0]	n/a	FR1	1	R1083J
1139.031	2.322	1606488	REC_WORD	2.322	n/a	BARN	-999	10	[0, 0, 0]	n/a	FR1	1	R1083J
1141.353	3.222	1608810	REC_WORD	3.222	n/a	STOVE	-999	10	[0, 0, 0]	n/a	FR1	1	R1083J
1144.575	3.79	1612032	REC_WORD	3.79	n/a	BOWL	-999	10	[0, 0, 0]	n/a	FR1	1	R1083J
1148.365	3.585	1615822	REC_WORD	3.585	n/a	PIG	-999	10	[0, 0, 0]	n/a	FR1	1	R1083J
1151.95	4.632	1619407	REC_WORD	4.632	n/a	PAIL	-999	10	[0, 0, 0]	n/a	FR1	1	R1083J
1156.582	10.009	1624039	REC_WORD	10.009	n/a	BALE	-999	10	[0, 0, 0]	n/a	FR1	1	R1083J
1166.591	10.591	1634048	REC_END	n/a	n/a	n/a	-999	10	[0, 0, 0]	n/a	FR1	1	R1083J
1177.182	0.0	1644639	COUNTDOWN_START	n/a	n/a	n/a	-999	11	[0, 0, 0]	n/a	FR1	1	R1083J
1177.182	10.428	1644639	TRIAL	n/a	n/a	n/a	-999	11	[0, 0, 0]	n/a	FR1	1	R1083J
1187.61	0.006	1655067	COUNTDOWN_END	n/a	n/a	n/a	-999	11	[0, 0, 0]	n/a	FR1	1	R1083J
1187.616	2.551	1655073	ORIENT	n/a	n/a	n/a	-999	11	[0, 0, 0]	n/a	FR1	1	R1083J
1190.167	2.549	1657624	WORD	n/a	wordpools/wordpool_EN.txt	CLAY	1	11	[0, 0, 0]	n/a	FR1	1	R1083J
1192.716	2.385	1660173	WORD	n/a	wordpools/wordpool_EN.txt	INK	2	11	[0, 0, 0]	n/a	FR1	1	R1083J
1195.101	2.599	1662558	WORD	n/a	wordpools/wordpool_EN.txt	CHIN	3	11	[0, 0, 0]	n/a	FR1	1	R1083J
1197.7	2.418	1665157	WORD	n/a	wordpools/wordpool_EN.txt	BANK	4	11	[0, 0, 0]	n/a	FR1	1	R1083J
1200.118	2.468	1667575	WORD	n/a	wordpools/wordpool_EN.txt	PEACH	5	11	[0, 0, 0]	n/a	FR1	1	R1083J
1202.586	2.55	1670043	WORD	n/a	wordpools/wordpool_EN.txt	STOOL	6	11	[0, 0, 0]	n/a	FR1	1	R1083J
1205.136	2.632	1672593	WORD	n/a	wordpools/wordpool_EN.txt	BENCH	7	11	[0, 0, 0]	n/a	FR1	1	R1083J
1207.768	2.568	1675225	WORD	n/a	wordpools/wordpool_EN.txt	THREAD	8	11	[0, 0, 0]	n/a	FR1	1	R1083J
1210.336	2.483	1677793	WORD	n/a	wordpools/wordpool_EN.txt	LAMP	9	11	[0, 0, 0]	n/a	FR1	1	R1083J
1212.819	2.618	1680276	WORD	n/a	wordpools/wordpool_EN.txt	SOAP	10	11	[0, 0, 0]	n/a	FR1	1	R1083J
1215.437	2.549	1682894	WORD	n/a	wordpools/wordpool_EN.txt	FLUTE	11	11	[0, 0, 0]	n/a	FR1	1	R1083J
1217.986	1.618	1685443	WORD	n/a	wordpools/wordpool_EN.txt	PASTE	12	11	[0, 0, 0]	n/a	FR1	1	R1083J
1219.604	0.001	1687061	DISTRACT_START	n/a	n/a	n/a	-999	11	[0, 0, 0]	n/a	FR1	1	R1083J
1219.605	0.016	1687062	START	n/a	n/a	n/a	-999	11	[-999, -999, -999]	n/a	FR1	1	R1083J
1219.621	4.6	1687078	PROB	4.6	n/a	n/a	-999	11	[9, 9, 6]	24	FR1	1	R1083J
1224.221	4.017	1691678	PROB	4.017	n/a	n/a	-999	11	[6, 2, 8]	16	FR1	1	R1083J
1228.238	2.683	1695695	PROB	2.683	n/a	n/a	-999	11	[3, 1, 4]	8	FR1	1	R1083J
1230.921	3.252	1698378	PROB	3.252	n/a	n/a	-999	11	[7, 4, 4]	18	FR1	1	R1083J
1234.173	3.933	1701630	PROB	3.933	n/a	n/a	-999	11	[3, 6, 9]	18	FR1	1	R1083J
1238.106	2.939	1705563	PROB	2.939	n/a	n/a	-999	11	[3, 8, 2]	13	FR1	1	R1083J
1241.045	0.011	1708502	STOP	n/a	n/a	n/a	-999	11	[-999, -999, -999]	n/a	FR1	1	R1083J
1241.056	1.135	1708513	DISTRACT_END	n/a	n/a	n/a	-999	11	[0, 0, 0]	n/a	FR1	1	R1083J
1242.191	1.704	1709648	REC_START	n/a	n/a	n/a	-999	11	[0, 0, 0]	n/a	FR1	1	R1083J
1243.895	1.226	1711352	REC_WORD_VV	1.226	n/a	<>	-999	11	[0, 0, 0]	n/a	FR1	1	R1083J
1245.121	2.693	1712578	REC_WORD	2.693	n/a	CLIFF	-999	11	[0, 0, 0]	n/a	FR1	1	R1083J
1247.814	2.502	1715271	REC_WORD	2.502	n/a	BANK	-999	11	[0, 0, 0]	n/a	FR1	1	R1083J
1250.316	5.005	1717773	REC_WORD	5.005	n/a	STOVE	-999	11	[0, 0, 0]	n/a	FR1	1	R1083J
1255.321	4.519	1722778	REC_WORD	4.519	n/a	CHECK	-999	11	[0, 0, 0]	n/a	FR1	1	R1083J
1259.84	4.374	1727297	REC_WORD	4.374	n/a	BOOK	-999	11	[0, 0, 0]	n/a	FR1	1	R1083J
1264.214	7.069	1731671	REC_WORD	7.069	n/a	GUARD	-999	11	[0, 0, 0]	n/a	FR1	1	R1083J
1271.283	0.918	1738740	REC_WORD	0.918	n/a	TEXT	-999	11	[0, 0, 0]	n/a	FR1	1	R1083J
1272.201	9.228	1739657	REC_END	n/a	n/a	n/a	-999	11	[0, 0, 0]	n/a	FR1	1	R1083J
1281.429	0.0	1748885	TRIAL	n/a	n/a	n/a	-999	12	[0, 0, 0]	n/a	FR1	1	R1083J
1281.429	74127.622	1748885	COUNTDOWN_START	n/a	n/a	n/a	-999	12	[0, 0, 0]	n/a	FR1	1	R1083J
75409.051	0.0	-1	SESSION_SKIPPED	n/a	n/a	n/a	-999	12	[0, 0, 0]	n/a	FR1	1	R1083J
