onset	duration	sample	trial_type	response_time	stim_file	item_name	serialpos	list	test	answer	experiment	session	subject
0.0	17.857	-1	SESS_START	n/a	n/a	n/a	-999	-999	[0, 0, 0]	n/a	FR1	0	R1153T
17.857	10.428	-1	COUNTDOWN_START	n/a	n/a	n/a	-999	-999	[0, 0, 0]	n/a	FR1	0	R1153T
28.285	3.791	-1	COUNTDOWN_END	n/a	n/a	n/a	-999	-999	[0, 0, 0]	n/a	FR1	0	R1153T
32.076	2.601	-1	PRACTICE_WORD	n/a	n/a	CHEST	1	-1	[0, 0, 0]	n/a	FR1	0	R1153T
34.677	2.417	1917	PRACTICE_WORD	n/a	n/a	BEAM	2	-1	[0, 0, 0]	n/a	FR1	0	R1153T
37.094	2.501	4334	PRACTICE_WORD	n/a	n/a	RHINO	3	-1	[0, 0, 0]	n/a	FR1	0	R1153T
39.595	2.616	6834	PRACTICE_WORD	n/a	n/a	FLOOD	4	-1	[0, 0, 0]	n/a	FR1	0	R1153T
42.211	2.434	9450	PRACTICE_WORD	n/a	n/a	IRON	5	-1	[0, 0, 0]	n/a	FR1	0	R1153T
44.645	2.5	11884	PRACTICE_WORD	n/a	n/a	TONGUE	6	-1	[0, 0, 0]	n/a	FR1	0	R1153T
47.145	2.601	14384	PRACTICE_WORD	n/a	n/a	WATCH	7	-1	[0, 0, 0]	n/a	FR1	0	R1153T
49.746	2.434	16985	PRACTICE_WORD	n/a	n/a	WAGON	8	-1	[0, 0, 0]	n/a	FR1	0	R1153T
52.18	2.451	19419	PRACTICE_WORD	n/a	n/a	COTTON	9	-1	[0, 0, 0]	n/a	FR1	0	R1153T
54.631	2.566	21870	PRACTICE_WORD	n/a	n/a	ATTIC	10	-1	[0, 0, 0]	n/a	FR1	0	R1153T
57.197	2.584	24436	PRACTICE_WORD	n/a	n/a	RING	11	-1	[0, 0, 0]	n/a	FR1	0	R1153T
59.781	1.617	27019	PRACTICE_WORD	n/a	n/a	CAMEL	12	-1	[0, 0, 0]	n/a	FR1	0	R1153T
61.398	0.0	28636	PRACTICE_DISTRACT_START	n/a	n/a	n/a	-999	-1	[0, 0, 0]	n/a	FR1	0	R1153T
61.398	0.017	28636	START	n/a	n/a	n/a	-999	-1	[-999, -999, -999]	n/a	FR1	0	R1153T
61.415	7.901	28653	PROB	7.901	n/a	n/a	-999	-1	[1, 1, 7]	9	FR1	0	R1153T
69.316	7.685	36554	PROB	7.685	n/a	n/a	-999	-1	[4, 8, 8]	20	FR1	0	R1153T
77.001	7.177	44239	PROB	7.177	n/a	n/a	-999	-1	[9, 8, 7]	24	FR1	0	R1153T
84.178	0.008	51415	STOP	n/a	n/a	n/a	-999	-1	[-999, -999, -999]	n/a	FR1	0	R1153T
84.186	0.535	51423	PRACTICE_DISTRACT_END	n/a	n/a	n/a	-999	-1	[0, 0, 0]	n/a	FR1	0	R1153T
84.721	30.515	51958	PRACTICE_REC_START	n/a	n/a	n/a	-999	-1	[0, 0, 0]	n/a	FR1	0	R1153T
115.236	71.818	82472	PRACTICE_REC_END	n/a	n/a	n/a	-999	-1	[0, 0, 0]	n/a	FR1	0	R1153T
187.054	0.001	154286	COUNTDOWN_START	n/a	n/a	n/a	-999	1	[0, 0, 0]	n/a	FR1	0	R1153T
187.055	10.427	154287	TRIAL	n/a	n/a	n/a	-999	1	[0, 0, 0]	n/a	FR1	0	R1153T
197.482	0.008	164714	COUNTDOWN_END	n/a	n/a	n/a	-999	1	[0, 0, 0]	n/a	FR1	0	R1153T
197.49	2.55	164722	ORIENT	n/a	n/a	n/a	-999	1	[0, 0, 0]	n/a	FR1	0	R1153T
200.04	2.518	167272	WORD	n/a	wordpools/wordpool_EN.txt	PASTE	1	1	[0, 0, 0]	n/a	FR1	0	R1153T
202.558	2.616	169789	WORD	n/a	wordpools/wordpool_EN.txt	SHEET	2	1	[0, 0, 0]	n/a	FR1	0	R1153T
205.174	2.567	172405	WORD	n/a	wordpools/wordpool_EN.txt	TOOL	3	1	[0, 0, 0]	n/a	FR1	0	R1153T
207.741	2.417	174972	WORD	n/a	wordpools/wordpool_EN.txt	TANK	4	1	[0, 0, 0]	n/a	FR1	0	R1153T
210.158	2.618	177389	WORD	n/a	wordpools/wordpool_EN.txt	COIN	5	1	[0, 0, 0]	n/a	FR1	0	R1153T
212.776	2.567	180007	WORD	n/a	wordpools/wordpool_EN.txt	STEM	6	1	[0, 0, 0]	n/a	FR1	0	R1153T
215.343	2.45	182574	WORD	n/a	wordpools/wordpool_EN.txt	NET	7	1	[0, 0, 0]	n/a	FR1	0	R1153T
217.793	2.601	185024	WORD	n/a	wordpools/wordpool_EN.txt	MOOSE	8	1	[0, 0, 0]	n/a	FR1	0	R1153T
220.394	2.617	187625	WORD	n/a	wordpools/wordpool_EN.txt	INK	9	1	[0, 0, 0]	n/a	FR1	0	R1153T
223.011	2.535	190241	WORD	n/a	wordpools/wordpool_EN.txt	TOOTH	10	1	[0, 0, 0]	n/a	FR1	0	R1153T
225.546	2.582	192776	WORD	n/a	wordpools/wordpool_EN.txt	FRUIT	11	1	[0, 0, 0]	n/a	FR1	0	R1153T
228.128	1.617	195358	WORD	n/a	wordpools/wordpool_EN.txt	RICE	12	1	[0, 0, 0]	n/a	FR1	0	R1153T
229.745	0.001	196975	DISTRACT_START	n/a	n/a	n/a	-999	1	[0, 0, 0]	n/a	FR1	0	R1153T
229.746	0.016	196976	START	n/a	n/a	n/a	-999	1	[-999, -999, -999]	n/a	FR1	0	R1153T
229.762	9.819	196992	PROB	9.819	n/a	n/a	-999	1	[4, 6, 7]	17	FR1	0	R1153T
239.581	10.477	206811	PROB	10.477	n/a	n/a	-999	1	[2, 2, 4]	8	FR1	0	R1153T
250.058	0.008	217287	STOP	n/a	n/a	n/a	-999	1	[-999, -999, -999]	n/a	FR1	0	R1153T
250.066	1.155	217295	DISTRACT_END	n/a	n/a	n/a	-999	1	[0, 0, 0]	n/a	FR1	0	R1153T
251.221	3.388	218450	REC_START	n/a	n/a	n/a	-999	1	[0, 0, 0]	n/a	FR1	0	R1153T
254.609	1.479	221838	REC_WORD	1.479	n/a	STOOL	-999	1	[0, 0, 0]	n/a	FR1	0	R1153T
256.088	2.116	223317	REC_WORD	2.116	n/a	HOOF	-999	1	[0, 0, 0]	n/a	FR1	0	R1153T
258.204	1.401	225433	REC_WORD	1.401	n/a	SHEET	2	1	[0, 0, 0]	n/a	FR1	0	R1153T
259.605	11.204	226834	REC_WORD	11.204	n/a	TOOL	3	1	[0, 0, 0]	n/a	FR1	0	R1153T
270.809	10.418	238037	REC_WORD	10.418	n/a	KNEE	-999	1	[0, 0, 0]	n/a	FR1	0	R1153T
281.227	9.314	248455	REC_END	n/a	n/a	n/a	-999	1	[0, 0, 0]	n/a	FR1	0	R1153T
290.541	0.0	257768	COUNTDOWN_START	n/a	n/a	n/a	-999	2	[0, 0, 0]	n/a	FR1	0	R1153T
290.541	10.428	257768	TRIAL	n/a	n/a	n/a	-999	2	[0, 0, 0]	n/a	FR1	0	R1153T
300.969	0.006	268196	COUNTDOWN_END	n/a	n/a	n/a	-999	2	[0, 0, 0]	n/a	FR1	0	R1153T
300.975	2.417	268202	ORIENT	n/a	n/a	n/a	-999	2	[0, 0, 0]	n/a	FR1	0	R1153T
303.392	2.417	270618	WORD	n/a	wordpools/wordpool_EN.txt	LEG	1	2	[0, 0, 0]	n/a	FR1	0	R1153T
305.809	2.534	273035	WORD	n/a	wordpools/wordpool_EN.txt	CORD	2	2	[0, 0, 0]	n/a	FR1	0	R1153T
308.343	2.617	275569	WORD	n/a	wordpools/wordpool_EN.txt	BOX	3	2	[0, 0, 0]	n/a	FR1	0	R1153T
310.96	2.4	278186	WORD	n/a	wordpools/wordpool_EN.txt	HORN	4	2	[0, 0, 0]	n/a	FR1	0	R1153T
313.36	2.584	280586	WORD	n/a	wordpools/wordpool_EN.txt	FENCE	5	2	[0, 0, 0]	n/a	FR1	0	R1153T
315.944	2.451	283170	WORD	n/a	wordpools/wordpool_EN.txt	BENCH	6	2	[0, 0, 0]	n/a	FR1	0	R1153T
318.395	2.567	285621	WORD	n/a	wordpools/wordpool_EN.txt	TRAY	7	2	[0, 0, 0]	n/a	FR1	0	R1153T
320.962	2.417	288188	WORD	n/a	wordpools/wordpool_EN.txt	TOY	8	2	[0, 0, 0]	n/a	FR1	0	R1153T
323.379	2.4	290604	WORD	n/a	wordpools/wordpool_EN.txt	HOLE	9	2	[0, 0, 0]	n/a	FR1	0	R1153T
325.779	2.601	293004	WORD	n/a	wordpools/wordpool_EN.txt	BATH	10	2	[0, 0, 0]	n/a	FR1	0	R1153T
328.38	2.467	295605	WORD	n/a	wordpools/wordpool_EN.txt	JAR	11	2	[0, 0, 0]	n/a	FR1	0	R1153T
330.847	1.618	298072	WORD	n/a	wordpools/wordpool_EN.txt	HOSE	12	2	[0, 0, 0]	n/a	FR1	0	R1153T
332.465	0.001	299690	DISTRACT_START	n/a	n/a	n/a	-999	2	[0, 0, 0]	n/a	FR1	0	R1153T
332.466	0.016	299691	START	n/a	n/a	n/a	-999	2	[-999, -999, -999]	n/a	FR1	0	R1153T
332.482	6.416	299707	PROB	6.416	n/a	n/a	-999	2	[3, 8, 2]	13	FR1	0	R1153T
338.898	13.721	306123	PROB	13.721	n/a	n/a	-999	2	[4, 1, 9]	14	FR1	0	R1153T
352.619	0.016	319843	STOP	n/a	n/a	n/a	-999	2	[-999, -999, -999]	n/a	FR1	0	R1153T
352.635	1.1	319859	DISTRACT_END	n/a	n/a	n/a	-999	2	[0, 0, 0]	n/a	FR1	0	R1153T
353.735	8.5	320959	REC_START	n/a	n/a	n/a	-999	2	[0, 0, 0]	n/a	FR1	0	R1153T
362.235	2.833	329459	REC_WORD	2.833	n/a	HEAD	-999	2	[0, 0, 0]	n/a	FR1	0	R1153T
365.068	2.946	332291	REC_WORD	2.946	n/a	KNEE	-999	2	[0, 0, 0]	n/a	FR1	0	R1153T
368.014	15.733	335237	REC_WORD	15.733	n/a	LEG	1	2	[0, 0, 0]	n/a	FR1	0	R1153T
383.747	141.102	350969	REC_END	n/a	n/a	n/a	-999	2	[0, 0, 0]	n/a	FR1	0	R1153T
524.849	0.0	492065	TRIAL	n/a	n/a	n/a	-999	3	[0, 0, 0]	n/a	FR1	0	R1153T
524.849	10.428	492065	COUNTDOWN_START	n/a	n/a	n/a	-999	3	[0, 0, 0]	n/a	FR1	0	R1153T
535.277	0.007	502492	COUNTDOWN_END	n/a	n/a	n/a	-999	3	[0, 0, 0]	n/a	FR1	0	R1153T
535.284	2.617	502499	ORIENT	n/a	n/a	n/a	-999	3	[0, 0, 0]	n/a	FR1	0	R1153T
537.901	2.517	505116	WORD	n/a	wordpools/wordpool_EN.txt	BRICK	1	3	[0, 0, 0]	n/a	FR1	0	R1153T
540.418	2.434	507633	WORD	n/a	wordpools/wordpool_EN.txt	CAKE	2	3	[0, 0, 0]	n/a	FR1	0	R1153T
542.852	2.467	510067	WORD	n/a	wordpools/wordpool_EN.txt	RAIN	3	3	[0, 0, 0]	n/a	FR1	0	R1153T
545.319	2.617	512534	WORD	n/a	wordpools/wordpool_EN.txt	SOUP	4	3	[0, 0, 0]	n/a	FR1	0	R1153T
547.936	2.569	515150	WORD	n/a	wordpools/wordpool_EN.txt	FLOOR	5	3	[0, 0, 0]	n/a	FR1	0	R1153T
550.505	2.399	517719	WORD	n/a	wordpools/wordpool_EN.txt	SNOW	6	3	[0, 0, 0]	n/a	FR1	0	R1153T
552.904	2.601	520118	WORD	n/a	wordpools/wordpool_EN.txt	SHARK	7	3	[0, 0, 0]	n/a	FR1	0	R1153T
555.505	2.5	522719	WORD	n/a	wordpools/wordpool_EN.txt	CHALK	8	3	[0, 0, 0]	n/a	FR1	0	R1153T
558.005	2.501	525219	WORD	n/a	wordpools/wordpool_EN.txt	TOAST	9	3	[0, 0, 0]	n/a	FR1	0	R1153T
560.506	2.45	527720	WORD	n/a	wordpools/wordpool_EN.txt	TRASH	10	3	[0, 0, 0]	n/a	FR1	0	R1153T
562.956	2.467	530170	WORD	n/a	wordpools/wordpool_EN.txt	PHONE	11	3	[0, 0, 0]	n/a	FR1	0	R1153T
565.423	1.617	532637	WORD	n/a	wordpools/wordpool_EN.txt	LAMB	12	3	[0, 0, 0]	n/a	FR1	0	R1153T
567.04	0.001	534253	DISTRACT_START	n/a	n/a	n/a	-999	3	[0, 0, 0]	n/a	FR1	0	R1153T
567.041	0.016	534254	START	n/a	n/a	n/a	-999	3	[-999, -999, -999]	n/a	FR1	0	R1153T
567.057	11.085	534270	PROB	11.085	n/a	n/a	-999	3	[4, 7, 2]	13	FR1	0	R1153T
578.142	9.068	545355	PROB	9.068	n/a	n/a	-999	3	[8, 7, 9]	18	FR1	0	R1153T
587.21	0.017	554422	STOP	n/a	n/a	n/a	-999	3	[-999, -999, -999]	n/a	FR1	0	R1153T
587.227	1.034	554439	DISTRACT_END	n/a	n/a	n/a	-999	3	[0, 0, 0]	n/a	FR1	0	R1153T
588.261	5.779	555473	REC_START	n/a	n/a	n/a	-999	3	[0, 0, 0]	n/a	FR1	0	R1153T
594.04	2.302	561252	REC_WORD	2.302	n/a	RAIN	3	3	[0, 0, 0]	n/a	FR1	0	R1153T
596.342	5.258	563554	REC_WORD	5.258	n/a	BRICK	1	3	[0, 0, 0]	n/a	FR1	0	R1153T
601.6	7.463	568812	REC_WORD	7.463	n/a	ROSE	-999	3	[0, 0, 0]	n/a	FR1	0	R1153T
609.063	9.208	576274	REC_WORD	9.208	n/a	RAIN	3	3	[0, 0, 0]	n/a	FR1	0	R1153T
618.271	4.679	585482	REC_END	n/a	n/a	n/a	-999	3	[0, 0, 0]	n/a	FR1	0	R1153T
622.95	0.0	590161	TRIAL	n/a	n/a	n/a	-999	4	[0, 0, 0]	n/a	FR1	0	R1153T
622.95	10.428	590161	COUNTDOWN_START	n/a	n/a	n/a	-999	4	[0, 0, 0]	n/a	FR1	0	R1153T
633.378	0.007	600588	COUNTDOWN_END	n/a	n/a	n/a	-999	4	[0, 0, 0]	n/a	FR1	0	R1153T
633.385	2.384	600595	ORIENT	n/a	n/a	n/a	-999	4	[0, 0, 0]	n/a	FR1	0	R1153T
635.769	2.534	602979	WORD	n/a	wordpools/wordpool_EN.txt	HEN	1	4	[0, 0, 0]	n/a	FR1	0	R1153T
638.303	2.4	605513	WORD	n/a	wordpools/wordpool_EN.txt	SINK	2	4	[0, 0, 0]	n/a	FR1	0	R1153T
640.703	2.601	607913	WORD	n/a	wordpools/wordpool_EN.txt	BOOT	3	4	[0, 0, 0]	n/a	FR1	0	R1153T
643.304	2.584	610514	WORD	n/a	wordpools/wordpool_EN.txt	CART	4	4	[0, 0, 0]	n/a	FR1	0	R1153T
645.888	2.618	613098	WORD	n/a	wordpools/wordpool_EN.txt	POLE	5	4	[0, 0, 0]	n/a	FR1	0	R1153T
648.506	2.499	615715	WORD	n/a	wordpools/wordpool_EN.txt	PIG	6	4	[0, 0, 0]	n/a	FR1	0	R1153T
651.005	2.384	618214	WORD	n/a	wordpools/wordpool_EN.txt	NOSE	7	4	[0, 0, 0]	n/a	FR1	0	R1153T
653.389	2.55	620598	WORD	n/a	wordpools/wordpool_EN.txt	MILK	8	4	[0, 0, 0]	n/a	FR1	0	R1153T
655.939	2.468	623148	WORD	n/a	wordpools/wordpool_EN.txt	BEAN	9	4	[0, 0, 0]	n/a	FR1	0	R1153T
658.407	2.4	625616	WORD	n/a	wordpools/wordpool_EN.txt	HAT	10	4	[0, 0, 0]	n/a	FR1	0	R1153T
660.807	2.617	628016	WORD	n/a	wordpools/wordpool_EN.txt	PIE	11	4	[0, 0, 0]	n/a	FR1	0	R1153T
663.424	1.617	630633	WORD	n/a	wordpools/wordpool_EN.txt	SLUSH	12	4	[0, 0, 0]	n/a	FR1	0	R1153T
665.041	0.001	632250	DISTRACT_START	n/a	n/a	n/a	-999	4	[0, 0, 0]	n/a	FR1	0	R1153T
665.042	0.016	632251	START	n/a	n/a	n/a	-999	4	[-999, -999, -999]	n/a	FR1	0	R1153T
665.058	18.454	632267	PROB	18.454	n/a	n/a	-999	4	[5, 1, 8]	16	FR1	0	R1153T
683.512	9.075	650720	PROB	9.075	n/a	n/a	-999	4	[3, 8, 5]	16	FR1	0	R1153T
692.587	0.01	659794	STOP	n/a	n/a	n/a	-999	4	[-999, -999, -999]	n/a	FR1	0	R1153T
692.597	1.05	659804	DISTRACT_END	n/a	n/a	n/a	-999	4	[0, 0, 0]	n/a	FR1	0	R1153T
693.647	30.0	660854	REC_START	n/a	n/a	n/a	-999	4	[0, 0, 0]	n/a	FR1	0	R1153T
723.647	0.01	690853	REC_WORD_VV	0.01	n/a	<>	-999	4	[0, 0, 0]	n/a	FR1	0	R1153T
723.657	69.024	690863	REC_END	n/a	n/a	n/a	-999	4	[0, 0, 0]	n/a	FR1	0	R1153T
792.681	0.0	759883	TRIAL	n/a	n/a	n/a	-999	5	[0, 0, 0]	n/a	FR1	0	R1153T
792.681	10.428	759883	COUNTDOWN_START	n/a	n/a	n/a	-999	5	[0, 0, 0]	n/a	FR1	0	R1153T
803.109	0.007	770311	COUNTDOWN_END	n/a	n/a	n/a	-999	5	[0, 0, 0]	n/a	FR1	0	R1153T
803.116	2.534	770318	ORIENT	n/a	n/a	n/a	-999	5	[0, 0, 0]	n/a	FR1	0	R1153T
805.65	2.567	772852	WORD	n/a	wordpools/wordpool_EN.txt	BED	1	5	[0, 0, 0]	n/a	FR1	0	R1153T
808.217	2.385	775419	WORD	n/a	wordpools/wordpool_EN.txt	AXE	2	5	[0, 0, 0]	n/a	FR1	0	R1153T
810.602	2.466	777804	WORD	n/a	wordpools/wordpool_EN.txt	PANTS	3	5	[0, 0, 0]	n/a	FR1	0	R1153T
813.068	2.468	780269	WORD	n/a	wordpools/wordpool_EN.txt	CLOCK	4	5	[0, 0, 0]	n/a	FR1	0	R1153T
815.536	2.449	782737	WORD	n/a	wordpools/wordpool_EN.txt	THREAD	5	5	[0, 0, 0]	n/a	FR1	0	R1153T
817.985	2.602	785186	WORD	n/a	wordpools/wordpool_EN.txt	FLAG	6	5	[0, 0, 0]	n/a	FR1	0	R1153T
820.587	2.55	787788	WORD	n/a	wordpools/wordpool_EN.txt	SUIT	7	5	[0, 0, 0]	n/a	FR1	0	R1153T
823.137	2.401	790338	WORD	n/a	wordpools/wordpool_EN.txt	CLIFF	8	5	[0, 0, 0]	n/a	FR1	0	R1153T
825.538	2.533	792739	WORD	n/a	wordpools/wordpool_EN.txt	CLOTH	9	5	[0, 0, 0]	n/a	FR1	0	R1153T
828.071	2.385	795272	WORD	n/a	wordpools/wordpool_EN.txt	BOAT	10	5	[0, 0, 0]	n/a	FR1	0	R1153T
830.456	2.432	797657	WORD	n/a	wordpools/wordpool_EN.txt	RIB	11	5	[0, 0, 0]	n/a	FR1	0	R1153T
832.888	1.602	800088	WORD	n/a	wordpools/wordpool_EN.txt	SOAP	12	5	[0, 0, 0]	n/a	FR1	0	R1153T
834.49	0.001	801690	DISTRACT_START	n/a	n/a	n/a	-999	5	[0, 0, 0]	n/a	FR1	0	R1153T
834.491	0.015	801691	START	n/a	n/a	n/a	-999	5	[-999, -999, -999]	n/a	FR1	0	R1153T
834.506	9.551	801706	PROB	9.551	n/a	n/a	-999	5	[2, 8, 5]	15	FR1	0	R1153T
844.057	4.001	811257	PROB	4.001	n/a	n/a	-999	5	[7, 1, 3]	11	FR1	0	R1153T
848.058	2.934	815258	PROB	2.934	n/a	n/a	-999	5	[1, 2, 8]	11	FR1	0	R1153T
850.992	6.682	818192	PROB	6.682	n/a	n/a	-999	5	[4, 6, 6]	16	FR1	0	R1153T
857.674	0.019	824873	STOP	n/a	n/a	n/a	-999	5	[-999, -999, -999]	n/a	FR1	0	R1153T
857.693	1.217	824892	DISTRACT_END	n/a	n/a	n/a	-999	5	[0, 0, 0]	n/a	FR1	0	R1153T
858.91	4.28	826109	REC_START	n/a	n/a	n/a	-999	5	[0, 0, 0]	n/a	FR1	0	R1153T
863.19	1.961	830389	REC_WORD	1.961	n/a	SHOE	-999	5	[0, 0, 0]	n/a	FR1	0	R1153T
865.151	14.843	832350	REC_WORD	14.843	n/a	AXE	2	5	[0, 0, 0]	n/a	FR1	0	R1153T
879.994	8.929	847192	REC_WORD	8.929	n/a	SOAP	12	5	[0, 0, 0]	n/a	FR1	0	R1153T
888.923	10.427	856121	REC_END	n/a	n/a	n/a	-999	5	[0, 0, 0]	n/a	FR1	0	R1153T
899.35	0.001	866547	COUNTDOWN_START	n/a	n/a	n/a	-999	6	[0, 0, 0]	n/a	FR1	0	R1153T
899.351	10.427	866548	TRIAL	n/a	n/a	n/a	-999	6	[0, 0, 0]	n/a	FR1	0	R1153T
909.778	0.008	876975	COUNTDOWN_END	n/a	n/a	n/a	-999	6	[0, 0, 0]	n/a	FR1	0	R1153T
909.786	2.517	876983	ORIENT	n/a	n/a	n/a	-999	6	[0, 0, 0]	n/a	FR1	0	R1153T
912.303	2.467	879500	WORD	n/a	wordpools/wordpool_EN.txt	VASE	1	6	[0, 0, 0]	n/a	FR1	0	R1153T
914.77	2.55	881966	WORD	n/a	wordpools/wordpool_EN.txt	HOUSE	2	6	[0, 0, 0]	n/a	FR1	0	R1153T
917.32	2.501	884516	WORD	n/a	wordpools/wordpool_EN.txt	ROOM	3	6	[0, 0, 0]	n/a	FR1	0	R1153T
919.821	2.584	887017	WORD	n/a	wordpools/wordpool_EN.txt	VEST	4	6	[0, 0, 0]	n/a	FR1	0	R1153T
922.405	2.55	889601	WORD	n/a	wordpools/wordpool_EN.txt	HILL	5	6	[0, 0, 0]	n/a	FR1	0	R1153T
924.955	2.434	892151	WORD	n/a	wordpools/wordpool_EN.txt	CAGE	6	6	[0, 0, 0]	n/a	FR1	0	R1153T
927.389	2.384	894585	WORD	n/a	wordpools/wordpool_EN.txt	WAND	7	6	[0, 0, 0]	n/a	FR1	0	R1153T
929.773	2.517	896969	WORD	n/a	wordpools/wordpool_EN.txt	STRAW	8	6	[0, 0, 0]	n/a	FR1	0	R1153T
932.29	2.45	899486	WORD	n/a	wordpools/wordpool_EN.txt	BARN	9	6	[0, 0, 0]	n/a	FR1	0	R1153T
934.74	2.451	901935	WORD	n/a	wordpools/wordpool_EN.txt	TOE	10	6	[0, 0, 0]	n/a	FR1	0	R1153T
937.191	2.434	904386	WORD	n/a	wordpools/wordpool_EN.txt	DESK	11	6	[0, 0, 0]	n/a	FR1	0	R1153T
939.625	1.616	906820	WORD	n/a	wordpools/wordpool_EN.txt	MUG	12	6	[0, 0, 0]	n/a	FR1	0	R1153T
941.241	0.001	908436	DISTRACT_START	n/a	n/a	n/a	-999	6	[0, 0, 0]	n/a	FR1	0	R1153T
941.242	0.016	908437	START	n/a	n/a	n/a	-999	6	[-999, -999, -999]	n/a	FR1	0	R1153T
941.258	25.305	908453	PROB	25.305	n/a	n/a	-999	6	[7, 8, 5]	20	FR1	0	R1153T
966.563	0.017	933757	STOP	n/a	n/a	n/a	-999	6	[-999, -999, -999]	n/a	FR1	0	R1153T
966.58	1.233	933774	DISTRACT_END	n/a	n/a	n/a	-999	6	[0, 0, 0]	n/a	FR1	0	R1153T
967.813	11.5	935007	REC_START	n/a	n/a	n/a	-999	6	[0, 0, 0]	n/a	FR1	0	R1153T
979.313	18.514	946506	REC_WORD	18.514	n/a	ELF	-999	6	[0, 0, 0]	n/a	FR1	0	R1153T
997.827	12.344	965019	REC_END	n/a	n/a	n/a	-999	6	[0, 0, 0]	n/a	FR1	0	R1153T
1010.171	0.0	977363	TRIAL	n/a	n/a	n/a	-999	7	[0, 0, 0]	n/a	FR1	0	R1153T
1010.171	10.428	977363	COUNTDOWN_START	n/a	n/a	n/a	-999	7	[0, 0, 0]	n/a	FR1	0	R1153T
1020.599	0.008	987790	COUNTDOWN_END	n/a	n/a	n/a	-999	7	[0, 0, 0]	n/a	FR1	0	R1153T
1020.607	2.583	987798	ORIENT	n/a	n/a	n/a	-999	7	[0, 0, 0]	n/a	FR1	0	R1153T
1023.19	2.384	990381	WORD	n/a	wordpools/wordpool_EN.txt	SNAIL	1	7	[0, 0, 0]	n/a	FR1	0	R1153T
1025.574	2.45	992765	WORD	n/a	wordpools/wordpool_EN.txt	CROW	2	7	[0, 0, 0]	n/a	FR1	0	R1153T
1028.024	2.485	995215	WORD	n/a	wordpools/wordpool_EN.txt	MOTH	3	7	[0, 0, 0]	n/a	FR1	0	R1153T
1030.509	2.516	997700	WORD	n/a	wordpools/wordpool_EN.txt	BRANCH	4	7	[0, 0, 0]	n/a	FR1	0	R1153T
1033.025	2.568	1000216	WORD	n/a	wordpools/wordpool_EN.txt	MOUSE	5	7	[0, 0, 0]	n/a	FR1	0	R1153T
1035.593	2.533	1002783	WORD	n/a	wordpools/wordpool_EN.txt	WEB	6	7	[0, 0, 0]	n/a	FR1	0	R1153T
1038.126	2.517	1005316	WORD	n/a	wordpools/wordpool_EN.txt	RAKE	7	7	[0, 0, 0]	n/a	FR1	0	R1153T
1040.643	2.533	1007833	WORD	n/a	wordpools/wordpool_EN.txt	KITE	8	7	[0, 0, 0]	n/a	FR1	0	R1153T
1043.176	2.501	1010366	WORD	n/a	wordpools/wordpool_EN.txt	HAWK	9	7	[0, 0, 0]	n/a	FR1	0	R1153T
1045.677	2.467	1012867	WORD	n/a	wordpools/wordpool_EN.txt	SNAKE	10	7	[0, 0, 0]	n/a	FR1	0	R1153T
1048.144	2.534	1015334	WORD	n/a	wordpools/wordpool_EN.txt	OWL	11	7	[0, 0, 0]	n/a	FR1	0	R1153T
1050.678	1.617	1017868	WORD	n/a	wordpools/wordpool_EN.txt	TENT	12	7	[0, 0, 0]	n/a	FR1	0	R1153T
1052.295	0.001	1019485	DISTRACT_START	n/a	n/a	n/a	-999	7	[0, 0, 0]	n/a	FR1	0	R1153T
1052.296	0.016	1019486	START	n/a	n/a	n/a	-999	7	[-999, -999, -999]	n/a	FR1	0	R1153T
1052.312	8.269	1019502	PROB	8.269	n/a	n/a	-999	7	[5, 7, 4]	16	FR1	0	R1153T
1060.581	9.534	1027770	PROB	9.534	n/a	n/a	-999	7	[6, 8, 6]	18	FR1	0	R1153T
1070.115	4.295	1037304	PROB	4.295	n/a	n/a	-999	7	[1, 8, 3]	12	FR1	0	R1153T
1074.41	0.006	1041599	STOP	n/a	n/a	n/a	-999	7	[-999, -999, -999]	n/a	FR1	0	R1153T
1074.416	1.052	1041605	DISTRACT_END	n/a	n/a	n/a	-999	7	[0, 0, 0]	n/a	FR1	0	R1153T
1075.468	30.0	1042657	REC_START	n/a	n/a	n/a	-999	7	[0, 0, 0]	n/a	FR1	0	R1153T
1105.468	0.01	1072655	REC_WORD_VV	0.01	n/a	<>	-999	7	[0, 0, 0]	n/a	FR1	0	R1153T
1105.478	20.597	1072665	REC_END	n/a	n/a	n/a	-999	7	[0, 0, 0]	n/a	FR1	0	R1153T
1126.075	0.001	1093261	COUNTDOWN_START	n/a	n/a	n/a	-999	8	[0, 0, 0]	n/a	FR1	0	R1153T
1126.076	10.427	1093262	TRIAL	n/a	n/a	n/a	-999	8	[0, 0, 0]	n/a	FR1	0	R1153T
1136.503	0.008	1103689	COUNTDOWN_END	n/a	n/a	n/a	-999	8	[0, 0, 0]	n/a	FR1	0	R1153T
1136.511	2.533	1103697	ORIENT	n/a	n/a	n/a	-999	8	[0, 0, 0]	n/a	FR1	0	R1153T
1139.044	2.617	1106229	WORD	n/a	wordpools/wordpool_EN.txt	PURSE	1	8	[0, 0, 0]	n/a	FR1	0	R1153T
1141.661	2.401	1108846	WORD	n/a	wordpools/wordpool_EN.txt	OAK	2	8	[0, 0, 0]	n/a	FR1	0	R1153T
1144.062	2.451	1111247	WORD	n/a	wordpools/wordpool_EN.txt	CHEEK	3	8	[0, 0, 0]	n/a	FR1	0	R1153T
1146.513	2.399	1113698	WORD	n/a	wordpools/wordpool_EN.txt	CANE	4	8	[0, 0, 0]	n/a	FR1	0	R1153T
1148.912	2.552	1116097	WORD	n/a	wordpools/wordpool_EN.txt	MAZE	5	8	[0, 0, 0]	n/a	FR1	0	R1153T
1151.464	2.566	1118649	WORD	n/a	wordpools/wordpool_EN.txt	CHIN	6	8	[0, 0, 0]	n/a	FR1	0	R1153T
1154.03	2.602	1121215	WORD	n/a	wordpools/wordpool_EN.txt	SMILE	7	8	[0, 0, 0]	n/a	FR1	0	R1153T
1156.632	2.566	1123817	WORD	n/a	wordpools/wordpool_EN.txt	FROG	8	8	[0, 0, 0]	n/a	FR1	0	R1153T
1159.198	2.567	1126382	WORD	n/a	wordpools/wordpool_EN.txt	ROSE	9	8	[0, 0, 0]	n/a	FR1	0	R1153T
1161.765	2.484	1128949	WORD	n/a	wordpools/wordpool_EN.txt	COUCH	10	8	[0, 0, 0]	n/a	FR1	0	R1153T
1164.249	2.533	1131433	WORD	n/a	wordpools/wordpool_EN.txt	LAWN	11	8	[0, 0, 0]	n/a	FR1	0	R1153T
1166.782	1.617	1133966	WORD	n/a	wordpools/wordpool_EN.txt	MAT	12	8	[0, 0, 0]	n/a	FR1	0	R1153T
1168.399	0.002	1135583	DISTRACT_START	n/a	n/a	n/a	-999	8	[0, 0, 0]	n/a	FR1	0	R1153T
1168.401	0.015	1135585	START	n/a	n/a	n/a	-999	8	[-999, -999, -999]	n/a	FR1	0	R1153T
1168.416	15.453	1135600	PROB	15.453	n/a	n/a	-999	8	[5, 7, 8]	20	FR1	0	R1153T
1183.869	5.917	1151052	PROB	5.917	n/a	n/a	-999	8	[7, 4, 4]	15	FR1	0	R1153T
1189.786	0.017	1156969	STOP	n/a	n/a	n/a	-999	8	[-999, -999, -999]	n/a	FR1	0	R1153T
1189.803	1.068	1156986	DISTRACT_END	n/a	n/a	n/a	-999	8	[0, 0, 0]	n/a	FR1	0	R1153T
1190.871	2.435	1158054	REC_START	n/a	n/a	n/a	-999	8	[0, 0, 0]	n/a	FR1	0	R1153T
1193.306	16.976	1160489	REC_WORD	16.976	n/a	CHEEK	3	8	[0, 0, 0]	n/a	FR1	0	R1153T
1210.282	1.98	1177464	REC_WORD	1.98	n/a	OAK	2	8	[0, 0, 0]	n/a	FR1	0	R1153T
1212.262	7.139	1179444	REC_WORD	7.139	n/a	OAK	2	8	[0, 0, 0]	n/a	FR1	0	R1153T
1219.401	1.48	1186582	REC_WORD	1.48	n/a	ROSE	9	8	[0, 0, 0]	n/a	FR1	0	R1153T
1220.881	25.082	1188062	REC_END	n/a	n/a	n/a	-999	8	[0, 0, 0]	n/a	FR1	0	R1153T
1245.963	0.001	1213143	COUNTDOWN_START	n/a	n/a	n/a	-999	9	[0, 0, 0]	n/a	FR1	0	R1153T
1245.964	10.427	1213144	TRIAL	n/a	n/a	n/a	-999	9	[0, 0, 0]	n/a	FR1	0	R1153T
1256.391	0.008	1223571	COUNTDOWN_END	n/a	n/a	n/a	-999	9	[0, 0, 0]	n/a	FR1	0	R1153T
1256.399	2.467	1223579	ORIENT	n/a	n/a	n/a	-999	9	[0, 0, 0]	n/a	FR1	0	R1153T
1258.866	2.45	1226046	WORD	n/a	wordpools/wordpool_EN.txt	MULE	1	9	[0, 0, 0]	n/a	FR1	0	R1153T
1261.316	2.401	1228495	WORD	n/a	wordpools/wordpool_EN.txt	SEAT	2	9	[0, 0, 0]	n/a	FR1	0	R1153T
1263.717	2.583	1230896	WORD	n/a	wordpools/wordpool_EN.txt	OAR	3	9	[0, 0, 0]	n/a	FR1	0	R1153T
1266.3	2.418	1233479	WORD	n/a	wordpools/wordpool_EN.txt	SUN	4	9	[0, 0, 0]	n/a	FR1	0	R1153T
1268.718	2.517	1235897	WORD	n/a	wordpools/wordpool_EN.txt	ICE	5	9	[0, 0, 0]	n/a	FR1	0	R1153T
1271.235	2.467	1238414	WORD	n/a	wordpools/wordpool_EN.txt	CONE	6	9	[0, 0, 0]	n/a	FR1	0	R1153T
1273.702	2.517	1240881	WORD	n/a	wordpools/wordpool_EN.txt	PLATE	7	9	[0, 0, 0]	n/a	FR1	0	R1153T
1276.219	2.385	1243398	WORD	n/a	wordpools/wordpool_EN.txt	WHEEL	8	9	[0, 0, 0]	n/a	FR1	0	R1153T
1278.604	2.616	1245783	WORD	n/a	wordpools/wordpool_EN.txt	SCHOOL	9	9	[0, 0, 0]	n/a	FR1	0	R1153T
1281.22	2.484	1248398	WORD	n/a	wordpools/wordpool_EN.txt	ROOT	10	9	[0, 0, 0]	n/a	FR1	0	R1153T
1283.704	2.55	1250882	WORD	n/a	wordpools/wordpool_EN.txt	FOG	11	9	[0, 0, 0]	n/a	FR1	0	R1153T
1286.254	1.617	1253432	WORD	n/a	wordpools/wordpool_EN.txt	NAIL	12	9	[0, 0, 0]	n/a	FR1	0	R1153T
1287.871	0.001	1255049	DISTRACT_START	n/a	n/a	n/a	-999	9	[0, 0, 0]	n/a	FR1	0	R1153T
1287.872	0.016	1255050	START	n/a	n/a	n/a	-999	9	[-999, -999, -999]	n/a	FR1	0	R1153T
1287.888	9.151	1255066	PROB	9.151	n/a	n/a	-999	9	[9, 1, 8]	18	FR1	0	R1153T
1297.039	26.099	1264217	PROB	26.099	n/a	n/a	-999	9	[2, 2, 3]	7	FR1	0	R1153T
1323.138	0.006	1290314	STOP	n/a	n/a	n/a	-999	9	[-999, -999, -999]	n/a	FR1	0	R1153T
1323.144	1.051	1290320	DISTRACT_END	n/a	n/a	n/a	-999	9	[0, 0, 0]	n/a	FR1	0	R1153T
1324.195	2.65	1291371	REC_START	n/a	n/a	n/a	-999	9	[0, 0, 0]	n/a	FR1	0	R1153T
1326.845	6.967	1294021	REC_WORD	6.967	n/a	LAKE	-999	9	[0, 0, 0]	n/a	FR1	0	R1153T
1333.812	1.507	1300988	REC_WORD	1.507	n/a	ICE	5	9	[0, 0, 0]	n/a	FR1	0	R1153T
1335.319	18.886	1302495	REC_WORD	18.886	n/a	FOG	11	9	[0, 0, 0]	n/a	FR1	0	R1153T
1354.205	23.216	1321380	REC_END	n/a	n/a	n/a	-999	9	[0, 0, 0]	n/a	FR1	0	R1153T
1377.421	0.0	1344595	TRIAL	n/a	n/a	n/a	-999	10	[0, 0, 0]	n/a	FR1	0	R1153T
1377.421	10.428	1344595	COUNTDOWN_START	n/a	n/a	n/a	-999	10	[0, 0, 0]	n/a	FR1	0	R1153T
1387.849	0.007	1355022	COUNTDOWN_END	n/a	n/a	n/a	-999	10	[0, 0, 0]	n/a	FR1	0	R1153T
1387.856	2.534	1355029	ORIENT	n/a	n/a	n/a	-999	10	[0, 0, 0]	n/a	FR1	0	R1153T
1390.39	2.467	1357563	WORD	n/a	wordpools/wordpool_EN.txt	LEAF	1	10	[0, 0, 0]	n/a	FR1	0	R1153T
1392.857	2.45	1360030	WORD	n/a	wordpools/wordpool_EN.txt	SAIL	2	10	[0, 0, 0]	n/a	FR1	0	R1153T
1395.307	2.451	1362480	WORD	n/a	wordpools/wordpool_EN.txt	SPEAR	3	10	[0, 0, 0]	n/a	FR1	0	R1153T
1397.758	2.417	1364931	WORD	n/a	wordpools/wordpool_EN.txt	VINE	4	10	[0, 0, 0]	n/a	FR1	0	R1153T
1400.175	2.385	1367348	WORD	n/a	wordpools/wordpool_EN.txt	LAND	5	10	[0, 0, 0]	n/a	FR1	0	R1153T
1402.56	2.616	1369732	WORD	n/a	wordpools/wordpool_EN.txt	TEA	6	10	[0, 0, 0]	n/a	FR1	0	R1153T
1405.176	2.401	1372348	WORD	n/a	wordpools/wordpool_EN.txt	CAVE	7	10	[0, 0, 0]	n/a	FR1	0	R1153T
1407.577	2.6	1374749	WORD	n/a	wordpools/wordpool_EN.txt	PEA	8	10	[0, 0, 0]	n/a	FR1	0	R1153T
1410.177	2.385	1377349	WORD	n/a	wordpools/wordpool_EN.txt	BOY	9	10	[0, 0, 0]	n/a	FR1	0	R1153T
1412.562	2.416	1379734	WORD	n/a	wordpools/wordpool_EN.txt	CORN	10	10	[0, 0, 0]	n/a	FR1	0	R1153T
1414.978	2.568	1382150	WORD	n/a	wordpools/wordpool_EN.txt	SEA	11	10	[0, 0, 0]	n/a	FR1	0	R1153T
1417.546	1.616	1384718	WORD	n/a	wordpools/wordpool_EN.txt	CHIEF	12	10	[0, 0, 0]	n/a	FR1	0	R1153T
1419.162	0.001	1386334	DISTRACT_START	n/a	n/a	n/a	-999	10	[0, 0, 0]	n/a	FR1	0	R1153T
1419.163	0.015	1386335	START	n/a	n/a	n/a	-999	10	[-999, -999, -999]	n/a	FR1	0	R1153T
1419.178	7.319	1386350	PROB	7.319	n/a	n/a	-999	10	[1, 1, 1]	3	FR1	0	R1153T
1426.497	12.485	1393668	PROB	12.485	n/a	n/a	-999	10	[5, 3, 7]	15	FR1	0	R1153T
1438.982	6.204	1406153	PROB	6.204	n/a	n/a	-999	10	[5, 2, 3]	10	FR1	0	R1153T
1445.186	0.014	1412356	STOP	n/a	n/a	n/a	-999	10	[-999, -999, -999]	n/a	FR1	0	R1153T
1445.2	1.034	1412370	DISTRACT_END	n/a	n/a	n/a	-999	10	[0, 0, 0]	n/a	FR1	0	R1153T
1446.234	26.675	1413404	REC_START	n/a	n/a	n/a	-999	10	[0, 0, 0]	n/a	FR1	0	R1153T
1472.909	3.335	1440078	REC_WORD	3.335	n/a	SPEAR	3	10	[0, 0, 0]	n/a	FR1	0	R1153T
1476.244	278.263	1443413	REC_END	n/a	n/a	n/a	-999	10	[0, 0, 0]	n/a	FR1	0	R1153T
1754.507	0.0	1721662	COUNTDOWN_START	n/a	n/a	n/a	-999	11	[0, 0, 0]	n/a	FR1	0	R1153T
1754.507	10.428	1721662	TRIAL	n/a	n/a	n/a	-999	11	[0, 0, 0]	n/a	FR1	0	R1153T
1764.935	0.006	1732090	COUNTDOWN_END	n/a	n/a	n/a	-999	11	[0, 0, 0]	n/a	FR1	0	R1153T
1764.941	2.552	1732096	ORIENT	n/a	n/a	n/a	-999	11	[0, 0, 0]	n/a	FR1	0	R1153T
1767.493	2.383	1734648	WORD	n/a	wordpools/wordpool_EN.txt	BRUSH	1	11	[0, 0, 0]	n/a	FR1	0	R1153T
1769.876	2.4	1737030	WORD	n/a	wordpools/wordpool_EN.txt	STRING	2	11	[0, 0, 0]	n/a	FR1	0	R1153T
1772.276	2.533	1739430	WORD	n/a	wordpools/wordpool_EN.txt	DOCK	3	11	[0, 0, 0]	n/a	FR1	0	R1153T
1774.809	2.601	1741963	WORD	n/a	wordpools/wordpool_EN.txt	STORM	4	11	[0, 0, 0]	n/a	FR1	0	R1153T
1777.41	2.384	1744564	WORD	n/a	wordpools/wordpool_EN.txt	BRIDGE	5	11	[0, 0, 0]	n/a	FR1	0	R1153T
1779.794	2.534	1746948	WORD	n/a	wordpools/wordpool_EN.txt	ROAD	6	11	[0, 0, 0]	n/a	FR1	0	R1153T
1782.328	2.617	1749482	WORD	n/a	wordpools/wordpool_EN.txt	BAG	7	11	[0, 0, 0]	n/a	FR1	0	R1153T
1784.945	2.568	1752099	WORD	n/a	wordpools/wordpool_EN.txt	ROOF	8	11	[0, 0, 0]	n/a	FR1	0	R1153T
1787.513	2.383	1754667	WORD	n/a	wordpools/wordpool_EN.txt	PEACH	9	11	[0, 0, 0]	n/a	FR1	0	R1153T
1789.896	2.384	1757049	WORD	n/a	wordpools/wordpool_EN.txt	STAIR	10	11	[0, 0, 0]	n/a	FR1	0	R1153T
1792.28	2.45	1759433	WORD	n/a	wordpools/wordpool_EN.txt	MUD	11	11	[0, 0, 0]	n/a	FR1	0	R1153T
1794.73	1.617	1761883	WORD	n/a	wordpools/wordpool_EN.txt	CUBE	12	11	[0, 0, 0]	n/a	FR1	0	R1153T
1796.347	0.001	1763500	DISTRACT_START	n/a	n/a	n/a	-999	11	[0, 0, 0]	n/a	FR1	0	R1153T
1796.348	0.016	1763501	START	n/a	n/a	n/a	-999	11	[-999, -999, -999]	n/a	FR1	0	R1153T
1796.364	9.735	1763517	PROB	9.735	n/a	n/a	-999	11	[6, 5, 6]	17	FR1	0	R1153T
1806.099	11.183	1773252	PROB	11.183	n/a	n/a	-999	11	[4, 3, 9]	16	FR1	0	R1153T
1817.282	0.019	1784434	STOP	n/a	n/a	n/a	-999	11	[-999, -999, -999]	n/a	FR1	0	R1153T
1817.301	1.118	1784453	DISTRACT_END	n/a	n/a	n/a	-999	11	[0, 0, 0]	n/a	FR1	0	R1153T
1818.419	3.665	1785571	REC_START	n/a	n/a	n/a	-999	11	[0, 0, 0]	n/a	FR1	0	R1153T
1822.084	5.732	1789236	REC_WORD	5.732	n/a	STRING	2	11	[0, 0, 0]	n/a	FR1	0	R1153T
1827.816	4.893	1794968	REC_WORD	4.893	n/a	BRUSH	1	11	[0, 0, 0]	n/a	FR1	0	R1153T
1832.709	3.776	1799860	REC_WORD	3.776	n/a	CUBE	12	11	[0, 0, 0]	n/a	FR1	0	R1153T
1836.485	11.944	1803636	REC_WORD	11.944	n/a	ICE	-999	11	[0, 0, 0]	n/a	FR1	0	R1153T
1848.429	28.949	1815580	REC_END	n/a	n/a	n/a	-999	11	[0, 0, 0]	n/a	FR1	0	R1153T
1877.378	0.001	1844527	COUNTDOWN_START	n/a	n/a	n/a	-999	12	[0, 0, 0]	n/a	FR1	0	R1153T
1877.379	10.427	1844528	TRIAL	n/a	n/a	n/a	-999	12	[0, 0, 0]	n/a	FR1	0	R1153T
1887.806	0.008	1854955	COUNTDOWN_END	n/a	n/a	n/a	-999	12	[0, 0, 0]	n/a	FR1	0	R1153T
1887.814	2.55	1854963	ORIENT	n/a	n/a	n/a	-999	12	[0, 0, 0]	n/a	FR1	0	R1153T
1890.364	2.617	1857512	WORD	n/a	wordpools/wordpool_EN.txt	TRUCK	1	12	[0, 0, 0]	n/a	FR1	0	R1153T
1892.981	2.585	1860129	WORD	n/a	wordpools/wordpool_EN.txt	SLEEVE	2	12	[0, 0, 0]	n/a	FR1	0	R1153T
1895.566	2.416	1862714	WORD	n/a	wordpools/wordpool_EN.txt	PET	3	12	[0, 0, 0]	n/a	FR1	0	R1153T
1897.982	2.451	1865130	WORD	n/a	wordpools/wordpool_EN.txt	APE	4	12	[0, 0, 0]	n/a	FR1	0	R1153T
1900.433	2.383	1867581	WORD	n/a	wordpools/wordpool_EN.txt	GLASS	5	12	[0, 0, 0]	n/a	FR1	0	R1153T
1902.816	2.468	1869964	WORD	n/a	wordpools/wordpool_EN.txt	SHOE	6	12	[0, 0, 0]	n/a	FR1	0	R1153T
1905.284	2.617	1872432	WORD	n/a	wordpools/wordpool_EN.txt	ZOO	7	12	[0, 0, 0]	n/a	FR1	0	R1153T
1907.901	2.584	1875049	WORD	n/a	wordpools/wordpool_EN.txt	CUP	8	12	[0, 0, 0]	n/a	FR1	0	R1153T
1910.485	2.533	1877632	WORD	n/a	wordpools/wordpool_EN.txt	PIPE	9	12	[0, 0, 0]	n/a	FR1	0	R1153T
1913.018	2.485	1880165	WORD	n/a	wordpools/wordpool_EN.txt	PEN	10	12	[0, 0, 0]	n/a	FR1	0	R1153T
1915.503	2.55	1882650	WORD	n/a	wordpools/wordpool_EN.txt	SKUNK	11	12	[0, 0, 0]	n/a	FR1	0	R1153T
1918.053	1.617	1885200	WORD	n/a	wordpools/wordpool_EN.txt	STREET	12	12	[0, 0, 0]	n/a	FR1	0	R1153T
1919.67	0.001	1886817	DISTRACT_START	n/a	n/a	n/a	-999	12	[0, 0, 0]	n/a	FR1	0	R1153T
1919.671	0.015	1886818	START	n/a	n/a	n/a	-999	12	[-999, -999, -999]	n/a	FR1	0	R1153T
1919.686	6.668	1886833	PROB	6.668	n/a	n/a	-999	12	[6, 4, 1]	11	FR1	0	R1153T
1926.354	11.602	1893501	PROB	11.602	n/a	n/a	-999	12	[2, 1, 2]	5	FR1	0	R1153T
1937.956	25.302	1905102	PROB	25.302	n/a	n/a	-999	12	[1, 9, 6]	16	FR1	0	R1153T
1963.258	0.019	1930403	STOP	n/a	n/a	n/a	-999	12	[-999, -999, -999]	n/a	FR1	0	R1153T
1963.277	1.185	1930422	DISTRACT_END	n/a	n/a	n/a	-999	12	[0, 0, 0]	n/a	FR1	0	R1153T
1964.462	3.776	1931607	REC_START	n/a	n/a	n/a	-999	12	[0, 0, 0]	n/a	FR1	0	R1153T
1968.238	1.12	1935383	REC_WORD	1.12	n/a	LEG	-999	12	[0, 0, 0]	n/a	FR1	0	R1153T
1969.358	1.128	1936503	REC_WORD	1.128	n/a	PIPE	9	12	[0, 0, 0]	n/a	FR1	0	R1153T
1970.486	4.936	1937631	REC_WORD	4.936	n/a	CUP	8	12	[0, 0, 0]	n/a	FR1	0	R1153T
1975.422	7.035	1942566	REC_WORD	7.035	n/a	GLASS	5	12	[0, 0, 0]	n/a	FR1	0	R1153T
1982.457	12.019	1949601	REC_WORD	12.019	n/a	RAKE	-999	12	[0, 0, 0]	n/a	FR1	0	R1153T
1994.476	17.46	1961619	REC_END	n/a	n/a	n/a	-999	12	[0, 0, 0]	n/a	FR1	0	R1153T
2011.936	0.001	1979079	COUNTDOWN_START	n/a	n/a	n/a	-999	13	[0, 0, 0]	n/a	FR1	0	R1153T
2011.937	10.427	1979080	TRIAL	n/a	n/a	n/a	-999	13	[0, 0, 0]	n/a	FR1	0	R1153T
2022.364	0.008	1989506	COUNTDOWN_END	n/a	n/a	n/a	-999	13	[0, 0, 0]	n/a	FR1	0	R1153T
2022.372	2.5	1989514	ORIENT	n/a	n/a	n/a	-999	13	[0, 0, 0]	n/a	FR1	0	R1153T
2024.872	2.55	1992014	WORD	n/a	wordpools/wordpool_EN.txt	STORE	1	13	[0, 0, 0]	n/a	FR1	0	R1153T
2027.422	2.518	1994564	WORD	n/a	wordpools/wordpool_EN.txt	BEAR	2	13	[0, 0, 0]	n/a	FR1	0	R1153T
2029.94	2.4	1997082	WORD	n/a	wordpools/wordpool_EN.txt	BLOOM	3	13	[0, 0, 0]	n/a	FR1	0	R1153T
2032.34	2.434	1999482	WORD	n/a	wordpools/wordpool_EN.txt	SHEEP	4	13	[0, 0, 0]	n/a	FR1	0	R1153T
2034.774	2.584	2001915	WORD	n/a	wordpools/wordpool_EN.txt	DEER	5	13	[0, 0, 0]	n/a	FR1	0	R1153T
2037.358	2.617	2004499	WORD	n/a	wordpools/wordpool_EN.txt	SMOKE	6	13	[0, 0, 0]	n/a	FR1	0	R1153T
2039.975	2.501	2007116	WORD	n/a	wordpools/wordpool_EN.txt	BREAD	7	13	[0, 0, 0]	n/a	FR1	0	R1153T
2042.476	2.433	2009617	WORD	n/a	wordpools/wordpool_EN.txt	FLUTE	8	13	[0, 0, 0]	n/a	FR1	0	R1153T
2044.909	2.467	2012050	WORD	n/a	wordpools/wordpool_EN.txt	FARM	9	13	[0, 0, 0]	n/a	FR1	0	R1153T
2047.376	2.534	2014517	WORD	n/a	wordpools/wordpool_EN.txt	HORSE	10	13	[0, 0, 0]	n/a	FR1	0	R1153T
2049.91	2.417	2017051	WORD	n/a	wordpools/wordpool_EN.txt	HEART	11	13	[0, 0, 0]	n/a	FR1	0	R1153T
2052.327	1.617	2019468	WORD	n/a	wordpools/wordpool_EN.txt	PRINCE	12	13	[0, 0, 0]	n/a	FR1	0	R1153T
2053.944	0.001	2021084	DISTRACT_START	n/a	n/a	n/a	-999	13	[0, 0, 0]	n/a	FR1	0	R1153T
2053.945	0.016	2021085	START	n/a	n/a	n/a	-999	13	[-999, -999, -999]	n/a	FR1	0	R1153T
2053.961	4.184	2021101	PROB	4.184	n/a	n/a	-999	13	[2, 8, 1]	11	FR1	0	R1153T
2058.145	5.984	2025285	PROB	5.984	n/a	n/a	-999	13	[4, 2, 1]	7	FR1	0	R1153T
2064.129	4.818	2031269	PROB	4.818	n/a	n/a	-999	13	[4, 2, 9]	15	FR1	0	R1153T
2068.947	5.951	2036087	PROB	5.951	n/a	n/a	-999	13	[3, 2, 8]	1	FR1	0	R1153T
2074.898	0.016	2042037	STOP	n/a	n/a	n/a	-999	13	[-999, -999, -999]	n/a	FR1	0	R1153T
2074.914	1.134	2042053	DISTRACT_END	n/a	n/a	n/a	-999	13	[0, 0, 0]	n/a	FR1	0	R1153T
2076.048	9.098	2043187	REC_START	n/a	n/a	n/a	-999	13	[0, 0, 0]	n/a	FR1	0	R1153T
2085.146	2.993	2052285	REC_WORD	2.993	n/a	HORSE	10	13	[0, 0, 0]	n/a	FR1	0	R1153T
2088.139	9.947	2055278	REC_WORD	9.947	n/a	BREAD	7	13	[0, 0, 0]	n/a	FR1	0	R1153T
2098.086	4.855	2065224	REC_WORD	4.855	n/a	RAKE	-999	13	[0, 0, 0]	n/a	FR1	0	R1153T
2102.941	1.706	2070079	REC_WORD	1.706	n/a	BEAR	2	13	[0, 0, 0]	n/a	FR1	0	R1153T
2104.647	1.419	2071785	REC_WORD	1.419	n/a	HEART	11	13	[0, 0, 0]	n/a	FR1	0	R1153T
2106.066	13.424	2073204	REC_END	n/a	n/a	n/a	-999	13	[0, 0, 0]	n/a	FR1	0	R1153T
2119.49	0.0	2086627	COUNTDOWN_START	n/a	n/a	n/a	-999	14	[0, 0, 0]	n/a	FR1	0	R1153T
2119.49	10.428	2086627	TRIAL	n/a	n/a	n/a	-999	14	[0, 0, 0]	n/a	FR1	0	R1153T
2129.918	0.007	2097055	COUNTDOWN_END	n/a	n/a	n/a	-999	14	[0, 0, 0]	n/a	FR1	0	R1153T
2129.925	2.383	2097062	ORIENT	n/a	n/a	n/a	-999	14	[0, 0, 0]	n/a	FR1	0	R1153T
2132.308	2.5	2099445	WORD	n/a	wordpools/wordpool_EN.txt	CROWN	1	14	[0, 0, 0]	n/a	FR1	0	R1153T
2134.808	2.401	2101944	WORD	n/a	wordpools/wordpool_EN.txt	TEETH	2	14	[0, 0, 0]	n/a	FR1	0	R1153T
2137.209	2.517	2104345	WORD	n/a	wordpools/wordpool_EN.txt	TREE	3	14	[0, 0, 0]	n/a	FR1	0	R1153T
2139.726	2.517	2106862	WORD	n/a	wordpools/wordpool_EN.txt	HOOF	4	14	[0, 0, 0]	n/a	FR1	0	R1153T
2142.243	2.584	2109379	WORD	n/a	wordpools/wordpool_EN.txt	BEE	5	14	[0, 0, 0]	n/a	FR1	0	R1153T
2144.827	2.567	2111963	WORD	n/a	wordpools/wordpool_EN.txt	DOG	6	14	[0, 0, 0]	n/a	FR1	0	R1153T
2147.394	2.401	2114530	WORD	n/a	wordpools/wordpool_EN.txt	BUSH	7	14	[0, 0, 0]	n/a	FR1	0	R1153T
2149.795	2.45	2116931	WORD	n/a	wordpools/wordpool_EN.txt	SEAL	8	14	[0, 0, 0]	n/a	FR1	0	R1153T
2152.245	2.534	2119381	WORD	n/a	wordpools/wordpool_EN.txt	GRAPE	9	14	[0, 0, 0]	n/a	FR1	0	R1153T
2154.779	2.417	2121914	WORD	n/a	wordpools/wordpool_EN.txt	WORM	10	14	[0, 0, 0]	n/a	FR1	0	R1153T
2157.196	2.567	2124331	WORD	n/a	wordpools/wordpool_EN.txt	SEED	11	14	[0, 0, 0]	n/a	FR1	0	R1153T
2159.763	1.617	2126898	WORD	n/a	wordpools/wordpool_EN.txt	COW	12	14	[0, 0, 0]	n/a	FR1	0	R1153T
2161.38	0.001	2128515	DISTRACT_START	n/a	n/a	n/a	-999	14	[0, 0, 0]	n/a	FR1	0	R1153T
2161.381	0.016	2128516	START	n/a	n/a	n/a	-999	14	[-999, -999, -999]	n/a	FR1	0	R1153T
2161.397	5.017	2128532	PROB	5.017	n/a	n/a	-999	14	[1, 1, 9]	11	FR1	0	R1153T
2166.414	7.352	2133549	PROB	7.352	n/a	n/a	-999	14	[5, 4, 1]	10	FR1	0	R1153T
2173.766	7.401	2140901	PROB	7.401	n/a	n/a	-999	14	[5, 3, 6]	14	FR1	0	R1153T
2181.167	6.203	2148301	PROB	6.203	n/a	n/a	-999	14	[4, 5, 9]	18	FR1	0	R1153T
2187.37	0.015	2154504	STOP	n/a	n/a	n/a	-999	14	[-999, -999, -999]	n/a	FR1	0	R1153T
2187.385	1.102	2154519	DISTRACT_END	n/a	n/a	n/a	-999	14	[0, 0, 0]	n/a	FR1	0	R1153T
2188.487	0.783	2155621	REC_START	n/a	n/a	n/a	-999	14	[0, 0, 0]	n/a	FR1	0	R1153T
2189.27	4.571	2156404	REC_WORD	4.571	n/a	HOOF	4	14	[0, 0, 0]	n/a	FR1	0	R1153T
2193.841	7.838	2160975	REC_WORD	7.838	n/a	FLOOR	-999	14	[0, 0, 0]	n/a	FR1	0	R1153T
2201.679	16.82	2168812	REC_WORD	16.82	n/a	BEAR	-999	14	[0, 0, 0]	n/a	FR1	0	R1153T
2218.499	32.231	2185631	REC_END	n/a	n/a	n/a	-999	14	[0, 0, 0]	n/a	FR1	0	R1153T
2250.73	0.0	2217861	TRIAL	n/a	n/a	n/a	-999	15	[0, 0, 0]	n/a	FR1	0	R1153T
2250.73	10.428	2217861	COUNTDOWN_START	n/a	n/a	n/a	-999	15	[0, 0, 0]	n/a	FR1	0	R1153T
2261.158	0.007	2228288	COUNTDOWN_END	n/a	n/a	n/a	-999	15	[0, 0, 0]	n/a	FR1	0	R1153T
2261.165	2.501	2228295	ORIENT	n/a	n/a	n/a	-999	15	[0, 0, 0]	n/a	FR1	0	R1153T
2263.666	2.6	2230796	WORD	n/a	wordpools/wordpool_EN.txt	CAPE	1	15	[0, 0, 0]	n/a	FR1	0	R1153T
2266.266	2.617	2233396	WORD	n/a	wordpools/wordpool_EN.txt	PLANE	2	15	[0, 0, 0]	n/a	FR1	0	R1153T
2268.883	2.4	2236013	WORD	n/a	wordpools/wordpool_EN.txt	PEARL	3	15	[0, 0, 0]	n/a	FR1	0	R1153T
2271.283	2.634	2238413	WORD	n/a	wordpools/wordpool_EN.txt	CLOUD	4	15	[0, 0, 0]	n/a	FR1	0	R1153T
2273.917	2.418	2241047	WORD	n/a	wordpools/wordpool_EN.txt	SPARK	5	15	[0, 0, 0]	n/a	FR1	0	R1153T
2276.335	2.567	2243465	WORD	n/a	wordpools/wordpool_EN.txt	DOOR	6	15	[0, 0, 0]	n/a	FR1	0	R1153T
2278.902	2.517	2246031	WORD	n/a	wordpools/wordpool_EN.txt	VAN	7	15	[0, 0, 0]	n/a	FR1	0	R1153T
2281.419	2.45	2248548	WORD	n/a	wordpools/wordpool_EN.txt	FUDGE	8	15	[0, 0, 0]	n/a	FR1	0	R1153T
2283.869	2.367	2250998	WORD	n/a	wordpools/wordpool_EN.txt	SHIP	9	15	[0, 0, 0]	n/a	FR1	0	R1153T
2286.236	2.434	2253365	WORD	n/a	wordpools/wordpool_EN.txt	SKY	10	15	[0, 0, 0]	n/a	FR1	0	R1153T
2288.67	2.434	2255799	WORD	n/a	wordpools/wordpool_EN.txt	STAR	11	15	[0, 0, 0]	n/a	FR1	0	R1153T
2291.104	1.617	2258233	WORD	n/a	wordpools/wordpool_EN.txt	DRUM	12	15	[0, 0, 0]	n/a	FR1	0	R1153T
2292.721	0.001	2259850	DISTRACT_START	n/a	n/a	n/a	-999	15	[0, 0, 0]	n/a	FR1	0	R1153T
2292.722	0.015	2259851	START	n/a	n/a	n/a	-999	15	[-999, -999, -999]	n/a	FR1	0	R1153T
2292.737	10.82	2259866	PROB	10.82	n/a	n/a	-999	15	[2, 4, 3]	9	FR1	0	R1153T
2303.557	5.733	2270685	PROB	5.733	n/a	n/a	-999	15	[7, 4, 3]	14	FR1	0	R1153T
2309.29	14.496	2276418	PROB	14.496	n/a	n/a	-999	15	[8, 6, 5]	10	FR1	0	R1153T
2323.786	0.007	2290913	STOP	n/a	n/a	n/a	-999	15	[-999, -999, -999]	n/a	FR1	0	R1153T
2323.793	1.201	2290920	DISTRACT_END	n/a	n/a	n/a	-999	15	[0, 0, 0]	n/a	FR1	0	R1153T
2324.994	30.0	2292121	REC_START	n/a	n/a	n/a	-999	15	[0, 0, 0]	n/a	FR1	0	R1153T
2354.994	0.011	2322120	REC_WORD_VV	0.011	n/a	<>	-999	15	[0, 0, 0]	n/a	FR1	0	R1153T
2355.005	5.695	2322131	REC_END	n/a	n/a	n/a	-999	15	[0, 0, 0]	n/a	FR1	0	R1153T
2360.7	0.0	2327825	TRIAL	n/a	n/a	n/a	-999	16	[0, 0, 0]	n/a	FR1	0	R1153T
2360.7	10.428	2327825	COUNTDOWN_START	n/a	n/a	n/a	-999	16	[0, 0, 0]	n/a	FR1	0	R1153T
2371.128	0.007	2338253	COUNTDOWN_END	n/a	n/a	n/a	-999	16	[0, 0, 0]	n/a	FR1	0	R1153T
2371.135	2.418	2338260	ORIENT	n/a	n/a	n/a	-999	16	[0, 0, 0]	n/a	FR1	0	R1153T
2373.553	2.416	2340678	WORD	n/a	wordpools/wordpool_EN.txt	PLANT	1	16	[0, 0, 0]	n/a	FR1	0	R1153T
2375.969	2.568	2343094	WORD	n/a	wordpools/wordpool_EN.txt	BIRD	2	16	[0, 0, 0]	n/a	FR1	0	R1153T
2378.537	2.617	2345662	WORD	n/a	wordpools/wordpool_EN.txt	SHELL	3	16	[0, 0, 0]	n/a	FR1	0	R1153T
2381.154	2.567	2348278	WORD	n/a	wordpools/wordpool_EN.txt	FOOD	4	16	[0, 0, 0]	n/a	FR1	0	R1153T
2383.721	2.6	2350845	WORD	n/a	wordpools/wordpool_EN.txt	TAIL	5	16	[0, 0, 0]	n/a	FR1	0	R1153T
2386.321	2.434	2353445	WORD	n/a	wordpools/wordpool_EN.txt	SWAMP	6	16	[0, 0, 0]	n/a	FR1	0	R1153T
2388.755	2.6	2355879	WORD	n/a	wordpools/wordpool_EN.txt	GEESE	7	16	[0, 0, 0]	n/a	FR1	0	R1153T
2391.355	2.551	2358479	WORD	n/a	wordpools/wordpool_EN.txt	BEACH	8	16	[0, 0, 0]	n/a	FR1	0	R1153T
2393.906	2.585	2361030	WORD	n/a	wordpools/wordpool_EN.txt	DUCK	9	16	[0, 0, 0]	n/a	FR1	0	R1153T
2396.491	2.532	2363615	WORD	n/a	wordpools/wordpool_EN.txt	FUR	10	16	[0, 0, 0]	n/a	FR1	0	R1153T
2399.023	2.535	2366146	WORD	n/a	wordpools/wordpool_EN.txt	BLUSH	11	16	[0, 0, 0]	n/a	FR1	0	R1153T
2401.558	1.616	2368681	WORD	n/a	wordpools/wordpool_EN.txt	WING	12	16	[0, 0, 0]	n/a	FR1	0	R1153T
2403.174	0.002	2370297	DISTRACT_START	n/a	n/a	n/a	-999	16	[0, 0, 0]	n/a	FR1	0	R1153T
2403.176	0.015	2370299	START	n/a	n/a	n/a	-999	16	[-999, -999, -999]	n/a	FR1	0	R1153T
2403.191	12.169	2370314	PROB	12.169	n/a	n/a	-999	16	[1, 8, 6]	15	FR1	0	R1153T
2415.36	6.451	2382483	PROB	6.451	n/a	n/a	-999	16	[4, 6, 3]	12	FR1	0	R1153T
2421.811	10.407	2388933	PROB	10.407	n/a	n/a	-999	16	[9, 4, 9]	22	FR1	0	R1153T
2432.218	0.012	2399340	STOP	n/a	n/a	n/a	-999	16	[-999, -999, -999]	n/a	FR1	0	R1153T
2432.23	1.117	2399352	DISTRACT_END	n/a	n/a	n/a	-999	16	[0, 0, 0]	n/a	FR1	0	R1153T
2433.347	30.0	2400469	REC_START	n/a	n/a	n/a	-999	16	[0, 0, 0]	n/a	FR1	0	R1153T
2463.347	0.012	2430467	REC_WORD_VV	0.012	n/a	<>	-999	16	[0, 0, 0]	n/a	FR1	0	R1153T
2463.359	367.277	2430479	REC_END	n/a	n/a	n/a	-999	16	[0, 0, 0]	n/a	FR1	0	R1153T
2830.636	0.001	2797738	COUNTDOWN_START	n/a	n/a	n/a	-999	17	[0, 0, 0]	n/a	FR1	0	R1153T
2830.637	10.427	2797739	TRIAL	n/a	n/a	n/a	-999	17	[0, 0, 0]	n/a	FR1	0	R1153T
2841.064	0.007	2808166	COUNTDOWN_END	n/a	n/a	n/a	-999	17	[0, 0, 0]	n/a	FR1	0	R1153T
2841.071	2.434	2808173	ORIENT	n/a	n/a	n/a	-999	17	[0, 0, 0]	n/a	FR1	0	R1153T
2843.505	2.533	2810607	WORD	n/a	wordpools/wordpool_EN.txt	HAND	1	17	[0, 0, 0]	n/a	FR1	0	R1153T
2846.038	2.568	2813140	WORD	n/a	wordpools/wordpool_EN.txt	LIP	2	17	[0, 0, 0]	n/a	FR1	0	R1153T
2848.606	2.4	2815707	WORD	n/a	wordpools/wordpool_EN.txt	GLOVE	3	17	[0, 0, 0]	n/a	FR1	0	R1153T
2851.006	2.501	2818107	WORD	n/a	wordpools/wordpool_EN.txt	FLAME	4	17	[0, 0, 0]	n/a	FR1	0	R1153T
2853.507	2.433	2820608	WORD	n/a	wordpools/wordpool_EN.txt	BOARD	5	17	[0, 0, 0]	n/a	FR1	0	R1153T
2855.94	2.602	2823041	WORD	n/a	wordpools/wordpool_EN.txt	SWORD	6	17	[0, 0, 0]	n/a	FR1	0	R1153T
2858.542	2.499	2825643	WORD	n/a	wordpools/wordpool_EN.txt	TIE	7	17	[0, 0, 0]	n/a	FR1	0	R1153T
2861.041	2.6	2828142	WORD	n/a	wordpools/wordpool_EN.txt	HOOK	8	17	[0, 0, 0]	n/a	FR1	0	R1153T
2863.641	2.568	2830742	WORD	n/a	wordpools/wordpool_EN.txt	PIN	9	17	[0, 0, 0]	n/a	FR1	0	R1153T
2866.209	2.433	2833310	WORD	n/a	wordpools/wordpool_EN.txt	MOUTH	10	17	[0, 0, 0]	n/a	FR1	0	R1153T
2868.642	2.417	2835742	WORD	n/a	wordpools/wordpool_EN.txt	BADGE	11	17	[0, 0, 0]	n/a	FR1	0	R1153T
2871.059	1.617	2838159	WORD	n/a	wordpools/wordpool_EN.txt	ARK	12	17	[0, 0, 0]	n/a	FR1	0	R1153T
2872.676	0.001	2839776	DISTRACT_START	n/a	n/a	n/a	-999	17	[0, 0, 0]	n/a	FR1	0	R1153T
2872.677	0.016	2839777	START	n/a	n/a	n/a	-999	17	[-999, -999, -999]	n/a	FR1	0	R1153T
2872.693	12.336	2839793	PROB	12.336	n/a	n/a	-999	17	[9, 9, 9]	27	FR1	0	R1153T
2885.029	6.334	2852129	PROB	6.334	n/a	n/a	-999	17	[4, 1, 8]	13	FR1	0	R1153T
2891.363	4.831	2858462	PROB	4.831	n/a	n/a	-999	17	[3, 5, 5]	13	FR1	0	R1153T
2896.194	0.003	2863293	STOP	n/a	n/a	n/a	-999	17	[-999, -999, -999]	n/a	FR1	0	R1153T
2896.197	1.085	2863296	DISTRACT_END	n/a	n/a	n/a	-999	17	[0, 0, 0]	n/a	FR1	0	R1153T
2897.282	4.706	2864381	REC_START	n/a	n/a	n/a	-999	17	[0, 0, 0]	n/a	FR1	0	R1153T
2901.988	5.431	2869087	REC_WORD	5.431	n/a	GLOVE	3	17	[0, 0, 0]	n/a	FR1	0	R1153T
2907.419	12.472	2874518	REC_WORD	12.472	n/a	FLOOR	-999	17	[0, 0, 0]	n/a	FR1	0	R1153T
2919.891	4.174	2886989	REC_WORD	4.174	n/a	LIP	2	17	[0, 0, 0]	n/a	FR1	0	R1153T
2924.065	3.23	2891163	REC_WORD	3.23	n/a	TABLE	-999	17	[0, 0, 0]	n/a	FR1	0	R1153T
2927.295	3.442	2894393	REC_END	n/a	n/a	n/a	-999	17	[0, 0, 0]	n/a	FR1	0	R1153T
2930.737	0.0	2897834	TRIAL	n/a	n/a	n/a	-999	18	[0, 0, 0]	n/a	FR1	0	R1153T
2930.737	10.428	2897834	COUNTDOWN_START	n/a	n/a	n/a	-999	18	[0, 0, 0]	n/a	FR1	0	R1153T
2941.165	0.007	2908262	COUNTDOWN_END	n/a	n/a	n/a	-999	18	[0, 0, 0]	n/a	FR1	0	R1153T
2941.172	2.534	2908269	ORIENT	n/a	n/a	n/a	-999	18	[0, 0, 0]	n/a	FR1	0	R1153T
2943.706	2.467	2910803	WORD	n/a	wordpools/wordpool_EN.txt	GOLD	1	18	[0, 0, 0]	n/a	FR1	0	R1153T
2946.173	2.452	2913270	WORD	n/a	wordpools/wordpool_EN.txt	JET	2	18	[0, 0, 0]	n/a	FR1	0	R1153T
2948.625	2.499	2915722	WORD	n/a	wordpools/wordpool_EN.txt	CASH	3	18	[0, 0, 0]	n/a	FR1	0	R1153T
2951.124	2.385	2918220	WORD	n/a	wordpools/wordpool_EN.txt	BANK	4	18	[0, 0, 0]	n/a	FR1	0	R1153T
2953.509	2.433	2920605	WORD	n/a	wordpools/wordpool_EN.txt	BOMB	5	18	[0, 0, 0]	n/a	FR1	0	R1153T
2955.942	2.5	2923038	WORD	n/a	wordpools/wordpool_EN.txt	MAIL	6	18	[0, 0, 0]	n/a	FR1	0	R1153T
2958.442	2.617	2925538	WORD	n/a	wordpools/wordpool_EN.txt	BOOK	7	18	[0, 0, 0]	n/a	FR1	0	R1153T
2961.059	2.402	2928155	WORD	n/a	wordpools/wordpool_EN.txt	DART	8	18	[0, 0, 0]	n/a	FR1	0	R1153T
2963.461	2.482	2930557	WORD	n/a	wordpools/wordpool_EN.txt	MAP	9	18	[0, 0, 0]	n/a	FR1	0	R1153T
2965.943	2.368	2933039	WORD	n/a	wordpools/wordpool_EN.txt	FORT	10	18	[0, 0, 0]	n/a	FR1	0	R1153T
2968.311	2.45	2935407	WORD	n/a	wordpools/wordpool_EN.txt	TOAD	11	18	[0, 0, 0]	n/a	FR1	0	R1153T
2970.761	1.617	2937856	WORD	n/a	wordpools/wordpool_EN.txt	FILM	12	18	[0, 0, 0]	n/a	FR1	0	R1153T
2972.378	0.001	2939473	DISTRACT_START	n/a	n/a	n/a	-999	18	[0, 0, 0]	n/a	FR1	0	R1153T
2972.379	0.016	2939474	START	n/a	n/a	n/a	-999	18	[-999, -999, -999]	n/a	FR1	0	R1153T
2972.395	10.735	2939490	PROB	10.735	n/a	n/a	-999	18	[6, 2, 8]	16	FR1	0	R1153T
2983.13	6.402	2950225	PROB	6.402	n/a	n/a	-999	18	[5, 7, 2]	14	FR1	0	R1153T
2989.532	4.918	2956626	PROB	4.918	n/a	n/a	-999	18	[9, 1, 6]	16	FR1	0	R1153T
2994.45	0.016	2961544	STOP	n/a	n/a	n/a	-999	18	[-999, -999, -999]	n/a	FR1	0	R1153T
2994.466	1.018	2961560	DISTRACT_END	n/a	n/a	n/a	-999	18	[0, 0, 0]	n/a	FR1	0	R1153T
2995.484	3.462	2962578	REC_START	n/a	n/a	n/a	-999	18	[0, 0, 0]	n/a	FR1	0	R1153T
2998.946	1.582	2966040	REC_WORD	1.582	n/a	BOMB	5	18	[0, 0, 0]	n/a	FR1	0	R1153T
3000.528	6.468	2967622	REC_WORD	6.468	n/a	BANK	4	18	[0, 0, 0]	n/a	FR1	0	R1153T
3006.996	3.722	2974090	REC_WORD	3.722	n/a	MONEY	-999	18	[0, 0, 0]	n/a	FR1	0	R1153T
3010.718	1.609	2977811	REC_WORD	1.609	n/a	CASH	3	18	[0, 0, 0]	n/a	FR1	0	R1153T
3012.327	13.169	2979420	REC_WORD	13.169	n/a	BANK	4	18	[0, 0, 0]	n/a	FR1	0	R1153T
3025.496	3.159	2992589	REC_END	n/a	n/a	n/a	-999	18	[0, 0, 0]	n/a	FR1	0	R1153T
3028.655	0.0	2995748	TRIAL	n/a	n/a	n/a	-999	19	[0, 0, 0]	n/a	FR1	0	R1153T
3028.655	10.428	2995748	COUNTDOWN_START	n/a	n/a	n/a	-999	19	[0, 0, 0]	n/a	FR1	0	R1153T
3039.083	0.007	3006175	COUNTDOWN_END	n/a	n/a	n/a	-999	19	[0, 0, 0]	n/a	FR1	0	R1153T
3039.09	2.535	3006182	ORIENT	n/a	n/a	n/a	-999	19	[0, 0, 0]	n/a	FR1	0	R1153T
3041.625	2.433	3008717	WORD	n/a	wordpools/wordpool_EN.txt	STICK	1	19	[0, 0, 0]	n/a	FR1	0	R1153T
3044.058	2.401	3011150	WORD	n/a	wordpools/wordpool_EN.txt	DIME	2	19	[0, 0, 0]	n/a	FR1	0	R1153T
3046.459	2.483	3013551	WORD	n/a	wordpools/wordpool_EN.txt	JEEP	3	19	[0, 0, 0]	n/a	FR1	0	R1153T
3048.942	2.518	3016034	WORD	n/a	wordpools/wordpool_EN.txt	PIT	4	19	[0, 0, 0]	n/a	FR1	0	R1153T
3051.46	2.466	3018551	WORD	n/a	wordpools/wordpool_EN.txt	FOX	5	19	[0, 0, 0]	n/a	FR1	0	R1153T
3053.926	2.601	3021017	WORD	n/a	wordpools/wordpool_EN.txt	WOLF	6	19	[0, 0, 0]	n/a	FR1	0	R1153T
3056.527	2.383	3023618	WORD	n/a	wordpools/wordpool_EN.txt	ANT	7	19	[0, 0, 0]	n/a	FR1	0	R1153T
3058.91	2.569	3026001	WORD	n/a	wordpools/wordpool_EN.txt	SHIELD	8	19	[0, 0, 0]	n/a	FR1	0	R1153T
3061.479	2.582	3028570	WORD	n/a	wordpools/wordpool_EN.txt	ROCK	9	19	[0, 0, 0]	n/a	FR1	0	R1153T
3064.061	2.535	3031152	WORD	n/a	wordpools/wordpool_EN.txt	CRANE	10	19	[0, 0, 0]	n/a	FR1	0	R1153T
3066.596	2.416	3033687	WORD	n/a	wordpools/wordpool_EN.txt	NEST	11	19	[0, 0, 0]	n/a	FR1	0	R1153T
3069.012	1.601	3036103	WORD	n/a	wordpools/wordpool_EN.txt	BEAK	12	19	[0, 0, 0]	n/a	FR1	0	R1153T
3070.613	0.001	3037704	DISTRACT_START	n/a	n/a	n/a	-999	19	[0, 0, 0]	n/a	FR1	0	R1153T
3070.614	0.016	3037705	START	n/a	n/a	n/a	-999	19	[-999, -999, -999]	n/a	FR1	0	R1153T
3070.63	50.949	3037721	PROB	50.949	n/a	n/a	-999	19	[1, 8, 8]	17	FR1	0	R1153T
3121.579	0.01	3088667	STOP	n/a	n/a	n/a	-999	19	[-999, -999, -999]	n/a	FR1	0	R1153T
3121.589	1.117	3088677	DISTRACT_END	n/a	n/a	n/a	-999	19	[0, 0, 0]	n/a	FR1	0	R1153T
3122.706	29.994	3089794	REC_START	n/a	n/a	n/a	-999	19	[0, 0, 0]	n/a	FR1	0	R1153T
3152.7	0.018	3119786	REC_WORD_VV	0.018	n/a	<>	-999	19	[0, 0, 0]	n/a	FR1	0	R1153T
3152.718	3.243	3119804	REC_END	n/a	n/a	n/a	-999	19	[0, 0, 0]	n/a	FR1	0	R1153T
3155.961	0.001	3123047	COUNTDOWN_START	n/a	n/a	n/a	-999	20	[0, 0, 0]	n/a	FR1	0	R1153T
3155.962	10.427	3123048	TRIAL	n/a	n/a	n/a	-999	20	[0, 0, 0]	n/a	FR1	0	R1153T
3166.389	0.007	3133475	COUNTDOWN_END	n/a	n/a	n/a	-999	20	[0, 0, 0]	n/a	FR1	0	R1153T
3166.396	2.418	3133482	ORIENT	n/a	n/a	n/a	-999	20	[0, 0, 0]	n/a	FR1	0	R1153T
3168.814	2.533	3135900	WORD	n/a	wordpools/wordpool_EN.txt	CAT	1	20	[0, 0, 0]	n/a	FR1	0	R1153T
3171.347	2.551	3138433	WORD	n/a	wordpools/wordpool_EN.txt	KEY	2	20	[0, 0, 0]	n/a	FR1	0	R1153T
3173.898	2.484	3140983	WORD	n/a	wordpools/wordpool_EN.txt	WHALE	3	20	[0, 0, 0]	n/a	FR1	0	R1153T
3176.382	2.617	3143467	WORD	n/a	wordpools/wordpool_EN.txt	SIGN	4	20	[0, 0, 0]	n/a	FR1	0	R1153T
3178.999	2.45	3146084	WORD	n/a	wordpools/wordpool_EN.txt	CAR	5	20	[0, 0, 0]	n/a	FR1	0	R1153T
3181.449	2.601	3148534	WORD	n/a	wordpools/wordpool_EN.txt	WAVE	6	20	[0, 0, 0]	n/a	FR1	0	R1153T
3184.05	2.568	3151135	WORD	n/a	wordpools/wordpool_EN.txt	JAIL	7	20	[0, 0, 0]	n/a	FR1	0	R1153T
3186.618	2.583	3153703	WORD	n/a	wordpools/wordpool_EN.txt	JUDGE	8	20	[0, 0, 0]	n/a	FR1	0	R1153T
3189.201	2.401	3156286	WORD	n/a	wordpools/wordpool_EN.txt	DRESS	9	20	[0, 0, 0]	n/a	FR1	0	R1153T
3191.602	2.4	3158687	WORD	n/a	wordpools/wordpool_EN.txt	EAR	10	20	[0, 0, 0]	n/a	FR1	0	R1153T
3194.002	2.618	3161086	WORD	n/a	wordpools/wordpool_EN.txt	SKI	11	20	[0, 0, 0]	n/a	FR1	0	R1153T
3196.62	1.616	3163704	WORD	n/a	wordpools/wordpool_EN.txt	TRAIN	12	20	[0, 0, 0]	n/a	FR1	0	R1153T
3198.236	0.001	3165320	DISTRACT_START	n/a	n/a	n/a	-999	20	[0, 0, 0]	n/a	FR1	0	R1153T
3198.237	0.015	3165321	START	n/a	n/a	n/a	-999	20	[-999, -999, -999]	n/a	FR1	0	R1153T
3198.252	8.518	3165336	PROB	8.518	n/a	n/a	-999	20	[2, 1, 7]	10	FR1	0	R1153T
3206.77	4.719	3173854	PROB	4.719	n/a	n/a	-999	20	[6, 4, 9]	19	FR1	0	R1153T
3211.489	5.433	3178573	PROB	5.433	n/a	n/a	-999	20	[6, 8, 5]	19	FR1	0	R1153T
3216.922	3.649	3184005	PROB	3.649	n/a	n/a	-999	20	[3, 9, 9]	21	FR1	0	R1153T
3220.571	0.02	3187654	STOP	n/a	n/a	n/a	-999	20	[-999, -999, -999]	n/a	FR1	0	R1153T
3220.591	1.183	3187674	DISTRACT_END	n/a	n/a	n/a	-999	20	[0, 0, 0]	n/a	FR1	0	R1153T
3221.774	3.022	3188857	REC_START	n/a	n/a	n/a	-999	20	[0, 0, 0]	n/a	FR1	0	R1153T
3224.796	1.087	3191879	REC_WORD	1.087	n/a	SKI	11	20	[0, 0, 0]	n/a	FR1	0	R1153T
3225.883	4.801	3192966	REC_WORD	4.801	n/a	EAR	10	20	[0, 0, 0]	n/a	FR1	0	R1153T
3230.684	16.78	3197767	REC_WORD	16.78	n/a	SIGN	4	20	[0, 0, 0]	n/a	FR1	0	R1153T
3247.464	4.322	3214546	REC_WORD	4.322	n/a	TRAIN	12	20	[0, 0, 0]	n/a	FR1	0	R1153T
3251.786	15.813	3218868	REC_END	n/a	n/a	n/a	-999	20	[0, 0, 0]	n/a	FR1	0	R1153T
3267.599	0.0	3234680	TRIAL	n/a	n/a	n/a	-999	21	[0, 0, 0]	n/a	FR1	0	R1153T
3267.599	10.428	3234680	COUNTDOWN_START	n/a	n/a	n/a	-999	21	[0, 0, 0]	n/a	FR1	0	R1153T
3278.027	0.006	3245107	COUNTDOWN_END	n/a	n/a	n/a	-999	21	[0, 0, 0]	n/a	FR1	0	R1153T
3278.033	2.618	3245113	ORIENT	n/a	n/a	n/a	-999	21	[0, 0, 0]	n/a	FR1	0	R1153T
3280.651	2.417	3247731	WORD	n/a	wordpools/wordpool_EN.txt	SHIRT	1	21	[0, 0, 0]	n/a	FR1	0	R1153T
3283.068	2.468	3250148	WORD	n/a	wordpools/wordpool_EN.txt	ROPE	2	21	[0, 0, 0]	n/a	FR1	0	R1153T
3285.536	2.433	3252616	WORD	n/a	wordpools/wordpool_EN.txt	EEL	3	21	[0, 0, 0]	n/a	FR1	0	R1153T
3287.969	2.467	3255049	WORD	n/a	wordpools/wordpool_EN.txt	BAND	4	21	[0, 0, 0]	n/a	FR1	0	R1153T
3290.436	2.417	3257516	WORD	n/a	wordpools/wordpool_EN.txt	GOAT	5	21	[0, 0, 0]	n/a	FR1	0	R1153T
3292.853	2.4	3259933	WORD	n/a	wordpools/wordpool_EN.txt	YARD	6	21	[0, 0, 0]	n/a	FR1	0	R1153T
3295.253	2.401	3262332	WORD	n/a	wordpools/wordpool_EN.txt	FOAM	7	21	[0, 0, 0]	n/a	FR1	0	R1153T
3297.654	2.484	3264733	WORD	n/a	wordpools/wordpool_EN.txt	GATE	8	21	[0, 0, 0]	n/a	FR1	0	R1153T
3300.138	2.567	3267217	WORD	n/a	wordpools/wordpool_EN.txt	POOL	9	21	[0, 0, 0]	n/a	FR1	0	R1153T
3302.705	2.5	3269784	WORD	n/a	wordpools/wordpool_EN.txt	LAKE	10	21	[0, 0, 0]	n/a	FR1	0	R1153T
3305.205	2.551	3272284	WORD	n/a	wordpools/wordpool_EN.txt	GUARD	11	21	[0, 0, 0]	n/a	FR1	0	R1153T
3307.756	1.617	3274835	WORD	n/a	wordpools/wordpool_EN.txt	RUG	12	21	[0, 0, 0]	n/a	FR1	0	R1153T
3309.373	0.0	3276452	DISTRACT_START	n/a	n/a	n/a	-999	21	[0, 0, 0]	n/a	FR1	0	R1153T
3309.373	0.016	3276452	START	n/a	n/a	n/a	-999	21	[-999, -999, -999]	n/a	FR1	0	R1153T
3309.389	7.718	3276468	PROB	7.718	n/a	n/a	-999	21	[1, 7, 5]	13	FR1	0	R1153T
3317.107	2.468	3284185	PROB	2.468	n/a	n/a	-999	21	[2, 5, 4]	11	FR1	0	R1153T
3319.575	14.988	3286653	PROB	14.988	n/a	n/a	-999	21	[4, 3, 9]	16	FR1	0	R1153T
3334.563	0.015	3301641	STOP	n/a	n/a	n/a	-999	21	[-999, -999, -999]	n/a	FR1	0	R1153T
3334.578	1.133	3301656	DISTRACT_END	n/a	n/a	n/a	-999	21	[0, 0, 0]	n/a	FR1	0	R1153T
3335.711	13.286	3302788	REC_START	n/a	n/a	n/a	-999	21	[0, 0, 0]	n/a	FR1	0	R1153T
3348.997	2.865	3316074	REC_WORD	2.865	n/a	EEL	3	21	[0, 0, 0]	n/a	FR1	0	R1153T
3351.862	6.401	3318939	REC_WORD	6.401	n/a	SKY	-999	21	[0, 0, 0]	n/a	FR1	0	R1153T
3358.263	7.463	3325339	REC_WORD	7.463	n/a	MOUTH	-999	21	[0, 0, 0]	n/a	FR1	0	R1153T
3365.726	5.591	3332802	REC_END	n/a	n/a	n/a	-999	21	[0, 0, 0]	n/a	FR1	0	R1153T
3371.317	0.001	3338393	COUNTDOWN_START	n/a	n/a	n/a	-999	22	[0, 0, 0]	n/a	FR1	0	R1153T
3371.318	10.427	3338394	TRIAL	n/a	n/a	n/a	-999	22	[0, 0, 0]	n/a	FR1	0	R1153T
3381.745	0.007	3348820	COUNTDOWN_END	n/a	n/a	n/a	-999	22	[0, 0, 0]	n/a	FR1	0	R1153T
3381.752	2.484	3348827	ORIENT	n/a	n/a	n/a	-999	22	[0, 0, 0]	n/a	FR1	0	R1153T
3384.236	2.617	3351311	WORD	n/a	wordpools/wordpool_EN.txt	PARK	1	22	[0, 0, 0]	n/a	FR1	0	R1153T
3386.853	2.618	3353928	WORD	n/a	wordpools/wordpool_EN.txt	BALL	2	22	[0, 0, 0]	n/a	FR1	0	R1153T
3389.471	2.433	3356546	WORD	n/a	wordpools/wordpool_EN.txt	FACE	3	22	[0, 0, 0]	n/a	FR1	0	R1153T
3391.904	2.517	3358979	WORD	n/a	wordpools/wordpool_EN.txt	FAN	4	22	[0, 0, 0]	n/a	FR1	0	R1153T
3394.421	2.584	3361496	WORD	n/a	wordpools/wordpool_EN.txt	SQUARE	5	22	[0, 0, 0]	n/a	FR1	0	R1153T
3397.005	2.417	3364079	WORD	n/a	wordpools/wordpool_EN.txt	BAT	6	22	[0, 0, 0]	n/a	FR1	0	R1153T
3399.422	2.434	3366496	WORD	n/a	wordpools/wordpool_EN.txt	SLIME	7	22	[0, 0, 0]	n/a	FR1	0	R1153T
3401.856	2.534	3368930	WORD	n/a	wordpools/wordpool_EN.txt	STONE	8	22	[0, 0, 0]	n/a	FR1	0	R1153T
3404.39	2.467	3371464	WORD	n/a	wordpools/wordpool_EN.txt	CLAY	9	22	[0, 0, 0]	n/a	FR1	0	R1153T
3406.857	2.417	3373931	WORD	n/a	wordpools/wordpool_EN.txt	MOON	10	22	[0, 0, 0]	n/a	FR1	0	R1153T
3409.274	2.551	3376348	WORD	n/a	wordpools/wordpool_EN.txt	STOVE	11	22	[0, 0, 0]	n/a	FR1	0	R1153T
3411.825	1.616	3378899	WORD	n/a	wordpools/wordpool_EN.txt	BROOM	12	22	[0, 0, 0]	n/a	FR1	0	R1153T
3413.441	0.001	3380515	DISTRACT_START	n/a	n/a	n/a	-999	22	[0, 0, 0]	n/a	FR1	0	R1153T
3413.442	0.017	3380516	START	n/a	n/a	n/a	-999	22	[-999, -999, -999]	n/a	FR1	0	R1153T
3413.459	6.734	3380533	PROB	6.734	n/a	n/a	-999	22	[3, 2, 7]	12	FR1	0	R1153T
3420.193	10.468	3387266	PROB	10.468	n/a	n/a	-999	22	[1, 2, 3]	6	FR1	0	R1153T
3430.661	4.846	3397734	PROB	4.846	n/a	n/a	-999	22	[2, 2, 7]	11	FR1	0	R1153T
3435.507	0.006	3402580	STOP	n/a	n/a	n/a	-999	22	[-999, -999, -999]	n/a	FR1	0	R1153T
3435.513	1.134	3402586	DISTRACT_END	n/a	n/a	n/a	-999	22	[0, 0, 0]	n/a	FR1	0	R1153T
3436.647	3.02	3403720	REC_START	n/a	n/a	n/a	-999	22	[0, 0, 0]	n/a	FR1	0	R1153T
3439.667	26.993	3406739	REC_WORD	26.993	n/a	WORM	-999	22	[0, 0, 0]	n/a	FR1	0	R1153T
3466.66	3.408	3433731	REC_END	n/a	n/a	n/a	-999	22	[0, 0, 0]	n/a	FR1	0	R1153T
3470.068	0.001	3437139	COUNTDOWN_START	n/a	n/a	n/a	-999	23	[0, 0, 0]	n/a	FR1	0	R1153T
3470.069	10.427	3437140	TRIAL	n/a	n/a	n/a	-999	23	[0, 0, 0]	n/a	FR1	0	R1153T
3480.496	0.009	3447566	COUNTDOWN_END	n/a	n/a	n/a	-999	23	[0, 0, 0]	n/a	FR1	0	R1153T
3480.505	2.516	3447575	ORIENT	n/a	n/a	n/a	-999	23	[0, 0, 0]	n/a	FR1	0	R1153T
3483.021	2.551	3450091	WORD	n/a	wordpools/wordpool_EN.txt	SPRING	1	23	[0, 0, 0]	n/a	FR1	0	R1153T
3485.572	2.583	3452642	WORD	n/a	wordpools/wordpool_EN.txt	SALT	2	23	[0, 0, 0]	n/a	FR1	0	R1153T
3488.155	2.5	3455225	WORD	n/a	wordpools/wordpool_EN.txt	FOOT	3	23	[0, 0, 0]	n/a	FR1	0	R1153T
3490.655	2.451	3457725	WORD	n/a	wordpools/wordpool_EN.txt	FLEA	4	23	[0, 0, 0]	n/a	FR1	0	R1153T
3493.106	2.55	3460176	WORD	n/a	wordpools/wordpool_EN.txt	SHRIMP	5	23	[0, 0, 0]	n/a	FR1	0	R1153T
3495.656	2.468	3462726	WORD	n/a	wordpools/wordpool_EN.txt	STEAM	6	23	[0, 0, 0]	n/a	FR1	0	R1153T
3498.124	2.501	3465194	WORD	n/a	wordpools/wordpool_EN.txt	ELF	7	23	[0, 0, 0]	n/a	FR1	0	R1153T
3500.625	2.416	3467694	WORD	n/a	wordpools/wordpool_EN.txt	MOLE	8	23	[0, 0, 0]	n/a	FR1	0	R1153T
3503.041	2.518	3470110	WORD	n/a	wordpools/wordpool_EN.txt	THUMB	9	23	[0, 0, 0]	n/a	FR1	0	R1153T
3505.559	2.5	3472628	WORD	n/a	wordpools/wordpool_EN.txt	POND	10	23	[0, 0, 0]	n/a	FR1	0	R1153T
3508.059	2.451	3475128	WORD	n/a	wordpools/wordpool_EN.txt	DITCH	11	23	[0, 0, 0]	n/a	FR1	0	R1153T
3510.51	1.616	3477579	WORD	n/a	wordpools/wordpool_EN.txt	RAT	12	23	[0, 0, 0]	n/a	FR1	0	R1153T
3512.126	0.001	3479195	DISTRACT_START	n/a	n/a	n/a	-999	23	[0, 0, 0]	n/a	FR1	0	R1153T
3512.127	0.016	3479196	START	n/a	n/a	n/a	-999	23	[-999, -999, -999]	n/a	FR1	0	R1153T
3512.143	4.385	3479212	PROB	4.385	n/a	n/a	-999	23	[3, 8, 1]	12	FR1	0	R1153T
3516.528	7.3	3483597	PROB	7.3	n/a	n/a	-999	23	[5, 5, 8]	18	FR1	0	R1153T
3523.828	3.617	3490896	PROB	3.617	n/a	n/a	-999	23	[2, 8, 3]	13	FR1	0	R1153T
3527.445	8.501	3494513	PROB	8.501	n/a	n/a	-999	23	[1, 2, 2]	5	FR1	0	R1153T
3535.946	0.018	3503014	STOP	n/a	n/a	n/a	-999	23	[-999, -999, -999]	n/a	FR1	0	R1153T
3535.964	1.167	3503032	DISTRACT_END	n/a	n/a	n/a	-999	23	[0, 0, 0]	n/a	FR1	0	R1153T
3537.131	3.711	3504199	REC_START	n/a	n/a	n/a	-999	23	[0, 0, 0]	n/a	FR1	0	R1153T
3540.842	26.307	3507909	REC_WORD	26.307	n/a	ICE	-999	23	[0, 0, 0]	n/a	FR1	0	R1153T
3567.149	6.672	3534215	REC_END	n/a	n/a	n/a	-999	23	[0, 0, 0]	n/a	FR1	0	R1153T
3573.821	0.0	3540887	TRIAL	n/a	n/a	n/a	-999	24	[0, 0, 0]	n/a	FR1	0	R1153T
3573.821	10.428	3540887	COUNTDOWN_START	n/a	n/a	n/a	-999	24	[0, 0, 0]	n/a	FR1	0	R1153T
3584.249	0.007	3551314	COUNTDOWN_END	n/a	n/a	n/a	-999	24	[0, 0, 0]	n/a	FR1	0	R1153T
3584.256	2.385	3551321	ORIENT	n/a	n/a	n/a	-999	24	[0, 0, 0]	n/a	FR1	0	R1153T
3586.641	2.416	3553706	WORD	n/a	wordpools/wordpool_EN.txt	STOOL	1	24	[0, 0, 0]	n/a	FR1	0	R1153T
3589.057	2.534	3556122	WORD	n/a	wordpools/wordpool_EN.txt	SOCK	2	24	[0, 0, 0]	n/a	FR1	0	R1153T
3591.591	2.6	3558656	WORD	n/a	wordpools/wordpool_EN.txt	LOCK	3	24	[0, 0, 0]	n/a	FR1	0	R1153T
3594.191	2.55	3561256	WORD	n/a	wordpools/wordpool_EN.txt	PALM	4	24	[0, 0, 0]	n/a	FR1	0	R1153T
3596.741	2.484	3563806	WORD	n/a	wordpools/wordpool_EN.txt	BOWL	5	24	[0, 0, 0]	n/a	FR1	0	R1153T
3599.225	2.484	3566290	WORD	n/a	wordpools/wordpool_EN.txt	WALL	6	24	[0, 0, 0]	n/a	FR1	0	R1153T
3601.709	2.417	3568773	WORD	n/a	wordpools/wordpool_EN.txt	STEAK	7	24	[0, 0, 0]	n/a	FR1	0	R1153T
3604.126	2.567	3571190	WORD	n/a	wordpools/wordpool_EN.txt	LAMP	8	24	[0, 0, 0]	n/a	FR1	0	R1153T
3606.693	2.584	3573757	WORD	n/a	wordpools/wordpool_EN.txt	CHAIR	9	24	[0, 0, 0]	n/a	FR1	0	R1153T
3609.277	2.384	3576341	WORD	n/a	wordpools/wordpool_EN.txt	JUICE	10	24	[0, 0, 0]	n/a	FR1	0	R1153T
3611.661	2.5	3578725	WORD	n/a	wordpools/wordpool_EN.txt	WEED	11	24	[0, 0, 0]	n/a	FR1	0	R1153T
3614.161	1.617	3581225	WORD	n/a	wordpools/wordpool_EN.txt	DOLL	12	24	[0, 0, 0]	n/a	FR1	0	R1153T
3615.778	0.001	3582842	DISTRACT_START	n/a	n/a	n/a	-999	24	[0, 0, 0]	n/a	FR1	0	R1153T
3615.779	0.016	3582843	START	n/a	n/a	n/a	-999	24	[-999, -999, -999]	n/a	FR1	0	R1153T
3615.795	40.503	3582859	PROB	40.503	n/a	n/a	-999	24	[1, 3, 8]	12	FR1	0	R1153T
3656.298	0.004	3623360	STOP	n/a	n/a	n/a	-999	24	[-999, -999, -999]	n/a	FR1	0	R1153T
3656.302	1.169	3623364	DISTRACT_END	n/a	n/a	n/a	-999	24	[0, 0, 0]	n/a	FR1	0	R1153T
3657.471	10.192	3624533	REC_START	n/a	n/a	n/a	-999	24	[0, 0, 0]	n/a	FR1	0	R1153T
3667.663	19.82	3634724	REC_WORD	19.82	n/a	HOOK	-999	24	[0, 0, 0]	n/a	FR1	0	R1153T
3687.483	4.06	3654543	REC_END	n/a	n/a	n/a	-999	24	[0, 0, 0]	n/a	FR1	0	R1153T
3691.543	0.0	3658603	TRIAL	n/a	n/a	n/a	-999	25	[0, 0, 0]	n/a	FR1	0	R1153T
3691.543	10.428	3658603	COUNTDOWN_START	n/a	n/a	n/a	-999	25	[0, 0, 0]	n/a	FR1	0	R1153T
3701.971	0.006	3669030	COUNTDOWN_END	n/a	n/a	n/a	-999	25	[0, 0, 0]	n/a	FR1	0	R1153T
3701.977	2.401	3669036	ORIENT	n/a	n/a	n/a	-999	25	[0, 0, 0]	n/a	FR1	0	R1153T
3704.378	2.4	3671437	WORD	n/a	wordpools/wordpool_EN.txt	GRASS	1	25	[0, 0, 0]	n/a	FR1	0	R1153T
3706.778	2.601	3673837	WORD	n/a	wordpools/wordpool_EN.txt	CLOWN	2	25	[0, 0, 0]	n/a	FR1	0	R1153T
3709.379	2.567	3676438	WORD	n/a	wordpools/wordpool_EN.txt	WOOD	3	25	[0, 0, 0]	n/a	FR1	0	R1153T
3711.946	2.5	3679005	WORD	n/a	wordpools/wordpool_EN.txt	CALF	4	25	[0, 0, 0]	n/a	FR1	0	R1153T
3714.446	2.384	3681505	WORD	n/a	wordpools/wordpool_EN.txt	FORK	5	25	[0, 0, 0]	n/a	FR1	0	R1153T
3716.83	2.6	3683889	WORD	n/a	wordpools/wordpool_EN.txt	ARM	6	25	[0, 0, 0]	n/a	FR1	0	R1153T
3719.43	2.534	3686489	WORD	n/a	wordpools/wordpool_EN.txt	SPOON	7	25	[0, 0, 0]	n/a	FR1	0	R1153T
3721.964	2.484	3689023	WORD	n/a	wordpools/wordpool_EN.txt	PEAR	8	25	[0, 0, 0]	n/a	FR1	0	R1153T
3724.448	2.6	3691506	WORD	n/a	wordpools/wordpool_EN.txt	SPONGE	9	25	[0, 0, 0]	n/a	FR1	0	R1153T
3727.048	2.601	3694106	WORD	n/a	wordpools/wordpool_EN.txt	FISH	10	25	[0, 0, 0]	n/a	FR1	0	R1153T
3729.649	2.417	3696707	WORD	n/a	wordpools/wordpool_EN.txt	EGG	11	25	[0, 0, 0]	n/a	FR1	0	R1153T
3732.066	1.617	3699124	WORD	n/a	wordpools/wordpool_EN.txt	WORLD	12	25	[0, 0, 0]	n/a	FR1	0	R1153T
3733.683	0.001	3700741	DISTRACT_START	n/a	n/a	n/a	-999	25	[0, 0, 0]	n/a	FR1	0	R1153T
3733.684	0.016	3700742	START	n/a	n/a	n/a	-999	25	[-999, -999, -999]	n/a	FR1	0	R1153T
3733.7	3.785	3700758	PROB	3.785	n/a	n/a	-999	25	[3, 3, 6]	12	FR1	0	R1153T
3737.485	5.067	3704543	PROB	5.067	n/a	n/a	-999	25	[2, 4, 3]	9	FR1	0	R1153T
3742.552	6.985	3709610	PROB	6.985	n/a	n/a	-999	25	[3, 2, 4]	9	FR1	0	R1153T
3749.537	11.737	3716594	PROB	11.737	n/a	n/a	-999	25	[2, 7, 9]	18	FR1	0	R1153T
3761.274	0.014	3728331	STOP	n/a	n/a	n/a	-999	25	[-999, -999, -999]	n/a	FR1	0	R1153T
3761.288	1.051	3728345	DISTRACT_END	n/a	n/a	n/a	-999	25	[0, 0, 0]	n/a	FR1	0	R1153T
3762.339	8.289	3729396	REC_START	n/a	n/a	n/a	-999	25	[0, 0, 0]	n/a	FR1	0	R1153T
3770.628	21.721	3737684	REC_WORD	21.721	n/a	YELLOW	-999	25	[0, 0, 0]	n/a	FR1	0	R1153T
3792.349	8.513	3759404	REC_END	n/a	n/a	n/a	-999	25	[0, 0, 0]	n/a	FR1	0	R1153T
3800.862	0.0	3767917	SESS_END	n/a	n/a	n/a	-999	25	[0, 0, 0]	n/a	FR1	0	R1153T
