onset	duration	sample	trial_type	response_time	stim_file	item_name	serialpos	list	test	answer	experiment	session	subject
0.0	2.963	18362	INSTRUCT_START	n/a	n/a	n/a	-999	-999	[0, 0, 0]	n/a	FR1	0	R1381T
2.963	32.551	21317	INSTRUCT_END	n/a	n/a	n/a	-999	-999	[0, 0, 0]	n/a	FR1	0	R1381T
35.514	10.35	53867	COUNTDOWN_START	n/a	n/a	n/a	-999	-999	[0, 0, 0]	n/a	FR1	0	R1381T
45.864	0.001	64221	COUNTDOWN_END	n/a	n/a	n/a	-999	-999	[0, 0, 0]	n/a	FR1	0	R1381T
45.865	1.848	64221	ENCODING_START	n/a	n/a	n/a	-999	-1	[0, 0, 0]	n/a	FR1	0	R1381T
47.713	1.616	66060	WORD	n/a	n/a	FLOOD	1	-1	[0, 0, 0]	n/a	FR1	0	R1381T
49.329	0.967	67683	WORD_OFF	n/a	n/a	FLOOD	1	-1	[0, 0, 0]	n/a	FR1	0	R1381T
50.296	1.617	68644	WORD	n/a	n/a	CHEST	2	-1	[0, 0, 0]	n/a	FR1	0	R1381T
51.913	0.783	70266	WORD_OFF	n/a	n/a	CHEST	2	-1	[0, 0, 0]	n/a	FR1	0	R1381T
52.696	1.617	71051	WORD	n/a	n/a	WATCH	3	-1	[0, 0, 0]	n/a	FR1	0	R1381T
54.313	0.816	72663	WORD_OFF	n/a	n/a	WATCH	3	-1	[0, 0, 0]	n/a	FR1	0	R1381T
55.129	1.6	73480	WORD	n/a	n/a	BEAM	4	-1	[0, 0, 0]	n/a	FR1	0	R1381T
56.729	0.934	75081	WORD_OFF	n/a	n/a	BEAM	4	-1	[0, 0, 0]	n/a	FR1	0	R1381T
57.663	1.599	76011	WORD	n/a	n/a	BABY	5	-1	[0, 0, 0]	n/a	FR1	0	R1381T
59.262	0.934	77613	WORD_OFF	n/a	n/a	BABY	5	-1	[0, 0, 0]	n/a	FR1	0	R1381T
60.196	1.6	78543	WORD	n/a	n/a	RING	6	-1	[0, 0, 0]	n/a	FR1	0	R1381T
61.796	0.783	80145	WORD_OFF	n/a	n/a	RING	6	-1	[0, 0, 0]	n/a	FR1	0	R1381T
62.579	1.617	80930	WORD	n/a	n/a	CAMEL	7	-1	[0, 0, 0]	n/a	FR1	0	R1381T
64.196	0.868	82552	WORD_OFF	n/a	n/a	CAMEL	7	-1	[0, 0, 0]	n/a	FR1	0	R1381T
65.064	1.615	83410	WORD	n/a	n/a	COTTON	8	-1	[0, 0, 0]	n/a	FR1	0	R1381T
66.679	0.85	85032	WORD_OFF	n/a	n/a	COTTON	8	-1	[0, 0, 0]	n/a	FR1	0	R1381T
67.529	1.616	85880	WORD	n/a	n/a	RHINO	9	-1	[0, 0, 0]	n/a	FR1	0	R1381T
69.145	0.767	87492	WORD_OFF	n/a	n/a	RHINO	9	-1	[0, 0, 0]	n/a	FR1	0	R1381T
69.912	1.6	88267	WORD	n/a	n/a	TONGUE	10	-1	[0, 0, 0]	n/a	FR1	0	R1381T
71.512	0.9	89868	WORD_OFF	n/a	n/a	TONGUE	10	-1	[0, 0, 0]	n/a	FR1	0	R1381T
72.412	1.601	90767	WORD	n/a	n/a	WAGON	11	-1	[0, 0, 0]	n/a	FR1	0	R1381T
74.013	0.767	92369	WORD_OFF	n/a	n/a	WAGON	11	-1	[0, 0, 0]	n/a	FR1	0	R1381T
74.78	1.602	93134	WORD	n/a	n/a	IMAGE	12	-1	[0, 0, 0]	n/a	FR1	0	R1381T
76.382	0.0	94732	START	n/a	n/a	n/a	-999	-1	[-999, -999, -999]	n/a	FR1	0	R1381T
76.382	0.0	94732	PROB	0.0	n/a	n/a	-999	-1	[7, 4, 8]	19	FR1	0	R1381T
76.38	0.001	94735	WORD_OFF	n/a	n/a	IMAGE	12	-1	[0, 0, 0]	n/a	FR1	0	R1381T
76.381	0.001	94735	ENCODING_END	n/a	n/a	n/a	-999	-1	[0, 0, 0]	n/a	FR1	0	R1381T
76.382	5.849	94735	DISTRACT_START	n/a	n/a	n/a	-999	-1	[0, 0, 0]	n/a	FR1	0	R1381T
82.231	5.333	100581	PROB	5.333	n/a	n/a	-999	-1	[3, 8, 8]	19	FR1	0	R1381T
87.564	3.499	105913	PROB	3.499	n/a	n/a	-999	-1	[4, 4, 6]	14	FR1	0	R1381T
91.063	7.45	109412	PROB	7.45	n/a	n/a	-999	-1	[7, 1, 6]	14	FR1	0	R1381T
98.513	0.0	116859	DISTRACT_END	n/a	n/a	n/a	-999	-1	[0, 0, 0]	n/a	FR1	0	R1381T
98.513	1.184	116862	STOP	n/a	n/a	n/a	-999	-1	[-999, -999, -999]	n/a	FR1	0	R1381T
99.697	2.038	118047	REC_START	n/a	n/a	n/a	-999	-1	[0, 0, 0]	n/a	FR1	0	R1381T
101.735	1.09	120084	REC_WORD	1.09	n/a	BEAM	4	-1	[0, 0, 0]	n/a	FR1	0	R1381T
102.825	0.413	121174	REC_WORD_VV	0.413	n/a	<>	-999	-1	[0, 0, 0]	n/a	FR1	0	R1381T
103.238	1.568	121587	REC_WORD	1.568	n/a	CHEST	2	-1	[0, 0, 0]	n/a	FR1	0	R1381T
104.806	1.776	123155	REC_WORD	1.776	n/a	FLOOD	1	-1	[0, 0, 0]	n/a	FR1	0	R1381T
106.582	2.703	124930	REC_WORD	2.703	n/a	COTTON	8	-1	[0, 0, 0]	n/a	FR1	0	R1381T
109.285	0.522	127633	REC_WORD_VV	0.522	n/a	<>	-999	-1	[0, 0, 0]	n/a	FR1	0	R1381T
109.807	1.339	128155	REC_WORD	1.339	n/a	BABY	5	-1	[0, 0, 0]	n/a	FR1	0	R1381T
111.146	0.678	129494	REC_WORD	0.678	n/a	BABY	5	-1	[0, 0, 0]	n/a	FR1	0	R1381T
111.824	1.208	130172	REC_WORD_VV	1.208	n/a	<>	-999	-1	[0, 0, 0]	n/a	FR1	0	R1381T
113.032	13.295	131380	REC_WORD_VV	13.295	n/a	<>	-999	-1	[0, 0, 0]	n/a	FR1	0	R1381T
126.327	1.0	144674	REC_WORD_VV	1.0	n/a	<>	-999	-1	[0, 0, 0]	n/a	FR1	0	R1381T
127.327	2.661	145674	REC_WORD_VV	2.661	n/a	<>	-999	-1	[0, 0, 0]	n/a	FR1	0	R1381T
129.988	6.941	148334	REC_END	n/a	n/a	n/a	-999	-1	[0, 0, 0]	n/a	FR1	0	R1381T
136.929	10.351	155278	COUNTDOWN_START	n/a	n/a	n/a	-999	1	[0, 0, 0]	n/a	FR1	0	R1381T
147.28	0.0	165632	COUNTDOWN_END	n/a	n/a	n/a	-999	1	[0, 0, 0]	n/a	FR1	0	R1381T
147.28	2.082	165632	ENCODING_START	n/a	n/a	n/a	-999	1	[0, 0, 0]	n/a	FR1	0	R1381T
149.362	1.6	167709	WORD	n/a	n/a	GOLD	1	1	[0, 0, 0]	n/a	FR1	0	R1381T
150.962	0.867	169311	WORD_OFF	n/a	n/a	GOLD	1	1	[0, 0, 0]	n/a	FR1	0	R1381T
151.829	1.6	170179	WORD	n/a	n/a	CORK	2	1	[0, 0, 0]	n/a	FR1	0	R1381T
153.429	0.95	171781	WORD_OFF	n/a	n/a	CORK	2	1	[0, 0, 0]	n/a	FR1	0	R1381T
154.379	1.617	172721	WORD	n/a	n/a	ELF	3	1	[0, 0, 0]	n/a	FR1	0	R1381T
155.996	0.9	174343	WORD_OFF	n/a	n/a	ELF	3	1	[0, 0, 0]	n/a	FR1	0	R1381T
156.896	1.616	175242	WORD	n/a	n/a	PIN	4	1	[0, 0, 0]	n/a	FR1	0	R1381T
158.512	0.783	176854	WORD_OFF	n/a	n/a	PIN	4	1	[0, 0, 0]	n/a	FR1	0	R1381T
159.295	1.6	177640	WORD	n/a	n/a	HOSE	5	1	[0, 0, 0]	n/a	FR1	0	R1381T
160.895	0.967	179241	WORD_OFF	n/a	n/a	HOSE	5	1	[0, 0, 0]	n/a	FR1	0	R1381T
161.862	1.602	180213	WORD	n/a	n/a	BRICK	6	1	[0, 0, 0]	n/a	FR1	0	R1381T
163.464	0.982	181814	WORD_OFF	n/a	n/a	BRICK	6	1	[0, 0, 0]	n/a	FR1	0	R1381T
164.446	1.6	182796	WORD	n/a	n/a	TRAY	7	1	[0, 0, 0]	n/a	FR1	0	R1381T
166.046	0.983	184387	WORD_OFF	n/a	n/a	TRAY	7	1	[0, 0, 0]	n/a	FR1	0	R1381T
167.029	1.601	185379	WORD	n/a	n/a	SHOE	8	1	[0, 0, 0]	n/a	FR1	0	R1381T
168.63	0.783	186981	WORD_OFF	n/a	n/a	SHOE	8	1	[0, 0, 0]	n/a	FR1	0	R1381T
169.413	1.601	187756	WORD	n/a	n/a	DITCH	9	1	[0, 0, 0]	n/a	FR1	0	R1381T
171.014	0.832	189358	WORD_OFF	n/a	n/a	DITCH	9	1	[0, 0, 0]	n/a	FR1	0	R1381T
171.846	1.6	190195	WORD	n/a	n/a	SUIT	10	1	[0, 0, 0]	n/a	FR1	0	R1381T
173.446	0.834	191796	WORD_OFF	n/a	n/a	SUIT	10	1	[0, 0, 0]	n/a	FR1	0	R1381T
174.28	1.6	192623	WORD	n/a	n/a	LEAF	11	1	[0, 0, 0]	n/a	FR1	0	R1381T
175.88	0.767	194225	WORD_OFF	n/a	n/a	LEAF	11	1	[0, 0, 0]	n/a	FR1	0	R1381T
176.647	1.6	194989	WORD	n/a	n/a	NURSE	12	1	[0, 0, 0]	n/a	FR1	0	R1381T
178.247	0.001	196591	WORD_OFF	n/a	n/a	NURSE	12	1	[0, 0, 0]	n/a	FR1	0	R1381T
178.248	0.0	196591	ENCODING_END	n/a	n/a	n/a	-999	1	[0, 0, 0]	n/a	FR1	0	R1381T
178.248	0.0	196591	DISTRACT_START	n/a	n/a	n/a	-999	1	[0, 0, 0]	n/a	FR1	0	R1381T
178.247	0.001	196592	PROB	0.001	n/a	n/a	-999	1	[2, 4, 4]	10	FR1	0	R1381T
178.248	4.349	196593	START	n/a	n/a	n/a	-999	1	[-999, -999, -999]	n/a	FR1	0	R1381T
182.597	6.482	200942	PROB	6.482	n/a	n/a	-999	1	[5, 8, 8]	21	FR1	0	R1381T
189.079	5.901	207423	PROB	5.901	n/a	n/a	-999	1	[5, 8, 6]	19	FR1	0	R1381T
194.98	5.233	213324	PROB	5.233	n/a	n/a	-999	1	[6, 6, 3]	15	FR1	0	R1381T
200.213	0.0	218557	STOP	n/a	n/a	n/a	-999	1	[-999, -999, -999]	n/a	FR1	0	R1381T
200.213	1.167	218560	DISTRACT_END	n/a	n/a	n/a	-999	1	[0, 0, 0]	n/a	FR1	0	R1381T
201.38	1.081	219727	REC_START	n/a	n/a	n/a	-999	1	[0, 0, 0]	n/a	FR1	0	R1381T
202.461	1.681	220805	REC_WORD	1.681	n/a	GOLD	1	1	[0, 0, 0]	n/a	FR1	0	R1381T
204.142	2.221	222485	REC_WORD	2.221	n/a	ELF	3	1	[0, 0, 0]	n/a	FR1	0	R1381T
206.363	8.684	224706	REC_WORD	8.684	n/a	PIN	4	1	[0, 0, 0]	n/a	FR1	0	R1381T
215.047	0.506	233390	REC_WORD	0.506	n/a	GOLD	1	1	[0, 0, 0]	n/a	FR1	0	R1381T
215.553	0.534	233896	REC_WORD	0.534	n/a	ELF	3	1	[0, 0, 0]	n/a	FR1	0	R1381T
216.087	15.583	234430	REC_WORD	15.583	n/a	PIN	4	1	[0, 0, 0]	n/a	FR1	0	R1381T
231.67	1.177	250014	REC_END	n/a	n/a	n/a	-999	1	[0, 0, 0]	n/a	FR1	0	R1381T
232.847	10.35	251192	COUNTDOWN_START	n/a	n/a	n/a	-999	2	[0, 0, 0]	n/a	FR1	0	R1381T
243.197	0.0	261536	COUNTDOWN_END	n/a	n/a	n/a	-999	2	[0, 0, 0]	n/a	FR1	0	R1381T
243.197	2.016	261546	ENCODING_START	n/a	n/a	n/a	-999	2	[0, 0, 0]	n/a	FR1	0	R1381T
245.213	1.6	263561	WORD	n/a	n/a	STREET	1	2	[0, 0, 0]	n/a	FR1	0	R1381T
246.813	0.917	265153	WORD_OFF	n/a	n/a	STREET	1	2	[0, 0, 0]	n/a	FR1	0	R1381T
247.73	1.6	266072	WORD	n/a	n/a	SHIP	2	2	[0, 0, 0]	n/a	FR1	0	R1381T
249.33	0.816	267674	WORD_OFF	n/a	n/a	SHIP	2	2	[0, 0, 0]	n/a	FR1	0	R1381T
250.146	1.6	268490	WORD	n/a	n/a	STOOL	3	2	[0, 0, 0]	n/a	FR1	0	R1381T
251.746	0.784	270092	WORD_OFF	n/a	n/a	STOOL	3	2	[0, 0, 0]	n/a	FR1	0	R1381T
252.53	1.616	270872	WORD	n/a	n/a	FRUIT	4	2	[0, 0, 0]	n/a	FR1	0	R1381T
254.146	0.967	272489	WORD_OFF	n/a	n/a	FRUIT	4	2	[0, 0, 0]	n/a	FR1	0	R1381T
255.113	1.616	273450	WORD	n/a	n/a	STRING	5	2	[0, 0, 0]	n/a	FR1	0	R1381T
256.729	0.783	275073	WORD_OFF	n/a	n/a	STRING	5	2	[0, 0, 0]	n/a	FR1	0	R1381T
257.512	1.6	275858	WORD	n/a	n/a	BRUSH	6	2	[0, 0, 0]	n/a	FR1	0	R1381T
259.112	0.867	277449	WORD_OFF	n/a	n/a	BRUSH	6	2	[0, 0, 0]	n/a	FR1	0	R1381T
259.979	1.6	278317	WORD	n/a	n/a	PET	7	2	[0, 0, 0]	n/a	FR1	0	R1381T
261.579	1.001	279919	WORD_OFF	n/a	n/a	PET	7	2	[0, 0, 0]	n/a	FR1	0	R1381T
262.58	1.6	280921	WORD	n/a	n/a	LANE	8	2	[0, 0, 0]	n/a	FR1	0	R1381T
264.18	0.766	282523	WORD_OFF	n/a	n/a	LANE	8	2	[0, 0, 0]	n/a	FR1	0	R1381T
264.946	1.6	283288	WORD	n/a	n/a	GEESE	9	2	[0, 0, 0]	n/a	FR1	0	R1381T
266.546	0.784	284889	WORD_OFF	n/a	n/a	GEESE	9	2	[0, 0, 0]	n/a	FR1	0	R1381T
267.33	1.6	285675	WORD	n/a	n/a	CROWN	10	2	[0, 0, 0]	n/a	FR1	0	R1381T
268.93	0.9	287266	WORD_OFF	n/a	n/a	CROWN	10	2	[0, 0, 0]	n/a	FR1	0	R1381T
269.83	1.6	288175	WORD	n/a	n/a	POLE	11	2	[0, 0, 0]	n/a	FR1	0	R1381T
271.43	0.95	289767	WORD_OFF	n/a	n/a	POLE	11	2	[0, 0, 0]	n/a	FR1	0	R1381T
272.38	1.6	290717	WORD	n/a	n/a	MOOSE	12	2	[0, 0, 0]	n/a	FR1	0	R1381T
273.98	0.001	292319	WORD_OFF	n/a	n/a	MOOSE	12	2	[0, 0, 0]	n/a	FR1	0	R1381T
273.981	0.0	292319	ENCODING_END	n/a	n/a	n/a	-999	2	[0, 0, 0]	n/a	FR1	0	R1381T
273.981	0.0	292319	DISTRACT_START	n/a	n/a	n/a	-999	2	[0, 0, 0]	n/a	FR1	0	R1381T
273.98	0.001	292320	PROB	0.001	n/a	n/a	-999	2	[1, 1, 7]	9	FR1	0	R1381T
273.981	3.416	292321	START	n/a	n/a	n/a	-999	2	[-999, -999, -999]	n/a	FR1	0	R1381T
277.397	3.332	295737	PROB	3.332	n/a	n/a	-999	2	[2, 6, 4]	12	FR1	0	R1381T
280.729	2.668	299068	PROB	2.668	n/a	n/a	-999	2	[3, 3, 1]	7	FR1	0	R1381T
283.397	6.616	301736	PROB	6.616	n/a	n/a	-999	2	[4, 4, 8]	16	FR1	0	R1381T
290.013	4.4	308352	PROB	4.4	n/a	n/a	-999	2	[3, 2, 5]	10	FR1	0	R1381T
294.413	0.0	312752	STOP	n/a	n/a	n/a	-999	2	[-999, -999, -999]	n/a	FR1	0	R1381T
294.413	1.15	312758	DISTRACT_END	n/a	n/a	n/a	-999	2	[0, 0, 0]	n/a	FR1	0	R1381T
295.563	0.98	313905	REC_START	n/a	n/a	n/a	-999	2	[0, 0, 0]	n/a	FR1	0	R1381T
296.543	1.0	314882	REC_WORD	1.0	n/a	MOOSE	12	2	[0, 0, 0]	n/a	FR1	0	R1381T
297.543	1.514	315882	REC_WORD_VV	1.514	n/a	<>	-999	2	[0, 0, 0]	n/a	FR1	0	R1381T
299.057	26.795	317396	REC_WORD	26.795	n/a	POLE	11	2	[0, 0, 0]	n/a	FR1	0	R1381T
325.852	1.678	344192	REC_END	n/a	n/a	n/a	-999	2	[0, 0, 0]	n/a	FR1	0	R1381T
327.53	10.35	345866	COUNTDOWN_START	n/a	n/a	n/a	-999	3	[0, 0, 0]	n/a	FR1	0	R1381T
337.88	0.001	356220	COUNTDOWN_END	n/a	n/a	n/a	-999	3	[0, 0, 0]	n/a	FR1	0	R1381T
337.881	2.149	356220	ENCODING_START	n/a	n/a	n/a	-999	3	[0, 0, 0]	n/a	FR1	0	R1381T
340.03	1.6	358370	WORD	n/a	n/a	HAIR	1	3	[0, 0, 0]	n/a	FR1	0	R1381T
341.63	0.782	359971	WORD_OFF	n/a	n/a	HAIR	1	3	[0, 0, 0]	n/a	FR1	0	R1381T
342.412	1.618	360746	WORD	n/a	n/a	BANK	2	3	[0, 0, 0]	n/a	FR1	0	R1381T
344.03	0.966	362369	WORD_OFF	n/a	n/a	BANK	2	3	[0, 0, 0]	n/a	FR1	0	R1381T
344.996	1.6	363330	WORD	n/a	n/a	MUD	3	3	[0, 0, 0]	n/a	FR1	0	R1381T
346.596	1.0	364931	WORD_OFF	n/a	n/a	MUD	3	3	[0, 0, 0]	n/a	FR1	0	R1381T
347.596	1.599	365934	WORD	n/a	n/a	WHEAT	4	3	[0, 0, 0]	n/a	FR1	0	R1381T
349.195	0.834	367535	WORD_OFF	n/a	n/a	WHEAT	4	3	[0, 0, 0]	n/a	FR1	0	R1381T
350.029	1.601	368362	WORD	n/a	n/a	LIMB	5	3	[0, 0, 0]	n/a	FR1	0	R1381T
351.63	0.867	369964	WORD_OFF	n/a	n/a	LIMB	5	3	[0, 0, 0]	n/a	FR1	0	R1381T
352.497	1.599	370832	WORD	n/a	n/a	BEAN	6	3	[0, 0, 0]	n/a	FR1	0	R1381T
354.096	0.967	372433	WORD_OFF	n/a	n/a	BEAN	6	3	[0, 0, 0]	n/a	FR1	0	R1381T
355.063	1.617	373405	WORD	n/a	n/a	EGG	7	3	[0, 0, 0]	n/a	FR1	0	R1381T
356.68	0.999	375017	WORD_OFF	n/a	n/a	EGG	7	3	[0, 0, 0]	n/a	FR1	0	R1381T
357.679	1.601	376019	WORD	n/a	n/a	TOOTH	8	3	[0, 0, 0]	n/a	FR1	0	R1381T
359.28	0.833	377621	WORD_OFF	n/a	n/a	TOOTH	8	3	[0, 0, 0]	n/a	FR1	0	R1381T
360.113	1.6	378447	WORD	n/a	n/a	BLOOD	9	3	[0, 0, 0]	n/a	FR1	0	R1381T
361.713	0.934	380049	WORD_OFF	n/a	n/a	BLOOD	9	3	[0, 0, 0]	n/a	FR1	0	R1381T
362.647	1.6	380979	WORD	n/a	n/a	KNOB	10	3	[0, 0, 0]	n/a	FR1	0	R1381T
364.247	0.932	382581	WORD_OFF	n/a	n/a	KNOB	10	3	[0, 0, 0]	n/a	FR1	0	R1381T
365.179	1.6	383511	WORD	n/a	n/a	STEM	11	3	[0, 0, 0]	n/a	FR1	0	R1381T
366.779	0.951	385112	WORD_OFF	n/a	n/a	STEM	11	3	[0, 0, 0]	n/a	FR1	0	R1381T
367.73	1.617	386063	WORD	n/a	n/a	TIE	12	3	[0, 0, 0]	n/a	FR1	0	R1381T
369.347	0.001	387682	PROB	0.001	n/a	n/a	-999	3	[5, 3, 1]	9	FR1	0	R1381T
369.348	0.0	387683	START	n/a	n/a	n/a	-999	3	[-999, -999, -999]	n/a	FR1	0	R1381T
369.346	0.002	387685	WORD_OFF	n/a	n/a	TIE	12	3	[0, 0, 0]	n/a	FR1	0	R1381T
369.348	0.0	387685	ENCODING_END	n/a	n/a	n/a	-999	3	[0, 0, 0]	n/a	FR1	0	R1381T
369.348	3.732	387685	DISTRACT_START	n/a	n/a	n/a	-999	3	[0, 0, 0]	n/a	FR1	0	R1381T
373.08	3.351	391415	PROB	3.351	n/a	n/a	-999	3	[2, 8, 7]	17	FR1	0	R1381T
376.431	3.734	394766	PROB	3.734	n/a	n/a	-999	3	[3, 8, 7]	18	FR1	0	R1381T
380.165	3.165	398499	PROB	3.165	n/a	n/a	-999	3	[8, 1, 1]	10	FR1	0	R1381T
383.33	3.334	401664	PROB	3.334	n/a	n/a	-999	3	[4, 1, 4]	9	FR1	0	R1381T
386.664	3.216	404998	PROB	3.216	n/a	n/a	-999	3	[2, 3, 5]	10	FR1	0	R1381T
389.88	0.0	408214	STOP	n/a	n/a	n/a	-999	3	[-999, -999, -999]	n/a	FR1	0	R1381T
389.88	1.399	408218	DISTRACT_END	n/a	n/a	n/a	-999	3	[0, 0, 0]	n/a	FR1	0	R1381T
391.279	1.707	409613	REC_START	n/a	n/a	n/a	-999	3	[0, 0, 0]	n/a	FR1	0	R1381T
392.986	2.026	411320	REC_WORD	2.026	n/a	BLOOD	9	3	[0, 0, 0]	n/a	FR1	0	R1381T
395.012	2.693	413346	REC_WORD	2.693	n/a	TOOTH	8	3	[0, 0, 0]	n/a	FR1	0	R1381T
397.705	2.224	416038	REC_WORD	2.224	n/a	WHEAT	4	3	[0, 0, 0]	n/a	FR1	0	R1381T
399.929	21.621	418262	REC_WORD	21.621	n/a	BEAN	6	3	[0, 0, 0]	n/a	FR1	0	R1381T
421.55	1.429	439879	REC_END	n/a	n/a	n/a	-999	3	[0, 0, 0]	n/a	FR1	0	R1381T
422.979	10.351	441315	COUNTDOWN_START	n/a	n/a	n/a	-999	4	[0, 0, 0]	n/a	FR1	0	R1381T
433.33	0.0	451659	COUNTDOWN_END	n/a	n/a	n/a	-999	4	[0, 0, 0]	n/a	FR1	0	R1381T
433.33	2.199	451669	ENCODING_START	n/a	n/a	n/a	-999	4	[0, 0, 0]	n/a	FR1	0	R1381T
435.529	1.617	453860	WORD	n/a	n/a	BLUSH	1	4	[0, 0, 0]	n/a	FR1	0	R1381T
437.146	0.883	455482	WORD_OFF	n/a	n/a	BLUSH	1	4	[0, 0, 0]	n/a	FR1	0	R1381T
438.029	1.6	456361	WORD	n/a	n/a	KEY	2	4	[0, 0, 0]	n/a	FR1	0	R1381T
439.629	0.967	457962	WORD_OFF	n/a	n/a	KEY	2	4	[0, 0, 0]	n/a	FR1	0	R1381T
440.596	1.6	458923	WORD	n/a	n/a	CUP	3	4	[0, 0, 0]	n/a	FR1	0	R1381T
442.196	0.9	460525	WORD_OFF	n/a	n/a	CUP	3	4	[0, 0, 0]	n/a	FR1	0	R1381T
443.096	1.6	461424	WORD	n/a	n/a	POND	4	4	[0, 0, 0]	n/a	FR1	0	R1381T
444.696	0.8	463026	WORD_OFF	n/a	n/a	POND	4	4	[0, 0, 0]	n/a	FR1	0	R1381T
445.496	1.6	463832	WORD	n/a	n/a	BIN	5	4	[0, 0, 0]	n/a	FR1	0	R1381T
447.096	0.917	465433	WORD_OFF	n/a	n/a	BIN	5	4	[0, 0, 0]	n/a	FR1	0	R1381T
448.013	1.6	466343	WORD	n/a	n/a	STEAM	6	4	[0, 0, 0]	n/a	FR1	0	R1381T
449.613	1.0	467944	WORD_OFF	n/a	n/a	STEAM	6	4	[0, 0, 0]	n/a	FR1	0	R1381T
450.613	1.616	468947	WORD	n/a	n/a	PIT	7	4	[0, 0, 0]	n/a	FR1	0	R1381T
452.229	0.85	470559	WORD_OFF	n/a	n/a	PIT	7	4	[0, 0, 0]	n/a	FR1	0	R1381T
453.079	1.6	471406	WORD	n/a	n/a	SLIME	8	4	[0, 0, 0]	n/a	FR1	0	R1381T
454.679	0.8	473018	WORD_OFF	n/a	n/a	SLIME	8	4	[0, 0, 0]	n/a	FR1	0	R1381T
455.479	1.601	473814	WORD	n/a	n/a	NECK	9	4	[0, 0, 0]	n/a	FR1	0	R1381T
457.08	0.783	475415	WORD_OFF	n/a	n/a	NECK	9	4	[0, 0, 0]	n/a	FR1	0	R1381T
457.863	1.6	476190	WORD	n/a	n/a	SHARK	10	4	[0, 0, 0]	n/a	FR1	0	R1381T
459.463	0.85	477792	WORD_OFF	n/a	n/a	SHARK	10	4	[0, 0, 0]	n/a	FR1	0	R1381T
460.313	1.6	478639	WORD	n/a	n/a	PRIZE	11	4	[0, 0, 0]	n/a	FR1	0	R1381T
461.913	0.817	480241	WORD_OFF	n/a	n/a	PRIZE	11	4	[0, 0, 0]	n/a	FR1	0	R1381T
462.73	1.617	481057	WORD	n/a	n/a	APE	12	4	[0, 0, 0]	n/a	FR1	0	R1381T
464.347	0.001	482677	PROB	0.001	n/a	n/a	-999	4	[8, 3, 2]	13	FR1	0	R1381T
464.348	0.0	482678	START	n/a	n/a	n/a	-999	4	[-999, -999, -999]	n/a	FR1	0	R1381T
464.346	0.002	482680	WORD_OFF	n/a	n/a	APE	12	4	[0, 0, 0]	n/a	FR1	0	R1381T
464.348	0.0	482680	ENCODING_END	n/a	n/a	n/a	-999	4	[0, 0, 0]	n/a	FR1	0	R1381T
464.348	4.416	482680	DISTRACT_START	n/a	n/a	n/a	-999	4	[0, 0, 0]	n/a	FR1	0	R1381T
468.764	3.466	487094	PROB	3.466	n/a	n/a	-999	4	[6, 1, 2]	9	FR1	0	R1381T
472.23	5.466	490560	PROB	5.466	n/a	n/a	-999	4	[6, 1, 3]	10	FR1	0	R1381T
477.696	3.235	496025	PROB	3.235	n/a	n/a	-999	4	[6, 8, 4]	18	FR1	0	R1381T
480.931	11.515	499260	PROB	11.515	n/a	n/a	-999	4	[5, 8, 7]	20	FR1	0	R1381T
492.446	0.0	510775	STOP	n/a	n/a	n/a	-999	4	[-999, -999, -999]	n/a	FR1	0	R1381T
492.446	1.016	510776	DISTRACT_END	n/a	n/a	n/a	-999	4	[0, 0, 0]	n/a	FR1	0	R1381T
493.462	2.003	511789	REC_START	n/a	n/a	n/a	-999	4	[0, 0, 0]	n/a	FR1	0	R1381T
495.465	1.879	513793	REC_WORD	1.879	n/a	SHARK	10	4	[0, 0, 0]	n/a	FR1	0	R1381T
497.344	1.0	515672	REC_WORD	1.0	n/a	NET	-999	4	[0, 0, 0]	n/a	FR1	0	R1381T
498.344	1.375	516672	REC_WORD_VV	1.375	n/a	<>	-999	4	[0, 0, 0]	n/a	FR1	0	R1381T
499.719	2.36	518047	REC_WORD_VV	2.36	n/a	<>	-999	4	[0, 0, 0]	n/a	FR1	0	R1381T
502.079	9.025	520407	REC_WORD	9.025	n/a	EGG	-999	4	[0, 0, 0]	n/a	FR1	0	R1381T
511.104	12.629	529432	REC_WORD	12.629	n/a	BLUSH	1	4	[0, 0, 0]	n/a	FR1	0	R1381T
523.733	1.346	542065	REC_END	n/a	n/a	n/a	-999	4	[0, 0, 0]	n/a	FR1	0	R1381T
525.079	10.351	543408	COUNTDOWN_START	n/a	n/a	n/a	-999	5	[0, 0, 0]	n/a	FR1	0	R1381T
535.43	0.001	553762	COUNTDOWN_END	n/a	n/a	n/a	-999	5	[0, 0, 0]	n/a	FR1	0	R1381T
535.431	1.832	553762	ENCODING_START	n/a	n/a	n/a	-999	5	[0, 0, 0]	n/a	FR1	0	R1381T
537.263	1.6	555591	WORD	n/a	n/a	HEEL	1	5	[0, 0, 0]	n/a	FR1	0	R1381T
538.863	0.8	557193	WORD_OFF	n/a	n/a	HEEL	1	5	[0, 0, 0]	n/a	FR1	0	R1381T
539.663	1.6	557989	WORD	n/a	n/a	BATH	2	5	[0, 0, 0]	n/a	FR1	0	R1381T
541.263	0.783	559590	WORD_OFF	n/a	n/a	BATH	2	5	[0, 0, 0]	n/a	FR1	0	R1381T
542.046	1.601	560376	WORD	n/a	n/a	JUDGE	3	5	[0, 0, 0]	n/a	FR1	0	R1381T
543.647	0.966	561977	WORD_OFF	n/a	n/a	JUDGE	3	5	[0, 0, 0]	n/a	FR1	0	R1381T
544.613	1.6	562938	WORD	n/a	n/a	EARTH	4	5	[0, 0, 0]	n/a	FR1	0	R1381T
546.213	0.867	564540	WORD_OFF	n/a	n/a	EARTH	4	5	[0, 0, 0]	n/a	FR1	0	R1381T
547.08	1.6	565408	WORD	n/a	n/a	STAIR	5	5	[0, 0, 0]	n/a	FR1	0	R1381T
548.68	0.967	567010	WORD_OFF	n/a	n/a	STAIR	5	5	[0, 0, 0]	n/a	FR1	0	R1381T
549.647	1.6	567971	WORD	n/a	n/a	FOX	6	5	[0, 0, 0]	n/a	FR1	0	R1381T
551.247	1.0	569572	WORD_OFF	n/a	n/a	FOX	6	5	[0, 0, 0]	n/a	FR1	0	R1381T
552.247	1.599	570575	WORD	n/a	n/a	SCHOOL	7	5	[0, 0, 0]	n/a	FR1	0	R1381T
553.846	0.85	572176	WORD_OFF	n/a	n/a	SCHOOL	7	5	[0, 0, 0]	n/a	FR1	0	R1381T
554.696	1.6	573024	WORD	n/a	n/a	RIB	8	5	[0, 0, 0]	n/a	FR1	0	R1381T
556.296	0.816	574625	WORD_OFF	n/a	n/a	RIB	8	5	[0, 0, 0]	n/a	FR1	0	R1381T
557.112	1.601	575442	WORD	n/a	n/a	SAUCE	9	5	[0, 0, 0]	n/a	FR1	0	R1381T
558.713	0.833	577043	WORD_OFF	n/a	n/a	SAUCE	9	5	[0, 0, 0]	n/a	FR1	0	R1381T
559.546	1.601	577870	WORD	n/a	n/a	CASH	10	5	[0, 0, 0]	n/a	FR1	0	R1381T
561.147	0.783	579472	WORD_OFF	n/a	n/a	CASH	10	5	[0, 0, 0]	n/a	FR1	0	R1381T
561.93	1.6	580257	WORD	n/a	n/a	OWL	11	5	[0, 0, 0]	n/a	FR1	0	R1381T
563.53	0.867	581859	WORD_OFF	n/a	n/a	OWL	11	5	[0, 0, 0]	n/a	FR1	0	R1381T
564.397	1.6	582727	WORD	n/a	n/a	STORM	12	5	[0, 0, 0]	n/a	FR1	0	R1381T
565.997	0.0	584318	WORD_OFF	n/a	n/a	STORM	12	5	[0, 0, 0]	n/a	FR1	0	R1381T
565.997	0.001	584322	PROB	0.001	n/a	n/a	-999	5	[1, 5, 2]	8	FR1	0	R1381T
565.998	0.0	584323	START	n/a	n/a	n/a	-999	5	[-999, -999, -999]	n/a	FR1	0	R1381T
565.998	0.0	584328	ENCODING_END	n/a	n/a	n/a	-999	5	[0, 0, 0]	n/a	FR1	0	R1381T
565.998	3.549	584328	DISTRACT_START	n/a	n/a	n/a	-999	5	[0, 0, 0]	n/a	FR1	0	R1381T
569.547	5.385	587872	PROB	5.385	n/a	n/a	-999	5	[5, 3, 3]	11	FR1	0	R1381T
574.932	6.398	593256	PROB	6.398	n/a	n/a	-999	5	[3, 8, 8]	19	FR1	0	R1381T
581.33	3.184	599654	PROB	3.184	n/a	n/a	-999	5	[4, 5, 2]	11	FR1	0	R1381T
584.514	3.248	602838	PROB	3.248	n/a	n/a	-999	5	[2, 1, 5]	8	FR1	0	R1381T
587.762	0.0	606086	STOP	n/a	n/a	n/a	-999	5	[-999, -999, -999]	n/a	FR1	0	R1381T
587.762	1.218	606090	DISTRACT_END	n/a	n/a	n/a	-999	5	[0, 0, 0]	n/a	FR1	0	R1381T
588.98	2.153	607299	REC_START	n/a	n/a	n/a	-999	5	[0, 0, 0]	n/a	FR1	0	R1381T
591.133	1.624	609456	REC_WORD_VV	1.624	n/a	<>	-999	5	[0, 0, 0]	n/a	FR1	0	R1381T
592.757	14.033	611080	REC_WORD_VV	14.033	n/a	<>	-999	5	[0, 0, 0]	n/a	FR1	0	R1381T
606.79	12.464	625113	REC_WORD_VV	12.464	n/a	<>	-999	5	[0, 0, 0]	n/a	FR1	0	R1381T
619.254	1.392	637576	REC_END	n/a	n/a	n/a	-999	5	[0, 0, 0]	n/a	FR1	0	R1381T
620.646	10.351	638971	COUNTDOWN_START	n/a	n/a	n/a	-999	6	[0, 0, 0]	n/a	FR1	0	R1381T
630.997	0.0	649315	COUNTDOWN_END	n/a	n/a	n/a	-999	6	[0, 0, 0]	n/a	FR1	0	R1381T
630.997	2.083	649325	ENCODING_START	n/a	n/a	n/a	-999	6	[0, 0, 0]	n/a	FR1	0	R1381T
633.08	1.6	651402	WORD	n/a	n/a	OIL	1	6	[0, 0, 0]	n/a	FR1	0	R1381T
634.68	0.966	653004	WORD_OFF	n/a	n/a	OIL	1	6	[0, 0, 0]	n/a	FR1	0	R1381T
635.646	1.601	653965	WORD	n/a	n/a	MOLE	2	6	[0, 0, 0]	n/a	FR1	0	R1381T
637.247	0.783	655566	WORD_OFF	n/a	n/a	MOLE	2	6	[0, 0, 0]	n/a	FR1	0	R1381T
638.03	1.617	656352	WORD	n/a	n/a	MUG	3	6	[0, 0, 0]	n/a	FR1	0	R1381T
639.647	0.782	657972	WORD_OFF	n/a	n/a	MUG	3	6	[0, 0, 0]	n/a	FR1	0	R1381T
640.429	1.601	658749	WORD	n/a	n/a	PILL	4	6	[0, 0, 0]	n/a	FR1	0	R1381T
642.03	0.966	660351	WORD_OFF	n/a	n/a	PILL	4	6	[0, 0, 0]	n/a	FR1	0	R1381T
642.996	1.6	661322	WORD	n/a	n/a	HOLE	5	6	[0, 0, 0]	n/a	FR1	0	R1381T
644.596	0.784	662913	WORD_OFF	n/a	n/a	HOLE	5	6	[0, 0, 0]	n/a	FR1	0	R1381T
645.38	1.6	663699	WORD	n/a	n/a	PAINT	6	6	[0, 0, 0]	n/a	FR1	0	R1381T
646.98	0.782	665300	WORD_OFF	n/a	n/a	PAINT	6	6	[0, 0, 0]	n/a	FR1	0	R1381T
647.762	1.601	666086	WORD	n/a	n/a	DEW	7	6	[0, 0, 0]	n/a	FR1	0	R1381T
649.363	0.967	667687	WORD_OFF	n/a	n/a	DEW	7	6	[0, 0, 0]	n/a	FR1	0	R1381T
650.33	1.6	668648	WORD	n/a	n/a	SNAKE	8	6	[0, 0, 0]	n/a	FR1	0	R1381T
651.93	0.833	670250	WORD_OFF	n/a	n/a	SNAKE	8	6	[0, 0, 0]	n/a	FR1	0	R1381T
652.763	1.617	671087	WORD	n/a	n/a	SEAT	9	6	[0, 0, 0]	n/a	FR1	0	R1381T
654.38	0.833	672699	WORD_OFF	n/a	n/a	SEAT	9	6	[0, 0, 0]	n/a	FR1	0	R1381T
655.213	1.6	673536	WORD	n/a	n/a	GUN	10	6	[0, 0, 0]	n/a	FR1	0	R1381T
656.813	0.8	675138	WORD_OFF	n/a	n/a	GUN	10	6	[0, 0, 0]	n/a	FR1	0	R1381T
657.613	1.617	675933	WORD	n/a	n/a	THREAD	11	6	[0, 0, 0]	n/a	FR1	0	R1381T
659.23	0.783	677556	WORD_OFF	n/a	n/a	THREAD	11	6	[0, 0, 0]	n/a	FR1	0	R1381T
660.013	1.616	678331	WORD	n/a	n/a	CREAM	12	6	[0, 0, 0]	n/a	FR1	0	R1381T
661.629	0.001	679949	PROB	0.001	n/a	n/a	-999	6	[1, 4, 7]	12	FR1	0	R1381T
661.63	0.0	679950	START	n/a	n/a	n/a	-999	6	[-999, -999, -999]	n/a	FR1	0	R1381T
661.629	0.001	679953	WORD_OFF	n/a	n/a	CREAM	12	6	[0, 0, 0]	n/a	FR1	0	R1381T
661.63	0.0	679953	ENCODING_END	n/a	n/a	n/a	-999	6	[0, 0, 0]	n/a	FR1	0	R1381T
661.63	5.233	679953	DISTRACT_START	n/a	n/a	n/a	-999	6	[0, 0, 0]	n/a	FR1	0	R1381T
666.863	6.6	685183	PROB	6.6	n/a	n/a	-999	6	[7, 8, 8]	23	FR1	0	R1381T
673.463	2.834	691782	PROB	2.834	n/a	n/a	-999	6	[4, 3, 1]	8	FR1	0	R1381T
676.297	3.048	694616	PROB	3.048	n/a	n/a	-999	6	[2, 2, 4]	8	FR1	0	R1381T
679.345	3.668	697664	PROB	3.668	n/a	n/a	-999	6	[3, 7, 6]	16	FR1	0	R1381T
683.013	0.0	701332	STOP	n/a	n/a	n/a	-999	6	[-999, -999, -999]	n/a	FR1	0	R1381T
683.013	1.1	701333	DISTRACT_END	n/a	n/a	n/a	-999	6	[0, 0, 0]	n/a	FR1	0	R1381T
684.113	1.701	702438	REC_START	n/a	n/a	n/a	-999	6	[0, 0, 0]	n/a	FR1	0	R1381T
685.814	1.0	704133	REC_WORD	1.0	n/a	SNAKE	8	6	[0, 0, 0]	n/a	FR1	0	R1381T
686.814	1.345	705132	REC_WORD_VV	1.345	n/a	<>	-999	6	[0, 0, 0]	n/a	FR1	0	R1381T
688.159	26.24	706477	REC_WORD	26.24	n/a	HOLE	5	6	[0, 0, 0]	n/a	FR1	0	R1381T
714.399	1.33	732715	REC_END	n/a	n/a	n/a	-999	6	[0, 0, 0]	n/a	FR1	0	R1381T
715.729	10.351	734048	COUNTDOWN_START	n/a	n/a	n/a	-999	7	[0, 0, 0]	n/a	FR1	0	R1381T
726.08	0.001	744402	COUNTDOWN_END	n/a	n/a	n/a	-999	7	[0, 0, 0]	n/a	FR1	0	R1381T
726.081	2.082	744402	ENCODING_START	n/a	n/a	n/a	-999	7	[0, 0, 0]	n/a	FR1	0	R1381T
728.163	1.6	746479	WORD	n/a	n/a	PASTE	1	7	[0, 0, 0]	n/a	FR1	0	R1381T
729.763	0.833	748081	WORD_OFF	n/a	n/a	PASTE	1	7	[0, 0, 0]	n/a	FR1	0	R1381T
730.596	1.617	748918	WORD	n/a	n/a	COAL	2	7	[0, 0, 0]	n/a	FR1	0	R1381T
732.213	0.849	750530	WORD_OFF	n/a	n/a	COAL	2	7	[0, 0, 0]	n/a	FR1	0	R1381T
733.062	1.601	751377	WORD	n/a	n/a	CLIFF	3	7	[0, 0, 0]	n/a	FR1	0	R1381T
734.663	0.85	752979	WORD_OFF	n/a	n/a	CLIFF	3	7	[0, 0, 0]	n/a	FR1	0	R1381T
735.513	1.6	753826	WORD	n/a	n/a	EEL	4	7	[0, 0, 0]	n/a	FR1	0	R1381T
737.113	0.983	755428	WORD_OFF	n/a	n/a	EEL	4	7	[0, 0, 0]	n/a	FR1	0	R1381T
738.096	1.617	756409	WORD	n/a	n/a	BREAST	5	7	[0, 0, 0]	n/a	FR1	0	R1381T
739.713	0.917	758032	WORD_OFF	n/a	n/a	BREAST	5	7	[0, 0, 0]	n/a	FR1	0	R1381T
740.63	1.616	758951	WORD	n/a	n/a	MEN	6	7	[0, 0, 0]	n/a	FR1	0	R1381T
742.246	0.933	760563	WORD_OFF	n/a	n/a	MEN	6	7	[0, 0, 0]	n/a	FR1	0	R1381T
743.179	1.617	761493	WORD	n/a	n/a	JAW	7	7	[0, 0, 0]	n/a	FR1	0	R1381T
744.796	0.851	763116	WORD_OFF	n/a	n/a	JAW	7	7	[0, 0, 0]	n/a	FR1	0	R1381T
745.647	1.6	763963	WORD	n/a	n/a	LOCK	8	7	[0, 0, 0]	n/a	FR1	0	R1381T
747.247	0.799	765565	WORD_OFF	n/a	n/a	LOCK	8	7	[0, 0, 0]	n/a	FR1	0	R1381T
748.046	1.6	766360	WORD	n/a	n/a	PLANT	9	7	[0, 0, 0]	n/a	FR1	0	R1381T
749.646	0.784	767962	WORD_OFF	n/a	n/a	PLANT	9	7	[0, 0, 0]	n/a	FR1	0	R1381T
750.43	1.6	768747	WORD	n/a	n/a	COIN	10	7	[0, 0, 0]	n/a	FR1	0	R1381T
752.03	0.849	770349	WORD_OFF	n/a	n/a	COIN	10	7	[0, 0, 0]	n/a	FR1	0	R1381T
752.879	1.618	771196	WORD	n/a	n/a	FORT	11	7	[0, 0, 0]	n/a	FR1	0	R1381T
754.497	0.966	772819	WORD_OFF	n/a	n/a	FORT	11	7	[0, 0, 0]	n/a	FR1	0	R1381T
755.463	1.617	773780	WORD	n/a	n/a	WORM	12	7	[0, 0, 0]	n/a	FR1	0	R1381T
757.08	0.0	775392	WORD_OFF	n/a	n/a	WORM	12	7	[0, 0, 0]	n/a	FR1	0	R1381T
757.08	0.001	775395	PROB	0.001	n/a	n/a	-999	7	[1, 3, 8]	12	FR1	0	R1381T
757.081	0.0	775396	START	n/a	n/a	n/a	-999	7	[-999, -999, -999]	n/a	FR1	0	R1381T
757.081	0.0	775402	ENCODING_END	n/a	n/a	n/a	-999	7	[0, 0, 0]	n/a	FR1	0	R1381T
757.081	5.349	775402	DISTRACT_START	n/a	n/a	n/a	-999	7	[0, 0, 0]	n/a	FR1	0	R1381T
762.43	2.767	780745	PROB	2.767	n/a	n/a	-999	7	[8, 2, 7]	17	FR1	0	R1381T
765.197	2.8	783511	PROB	2.8	n/a	n/a	-999	7	[3, 2, 1]	6	FR1	0	R1381T
767.997	11.832	786311	PROB	11.832	n/a	n/a	-999	7	[8, 6, 7]	21	FR1	0	R1381T
779.829	0.0	798143	STOP	n/a	n/a	n/a	-999	7	[-999, -999, -999]	n/a	FR1	0	R1381T
779.829	1.35	798146	DISTRACT_END	n/a	n/a	n/a	-999	7	[0, 0, 0]	n/a	FR1	0	R1381T
781.179	1.646	799499	REC_START	n/a	n/a	n/a	-999	7	[0, 0, 0]	n/a	FR1	0	R1381T
782.825	28.633	801139	REC_WORD_VV	28.633	n/a	<>	-999	7	[0, 0, 0]	n/a	FR1	0	R1381T
811.458	1.605	829776	REC_END	n/a	n/a	n/a	-999	7	[0, 0, 0]	n/a	FR1	0	R1381T
813.063	10.351	831378	COUNTDOWN_START	n/a	n/a	n/a	-999	8	[0, 0, 0]	n/a	FR1	0	R1381T
823.414	0.0	841721	COUNTDOWN_END	n/a	n/a	n/a	-999	8	[0, 0, 0]	n/a	FR1	0	R1381T
823.414	1.866	841732	ENCODING_START	n/a	n/a	n/a	-999	8	[0, 0, 0]	n/a	FR1	0	R1381T
825.28	1.6	843592	WORD	n/a	n/a	TEETH	1	8	[0, 0, 0]	n/a	FR1	0	R1381T
826.88	0.982	845193	WORD_OFF	n/a	n/a	TEETH	1	8	[0, 0, 0]	n/a	FR1	0	R1381T
827.862	1.601	846175	WORD	n/a	n/a	SINK	2	8	[0, 0, 0]	n/a	FR1	0	R1381T
829.463	0.934	847777	WORD_OFF	n/a	n/a	SINK	2	8	[0, 0, 0]	n/a	FR1	0	R1381T
830.397	1.599	848707	WORD	n/a	n/a	SHEET	3	8	[0, 0, 0]	n/a	FR1	0	R1381T
831.996	0.917	850308	WORD_OFF	n/a	n/a	SHEET	3	8	[0, 0, 0]	n/a	FR1	0	R1381T
832.913	1.6	851228	WORD	n/a	n/a	MINK	4	8	[0, 0, 0]	n/a	FR1	0	R1381T
834.513	0.85	852830	WORD_OFF	n/a	n/a	MINK	4	8	[0, 0, 0]	n/a	FR1	0	R1381T
835.363	1.617	853677	WORD	n/a	n/a	WOOD	5	8	[0, 0, 0]	n/a	FR1	0	R1381T
836.98	0.933	855289	WORD_OFF	n/a	n/a	WOOD	5	8	[0, 0, 0]	n/a	FR1	0	R1381T
837.913	1.6	856229	WORD	n/a	n/a	HOUSE	6	8	[0, 0, 0]	n/a	FR1	0	R1381T
839.513	0.884	857821	WORD_OFF	n/a	n/a	HOUSE	6	8	[0, 0, 0]	n/a	FR1	0	R1381T
840.397	1.616	858709	WORD	n/a	n/a	SHELL	7	8	[0, 0, 0]	n/a	FR1	0	R1381T
842.013	0.817	860321	WORD_OFF	n/a	n/a	SHELL	7	8	[0, 0, 0]	n/a	FR1	0	R1381T
842.83	1.6	861138	WORD	n/a	n/a	SACK	8	8	[0, 0, 0]	n/a	FR1	0	R1381T
844.43	0.949	862739	WORD_OFF	n/a	n/a	SACK	8	8	[0, 0, 0]	n/a	FR1	0	R1381T
845.379	1.617	863690	WORD	n/a	n/a	CAT	9	8	[0, 0, 0]	n/a	FR1	0	R1381T
846.996	0.9	865312	WORD_OFF	n/a	n/a	CAT	9	8	[0, 0, 0]	n/a	FR1	0	R1381T
847.896	1.601	866211	WORD	n/a	n/a	BOOT	10	8	[0, 0, 0]	n/a	FR1	0	R1381T
849.497	0.799	867813	WORD_OFF	n/a	n/a	BOOT	10	8	[0, 0, 0]	n/a	FR1	0	R1381T
850.296	1.617	868609	WORD	n/a	n/a	SHIELD	11	8	[0, 0, 0]	n/a	FR1	0	R1381T
851.913	0.933	870221	WORD_OFF	n/a	n/a	SHIELD	11	8	[0, 0, 0]	n/a	FR1	0	R1381T
852.846	1.6	871161	WORD	n/a	n/a	SNAIL	12	8	[0, 0, 0]	n/a	FR1	0	R1381T
854.446	0.001	872752	WORD_OFF	n/a	n/a	SNAIL	12	8	[0, 0, 0]	n/a	FR1	0	R1381T
854.447	0.001	872757	PROB	0.001	n/a	n/a	-999	8	[5, 5, 5]	15	FR1	0	R1381T
854.448	0.0	872758	START	n/a	n/a	n/a	-999	8	[-999, -999, -999]	n/a	FR1	0	R1381T
854.448	0.0	872763	ENCODING_END	n/a	n/a	n/a	-999	8	[0, 0, 0]	n/a	FR1	0	R1381T
854.448	3.882	872763	DISTRACT_START	n/a	n/a	n/a	-999	8	[0, 0, 0]	n/a	FR1	0	R1381T
858.33	4.017	876640	PROB	4.017	n/a	n/a	-999	8	[8, 3, 4]	15	FR1	0	R1381T
862.347	3.766	880656	PROB	3.766	n/a	n/a	-999	8	[2, 6, 4]	12	FR1	0	R1381T
866.113	3.6	884422	PROB	3.6	n/a	n/a	-999	8	[8, 7, 2]	17	FR1	0	R1381T
869.713	5.949	888022	PROB	5.949	n/a	n/a	-999	8	[8, 7, 6]	21	FR1	0	R1381T
875.662	0.0	893971	STOP	n/a	n/a	n/a	-999	8	[-999, -999, -999]	n/a	FR1	0	R1381T
875.662	1.334	893977	DISTRACT_END	n/a	n/a	n/a	-999	8	[0, 0, 0]	n/a	FR1	0	R1381T
876.996	3.079	895310	REC_START	n/a	n/a	n/a	-999	8	[0, 0, 0]	n/a	FR1	0	R1381T
880.075	27.171	898383	REC_WORD_VV	27.171	n/a	<>	-999	8	[0, 0, 0]	n/a	FR1	0	R1381T
907.246	3.901	925556	REC_END	n/a	n/a	n/a	-999	8	[0, 0, 0]	n/a	FR1	0	R1381T
911.147	10.35	929451	COUNTDOWN_START	n/a	n/a	n/a	-999	9	[0, 0, 0]	n/a	FR1	0	R1381T
921.497	0.0	939805	COUNTDOWN_END	n/a	n/a	n/a	-999	9	[0, 0, 0]	n/a	FR1	0	R1381T
921.497	2.05	939805	ENCODING_START	n/a	n/a	n/a	-999	9	[0, 0, 0]	n/a	FR1	0	R1381T
923.547	1.6	941851	WORD	n/a	n/a	WIG	1	9	[0, 0, 0]	n/a	FR1	0	R1381T
925.147	0.866	943453	WORD_OFF	n/a	n/a	WIG	1	9	[0, 0, 0]	n/a	FR1	0	R1381T
926.013	1.616	944321	WORD	n/a	n/a	SWAMP	2	9	[0, 0, 0]	n/a	FR1	0	R1381T
927.629	0.784	945933	WORD_OFF	n/a	n/a	SWAMP	2	9	[0, 0, 0]	n/a	FR1	0	R1381T
928.413	1.6	946718	WORD	n/a	n/a	YARD	3	9	[0, 0, 0]	n/a	FR1	0	R1381T
930.013	0.849	948320	WORD_OFF	n/a	n/a	YARD	3	9	[0, 0, 0]	n/a	FR1	0	R1381T
930.862	1.6	949167	WORD	n/a	n/a	JAIL	4	9	[0, 0, 0]	n/a	FR1	0	R1381T
932.462	1.001	950769	WORD_OFF	n/a	n/a	JAIL	4	9	[0, 0, 0]	n/a	FR1	0	R1381T
933.463	1.617	951771	WORD	n/a	n/a	SOAP	5	9	[0, 0, 0]	n/a	FR1	0	R1381T
935.08	0.783	953383	WORD_OFF	n/a	n/a	SOAP	5	9	[0, 0, 0]	n/a	FR1	0	R1381T
935.863	1.617	954169	WORD	n/a	n/a	BIRD	6	9	[0, 0, 0]	n/a	FR1	0	R1381T
937.48	0.8	955791	WORD_OFF	n/a	n/a	BIRD	6	9	[0, 0, 0]	n/a	FR1	0	R1381T
938.28	1.6	956587	WORD	n/a	n/a	TRASH	7	9	[0, 0, 0]	n/a	FR1	0	R1381T
939.88	0.8	958188	WORD_OFF	n/a	n/a	TRASH	7	9	[0, 0, 0]	n/a	FR1	0	R1381T
940.68	1.6	958984	WORD	n/a	n/a	GLOVE	8	9	[0, 0, 0]	n/a	FR1	0	R1381T
942.28	0.8	960586	WORD_OFF	n/a	n/a	GLOVE	8	9	[0, 0, 0]	n/a	FR1	0	R1381T
943.08	1.616	961381	WORD	n/a	n/a	BAT	9	9	[0, 0, 0]	n/a	FR1	0	R1381T
944.696	0.85	963004	WORD_OFF	n/a	n/a	BAT	9	9	[0, 0, 0]	n/a	FR1	0	R1381T
945.546	1.617	963851	WORD	n/a	n/a	ARK	10	9	[0, 0, 0]	n/a	FR1	0	R1381T
947.163	0.95	965473	WORD_OFF	n/a	n/a	ARK	10	9	[0, 0, 0]	n/a	FR1	0	R1381T
948.113	1.616	966424	WORD	n/a	n/a	FLEA	11	9	[0, 0, 0]	n/a	FR1	0	R1381T
949.729	0.884	968036	WORD_OFF	n/a	n/a	FLEA	11	9	[0, 0, 0]	n/a	FR1	0	R1381T
950.613	1.6	968914	WORD	n/a	n/a	SALT	12	9	[0, 0, 0]	n/a	FR1	0	R1381T
952.213	0.001	970516	WORD_OFF	n/a	n/a	SALT	12	9	[0, 0, 0]	n/a	FR1	0	R1381T
952.214	0.0	970516	ENCODING_END	n/a	n/a	n/a	-999	9	[0, 0, 0]	n/a	FR1	0	R1381T
952.213	0.001	970518	PROB	0.001	n/a	n/a	-999	9	[6, 6, 8]	20	FR1	0	R1381T
952.214	0.0	970519	START	n/a	n/a	n/a	-999	9	[-999, -999, -999]	n/a	FR1	0	R1381T
952.214	7.382	970526	DISTRACT_START	n/a	n/a	n/a	-999	9	[0, 0, 0]	n/a	FR1	0	R1381T
959.596	3.55	977900	PROB	3.55	n/a	n/a	-999	9	[8, 2, 5]	15	FR1	0	R1381T
963.146	3.267	981450	PROB	3.267	n/a	n/a	-999	9	[2, 8, 1]	11	FR1	0	R1381T
966.413	3.95	984717	PROB	3.95	n/a	n/a	-999	9	[7, 8, 1]	16	FR1	0	R1381T
970.363	6.316	988667	PROB	6.316	n/a	n/a	-999	9	[6, 6, 7]	19	FR1	0	R1381T
976.679	0.0	994982	STOP	n/a	n/a	n/a	-999	9	[-999, -999, -999]	n/a	FR1	0	R1381T
976.679	1.2	994985	DISTRACT_END	n/a	n/a	n/a	-999	9	[0, 0, 0]	n/a	FR1	0	R1381T
977.879	1.706	996184	REC_START	n/a	n/a	n/a	-999	9	[0, 0, 0]	n/a	FR1	0	R1381T
979.585	2.19	997888	REC_WORD	2.19	n/a	JAIL	4	9	[0, 0, 0]	n/a	FR1	0	R1381T
981.775	2.004	1000078	REC_WORD	2.004	n/a	BAT	9	9	[0, 0, 0]	n/a	FR1	0	R1381T
983.779	24.344	1002082	REC_WORD	24.344	n/a	FLEA	11	9	[0, 0, 0]	n/a	FR1	0	R1381T
1008.123	1.474	1026429	REC_END	n/a	n/a	n/a	-999	9	[0, 0, 0]	n/a	FR1	0	R1381T
1009.597	10.35	1027897	COUNTDOWN_START	n/a	n/a	n/a	-999	10	[0, 0, 0]	n/a	FR1	0	R1381T
1019.947	0.0	1038251	COUNTDOWN_END	n/a	n/a	n/a	-999	10	[0, 0, 0]	n/a	FR1	0	R1381T
1019.947	2.249	1038251	ENCODING_START	n/a	n/a	n/a	-999	10	[0, 0, 0]	n/a	FR1	0	R1381T
1022.196	1.6	1040503	WORD	n/a	n/a	SUN	1	10	[0, 0, 0]	n/a	FR1	0	R1381T
1023.796	0.9	1042095	WORD_OFF	n/a	n/a	SUN	1	10	[0, 0, 0]	n/a	FR1	0	R1381T
1024.696	1.6	1042994	WORD	n/a	n/a	CHIEF	2	10	[0, 0, 0]	n/a	FR1	0	R1381T
1026.296	0.784	1044595	WORD_OFF	n/a	n/a	CHIEF	2	10	[0, 0, 0]	n/a	FR1	0	R1381T
1027.08	1.6	1045381	WORD	n/a	n/a	GOWN	3	10	[0, 0, 0]	n/a	FR1	0	R1381T
1028.68	0.9	1046982	WORD_OFF	n/a	n/a	GOWN	3	10	[0, 0, 0]	n/a	FR1	0	R1381T
1029.58	1.6	1047881	WORD	n/a	n/a	SEAL	4	10	[0, 0, 0]	n/a	FR1	0	R1381T
1031.18	0.95	1049483	WORD_OFF	n/a	n/a	SEAL	4	10	[0, 0, 0]	n/a	FR1	0	R1381T
1032.13	1.6	1050434	WORD	n/a	n/a	COURT	5	10	[0, 0, 0]	n/a	FR1	0	R1381T
1033.73	0.883	1052035	WORD_OFF	n/a	n/a	COURT	5	10	[0, 0, 0]	n/a	FR1	0	R1381T
1034.613	1.617	1052914	WORD	n/a	n/a	JAR	6	10	[0, 0, 0]	n/a	FR1	0	R1381T
1036.23	0.982	1054526	WORD_OFF	n/a	n/a	JAR	6	10	[0, 0, 0]	n/a	FR1	0	R1381T
1037.212	1.601	1055518	WORD	n/a	n/a	STRAW	7	10	[0, 0, 0]	n/a	FR1	0	R1381T
1038.813	0.816	1057109	WORD_OFF	n/a	n/a	STRAW	7	10	[0, 0, 0]	n/a	FR1	0	R1381T
1039.629	1.617	1057925	WORD	n/a	n/a	MAP	8	10	[0, 0, 0]	n/a	FR1	0	R1381T
1041.246	0.783	1059548	WORD_OFF	n/a	n/a	MAP	8	10	[0, 0, 0]	n/a	FR1	0	R1381T
1042.029	1.6	1060333	WORD	n/a	n/a	BRIDGE	9	10	[0, 0, 0]	n/a	FR1	0	R1381T
1043.629	0.966	1061935	WORD_OFF	n/a	n/a	BRIDGE	9	10	[0, 0, 0]	n/a	FR1	0	R1381T
1044.595	1.601	1062896	WORD	n/a	n/a	MAT	10	10	[0, 0, 0]	n/a	FR1	0	R1381T
1046.196	0.933	1064497	WORD_OFF	n/a	n/a	MAT	10	10	[0, 0, 0]	n/a	FR1	0	R1381T
1047.129	1.617	1065427	WORD	n/a	n/a	GLOBE	11	10	[0, 0, 0]	n/a	FR1	0	R1381T
1048.746	0.883	1067050	WORD_OFF	n/a	n/a	GLOBE	11	10	[0, 0, 0]	n/a	FR1	0	R1381T
1049.629	1.6	1067928	WORD	n/a	n/a	FROST	12	10	[0, 0, 0]	n/a	FR1	0	R1381T
1051.229	0.002	1069530	WORD_OFF	n/a	n/a	FROST	12	10	[0, 0, 0]	n/a	FR1	0	R1381T
1051.231	0.0	1069530	ENCODING_END	n/a	n/a	n/a	-999	10	[0, 0, 0]	n/a	FR1	0	R1381T
1051.231	0.0	1069530	DISTRACT_START	n/a	n/a	n/a	-999	10	[0, 0, 0]	n/a	FR1	0	R1381T
1051.23	0.001	1069530	PROB	0.001	n/a	n/a	-999	10	[1, 8, 2]	11	FR1	0	R1381T
1051.231	3.415	1069531	START	n/a	n/a	n/a	-999	10	[-999, -999, -999]	n/a	FR1	0	R1381T
1054.646	8.334	1072945	PROB	8.334	n/a	n/a	-999	10	[8, 8, 8]	24	FR1	0	R1381T
1062.98	5.2	1081279	PROB	5.2	n/a	n/a	-999	10	[5, 4, 3]	12	FR1	0	R1381T
1068.18	4.233	1086479	PROB	4.233	n/a	n/a	-999	10	[3, 2, 6]	11	FR1	0	R1381T
1072.413	0.0	1090712	STOP	n/a	n/a	n/a	-999	10	[-999, -999, -999]	n/a	FR1	0	R1381T
1072.413	1.117	1090713	DISTRACT_END	n/a	n/a	n/a	-999	10	[0, 0, 0]	n/a	FR1	0	R1381T
1073.53	1.267	1091829	REC_START	n/a	n/a	n/a	-999	10	[0, 0, 0]	n/a	FR1	0	R1381T
1074.797	1.577	1093095	REC_WORD	1.577	n/a	FROST	12	10	[0, 0, 0]	n/a	FR1	0	R1381T
1076.374	1.638	1094672	REC_WORD	1.638	n/a	GLOBE	11	10	[0, 0, 0]	n/a	FR1	0	R1381T
1078.012	1.792	1096310	REC_WORD	1.792	n/a	MAT	10	10	[0, 0, 0]	n/a	FR1	0	R1381T
1079.804	4.755	1098102	REC_WORD	4.755	n/a	MAP	8	10	[0, 0, 0]	n/a	FR1	0	R1381T
1084.559	8.647	1102857	REC_WORD	8.647	n/a	COURT	5	10	[0, 0, 0]	n/a	FR1	0	R1381T
1093.206	1.0	1111503	REC_WORD_VV	1.0	n/a	<>	-999	10	[0, 0, 0]	n/a	FR1	0	R1381T
1094.206	9.561	1112503	REC_WORD_VV	9.561	n/a	<>	-999	10	[0, 0, 0]	n/a	FR1	0	R1381T
1103.767	1.279	1122064	REC_END	n/a	n/a	n/a	-999	10	[0, 0, 0]	n/a	FR1	0	R1381T
1105.046	10.35	1123346	COUNTDOWN_START	n/a	n/a	n/a	-999	11	[0, 0, 0]	n/a	FR1	0	R1381T
1115.396	0.0	1133689	COUNTDOWN_END	n/a	n/a	n/a	-999	11	[0, 0, 0]	n/a	FR1	0	R1381T
1115.396	2.334	1133700	ENCODING_START	n/a	n/a	n/a	-999	11	[0, 0, 0]	n/a	FR1	0	R1381T
1117.73	1.6	1136025	WORD	n/a	n/a	BLADE	1	11	[0, 0, 0]	n/a	FR1	0	R1381T
1119.33	0.833	1137626	WORD_OFF	n/a	n/a	BLADE	1	11	[0, 0, 0]	n/a	FR1	0	R1381T
1120.163	1.6	1138463	WORD	n/a	n/a	FARM	2	11	[0, 0, 0]	n/a	FR1	0	R1381T
1121.763	0.767	1140065	WORD_OFF	n/a	n/a	FARM	2	11	[0, 0, 0]	n/a	FR1	0	R1381T
1122.53	1.617	1140830	WORD	n/a	n/a	MULE	3	11	[0, 0, 0]	n/a	FR1	0	R1381T
1124.147	0.833	1142442	WORD_OFF	n/a	n/a	MULE	3	11	[0, 0, 0]	n/a	FR1	0	R1381T
1124.98	1.6	1143279	WORD	n/a	n/a	COKE	4	11	[0, 0, 0]	n/a	FR1	0	R1381T
1126.58	0.966	1144880	WORD_OFF	n/a	n/a	COKE	4	11	[0, 0, 0]	n/a	FR1	0	R1381T
1127.546	1.616	1145841	WORD	n/a	n/a	HOG	5	11	[0, 0, 0]	n/a	FR1	0	R1381T
1129.162	0.884	1147464	WORD_OFF	n/a	n/a	HOG	5	11	[0, 0, 0]	n/a	FR1	0	R1381T
1130.046	1.6	1148342	WORD	n/a	n/a	FLAME	6	11	[0, 0, 0]	n/a	FR1	0	R1381T
1131.646	0.817	1149944	WORD_OFF	n/a	n/a	FLAME	6	11	[0, 0, 0]	n/a	FR1	0	R1381T
1132.463	1.616	1150760	WORD	n/a	n/a	CHAIN	7	11	[0, 0, 0]	n/a	FR1	0	R1381T
1134.079	0.984	1152372	WORD_OFF	n/a	n/a	CHAIN	7	11	[0, 0, 0]	n/a	FR1	0	R1381T
1135.063	1.616	1153364	WORD	n/a	n/a	SQUARE	8	11	[0, 0, 0]	n/a	FR1	0	R1381T
1136.679	0.767	1154976	WORD_OFF	n/a	n/a	SQUARE	8	11	[0, 0, 0]	n/a	FR1	0	R1381T
1137.446	1.6	1155741	WORD	n/a	n/a	ROOT	9	11	[0, 0, 0]	n/a	FR1	0	R1381T
1139.046	0.883	1157342	WORD_OFF	n/a	n/a	ROOT	9	11	[0, 0, 0]	n/a	FR1	0	R1381T
1139.929	1.6	1158221	WORD	n/a	n/a	SWORD	10	11	[0, 0, 0]	n/a	FR1	0	R1381T
1141.529	0.8	1159822	WORD_OFF	n/a	n/a	SWORD	10	11	[0, 0, 0]	n/a	FR1	0	R1381T
1142.329	1.617	1160628	WORD	n/a	n/a	MOUTH	11	11	[0, 0, 0]	n/a	FR1	0	R1381T
1143.946	0.883	1162240	WORD_OFF	n/a	n/a	MOUTH	11	11	[0, 0, 0]	n/a	FR1	0	R1381T
1144.829	1.6	1163129	WORD	n/a	n/a	HOOK	12	11	[0, 0, 0]	n/a	FR1	0	R1381T
1146.429	0.001	1164720	WORD_OFF	n/a	n/a	HOOK	12	11	[0, 0, 0]	n/a	FR1	0	R1381T
1146.43	0.0	1164725	START	n/a	n/a	n/a	-999	11	[-999, -999, -999]	n/a	FR1	0	R1381T
1146.43	0.0	1164725	PROB	0.0	n/a	n/a	-999	11	[2, 7, 2]	11	FR1	0	R1381T
1146.43	0.0	1164731	ENCODING_END	n/a	n/a	n/a	-999	11	[0, 0, 0]	n/a	FR1	0	R1381T
1146.43	3.583	1164731	DISTRACT_START	n/a	n/a	n/a	-999	11	[0, 0, 0]	n/a	FR1	0	R1381T
1150.013	10.719	1168308	PROB	10.719	n/a	n/a	-999	11	[7, 3, 6]	16	FR1	0	R1381T
1160.732	3.666	1179026	PROB	3.666	n/a	n/a	-999	11	[2, 2, 8]	12	FR1	0	R1381T
1164.398	5.148	1182692	PROB	5.148	n/a	n/a	-999	11	[1, 3, 6]	10	FR1	0	R1381T
1169.546	0.0	1187839	STOP	n/a	n/a	n/a	-999	11	[-999, -999, -999]	n/a	FR1	0	R1381T
1169.546	1.184	1187846	DISTRACT_END	n/a	n/a	n/a	-999	11	[0, 0, 0]	n/a	FR1	0	R1381T
1170.73	2.389	1189024	REC_START	n/a	n/a	n/a	-999	11	[0, 0, 0]	n/a	FR1	0	R1381T
1173.119	2.175	1191412	REC_WORD	2.175	n/a	HOOK	12	11	[0, 0, 0]	n/a	FR1	0	R1381T
1175.294	2.091	1193587	REC_WORD	2.091	n/a	SWORD	10	11	[0, 0, 0]	n/a	FR1	0	R1381T
1177.385	14.261	1195678	REC_WORD	14.261	n/a	MOUTH	11	11	[0, 0, 0]	n/a	FR1	0	R1381T
1191.646	0.684	1209938	REC_WORD	0.684	n/a	SQUARE	8	11	[0, 0, 0]	n/a	FR1	0	R1381T
1192.33	8.644	1210622	REC_WORD	8.644	n/a	ROOT	9	11	[0, 0, 0]	n/a	FR1	0	R1381T
1200.974	1.556	1219270	REC_END	n/a	n/a	n/a	-999	11	[0, 0, 0]	n/a	FR1	0	R1381T
1202.53	10.35	1220820	COUNTDOWN_START	n/a	n/a	n/a	-999	12	[0, 0, 0]	n/a	FR1	0	R1381T
1212.88	0.0	1231174	COUNTDOWN_END	n/a	n/a	n/a	-999	12	[0, 0, 0]	n/a	FR1	0	R1381T
1212.88	2.149	1231174	ENCODING_START	n/a	n/a	n/a	-999	12	[0, 0, 0]	n/a	FR1	0	R1381T
1215.029	1.617	1233323	WORD	n/a	n/a	CRANE	1	12	[0, 0, 0]	n/a	FR1	0	R1381T
1216.646	0.984	1234935	WORD_OFF	n/a	n/a	CRANE	1	12	[0, 0, 0]	n/a	FR1	0	R1381T
1217.63	1.6	1235917	WORD	n/a	n/a	TENT	2	12	[0, 0, 0]	n/a	FR1	0	R1381T
1219.23	0.982	1237519	WORD_OFF	n/a	n/a	TENT	2	12	[0, 0, 0]	n/a	FR1	0	R1381T
1220.212	1.601	1238500	WORD	n/a	n/a	SPONGE	3	12	[0, 0, 0]	n/a	FR1	0	R1381T
1221.813	0.8	1240102	WORD_OFF	n/a	n/a	SPONGE	3	12	[0, 0, 0]	n/a	FR1	0	R1381T
1222.613	1.6	1240908	WORD	n/a	n/a	BENCH	4	12	[0, 0, 0]	n/a	FR1	0	R1381T
1224.213	0.783	1242509	WORD_OFF	n/a	n/a	BENCH	4	12	[0, 0, 0]	n/a	FR1	0	R1381T
1224.996	1.617	1243285	WORD	n/a	n/a	CAVE	5	12	[0, 0, 0]	n/a	FR1	0	R1381T
1226.613	0.783	1244907	WORD_OFF	n/a	n/a	CAVE	5	12	[0, 0, 0]	n/a	FR1	0	R1381T
1227.396	1.6	1245692	WORD	n/a	n/a	NAIL	6	12	[0, 0, 0]	n/a	FR1	0	R1381T
1228.996	0.9	1247284	WORD_OFF	n/a	n/a	NAIL	6	12	[0, 0, 0]	n/a	FR1	0	R1381T
1229.896	1.6	1248183	WORD	n/a	n/a	HEART	7	12	[0, 0, 0]	n/a	FR1	0	R1381T
1231.496	0.916	1249784	WORD_OFF	n/a	n/a	HEART	7	12	[0, 0, 0]	n/a	FR1	0	R1381T
1232.412	1.617	1250704	WORD	n/a	n/a	THUMB	8	12	[0, 0, 0]	n/a	FR1	0	R1381T
1234.029	0.867	1252316	WORD_OFF	n/a	n/a	THUMB	8	12	[0, 0, 0]	n/a	FR1	0	R1381T
1234.896	1.6	1253184	WORD	n/a	n/a	INK	9	12	[0, 0, 0]	n/a	FR1	0	R1381T
1236.496	1.0	1254786	WORD_OFF	n/a	n/a	INK	9	12	[0, 0, 0]	n/a	FR1	0	R1381T
1237.496	1.616	1255788	WORD	n/a	n/a	BONE	10	12	[0, 0, 0]	n/a	FR1	0	R1381T
1239.112	0.784	1257400	WORD_OFF	n/a	n/a	BONE	10	12	[0, 0, 0]	n/a	FR1	0	R1381T
1239.896	1.616	1258185	WORD	n/a	n/a	WOLF	11	12	[0, 0, 0]	n/a	FR1	0	R1381T
1241.512	0.9	1259808	WORD_OFF	n/a	n/a	WOLF	11	12	[0, 0, 0]	n/a	FR1	0	R1381T
1242.412	1.617	1260707	WORD	n/a	n/a	RUG	12	12	[0, 0, 0]	n/a	FR1	0	R1381T
1244.029	0.001	1262319	WORD_OFF	n/a	n/a	RUG	12	12	[0, 0, 0]	n/a	FR1	0	R1381T
1244.03	0.0	1262319	ENCODING_END	n/a	n/a	n/a	-999	12	[0, 0, 0]	n/a	FR1	0	R1381T
1244.03	0.0	1262319	DISTRACT_START	n/a	n/a	n/a	-999	12	[0, 0, 0]	n/a	FR1	0	R1381T
1244.029	0.001	1262319	PROB	0.001	n/a	n/a	-999	12	[1, 3, 2]	6	FR1	0	R1381T
1244.03	4.283	1262320	START	n/a	n/a	n/a	-999	12	[-999, -999, -999]	n/a	FR1	0	R1381T
1248.313	3.318	1266602	PROB	3.318	n/a	n/a	-999	12	[7, 2, 8]	17	FR1	0	R1381T
1251.631	7.166	1269920	PROB	7.166	n/a	n/a	-999	12	[7, 6, 8]	21	FR1	0	R1381T
1258.797	3.584	1277086	PROB	3.584	n/a	n/a	-999	12	[2, 1, 7]	10	FR1	0	R1381T
1262.381	2.665	1280670	PROB	2.665	n/a	n/a	-999	12	[3, 3, 1]	7	FR1	0	R1381T
1265.046	0.0	1283335	STOP	n/a	n/a	n/a	-999	12	[-999, -999, -999]	n/a	FR1	0	R1381T
1265.046	1.367	1283337	DISTRACT_END	n/a	n/a	n/a	-999	12	[0, 0, 0]	n/a	FR1	0	R1381T
1266.413	1.402	1284701	REC_START	n/a	n/a	n/a	-999	12	[0, 0, 0]	n/a	FR1	0	R1381T
1267.815	2.086	1286103	REC_WORD	2.086	n/a	WOLF	11	12	[0, 0, 0]	n/a	FR1	0	R1381T
1269.901	1.987	1288189	REC_WORD	1.987	n/a	TENT	2	12	[0, 0, 0]	n/a	FR1	0	R1381T
1271.888	7.353	1290176	REC_WORD	7.353	n/a	CRANE	1	12	[0, 0, 0]	n/a	FR1	0	R1381T
1279.241	1.867	1297529	REC_WORD	1.867	n/a	CAVE	5	12	[0, 0, 0]	n/a	FR1	0	R1381T
1281.108	15.548	1299396	REC_WORD	15.548	n/a	BENCH	4	12	[0, 0, 0]	n/a	FR1	0	R1381T
1296.656	0.0	1314946	REC_END	n/a	n/a	n/a	-999	12	[0, 0, 0]	n/a	FR1	0	R1381T
