onset	duration	sample	trial_type	response_time	stim_file	item_name	serialpos	list	test	answer	experiment	session	subject
0.0	147.401	182982	INSTRUCT_START	n/a	n/a	n/a	-999	-999	[0, 0, 0]	n/a	FR1	1	R1412M
147.401	60.965	330377	INSTRUCT_END	n/a	n/a	n/a	-999	-999	[0, 0, 0]	n/a	FR1	1	R1412M
208.366	10.402	391329	COUNTDOWN_START	n/a	n/a	n/a	-999	-999	[0, 0, 0]	n/a	FR1	1	R1412M
218.768	0.0	401732	COUNTDOWN_END	n/a	n/a	n/a	-999	-999	[0, 0, 0]	n/a	FR1	1	R1412M
218.768	2.216	401732	ENCODING_START	n/a	n/a	n/a	-999	-1	[0, 0, 0]	n/a	FR1	1	R1412M
220.984	1.616	403950	WORD	n/a	n/a	TRASH	1	-1	[0, 0, 0]	n/a	FR1	1	R1412M
222.6	0.817	405562	WORD_OFF	n/a	n/a	TRASH	1	-1	[0, 0, 0]	n/a	FR1	1	R1412M
223.417	1.6	406389	WORD	n/a	n/a	JAR	2	-1	[0, 0, 0]	n/a	FR1	1	R1412M
225.017	0.967	407987	WORD_OFF	n/a	n/a	JAR	2	-1	[0, 0, 0]	n/a	FR1	1	R1412M
225.984	1.617	408951	WORD	n/a	n/a	FOX	3	-1	[0, 0, 0]	n/a	FR1	1	R1412M
227.601	1.0	410563	WORD_OFF	n/a	n/a	FOX	3	-1	[0, 0, 0]	n/a	FR1	1	R1412M
228.601	1.615	411569	WORD	n/a	n/a	PLANT	4	-1	[0, 0, 0]	n/a	FR1	1	R1412M
230.216	0.951	413181	WORD_OFF	n/a	n/a	PLANT	4	-1	[0, 0, 0]	n/a	FR1	1	R1412M
231.167	1.6	414132	WORD	n/a	n/a	PARK	5	-1	[0, 0, 0]	n/a	FR1	1	R1412M
232.767	0.85	415730	WORD_OFF	n/a	n/a	PARK	5	-1	[0, 0, 0]	n/a	FR1	1	R1412M
233.617	1.617	416584	WORD	n/a	n/a	SHIELD	6	-1	[0, 0, 0]	n/a	FR1	1	R1412M
235.234	0.8	418196	WORD_OFF	n/a	n/a	SHIELD	6	-1	[0, 0, 0]	n/a	FR1	1	R1412M
236.034	1.6	418995	WORD	n/a	n/a	GIFT	7	-1	[0, 0, 0]	n/a	FR1	1	R1412M
237.634	0.816	420593	WORD_OFF	n/a	n/a	GIFT	7	-1	[0, 0, 0]	n/a	FR1	1	R1412M
238.45	1.6	421420	WORD	n/a	n/a	YARN	8	-1	[0, 0, 0]	n/a	FR1	1	R1412M
240.05	0.917	423018	WORD_OFF	n/a	n/a	YARN	8	-1	[0, 0, 0]	n/a	FR1	1	R1412M
240.967	1.6	423928	WORD	n/a	n/a	CLAM	9	-1	[0, 0, 0]	n/a	FR1	1	R1412M
242.567	0.966	425526	WORD_OFF	n/a	n/a	CLAM	9	-1	[0, 0, 0]	n/a	FR1	1	R1412M
243.533	1.601	426504	WORD	n/a	n/a	FORT	10	-1	[0, 0, 0]	n/a	FR1	1	R1412M
245.134	0.8	428102	WORD_OFF	n/a	n/a	FORT	10	-1	[0, 0, 0]	n/a	FR1	1	R1412M
245.934	1.616	428901	WORD	n/a	n/a	STORM	11	-1	[0, 0, 0]	n/a	FR1	1	R1412M
247.55	0.883	430513	WORD_OFF	n/a	n/a	STORM	11	-1	[0, 0, 0]	n/a	FR1	1	R1412M
248.433	1.619	431395	WORD	n/a	n/a	WIFE	12	-1	[0, 0, 0]	n/a	FR1	1	R1412M
250.052	0.0	433015	START	n/a	n/a	n/a	-999	-1	[-999, -999, -999]	n/a	FR1	1	R1412M
250.052	0.0	433015	PROB	0.0	n/a	n/a	-999	-1	[8, 5, 4]	17	FR1	1	R1412M
250.05	0.001	433021	WORD_OFF	n/a	n/a	WIFE	12	-1	[0, 0, 0]	n/a	FR1	1	R1412M
250.051	0.001	433021	ENCODING_END	n/a	n/a	n/a	-999	-1	[0, 0, 0]	n/a	FR1	1	R1412M
250.052	9.382	433021	DISTRACT_START	n/a	n/a	n/a	-999	-1	[0, 0, 0]	n/a	FR1	1	R1412M
259.434	9.9	442397	PROB	9.9	n/a	n/a	-999	-1	[2, 5, 4]	11	FR1	1	R1412M
269.334	4.417	452296	PROB	4.417	n/a	n/a	-999	-1	[5, 2, 5]	12	FR1	1	R1412M
273.751	0.0	456713	STOP	n/a	n/a	n/a	-999	-1	[-999, -999, -999]	n/a	FR1	1	R1412M
273.751	1.033	456719	DISTRACT_END	n/a	n/a	n/a	-999	-1	[0, 0, 0]	n/a	FR1	1	R1412M
274.784	14.8	457752	REC_START	n/a	n/a	n/a	-999	-1	[0, 0, 0]	n/a	FR1	1	R1412M
289.584	0.911	472545	REC_WORD	0.911	n/a	TRASH	1	-1	[0, 0, 0]	n/a	FR1	1	R1412M
290.495	0.774	473456	REC_WORD	0.774	n/a	CLAM	9	-1	[0, 0, 0]	n/a	FR1	1	R1412M
291.269	1.556	474230	REC_WORD	1.556	n/a	SHIELD	6	-1	[0, 0, 0]	n/a	FR1	1	R1412M
292.825	1.505	475786	REC_WORD	1.505	n/a	YARN	8	-1	[0, 0, 0]	n/a	FR1	1	R1412M
294.33	11.7	477291	REC_WORD	11.7	n/a	JAR	2	-1	[0, 0, 0]	n/a	FR1	1	R1412M
306.03	59.103	488986	REC_END	n/a	n/a	n/a	-999	-1	[0, 0, 0]	n/a	FR1	1	R1412M
365.133	10.351	548093	COUNTDOWN_START	n/a	n/a	n/a	-999	1	[0, 0, 0]	n/a	FR1	1	R1412M
375.484	0.001	558440	COUNTDOWN_END	n/a	n/a	n/a	-999	1	[0, 0, 0]	n/a	FR1	1	R1412M
375.485	2.099	558440	ENCODING_START	n/a	n/a	n/a	-999	1	[0, 0, 0]	n/a	FR1	1	R1412M
377.584	1.617	560548	WORD	n/a	wordpools/wordpool_long_EN.txt	CAVE	1	1	[0, 0, 0]	n/a	FR1	1	R1412M
379.201	0.966	562160	WORD_OFF	n/a	n/a	CAVE	1	1	[0, 0, 0]	n/a	FR1	1	R1412M
380.167	1.617	563124	WORD	n/a	wordpools/wordpool_long_EN.txt	LUNCH	2	1	[0, 0, 0]	n/a	FR1	1	R1412M
381.784	0.917	564736	WORD_OFF	n/a	n/a	LUNCH	2	1	[0, 0, 0]	n/a	FR1	1	R1412M
382.701	1.616	565659	WORD	n/a	wordpools/wordpool_long_EN.txt	POLE	3	1	[0, 0, 0]	n/a	FR1	1	R1412M
384.317	0.834	567271	WORD_OFF	n/a	n/a	POLE	3	1	[0, 0, 0]	n/a	FR1	1	R1412M
385.151	1.6	568112	WORD	n/a	wordpools/wordpool_long_EN.txt	WING	4	1	[0, 0, 0]	n/a	FR1	1	R1412M
386.751	0.865	569710	WORD_OFF	n/a	n/a	WING	4	1	[0, 0, 0]	n/a	FR1	1	R1412M
387.616	1.601	570578	WORD	n/a	wordpools/wordpool_long_EN.txt	MOUSE	5	1	[0, 0, 0]	n/a	FR1	1	R1412M
389.217	0.784	572176	WORD_OFF	n/a	n/a	MOUSE	5	1	[0, 0, 0]	n/a	FR1	1	R1412M
390.001	1.616	572962	WORD	n/a	wordpools/wordpool_long_EN.txt	FENCE	6	1	[0, 0, 0]	n/a	FR1	1	R1412M
391.617	0.834	574574	WORD_OFF	n/a	n/a	FENCE	6	1	[0, 0, 0]	n/a	FR1	1	R1412M
392.451	1.616	575414	WORD	n/a	wordpools/wordpool_long_EN.txt	LEAF	7	1	[0, 0, 0]	n/a	FR1	1	R1412M
394.067	0.917	577026	WORD_OFF	n/a	n/a	LEAF	7	1	[0, 0, 0]	n/a	FR1	1	R1412M
394.984	1.617	577935	WORD	n/a	wordpools/wordpool_long_EN.txt	ROOT	8	1	[0, 0, 0]	n/a	FR1	1	R1412M
396.601	0.866	579561	WORD_OFF	n/a	n/a	ROOT	8	1	[0, 0, 0]	n/a	FR1	1	R1412M
397.467	1.6	580429	WORD	n/a	wordpools/wordpool_long_EN.txt	CARD	9	1	[0, 0, 0]	n/a	FR1	1	R1412M
399.067	0.917	582027	WORD_OFF	n/a	n/a	CARD	9	1	[0, 0, 0]	n/a	FR1	1	R1412M
399.984	1.616	582937	WORD	n/a	wordpools/wordpool_long_EN.txt	LAMP	10	1	[0, 0, 0]	n/a	FR1	1	R1412M
401.6	0.851	584563	WORD_OFF	n/a	n/a	LAMP	10	1	[0, 0, 0]	n/a	FR1	1	R1412M
402.451	1.6	585403	WORD	n/a	wordpools/wordpool_long_EN.txt	SHOE	11	1	[0, 0, 0]	n/a	FR1	1	R1412M
404.051	0.916	587001	WORD_OFF	n/a	n/a	SHOE	11	1	[0, 0, 0]	n/a	FR1	1	R1412M
404.967	1.617	587924	WORD	n/a	wordpools/wordpool_long_EN.txt	SCOTCH	12	1	[0, 0, 0]	n/a	FR1	1	R1412M
406.584	0.001	589536	WORD_OFF	n/a	n/a	SCOTCH	12	1	[0, 0, 0]	n/a	FR1	1	R1412M
406.585	0.0	589536	ENCODING_END	n/a	n/a	n/a	-999	1	[0, 0, 0]	n/a	FR1	1	R1412M
406.584	0.001	589540	PROB	0.001	n/a	n/a	-999	1	[6, 4, 5]	16	FR1	1	R1412M
406.585	0.0	589541	START	n/a	n/a	n/a	-999	1	[-999, -999, -999]	n/a	FR1	1	R1412M
406.585	8.382	589550	DISTRACT_START	n/a	n/a	n/a	-999	1	[0, 0, 0]	n/a	FR1	1	R1412M
414.967	6.034	597922	PROB	6.034	n/a	n/a	-999	1	[7, 2, 2]	11	FR1	1	R1412M
421.001	5.865	603956	PROB	5.865	n/a	n/a	-999	1	[3, 7, 1]	11	FR1	1	R1412M
426.866	0.0	609817	DISTRACT_END	n/a	n/a	n/a	-999	1	[0, 0, 0]	n/a	FR1	1	R1412M
426.866	1.351	609821	STOP	n/a	n/a	n/a	-999	1	[-999, -999, -999]	n/a	FR1	1	R1412M
428.217	2.423	611167	REC_START	n/a	n/a	n/a	-999	1	[0, 0, 0]	n/a	FR1	1	R1412M
430.64	0.925	613595	REC_WORD	0.925	n/a	YARN	-999	1	[0, 0, 0]	n/a	FR1	1	R1412M
431.565	4.845	614520	REC_WORD_VV	4.845	n/a	<>	-999	1	[0, 0, 0]	n/a	FR1	1	R1412M
436.41	0.673	619364	REC_WORD	0.673	n/a	LEAF	7	1	[0, 0, 0]	n/a	FR1	1	R1412M
437.083	10.248	620037	REC_WORD	10.248	n/a	ROOT	8	1	[0, 0, 0]	n/a	FR1	1	R1412M
447.331	6.91	630285	REC_WORD	6.91	n/a	SCOTCH	12	1	[0, 0, 0]	n/a	FR1	1	R1412M
454.241	5.21	637194	REC_WORD	5.21	n/a	WIFE	-999	1	[0, 0, 0]	n/a	FR1	1	R1412M
459.451	39.983	642402	REC_END	n/a	n/a	n/a	-999	1	[0, 0, 0]	n/a	FR1	1	R1412M
499.434	10.35	682385	COUNTDOWN_START	n/a	n/a	n/a	-999	1	[0, 0, 0]	n/a	FR1	1	R1412M
509.784	0.0	692732	COUNTDOWN_END	n/a	n/a	n/a	-999	1	[0, 0, 0]	n/a	FR1	1	R1412M
509.784	2.149	692732	ENCODING_START	n/a	n/a	n/a	-999	2	[0, 0, 0]	n/a	FR1	1	R1412M
511.933	1.6	694881	WORD	n/a	wordpools/wordpool_long_EN.txt	BENCH	1	2	[0, 0, 0]	n/a	FR1	1	R1412M
513.533	0.9	696479	WORD_OFF	n/a	n/a	BENCH	1	2	[0, 0, 0]	n/a	FR1	1	R1412M
514.433	1.6	697389	WORD	n/a	wordpools/wordpool_long_EN.txt	BEAN	2	2	[0, 0, 0]	n/a	FR1	1	R1412M
516.033	0.95	698987	WORD_OFF	n/a	n/a	BEAN	2	2	[0, 0, 0]	n/a	FR1	1	R1412M
516.983	1.6	699938	WORD	n/a	wordpools/wordpool_long_EN.txt	SPARK	3	2	[0, 0, 0]	n/a	FR1	1	R1412M
518.583	1.0	701536	WORD_OFF	n/a	n/a	SPARK	3	2	[0, 0, 0]	n/a	FR1	1	R1412M
519.583	1.617	702528	WORD	n/a	wordpools/wordpool_long_EN.txt	PLAID	4	2	[0, 0, 0]	n/a	FR1	1	R1412M
521.2	0.816	704154	WORD_OFF	n/a	n/a	PLAID	4	2	[0, 0, 0]	n/a	FR1	1	R1412M
522.016	1.617	704966	WORD	n/a	wordpools/wordpool_long_EN.txt	ARK	5	2	[0, 0, 0]	n/a	FR1	1	R1412M
523.633	0.884	706578	WORD_OFF	n/a	n/a	ARK	5	2	[0, 0, 0]	n/a	FR1	1	R1412M
524.517	1.6	707474	WORD	n/a	wordpools/wordpool_long_EN.txt	SWORD	6	2	[0, 0, 0]	n/a	FR1	1	R1412M
526.117	0.917	709072	WORD_OFF	n/a	n/a	SWORD	6	2	[0, 0, 0]	n/a	FR1	1	R1412M
527.034	1.617	709982	WORD	n/a	wordpools/wordpool_long_EN.txt	SHARK	7	2	[0, 0, 0]	n/a	FR1	1	R1412M
528.651	0.933	711607	WORD_OFF	n/a	n/a	SHARK	7	2	[0, 0, 0]	n/a	FR1	1	R1412M
529.584	1.6	712530	WORD	n/a	wordpools/wordpool_long_EN.txt	DOCK	8	2	[0, 0, 0]	n/a	FR1	1	R1412M
531.184	0.95	714142	WORD_OFF	n/a	n/a	DOCK	8	2	[0, 0, 0]	n/a	FR1	1	R1412M
532.134	1.6	715079	WORD	n/a	wordpools/wordpool_long_EN.txt	CANE	9	2	[0, 0, 0]	n/a	FR1	1	R1412M
533.734	1.0	716691	WORD_OFF	n/a	n/a	CANE	9	2	[0, 0, 0]	n/a	FR1	1	R1412M
534.734	1.6	717683	WORD	n/a	wordpools/wordpool_long_EN.txt	SPACE	10	2	[0, 0, 0]	n/a	FR1	1	R1412M
536.334	0.85	719282	WORD_OFF	n/a	n/a	SPACE	10	2	[0, 0, 0]	n/a	FR1	1	R1412M
537.184	1.616	720136	WORD	n/a	wordpools/wordpool_long_EN.txt	STRAW	11	2	[0, 0, 0]	n/a	FR1	1	R1412M
538.8	0.901	721748	WORD_OFF	n/a	n/a	STRAW	11	2	[0, 0, 0]	n/a	FR1	1	R1412M
539.701	1.617	722657	WORD	n/a	wordpools/wordpool_long_EN.txt	FAN	12	2	[0, 0, 0]	n/a	FR1	1	R1412M
541.318	0.001	724267	PROB	0.001	n/a	n/a	-999	2	[7, 8, 3]	18	FR1	1	R1412M
541.319	0.0	724268	START	n/a	n/a	n/a	-999	2	[-999, -999, -999]	n/a	FR1	1	R1412M
541.317	0.001	724269	WORD_OFF	n/a	n/a	FAN	12	2	[0, 0, 0]	n/a	FR1	1	R1412M
541.318	0.001	724269	ENCODING_END	n/a	n/a	n/a	-999	2	[0, 0, 0]	n/a	FR1	1	R1412M
541.319	7.132	724269	DISTRACT_START	n/a	n/a	n/a	-999	2	[0, 0, 0]	n/a	FR1	1	R1412M
548.451	8.367	731400	PROB	8.367	n/a	n/a	-999	2	[7, 1, 6]	14	FR1	1	R1412M
556.818	9.849	739766	PROB	9.849	n/a	n/a	-999	2	[8, 7, 8]	22	FR1	1	R1412M
566.667	0.0	749615	STOP	n/a	n/a	n/a	-999	2	[-999, -999, -999]	n/a	FR1	1	R1412M
566.667	1.4	749620	DISTRACT_END	n/a	n/a	n/a	-999	2	[0, 0, 0]	n/a	FR1	1	R1412M
568.067	3.284	751012	REC_START	n/a	n/a	n/a	-999	2	[0, 0, 0]	n/a	FR1	1	R1412M
571.351	21.078	754299	REC_WORD	21.078	n/a	CAVE	-999	2	[0, 0, 0]	n/a	FR1	1	R1412M
592.429	1.729	775376	REC_WORD	1.729	n/a	SPARK	3	2	[0, 0, 0]	n/a	FR1	1	R1412M
594.158	5.124	777105	REC_WORD_VV	5.124	n/a	<>	-999	2	[0, 0, 0]	n/a	FR1	1	R1412M
599.282	12.568	782232	REC_END	n/a	n/a	n/a	-999	2	[0, 0, 0]	n/a	FR1	1	R1412M
611.85	10.351	794797	COUNTDOWN_START	n/a	n/a	n/a	-999	2	[0, 0, 0]	n/a	FR1	1	R1412M
622.201	0.0	805145	COUNTDOWN_END	n/a	n/a	n/a	-999	2	[0, 0, 0]	n/a	FR1	1	R1412M
622.201	1.983	805145	ENCODING_START	n/a	n/a	n/a	-999	3	[0, 0, 0]	n/a	FR1	1	R1412M
624.184	1.617	807129	WORD	n/a	wordpools/wordpool_long_EN.txt	BRIDGE	1	3	[0, 0, 0]	n/a	FR1	1	R1412M
625.801	0.899	808741	WORD_OFF	n/a	n/a	BRIDGE	1	3	[0, 0, 0]	n/a	FR1	1	R1412M
626.7	1.617	809650	WORD	n/a	wordpools/wordpool_long_EN.txt	SOUP	2	3	[0, 0, 0]	n/a	FR1	1	R1412M
628.317	0.784	811262	WORD_OFF	n/a	n/a	SOUP	2	3	[0, 0, 0]	n/a	FR1	1	R1412M
629.101	1.6	812047	WORD	n/a	wordpools/wordpool_long_EN.txt	CLOWN	3	3	[0, 0, 0]	n/a	FR1	1	R1412M
630.701	0.966	813645	WORD_OFF	n/a	n/a	CLOWN	3	3	[0, 0, 0]	n/a	FR1	1	R1412M
631.667	1.6	814610	WORD	n/a	wordpools/wordpool_long_EN.txt	TEETH	4	3	[0, 0, 0]	n/a	FR1	1	R1412M
633.267	0.967	816208	WORD_OFF	n/a	n/a	TEETH	4	3	[0, 0, 0]	n/a	FR1	1	R1412M
634.234	1.6	817186	WORD	n/a	wordpools/wordpool_long_EN.txt	PASTE	5	3	[0, 0, 0]	n/a	FR1	1	R1412M
635.834	0.983	818785	WORD_OFF	n/a	n/a	PASTE	5	3	[0, 0, 0]	n/a	FR1	1	R1412M
636.817	1.617	819763	WORD	n/a	wordpools/wordpool_long_EN.txt	SPHINX	6	3	[0, 0, 0]	n/a	FR1	1	R1412M
638.434	0.916	821375	WORD_OFF	n/a	n/a	SPHINX	6	3	[0, 0, 0]	n/a	FR1	1	R1412M
639.35	1.617	822298	WORD	n/a	wordpools/wordpool_long_EN.txt	CASH	7	3	[0, 0, 0]	n/a	FR1	1	R1412M
640.967	0.867	823910	WORD_OFF	n/a	n/a	CASH	7	3	[0, 0, 0]	n/a	FR1	1	R1412M
641.834	1.617	824778	WORD	n/a	wordpools/wordpool_long_EN.txt	CUBE	8	3	[0, 0, 0]	n/a	FR1	1	R1412M
643.451	0.95	826390	WORD_OFF	n/a	n/a	CUBE	8	3	[0, 0, 0]	n/a	FR1	1	R1412M
644.401	1.6	827341	WORD	n/a	wordpools/wordpool_long_EN.txt	TANK	9	3	[0, 0, 0]	n/a	FR1	1	R1412M
646.001	0.782	828939	WORD_OFF	n/a	n/a	TANK	9	3	[0, 0, 0]	n/a	FR1	1	R1412M
646.783	1.6	829724	WORD	n/a	wordpools/wordpool_long_EN.txt	PIN	10	3	[0, 0, 0]	n/a	FR1	1	R1412M
648.383	0.784	831322	WORD_OFF	n/a	n/a	PIN	10	3	[0, 0, 0]	n/a	FR1	1	R1412M
649.167	1.617	832108	WORD	n/a	wordpools/wordpool_long_EN.txt	TOAST	11	3	[0, 0, 0]	n/a	FR1	1	R1412M
650.784	0.8	833733	WORD_OFF	n/a	n/a	TOAST	11	3	[0, 0, 0]	n/a	FR1	1	R1412M
651.584	1.617	834533	WORD	n/a	wordpools/wordpool_long_EN.txt	MAZE	12	3	[0, 0, 0]	n/a	FR1	1	R1412M
653.201	0.001	836145	WORD_OFF	n/a	n/a	MAZE	12	3	[0, 0, 0]	n/a	FR1	1	R1412M
653.202	0.0	836145	ENCODING_END	n/a	n/a	n/a	-999	3	[0, 0, 0]	n/a	FR1	1	R1412M
653.202	0.0	836145	DISTRACT_START	n/a	n/a	n/a	-999	3	[0, 0, 0]	n/a	FR1	1	R1412M
653.202	0.0	836146	PROB	0.0	n/a	n/a	-999	3	[4, 4, 4]	12	FR1	1	R1412M
653.202	5.866	836146	START	n/a	n/a	n/a	-999	3	[-999, -999, -999]	n/a	FR1	1	R1412M
659.068	4.883	842012	PROB	4.883	n/a	n/a	-999	3	[1, 8, 1]	10	FR1	1	R1412M
663.951	4.283	846894	PROB	4.283	n/a	n/a	-999	3	[2, 4, 1]	7	FR1	1	R1412M
668.234	11.683	851177	PROB	11.683	n/a	n/a	-999	3	[5, 3, 2]	10	FR1	1	R1412M
679.917	0.0	862860	DISTRACT_END	n/a	n/a	n/a	-999	3	[0, 0, 0]	n/a	FR1	1	R1412M
679.917	1.383	862860	STOP	n/a	n/a	n/a	-999	3	[-999, -999, -999]	n/a	FR1	1	R1412M
681.3	1.543	864237	REC_START	n/a	n/a	n/a	-999	3	[0, 0, 0]	n/a	FR1	1	R1412M
682.843	1.18	865785	REC_WORD	1.18	n/a	TOAST	11	3	[0, 0, 0]	n/a	FR1	1	R1412M
684.023	5.043	866965	REC_WORD	5.043	n/a	PASTE	5	3	[0, 0, 0]	n/a	FR1	1	R1412M
689.066	12.408	872008	REC_WORD	12.408	n/a	SPARK	-999	3	[0, 0, 0]	n/a	FR1	1	R1412M
701.474	6.142	884415	REC_WORD	6.142	n/a	BOOTH	-999	3	[0, 0, 0]	n/a	FR1	1	R1412M
707.616	4.899	890557	REC_WORD	4.899	n/a	TEETH	4	3	[0, 0, 0]	n/a	FR1	1	R1412M
712.515	25.119	895458	REC_END	n/a	n/a	n/a	-999	3	[0, 0, 0]	n/a	FR1	1	R1412M
737.634	10.35	920575	COUNTDOWN_START	n/a	n/a	n/a	-999	3	[0, 0, 0]	n/a	FR1	1	R1412M
747.984	0.001	930922	COUNTDOWN_END	n/a	n/a	n/a	-999	3	[0, 0, 0]	n/a	FR1	1	R1412M
747.985	2.332	930922	ENCODING_START	n/a	n/a	n/a	-999	4	[0, 0, 0]	n/a	FR1	1	R1412M
750.317	1.617	933264	WORD	n/a	wordpools/wordpool_long_EN.txt	SLIME	1	4	[0, 0, 0]	n/a	FR1	1	R1412M
751.934	0.849	934876	WORD_OFF	n/a	n/a	SLIME	1	4	[0, 0, 0]	n/a	FR1	1	R1412M
752.783	1.601	935730	WORD	n/a	wordpools/wordpool_long_EN.txt	WEB	2	4	[0, 0, 0]	n/a	FR1	1	R1412M
754.384	0.899	937328	WORD_OFF	n/a	n/a	WEB	2	4	[0, 0, 0]	n/a	FR1	1	R1412M
755.283	1.6	938224	WORD	n/a	wordpools/wordpool_long_EN.txt	CAT	3	4	[0, 0, 0]	n/a	FR1	1	R1412M
756.883	0.767	939822	WORD_OFF	n/a	n/a	CAT	3	4	[0, 0, 0]	n/a	FR1	1	R1412M
757.65	1.617	940594	WORD	n/a	wordpools/wordpool_long_EN.txt	CHIEF	4	4	[0, 0, 0]	n/a	FR1	1	R1412M
759.267	1.0	942206	WORD_OFF	n/a	n/a	CHIEF	4	4	[0, 0, 0]	n/a	FR1	1	R1412M
760.267	1.616	943212	WORD	n/a	wordpools/wordpool_long_EN.txt	WASP	5	4	[0, 0, 0]	n/a	FR1	1	R1412M
761.883	0.9	944824	WORD_OFF	n/a	n/a	WASP	5	4	[0, 0, 0]	n/a	FR1	1	R1412M
762.783	1.617	945719	WORD	n/a	wordpools/wordpool_long_EN.txt	HOOK	6	4	[0, 0, 0]	n/a	FR1	1	R1412M
764.4	0.8	947345	WORD_OFF	n/a	n/a	HOOK	6	4	[0, 0, 0]	n/a	FR1	1	R1412M
765.2	1.616	948144	WORD	n/a	wordpools/wordpool_long_EN.txt	ROCK	7	4	[0, 0, 0]	n/a	FR1	1	R1412M
766.816	0.784	949756	WORD_OFF	n/a	n/a	ROCK	7	4	[0, 0, 0]	n/a	FR1	1	R1412M
767.6	1.617	950541	WORD	n/a	wordpools/wordpool_long_EN.txt	MASK	8	4	[0, 0, 0]	n/a	FR1	1	R1412M
769.217	0.949	952153	WORD_OFF	n/a	n/a	MASK	8	4	[0, 0, 0]	n/a	FR1	1	R1412M
770.166	1.617	953104	WORD	n/a	wordpools/wordpool_long_EN.txt	HOUND	9	4	[0, 0, 0]	n/a	FR1	1	R1412M
771.783	0.817	954716	WORD_OFF	n/a	n/a	HOUND	9	4	[0, 0, 0]	n/a	FR1	1	R1412M
772.6	1.616	955543	WORD	n/a	wordpools/wordpool_long_EN.txt	BOWL	10	4	[0, 0, 0]	n/a	FR1	1	R1412M
774.216	0.817	957155	WORD_OFF	n/a	n/a	BOWL	10	4	[0, 0, 0]	n/a	FR1	1	R1412M
775.033	1.601	957968	WORD	n/a	wordpools/wordpool_long_EN.txt	FLEET	11	4	[0, 0, 0]	n/a	FR1	1	R1412M
776.634	0.816	959580	WORD_OFF	n/a	n/a	FLEET	11	4	[0, 0, 0]	n/a	FR1	1	R1412M
777.45	1.601	960392	WORD	n/a	wordpools/wordpool_long_EN.txt	FOOD	12	4	[0, 0, 0]	n/a	FR1	1	R1412M
779.051	0.001	961989	PROB	0.001	n/a	n/a	-999	4	[6, 7, 8]	21	FR1	1	R1412M
779.052	0.0	961990	START	n/a	n/a	n/a	-999	4	[-999, -999, -999]	n/a	FR1	1	R1412M
779.05	0.002	961991	WORD_OFF	n/a	n/a	FOOD	12	4	[0, 0, 0]	n/a	FR1	1	R1412M
779.052	0.0	961991	ENCODING_END	n/a	n/a	n/a	-999	4	[0, 0, 0]	n/a	FR1	1	R1412M
779.052	8.165	961991	DISTRACT_START	n/a	n/a	n/a	-999	4	[0, 0, 0]	n/a	FR1	1	R1412M
787.217	7.101	970154	PROB	7.101	n/a	n/a	-999	4	[1, 2, 7]	10	FR1	1	R1412M
794.318	7.132	977255	PROB	7.132	n/a	n/a	-999	4	[2, 8, 4]	14	FR1	1	R1412M
801.45	0.0	984387	STOP	n/a	n/a	n/a	-999	4	[-999, -999, -999]	n/a	FR1	1	R1412M
801.45	1.101	984393	DISTRACT_END	n/a	n/a	n/a	-999	4	[0, 0, 0]	n/a	FR1	1	R1412M
802.551	1.089	985482	REC_START	n/a	n/a	n/a	-999	4	[0, 0, 0]	n/a	FR1	1	R1412M
803.64	7.557	986577	REC_WORD	7.557	n/a	SLIME	1	4	[0, 0, 0]	n/a	FR1	1	R1412M
811.197	22.561	994133	REC_WORD	22.561	n/a	HOUSE	-999	4	[0, 0, 0]	n/a	FR1	1	R1412M
833.758	13.742	1016688	REC_END	n/a	n/a	n/a	-999	4	[0, 0, 0]	n/a	FR1	1	R1412M
847.5	10.35	1030439	COUNTDOWN_START	n/a	n/a	n/a	-999	4	[0, 0, 0]	n/a	FR1	1	R1412M
857.85	0.0	1040786	COUNTDOWN_END	n/a	n/a	n/a	-999	4	[0, 0, 0]	n/a	FR1	1	R1412M
857.85	1.883	1040786	ENCODING_START	n/a	n/a	n/a	-999	5	[0, 0, 0]	n/a	FR1	1	R1412M
859.733	1.6	1042673	WORD	n/a	wordpools/wordpool_long_EN.txt	STEAM	1	5	[0, 0, 0]	n/a	FR1	1	R1412M
861.333	0.834	1044271	WORD_OFF	n/a	n/a	STEAM	1	5	[0, 0, 0]	n/a	FR1	1	R1412M
862.167	1.6	1045098	WORD	n/a	wordpools/wordpool_long_EN.txt	SPRING	2	5	[0, 0, 0]	n/a	FR1	1	R1412M
863.767	0.804	1046696	WORD_OFF	n/a	n/a	SPRING	2	5	[0, 0, 0]	n/a	FR1	1	R1412M
864.571	1.613	1047509	WORD	n/a	wordpools/wordpool_long_EN.txt	NEST	3	5	[0, 0, 0]	n/a	FR1	1	R1412M
866.184	0.8	1049121	WORD_OFF	n/a	n/a	NEST	3	5	[0, 0, 0]	n/a	FR1	1	R1412M
866.984	1.601	1049920	WORD	n/a	wordpools/wordpool_long_EN.txt	SMOKE	4	5	[0, 0, 0]	n/a	FR1	1	R1412M
868.585	0.816	1051519	WORD_OFF	n/a	n/a	SMOKE	4	5	[0, 0, 0]	n/a	FR1	1	R1412M
869.401	1.599	1052331	WORD	n/a	wordpools/wordpool_long_EN.txt	INK	5	5	[0, 0, 0]	n/a	FR1	1	R1412M
871.0	0.967	1053930	WORD_OFF	n/a	n/a	INK	5	5	[0, 0, 0]	n/a	FR1	1	R1412M
871.967	1.6	1054908	WORD	n/a	wordpools/wordpool_long_EN.txt	WAVE	6	5	[0, 0, 0]	n/a	FR1	1	R1412M
873.567	0.917	1056506	WORD_OFF	n/a	n/a	WAVE	6	5	[0, 0, 0]	n/a	FR1	1	R1412M
874.484	1.6	1057415	WORD	n/a	wordpools/wordpool_long_EN.txt	SNAKE	7	5	[0, 0, 0]	n/a	FR1	1	R1412M
876.084	0.9	1059014	WORD_OFF	n/a	n/a	SNAKE	7	5	[0, 0, 0]	n/a	FR1	1	R1412M
876.984	1.617	1059923	WORD	n/a	wordpools/wordpool_long_EN.txt	MAT	8	5	[0, 0, 0]	n/a	FR1	1	R1412M
878.601	0.95	1061535	WORD_OFF	n/a	n/a	MAT	8	5	[0, 0, 0]	n/a	FR1	1	R1412M
879.551	1.6	1062486	WORD	n/a	wordpools/wordpool_long_EN.txt	GUARD	9	5	[0, 0, 0]	n/a	FR1	1	R1412M
881.151	0.8	1064084	WORD_OFF	n/a	n/a	GUARD	9	5	[0, 0, 0]	n/a	FR1	1	R1412M
881.951	1.6	1064883	WORD	n/a	wordpools/wordpool_long_EN.txt	CORD	10	5	[0, 0, 0]	n/a	FR1	1	R1412M
883.551	0.832	1066481	WORD_OFF	n/a	n/a	CORD	10	5	[0, 0, 0]	n/a	FR1	1	R1412M
884.383	1.601	1067322	WORD	n/a	wordpools/wordpool_long_EN.txt	BADGE	11	5	[0, 0, 0]	n/a	FR1	1	R1412M
885.984	0.983	1068920	WORD_OFF	n/a	n/a	BADGE	11	5	[0, 0, 0]	n/a	FR1	1	R1412M
886.967	1.6	1069898	WORD	n/a	wordpools/wordpool_long_EN.txt	JAIL	12	5	[0, 0, 0]	n/a	FR1	1	R1412M
888.567	0.001	1071496	WORD_OFF	n/a	n/a	JAIL	12	5	[0, 0, 0]	n/a	FR1	1	R1412M
888.568	0.0	1071496	ENCODING_END	n/a	n/a	n/a	-999	5	[0, 0, 0]	n/a	FR1	1	R1412M
888.568	0.001	1071500	PROB	0.001	n/a	n/a	-999	5	[2, 3, 5]	10	FR1	1	R1412M
888.569	0.0	1071501	START	n/a	n/a	n/a	-999	5	[-999, -999, -999]	n/a	FR1	1	R1412M
888.569	12.682	1071510	DISTRACT_START	n/a	n/a	n/a	-999	5	[0, 0, 0]	n/a	FR1	1	R1412M
901.251	6.117	1084183	PROB	6.117	n/a	n/a	-999	5	[4, 3, 4]	11	FR1	1	R1412M
907.368	6.182	1090300	PROB	6.182	n/a	n/a	-999	5	[2, 2, 4]	8	FR1	1	R1412M
913.55	0.0	1096481	STOP	n/a	n/a	n/a	-999	5	[-999, -999, -999]	n/a	FR1	1	R1412M
913.55	1.334	1096489	DISTRACT_END	n/a	n/a	n/a	-999	5	[0, 0, 0]	n/a	FR1	1	R1412M
914.884	3.541	1097812	REC_START	n/a	n/a	n/a	-999	5	[0, 0, 0]	n/a	FR1	1	R1412M
918.425	27.679	1101356	REC_WORD	27.679	n/a	CAT	-999	5	[0, 0, 0]	n/a	FR1	1	R1412M
946.104	34.88	1129032	REC_END	n/a	n/a	n/a	-999	5	[0, 0, 0]	n/a	FR1	1	R1412M
980.984	10.35	1163918	COUNTDOWN_START	n/a	n/a	n/a	-999	5	[0, 0, 0]	n/a	FR1	1	R1412M
991.334	0.0	1174265	COUNTDOWN_END	n/a	n/a	n/a	-999	5	[0, 0, 0]	n/a	FR1	1	R1412M
991.334	2.15	1174265	ENCODING_START	n/a	n/a	n/a	-999	6	[0, 0, 0]	n/a	FR1	1	R1412M
993.484	1.6	1176414	WORD	n/a	wordpools/wordpool_long_EN.txt	JUDGE	1	6	[0, 0, 0]	n/a	FR1	1	R1412M
995.084	0.867	1178012	WORD_OFF	n/a	n/a	JUDGE	1	6	[0, 0, 0]	n/a	FR1	1	R1412M
995.951	1.6	1178880	WORD	n/a	wordpools/wordpool_long_EN.txt	RAKE	2	6	[0, 0, 0]	n/a	FR1	1	R1412M
997.551	0.95	1180478	WORD_OFF	n/a	n/a	RAKE	2	6	[0, 0, 0]	n/a	FR1	1	R1412M
998.501	1.616	1181429	WORD	n/a	wordpools/wordpool_long_EN.txt	MEAT	3	6	[0, 0, 0]	n/a	FR1	1	R1412M
1000.117	0.933	1183041	WORD_OFF	n/a	n/a	MEAT	3	6	[0, 0, 0]	n/a	FR1	1	R1412M
1001.05	1.6	1183978	WORD	n/a	wordpools/wordpool_long_EN.txt	VEST	4	6	[0, 0, 0]	n/a	FR1	1	R1412M
1002.65	0.817	1185576	WORD_OFF	n/a	n/a	VEST	4	6	[0, 0, 0]	n/a	FR1	1	R1412M
1003.467	1.616	1186389	WORD	n/a	wordpools/wordpool_long_EN.txt	TOY	5	6	[0, 0, 0]	n/a	FR1	1	R1412M
1005.083	0.967	1188015	WORD_OFF	n/a	n/a	TOY	5	6	[0, 0, 0]	n/a	FR1	1	R1412M
1006.05	1.617	1188979	WORD	n/a	wordpools/wordpool_long_EN.txt	CAPE	6	6	[0, 0, 0]	n/a	FR1	1	R1412M
1007.667	0.966	1190591	WORD_OFF	n/a	n/a	CAPE	6	6	[0, 0, 0]	n/a	FR1	1	R1412M
1008.633	1.6	1191556	WORD	n/a	wordpools/wordpool_long_EN.txt	PEARL	7	6	[0, 0, 0]	n/a	FR1	1	R1412M
1010.233	0.95	1193168	WORD_OFF	n/a	n/a	PEARL	7	6	[0, 0, 0]	n/a	FR1	1	R1412M
1011.183	1.6	1194105	WORD	n/a	wordpools/wordpool_long_EN.txt	CHEST	8	6	[0, 0, 0]	n/a	FR1	1	R1412M
1012.783	0.95	1195717	WORD_OFF	n/a	n/a	CHEST	8	6	[0, 0, 0]	n/a	FR1	1	R1412M
1013.733	1.6	1196667	WORD	n/a	wordpools/wordpool_long_EN.txt	RAT	9	6	[0, 0, 0]	n/a	FR1	1	R1412M
1015.333	0.934	1198266	WORD_OFF	n/a	n/a	RAT	9	6	[0, 0, 0]	n/a	FR1	1	R1412M
1016.267	1.616	1199189	WORD	n/a	wordpools/wordpool_long_EN.txt	STREET	10	6	[0, 0, 0]	n/a	FR1	1	R1412M
1017.883	0.967	1200814	WORD_OFF	n/a	n/a	STREET	10	6	[0, 0, 0]	n/a	FR1	1	R1412M
1018.85	1.6	1201779	WORD	n/a	wordpools/wordpool_long_EN.txt	LIP	11	6	[0, 0, 0]	n/a	FR1	1	R1412M
1020.45	0.983	1203377	WORD_OFF	n/a	n/a	LIP	11	6	[0, 0, 0]	n/a	FR1	1	R1412M
1021.433	1.6	1204355	WORD	n/a	wordpools/wordpool_long_EN.txt	TROUT	12	6	[0, 0, 0]	n/a	FR1	1	R1412M
1023.033	0.0	1205954	WORD_OFF	n/a	n/a	TROUT	12	6	[0, 0, 0]	n/a	FR1	1	R1412M
1023.033	0.002	1205959	PROB	0.002	n/a	n/a	-999	6	[1, 4, 4]	9	FR1	1	R1412M
1023.035	0.0	1205961	START	n/a	n/a	n/a	-999	6	[-999, -999, -999]	n/a	FR1	1	R1412M
1023.034	0.001	1205967	ENCODING_END	n/a	n/a	n/a	-999	6	[0, 0, 0]	n/a	FR1	1	R1412M
1023.035	6.318	1205967	DISTRACT_START	n/a	n/a	n/a	-999	6	[0, 0, 0]	n/a	FR1	1	R1412M
1029.353	9.182	1212279	PROB	9.182	n/a	n/a	-999	6	[1, 4, 7]	12	FR1	1	R1412M
1038.535	8.866	1221460	PROB	8.866	n/a	n/a	-999	6	[8, 2, 8]	18	FR1	1	R1412M
1047.401	0.0	1230326	DISTRACT_END	n/a	n/a	n/a	-999	6	[0, 0, 0]	n/a	FR1	1	R1412M
1047.401	1.032	1230326	STOP	n/a	n/a	n/a	-999	6	[-999, -999, -999]	n/a	FR1	1	R1412M
1048.433	0.613	1231360	REC_START	n/a	n/a	n/a	-999	6	[0, 0, 0]	n/a	FR1	1	R1412M
1049.046	1.318	1231971	REC_WORD	1.318	n/a	JUDGE	1	6	[0, 0, 0]	n/a	FR1	1	R1412M
1050.364	3.685	1233289	REC_WORD	3.685	n/a	RAKE	2	6	[0, 0, 0]	n/a	FR1	1	R1412M
1054.049	11.834	1236973	REC_WORD	11.834	n/a	STREET	10	6	[0, 0, 0]	n/a	FR1	1	R1412M
1065.883	13.749	1248807	REC_WORD	13.749	n/a	LIP	11	6	[0, 0, 0]	n/a	FR1	1	R1412M
1079.632	19.885	1262553	REC_END	n/a	n/a	n/a	-999	6	[0, 0, 0]	n/a	FR1	1	R1412M
1099.517	10.351	1282448	COUNTDOWN_START	n/a	n/a	n/a	-999	6	[0, 0, 0]	n/a	FR1	1	R1412M
1109.868	0.0	1292795	COUNTDOWN_END	n/a	n/a	n/a	-999	6	[0, 0, 0]	n/a	FR1	1	R1412M
1109.868	2.016	1292795	ENCODING_START	n/a	n/a	n/a	-999	7	[0, 0, 0]	n/a	FR1	1	R1412M
1111.884	1.616	1294806	WORD	n/a	wordpools/wordpool_long_EN.txt	CHALK	1	7	[0, 0, 0]	n/a	FR1	1	R1412M
1113.5	0.833	1296418	WORD_OFF	n/a	n/a	CHALK	1	7	[0, 0, 0]	n/a	FR1	1	R1412M
1114.333	1.6	1297259	WORD	n/a	wordpools/wordpool_long_EN.txt	STEM	2	7	[0, 0, 0]	n/a	FR1	1	R1412M
1115.933	0.817	1298857	WORD_OFF	n/a	n/a	STEM	2	7	[0, 0, 0]	n/a	FR1	1	R1412M
1116.75	1.617	1299670	WORD	n/a	wordpools/wordpool_long_EN.txt	CLIFF	3	7	[0, 0, 0]	n/a	FR1	1	R1412M
1118.367	0.8	1301296	WORD_OFF	n/a	n/a	CLIFF	3	7	[0, 0, 0]	n/a	FR1	1	R1412M
1119.167	1.6	1302095	WORD	n/a	wordpools/wordpool_long_EN.txt	GIRL	4	7	[0, 0, 0]	n/a	FR1	1	R1412M
1120.767	0.85	1303693	WORD_OFF	n/a	n/a	GIRL	4	7	[0, 0, 0]	n/a	FR1	1	R1412M
1121.617	1.6	1304533	WORD	n/a	wordpools/wordpool_long_EN.txt	TRENCH	5	7	[0, 0, 0]	n/a	FR1	1	R1412M
1123.217	0.817	1306145	WORD_OFF	n/a	n/a	TRENCH	5	7	[0, 0, 0]	n/a	FR1	1	R1412M
1124.034	1.6	1306958	WORD	n/a	wordpools/wordpool_long_EN.txt	GLOBE	6	7	[0, 0, 0]	n/a	FR1	1	R1412M
1125.634	0.783	1308557	WORD_OFF	n/a	n/a	GLOBE	6	7	[0, 0, 0]	n/a	FR1	1	R1412M
1126.417	1.617	1309342	WORD	n/a	wordpools/wordpool_long_EN.txt	CHIN	7	7	[0, 0, 0]	n/a	FR1	1	R1412M
1128.034	0.883	1310954	WORD_OFF	n/a	n/a	CHIN	7	7	[0, 0, 0]	n/a	FR1	1	R1412M
1128.917	1.6	1311836	WORD	n/a	wordpools/wordpool_long_EN.txt	MOON	8	7	[0, 0, 0]	n/a	FR1	1	R1412M
1130.517	0.833	1313434	WORD_OFF	n/a	n/a	MOON	8	7	[0, 0, 0]	n/a	FR1	1	R1412M
1131.35	1.601	1314274	WORD	n/a	wordpools/wordpool_long_EN.txt	SINK	9	7	[0, 0, 0]	n/a	FR1	1	R1412M
1132.951	0.883	1315873	WORD_OFF	n/a	n/a	SINK	9	7	[0, 0, 0]	n/a	FR1	1	R1412M
1133.834	1.6	1316754	WORD	n/a	wordpools/wordpool_long_EN.txt	PIPE	10	7	[0, 0, 0]	n/a	FR1	1	R1412M
1135.434	0.95	1318353	WORD_OFF	n/a	n/a	PIPE	10	7	[0, 0, 0]	n/a	FR1	1	R1412M
1136.384	1.6	1319303	WORD	n/a	wordpools/wordpool_long_EN.txt	SHELL	11	7	[0, 0, 0]	n/a	FR1	1	R1412M
1137.984	0.916	1320901	WORD_OFF	n/a	n/a	SHELL	11	7	[0, 0, 0]	n/a	FR1	1	R1412M
1138.9	1.616	1321825	WORD	n/a	wordpools/wordpool_long_EN.txt	CHURCH	12	7	[0, 0, 0]	n/a	FR1	1	R1412M
1140.516	0.002	1323437	WORD_OFF	n/a	n/a	CHURCH	12	7	[0, 0, 0]	n/a	FR1	1	R1412M
1140.518	0.0	1323437	ENCODING_END	n/a	n/a	n/a	-999	7	[0, 0, 0]	n/a	FR1	1	R1412M
1140.518	0.0	1323437	DISTRACT_START	n/a	n/a	n/a	-999	7	[0, 0, 0]	n/a	FR1	1	R1412M
1140.517	0.001	1323437	PROB	0.001	n/a	n/a	-999	7	[3, 4, 5]	12	FR1	1	R1412M
1140.518	8.883	1323438	START	n/a	n/a	n/a	-999	7	[-999, -999, -999]	n/a	FR1	1	R1412M
1149.401	7.45	1332321	PROB	7.45	n/a	n/a	-999	7	[6, 4, 5]	15	FR1	1	R1412M
1156.851	6.749	1339771	PROB	6.749	n/a	n/a	-999	7	[1, 5, 2]	8	FR1	1	R1412M
1163.6	0.0	1346514	DISTRACT_END	n/a	n/a	n/a	-999	7	[0, 0, 0]	n/a	FR1	1	R1412M
1163.6	1.3	1346519	STOP	n/a	n/a	n/a	-999	7	[-999, -999, -999]	n/a	FR1	1	R1412M
1164.9	0.376	1347823	REC_START	n/a	n/a	n/a	-999	7	[0, 0, 0]	n/a	FR1	1	R1412M
1165.276	1.385	1348195	REC_WORD	1.385	n/a	CLIFF	3	7	[0, 0, 0]	n/a	FR1	1	R1412M
1166.661	2.705	1349580	REC_WORD	2.705	n/a	GIRL	4	7	[0, 0, 0]	n/a	FR1	1	R1412M
1169.366	2.25	1352285	REC_WORD	2.25	n/a	TALK	-999	7	[0, 0, 0]	n/a	FR1	1	R1412M
1171.616	24.493	1354535	REC_WORD	24.493	n/a	CHALK	1	7	[0, 0, 0]	n/a	FR1	1	R1412M
1196.109	17.208	1379030	REC_END	n/a	n/a	n/a	-999	7	[0, 0, 0]	n/a	FR1	1	R1412M
1213.317	10.35	1396238	COUNTDOWN_START	n/a	n/a	n/a	-999	7	[0, 0, 0]	n/a	FR1	1	R1412M
1223.667	0.0	1406585	COUNTDOWN_END	n/a	n/a	n/a	-999	7	[0, 0, 0]	n/a	FR1	1	R1412M
1223.667	2.1	1406585	ENCODING_START	n/a	n/a	n/a	-999	8	[0, 0, 0]	n/a	FR1	1	R1412M
1225.767	1.6	1408680	WORD	n/a	wordpools/wordpool_long_EN.txt	PET	1	8	[0, 0, 0]	n/a	FR1	1	R1412M
1227.367	0.917	1410278	WORD_OFF	n/a	n/a	PET	1	8	[0, 0, 0]	n/a	FR1	1	R1412M
1228.284	1.6	1411201	WORD	n/a	wordpools/wordpool_long_EN.txt	SUN	2	8	[0, 0, 0]	n/a	FR1	1	R1412M
1229.884	0.766	1412799	WORD_OFF	n/a	n/a	SUN	2	8	[0, 0, 0]	n/a	FR1	1	R1412M
1230.65	1.617	1413571	WORD	n/a	wordpools/wordpool_long_EN.txt	MAP	3	8	[0, 0, 0]	n/a	FR1	1	R1412M
1232.267	0.967	1415183	WORD_OFF	n/a	n/a	MAP	3	8	[0, 0, 0]	n/a	FR1	1	R1412M
1233.234	1.6	1416147	WORD	n/a	wordpools/wordpool_long_EN.txt	BLOOM	4	8	[0, 0, 0]	n/a	FR1	1	R1412M
1234.834	0.833	1417745	WORD_OFF	n/a	n/a	BLOOM	4	8	[0, 0, 0]	n/a	FR1	1	R1412M
1235.667	1.617	1418586	WORD	n/a	wordpools/wordpool_long_EN.txt	BREAD	5	8	[0, 0, 0]	n/a	FR1	1	R1412M
1237.284	0.85	1420198	WORD_OFF	n/a	n/a	BREAD	5	8	[0, 0, 0]	n/a	FR1	1	R1412M
1238.134	1.6	1421052	WORD	n/a	wordpools/wordpool_long_EN.txt	NAIL	6	8	[0, 0, 0]	n/a	FR1	1	R1412M
1239.734	0.833	1422650	WORD_OFF	n/a	n/a	NAIL	6	8	[0, 0, 0]	n/a	FR1	1	R1412M
1240.567	1.6	1423477	WORD	n/a	wordpools/wordpool_long_EN.txt	SKUNK	7	8	[0, 0, 0]	n/a	FR1	1	R1412M
1242.167	0.783	1425089	WORD_OFF	n/a	n/a	SKUNK	7	8	[0, 0, 0]	n/a	FR1	1	R1412M
1242.95	1.601	1425860	WORD	n/a	wordpools/wordpool_long_EN.txt	MOLE	8	8	[0, 0, 0]	n/a	FR1	1	R1412M
1244.551	0.85	1427472	WORD_OFF	n/a	n/a	MOLE	8	8	[0, 0, 0]	n/a	FR1	1	R1412M
1245.401	1.616	1428313	WORD	n/a	wordpools/wordpool_long_EN.txt	TART	9	8	[0, 0, 0]	n/a	FR1	1	R1412M
1247.017	0.85	1429939	WORD_OFF	n/a	n/a	TART	9	8	[0, 0, 0]	n/a	FR1	1	R1412M
1247.867	1.6	1430779	WORD	n/a	wordpools/wordpool_long_EN.txt	POND	10	8	[0, 0, 0]	n/a	FR1	1	R1412M
1249.467	0.949	1432377	WORD_OFF	n/a	n/a	POND	10	8	[0, 0, 0]	n/a	FR1	1	R1412M
1250.416	1.601	1433328	WORD	n/a	wordpools/wordpool_long_EN.txt	FLAG	11	8	[0, 0, 0]	n/a	FR1	1	R1412M
1252.017	0.767	1434926	WORD_OFF	n/a	n/a	FLAG	11	8	[0, 0, 0]	n/a	FR1	1	R1412M
1252.784	1.6	1435698	WORD	n/a	wordpools/wordpool_long_EN.txt	SNAIL	12	8	[0, 0, 0]	n/a	FR1	1	R1412M
1254.384	0.001	1437296	WORD_OFF	n/a	n/a	SNAIL	12	8	[0, 0, 0]	n/a	FR1	1	R1412M
1254.385	0.0	1437296	ENCODING_END	n/a	n/a	n/a	-999	8	[0, 0, 0]	n/a	FR1	1	R1412M
1254.384	0.001	1437299	PROB	0.001	n/a	n/a	-999	8	[8, 7, 5]	20	FR1	1	R1412M
1254.385	0.0	1437300	START	n/a	n/a	n/a	-999	8	[-999, -999, -999]	n/a	FR1	1	R1412M
1254.385	6.549	1437310	DISTRACT_START	n/a	n/a	n/a	-999	8	[0, 0, 0]	n/a	FR1	1	R1412M
1260.934	10.667	1443848	PROB	10.667	n/a	n/a	-999	8	[4, 8, 3]	15	FR1	1	R1412M
1271.601	7.115	1454515	PROB	7.115	n/a	n/a	-999	8	[5, 3, 7]	15	FR1	1	R1412M
1278.716	0.0	1461628	DISTRACT_END	n/a	n/a	n/a	-999	8	[0, 0, 0]	n/a	FR1	1	R1412M
1278.716	1.25	1461630	STOP	n/a	n/a	n/a	-999	8	[-999, -999, -999]	n/a	FR1	1	R1412M
1279.966	0.0	1462880	REC_WORD	0.0	n/a	SUN	2	8	[0, 0, 0]	n/a	FR1	1	R1412M
1279.966	1.233	1462881	REC_START	n/a	n/a	n/a	-999	8	[0, 0, 0]	n/a	FR1	1	R1412M
1281.199	1.171	1464113	REC_WORD	1.171	n/a	NAIL	6	8	[0, 0, 0]	n/a	FR1	1	R1412M
1282.37	2.46	1465283	REC_WORD	2.46	n/a	SNAIL	12	8	[0, 0, 0]	n/a	FR1	1	R1412M
1284.83	20.826	1467743	REC_WORD	20.826	n/a	MOON	-999	8	[0, 0, 0]	n/a	FR1	1	R1412M
1305.656	5.523	1488568	REC_WORD	5.523	n/a	POND	10	8	[0, 0, 0]	n/a	FR1	1	R1412M
1311.179	27.055	1494088	REC_END	n/a	n/a	n/a	-999	8	[0, 0, 0]	n/a	FR1	1	R1412M
1338.234	10.351	1521147	COUNTDOWN_START	n/a	n/a	n/a	-999	8	[0, 0, 0]	n/a	FR1	1	R1412M
1348.585	0.0	1531495	COUNTDOWN_END	n/a	n/a	n/a	-999	8	[0, 0, 0]	n/a	FR1	1	R1412M
1348.585	1.965	1531495	ENCODING_START	n/a	n/a	n/a	-999	9	[0, 0, 0]	n/a	FR1	1	R1412M
1350.55	1.617	1533465	WORD	n/a	wordpools/wordpool_long_EN.txt	POOL	1	9	[0, 0, 0]	n/a	FR1	1	R1412M
1352.167	0.95	1535077	WORD_OFF	n/a	n/a	POOL	1	9	[0, 0, 0]	n/a	FR1	1	R1412M
1353.117	1.616	1536027	WORD	n/a	wordpools/wordpool_long_EN.txt	RICE	2	9	[0, 0, 0]	n/a	FR1	1	R1412M
1354.733	0.984	1537639	WORD_OFF	n/a	n/a	RICE	2	9	[0, 0, 0]	n/a	FR1	1	R1412M
1355.717	1.599	1538631	WORD	n/a	wordpools/wordpool_long_EN.txt	BEEF	3	9	[0, 0, 0]	n/a	FR1	1	R1412M
1357.316	0.817	1540230	WORD_OFF	n/a	n/a	BEEF	3	9	[0, 0, 0]	n/a	FR1	1	R1412M
1358.133	1.6	1541043	WORD	n/a	wordpools/wordpool_long_EN.txt	SPONGE	4	9	[0, 0, 0]	n/a	FR1	1	R1412M
1359.733	0.8	1542641	WORD_OFF	n/a	n/a	SPONGE	4	9	[0, 0, 0]	n/a	FR1	1	R1412M
1360.533	1.617	1543440	WORD	n/a	wordpools/wordpool_long_EN.txt	CAGE	5	9	[0, 0, 0]	n/a	FR1	1	R1412M
1362.15	0.816	1545066	WORD_OFF	n/a	n/a	CAGE	5	9	[0, 0, 0]	n/a	FR1	1	R1412M
1362.966	1.6	1545879	WORD	n/a	wordpools/wordpool_long_EN.txt	SPOOL	6	9	[0, 0, 0]	n/a	FR1	1	R1412M
1364.566	0.817	1547477	WORD_OFF	n/a	n/a	SPOOL	6	9	[0, 0, 0]	n/a	FR1	1	R1412M
1365.383	1.617	1548290	WORD	n/a	wordpools/wordpool_long_EN.txt	SLIDE	7	9	[0, 0, 0]	n/a	FR1	1	R1412M
1367.0	0.867	1549915	WORD_OFF	n/a	n/a	SLIDE	7	9	[0, 0, 0]	n/a	FR1	1	R1412M
1367.867	1.6	1550783	WORD	n/a	wordpools/wordpool_long_EN.txt	THREAD	8	9	[0, 0, 0]	n/a	FR1	1	R1412M
1369.467	1.0	1552382	WORD_OFF	n/a	n/a	THREAD	8	9	[0, 0, 0]	n/a	FR1	1	R1412M
1370.467	1.6	1553374	WORD	n/a	wordpools/wordpool_long_EN.txt	OAR	9	9	[0, 0, 0]	n/a	FR1	1	R1412M
1372.067	0.967	1554972	WORD_OFF	n/a	n/a	OAR	9	9	[0, 0, 0]	n/a	FR1	1	R1412M
1373.034	1.601	1555950	WORD	n/a	wordpools/wordpool_long_EN.txt	SMOG	10	9	[0, 0, 0]	n/a	FR1	1	R1412M
1374.635	0.832	1557548	WORD_OFF	n/a	n/a	SMOG	10	9	[0, 0, 0]	n/a	FR1	1	R1412M
1375.467	1.6	1558375	WORD	n/a	wordpools/wordpool_long_EN.txt	SHIP	11	9	[0, 0, 0]	n/a	FR1	1	R1412M
1377.067	0.8	1559973	WORD_OFF	n/a	n/a	SHIP	11	9	[0, 0, 0]	n/a	FR1	1	R1412M
1377.867	1.617	1560772	WORD	n/a	wordpools/wordpool_long_EN.txt	STONE	12	9	[0, 0, 0]	n/a	FR1	1	R1412M
1379.484	0.001	1562393	PROB	0.001	n/a	n/a	-999	9	[3, 6, 4]	13	FR1	1	R1412M
1379.485	0.0	1562394	START	n/a	n/a	n/a	-999	9	[-999, -999, -999]	n/a	FR1	1	R1412M
1379.484	0.001	1562398	WORD_OFF	n/a	n/a	STONE	12	9	[0, 0, 0]	n/a	FR1	1	R1412M
1379.485	0.0	1562398	ENCODING_END	n/a	n/a	n/a	-999	9	[0, 0, 0]	n/a	FR1	1	R1412M
1379.485	12.4	1562398	DISTRACT_START	n/a	n/a	n/a	-999	9	[0, 0, 0]	n/a	FR1	1	R1412M
1391.885	5.633	1574793	PROB	5.633	n/a	n/a	-999	9	[4, 4, 3]	11	FR1	1	R1412M
1397.518	4.399	1580426	PROB	4.399	n/a	n/a	-999	9	[4, 4, 4]	12	FR1	1	R1412M
1401.917	0.0	1584825	STOP	n/a	n/a	n/a	-999	9	[-999, -999, -999]	n/a	FR1	1	R1412M
1401.917	1.084	1584828	DISTRACT_END	n/a	n/a	n/a	-999	9	[0, 0, 0]	n/a	FR1	1	R1412M
1403.001	0.521	1585903	REC_START	n/a	n/a	n/a	-999	9	[0, 0, 0]	n/a	FR1	1	R1412M
1403.522	0.931	1586430	REC_WORD	0.931	n/a	SPONGE	4	9	[0, 0, 0]	n/a	FR1	1	R1412M
1404.453	29.775	1587361	REC_WORD	29.775	n/a	SLIDE	7	9	[0, 0, 0]	n/a	FR1	1	R1412M
1434.228	26.556	1617137	REC_END	n/a	n/a	n/a	-999	9	[0, 0, 0]	n/a	FR1	1	R1412M
1460.784	10.35	1643687	COUNTDOWN_START	n/a	n/a	n/a	-999	9	[0, 0, 0]	n/a	FR1	1	R1412M
1471.134	0.001	1654034	COUNTDOWN_END	n/a	n/a	n/a	-999	9	[0, 0, 0]	n/a	FR1	1	R1412M
1471.135	1.898	1654048	ENCODING_START	n/a	n/a	n/a	-999	10	[0, 0, 0]	n/a	FR1	1	R1412M
1473.033	1.601	1655935	WORD	n/a	wordpools/wordpool_long_EN.txt	BRICK	1	10	[0, 0, 0]	n/a	FR1	1	R1412M
1474.634	0.833	1657534	WORD_OFF	n/a	n/a	BRICK	1	10	[0, 0, 0]	n/a	FR1	1	R1412M
1475.467	1.6	1658374	WORD	n/a	wordpools/wordpool_long_EN.txt	THRONE	2	10	[0, 0, 0]	n/a	FR1	1	R1412M
1477.067	0.8	1659972	WORD_OFF	n/a	n/a	THRONE	2	10	[0, 0, 0]	n/a	FR1	1	R1412M
1477.867	1.6	1660771	WORD	n/a	wordpools/wordpool_long_EN.txt	CROSS	3	10	[0, 0, 0]	n/a	FR1	1	R1412M
1479.467	0.967	1662370	WORD_OFF	n/a	n/a	CROSS	3	10	[0, 0, 0]	n/a	FR1	1	R1412M
1480.434	1.6	1663334	WORD	n/a	wordpools/wordpool_long_EN.txt	ARCH	4	10	[0, 0, 0]	n/a	FR1	1	R1412M
1482.034	0.933	1664932	WORD_OFF	n/a	n/a	ARCH	4	10	[0, 0, 0]	n/a	FR1	1	R1412M
1482.967	1.6	1665869	WORD	n/a	wordpools/wordpool_long_EN.txt	LODGE	5	10	[0, 0, 0]	n/a	FR1	1	R1412M
1484.567	0.934	1667467	WORD_OFF	n/a	n/a	LODGE	5	10	[0, 0, 0]	n/a	FR1	1	R1412M
1485.501	1.616	1668404	WORD	n/a	wordpools/wordpool_long_EN.txt	ELF	6	10	[0, 0, 0]	n/a	FR1	1	R1412M
1487.117	0.817	1670016	WORD_OFF	n/a	n/a	ELF	6	10	[0, 0, 0]	n/a	FR1	1	R1412M
1487.934	1.6	1670843	WORD	n/a	wordpools/wordpool_long_EN.txt	BRUSH	7	10	[0, 0, 0]	n/a	FR1	1	R1412M
1489.534	0.85	1672441	WORD_OFF	n/a	n/a	BRUSH	7	10	[0, 0, 0]	n/a	FR1	1	R1412M
1490.384	1.6	1673295	WORD	n/a	wordpools/wordpool_long_EN.txt	VASE	8	10	[0, 0, 0]	n/a	FR1	1	R1412M
1491.984	0.8	1674894	WORD_OFF	n/a	n/a	VASE	8	10	[0, 0, 0]	n/a	FR1	1	R1412M
1492.784	1.616	1675693	WORD	n/a	wordpools/wordpool_long_EN.txt	FRAME	9	10	[0, 0, 0]	n/a	FR1	1	R1412M
1494.4	0.834	1677305	WORD_OFF	n/a	n/a	FRAME	9	10	[0, 0, 0]	n/a	FR1	1	R1412M
1495.234	1.616	1678131	WORD	n/a	wordpools/wordpool_long_EN.txt	PLATE	10	10	[0, 0, 0]	n/a	FR1	1	R1412M
1496.85	0.951	1679757	WORD_OFF	n/a	n/a	PLATE	10	10	[0, 0, 0]	n/a	FR1	1	R1412M
1497.801	1.599	1680708	WORD	n/a	wordpools/wordpool_long_EN.txt	CRIB	11	10	[0, 0, 0]	n/a	FR1	1	R1412M
1499.4	0.884	1682306	WORD_OFF	n/a	n/a	CRIB	11	10	[0, 0, 0]	n/a	FR1	1	R1412M
1500.284	1.616	1683188	WORD	n/a	wordpools/wordpool_long_EN.txt	THUMB	12	10	[0, 0, 0]	n/a	FR1	1	R1412M
1501.9	0.002	1684800	WORD_OFF	n/a	n/a	THUMB	12	10	[0, 0, 0]	n/a	FR1	1	R1412M
1501.902	0.0	1684800	ENCODING_END	n/a	n/a	n/a	-999	10	[0, 0, 0]	n/a	FR1	1	R1412M
1501.9	0.002	1684803	PROB	0.002	n/a	n/a	-999	10	[2, 5, 8]	15	FR1	1	R1412M
1501.902	0.0	1684805	START	n/a	n/a	n/a	-999	10	[-999, -999, -999]	n/a	FR1	1	R1412M
1501.902	5.916	1684814	DISTRACT_START	n/a	n/a	n/a	-999	10	[0, 0, 0]	n/a	FR1	1	R1412M
1507.818	5.082	1690721	PROB	5.082	n/a	n/a	-999	10	[6, 5, 1]	12	FR1	1	R1412M
1512.9	8.268	1695802	PROB	8.268	n/a	n/a	-999	10	[7, 4, 5]	16	FR1	1	R1412M
1521.168	6.065	1704070	PROB	6.065	n/a	n/a	-999	10	[6, 1, 2]	9	FR1	1	R1412M
1527.233	0.0	1710135	STOP	n/a	n/a	n/a	-999	10	[-999, -999, -999]	n/a	FR1	1	R1412M
1527.233	1.383	1710137	DISTRACT_END	n/a	n/a	n/a	-999	10	[0, 0, 0]	n/a	FR1	1	R1412M
1528.616	1.149	1711515	REC_START	n/a	n/a	n/a	-999	10	[0, 0, 0]	n/a	FR1	1	R1412M
1529.765	3.782	1712667	REC_WORD	3.782	n/a	LODGE	5	10	[0, 0, 0]	n/a	FR1	1	R1412M
1533.547	26.272	1716448	REC_WORD	26.272	n/a	THUMB	12	10	[0, 0, 0]	n/a	FR1	1	R1412M
1559.819	11.481	1742721	REC_END	n/a	n/a	n/a	-999	10	[0, 0, 0]	n/a	FR1	1	R1412M
1571.3	10.351	1754198	COUNTDOWN_START	n/a	n/a	n/a	-999	10	[0, 0, 0]	n/a	FR1	1	R1412M
1581.651	0.0	1764545	COUNTDOWN_END	n/a	n/a	n/a	-999	10	[0, 0, 0]	n/a	FR1	1	R1412M
1581.651	2.016	1764559	ENCODING_START	n/a	n/a	n/a	-999	11	[0, 0, 0]	n/a	FR1	1	R1412M
1583.667	1.617	1766571	WORD	n/a	wordpools/wordpool_long_EN.txt	MUG	1	11	[0, 0, 0]	n/a	FR1	1	R1412M
1585.284	0.966	1768183	WORD_OFF	n/a	n/a	MUG	1	11	[0, 0, 0]	n/a	FR1	1	R1412M
1586.25	1.6	1769147	WORD	n/a	wordpools/wordpool_long_EN.txt	VAULT	2	11	[0, 0, 0]	n/a	FR1	1	R1412M
1587.85	0.983	1770745	WORD_OFF	n/a	n/a	VAULT	2	11	[0, 0, 0]	n/a	FR1	1	R1412M
1588.833	1.617	1771737	WORD	n/a	wordpools/wordpool_long_EN.txt	WHEEL	3	11	[0, 0, 0]	n/a	FR1	1	R1412M
1590.45	1.0	1773349	WORD_OFF	n/a	n/a	WHEEL	3	11	[0, 0, 0]	n/a	FR1	1	R1412M
1591.45	1.617	1774355	WORD	n/a	wordpools/wordpool_long_EN.txt	BUG	4	11	[0, 0, 0]	n/a	FR1	1	R1412M
1593.067	0.95	1775967	WORD_OFF	n/a	n/a	BUG	4	11	[0, 0, 0]	n/a	FR1	1	R1412M
1594.017	1.616	1776918	WORD	n/a	wordpools/wordpool_long_EN.txt	TOOL	5	11	[0, 0, 0]	n/a	FR1	1	R1412M
1595.633	0.967	1778530	WORD_OFF	n/a	n/a	TOOL	5	11	[0, 0, 0]	n/a	FR1	1	R1412M
1596.6	1.617	1779494	WORD	n/a	wordpools/wordpool_long_EN.txt	SLUSH	6	11	[0, 0, 0]	n/a	FR1	1	R1412M
1598.217	0.883	1781120	WORD_OFF	n/a	n/a	SLUSH	6	11	[0, 0, 0]	n/a	FR1	1	R1412M
1599.1	1.617	1782002	WORD	n/a	wordpools/wordpool_long_EN.txt	WOOD	7	11	[0, 0, 0]	n/a	FR1	1	R1412M
1600.717	0.883	1783614	WORD_OFF	n/a	n/a	WOOD	7	11	[0, 0, 0]	n/a	FR1	1	R1412M
1601.6	1.6	1784496	WORD	n/a	wordpools/wordpool_long_EN.txt	EGG	8	11	[0, 0, 0]	n/a	FR1	1	R1412M
1603.2	1.0	1786094	WORD_OFF	n/a	n/a	EGG	8	11	[0, 0, 0]	n/a	FR1	1	R1412M
1604.2	1.617	1787100	WORD	n/a	wordpools/wordpool_long_EN.txt	MULE	9	11	[0, 0, 0]	n/a	FR1	1	R1412M
1605.817	1.0	1788712	WORD_OFF	n/a	n/a	MULE	9	11	[0, 0, 0]	n/a	FR1	1	R1412M
1606.817	1.616	1789717	WORD	n/a	wordpools/wordpool_long_EN.txt	BAND	10	11	[0, 0, 0]	n/a	FR1	1	R1412M
1608.433	0.784	1791329	WORD_OFF	n/a	n/a	BAND	10	11	[0, 0, 0]	n/a	FR1	1	R1412M
1609.217	1.616	1792115	WORD	n/a	wordpools/wordpool_long_EN.txt	CART	11	11	[0, 0, 0]	n/a	FR1	1	R1412M
1610.833	0.817	1793727	WORD_OFF	n/a	n/a	CART	11	11	[0, 0, 0]	n/a	FR1	1	R1412M
1611.65	1.6	1794553	WORD	n/a	wordpools/wordpool_long_EN.txt	ROD	12	11	[0, 0, 0]	n/a	FR1	1	R1412M
1613.25	0.001	1796147	PROB	0.001	n/a	n/a	-999	11	[8, 1, 2]	11	FR1	1	R1412M
1613.251	0.0	1796148	START	n/a	n/a	n/a	-999	11	[-999, -999, -999]	n/a	FR1	1	R1412M
1613.25	0.001	1796152	WORD_OFF	n/a	n/a	ROD	12	11	[0, 0, 0]	n/a	FR1	1	R1412M
1613.251	0.0	1796152	ENCODING_END	n/a	n/a	n/a	-999	11	[0, 0, 0]	n/a	FR1	1	R1412M
1613.251	5.399	1796152	DISTRACT_START	n/a	n/a	n/a	-999	11	[0, 0, 0]	n/a	FR1	1	R1412M
1618.65	6.185	1801547	PROB	6.185	n/a	n/a	-999	11	[3, 1, 6]	10	FR1	1	R1412M
1624.835	6.532	1807732	PROB	6.532	n/a	n/a	-999	11	[5, 2, 3]	10	FR1	1	R1412M
1631.367	4.533	1814264	PROB	4.533	n/a	n/a	-999	11	[3, 1, 2]	6	FR1	1	R1412M
1635.9	0.0	1818796	STOP	n/a	n/a	n/a	-999	11	[-999, -999, -999]	n/a	FR1	1	R1412M
1635.9	1.367	1818802	DISTRACT_END	n/a	n/a	n/a	-999	11	[0, 0, 0]	n/a	FR1	1	R1412M
1637.267	1.355	1820166	REC_START	n/a	n/a	n/a	-999	11	[0, 0, 0]	n/a	FR1	1	R1412M
1638.622	3.258	1821518	REC_WORD	3.258	n/a	RUG	-999	11	[0, 0, 0]	n/a	FR1	1	R1412M
1641.88	5.993	1824776	REC_WORD	5.993	n/a	CART	11	11	[0, 0, 0]	n/a	FR1	1	R1412M
1647.873	5.092	1830769	REC_WORD	5.092	n/a	MUG	1	11	[0, 0, 0]	n/a	FR1	1	R1412M
1652.965	15.534	1835861	REC_WORD	15.534	n/a	SMUG	-999	11	[0, 0, 0]	n/a	FR1	1	R1412M
1668.499	9.885	1851401	REC_END	n/a	n/a	n/a	-999	11	[0, 0, 0]	n/a	FR1	1	R1412M
1678.384	10.35	1861279	COUNTDOWN_START	n/a	n/a	n/a	-999	11	[0, 0, 0]	n/a	FR1	1	R1412M
1688.734	0.0	1871626	COUNTDOWN_END	n/a	n/a	n/a	-999	11	[0, 0, 0]	n/a	FR1	1	R1412M
1688.734	2.033	1871626	ENCODING_START	n/a	n/a	n/a	-999	12	[0, 0, 0]	n/a	FR1	1	R1412M
1690.767	1.6	1873665	WORD	n/a	wordpools/wordpool_long_EN.txt	VINE	1	12	[0, 0, 0]	n/a	FR1	1	R1412M
1692.367	0.834	1875264	WORD_OFF	n/a	n/a	VINE	1	12	[0, 0, 0]	n/a	FR1	1	R1412M
1693.201	1.6	1876090	WORD	n/a	wordpools/wordpool_long_EN.txt	WAND	2	12	[0, 0, 0]	n/a	FR1	1	R1412M
1694.801	0.983	1877688	WORD_OFF	n/a	n/a	WAND	2	12	[0, 0, 0]	n/a	FR1	1	R1412M
1695.784	1.617	1878680	WORD	n/a	wordpools/wordpool_long_EN.txt	SEED	3	12	[0, 0, 0]	n/a	FR1	1	R1412M
1697.401	0.849	1880292	WORD_OFF	n/a	n/a	SEED	3	12	[0, 0, 0]	n/a	FR1	1	R1412M
1698.25	1.6	1881147	WORD	n/a	wordpools/wordpool_long_EN.txt	WOLF	4	12	[0, 0, 0]	n/a	FR1	1	R1412M
1699.85	0.967	1882745	WORD_OFF	n/a	n/a	WOLF	4	12	[0, 0, 0]	n/a	FR1	1	R1412M
1700.817	1.616	1883709	WORD	n/a	wordpools/wordpool_long_EN.txt	YOLK	5	12	[0, 0, 0]	n/a	FR1	1	R1412M
1702.433	0.884	1885321	WORD_OFF	n/a	n/a	YOLK	5	12	[0, 0, 0]	n/a	FR1	1	R1412M
1703.317	1.616	1886217	WORD	n/a	wordpools/wordpool_long_EN.txt	CROWN	6	12	[0, 0, 0]	n/a	FR1	1	R1412M
1704.933	0.783	1887829	WORD_OFF	n/a	n/a	CROWN	6	12	[0, 0, 0]	n/a	FR1	1	R1412M
1705.716	1.6	1888614	WORD	n/a	wordpools/wordpool_long_EN.txt	GLASS	7	12	[0, 0, 0]	n/a	FR1	1	R1412M
1707.316	0.868	1890212	WORD_OFF	n/a	n/a	GLASS	7	12	[0, 0, 0]	n/a	FR1	1	R1412M
1708.184	1.6	1891080	WORD	n/a	wordpools/wordpool_long_EN.txt	CUP	8	12	[0, 0, 0]	n/a	FR1	1	R1412M
1709.784	0.866	1892679	WORD_OFF	n/a	n/a	CUP	8	12	[0, 0, 0]	n/a	FR1	1	R1412M
1710.65	1.601	1893547	WORD	n/a	wordpools/wordpool_long_EN.txt	SPEAR	9	12	[0, 0, 0]	n/a	FR1	1	R1412M
1712.251	0.782	1895145	WORD_OFF	n/a	n/a	SPEAR	9	12	[0, 0, 0]	n/a	FR1	1	R1412M
1713.033	1.601	1895930	WORD	n/a	wordpools/wordpool_long_EN.txt	SWAMP	10	12	[0, 0, 0]	n/a	FR1	1	R1412M
1714.634	0.933	1897528	WORD_OFF	n/a	n/a	SWAMP	10	12	[0, 0, 0]	n/a	FR1	1	R1412M
1715.567	1.617	1898465	WORD	n/a	wordpools/wordpool_long_EN.txt	PERCH	11	12	[0, 0, 0]	n/a	FR1	1	R1412M
1717.184	0.9	1900077	WORD_OFF	n/a	n/a	PERCH	11	12	[0, 0, 0]	n/a	FR1	1	R1412M
1718.084	1.617	1900973	WORD	n/a	wordpools/wordpool_long_EN.txt	BOMB	12	12	[0, 0, 0]	n/a	FR1	1	R1412M
1719.701	0.001	1902593	PROB	0.001	n/a	n/a	-999	12	[6, 4, 7]	17	FR1	1	R1412M
1719.702	0.0	1902594	START	n/a	n/a	n/a	-999	12	[-999, -999, -999]	n/a	FR1	1	R1412M
1719.701	0.001	1902599	WORD_OFF	n/a	n/a	BOMB	12	12	[0, 0, 0]	n/a	FR1	1	R1412M
1719.702	0.0	1902599	ENCODING_END	n/a	n/a	n/a	-999	12	[0, 0, 0]	n/a	FR1	1	R1412M
1719.702	5.549	1902599	DISTRACT_START	n/a	n/a	n/a	-999	12	[0, 0, 0]	n/a	FR1	1	R1412M
1725.251	7.083	1908143	PROB	7.083	n/a	n/a	-999	12	[7, 4, 1]	12	FR1	1	R1412M
1732.334	9.633	1915226	PROB	9.633	n/a	n/a	-999	12	[8, 3, 4]	15	FR1	1	R1412M
1741.967	0.0	1924858	STOP	n/a	n/a	n/a	-999	12	[-999, -999, -999]	n/a	FR1	1	R1412M
1741.967	1.033	1924864	DISTRACT_END	n/a	n/a	n/a	-999	12	[0, 0, 0]	n/a	FR1	1	R1412M
1743.0	13.95	1925897	REC_START	n/a	n/a	n/a	-999	12	[0, 0, 0]	n/a	FR1	1	R1412M
1756.95	1.378	1939841	REC_WORD	1.378	n/a	GLASS	7	12	[0, 0, 0]	n/a	FR1	1	R1412M
1758.328	15.885	1941218	REC_WORD	15.885	n/a	CUP	8	12	[0, 0, 0]	n/a	FR1	1	R1412M
1774.213	0.0	1957104	REC_END	n/a	n/a	n/a	-999	12	[0, 0, 0]	n/a	FR1	1	R1412M
