onset	duration	sample	trial_type	response_time	stim_file	item_name	serialpos	list	test	answer	experiment	session	subject
0.0	0.0	24366	INSTRUCT_START	n/a	n/a	n/a	-999	-999	[0, 0, 0]	n/a	FR1	2	R1223E
0.0	11.265	24366	INSTRUCT_END	n/a	n/a	n/a	-999	-999	[0, 0, 0]	n/a	FR1	2	R1223E
11.265	0.0	35630	SESS_START	n/a	n/a	n/a	-999	-999	[0, 0, 0]	n/a	FR1	2	R1223E
11.265	20.501	35630	MIC_TEST	n/a	n/a	n/a	-999	-999	[0, 0, 0]	n/a	FR1	2	R1223E
31.766	56.982	56131	PRACTICE_TRIAL	n/a	n/a	n/a	-999	-1	[0, 0, 0]	n/a	FR1	2	R1223E
88.748	10.428	113110	COUNTDOWN_START	n/a	n/a	n/a	-999	-1	[0, 0, 0]	n/a	FR1	2	R1223E
99.176	0.009	123538	COUNTDOWN_END	n/a	n/a	n/a	-999	-1	[0, 0, 0]	n/a	FR1	2	R1223E
99.185	1.615	123547	PRACTICE_ORIENT	n/a	n/a	n/a	-999	-1	[0, 0, 0]	n/a	FR1	2	R1223E
100.8	2.118	125162	PRACTICE_ORIENT_OFF	n/a	n/a	n/a	-999	-1	[0, 0, 0]	n/a	FR1	2	R1223E
102.918	1.617	127280	PRACTICE_WORD	n/a	n/a	IRON	1	-1	[0, 0, 0]	n/a	FR1	2	R1223E
104.535	0.9	128897	PRACTICE_WORD_OFF	n/a	n/a	IRON	-999	-1	[0, 0, 0]	n/a	FR1	2	R1223E
105.435	1.617	129797	PRACTICE_WORD	n/a	n/a	WAGON	2	-1	[0, 0, 0]	n/a	FR1	2	R1223E
107.052	0.916	131414	PRACTICE_WORD_OFF	n/a	n/a	WAGON	-999	-1	[0, 0, 0]	n/a	FR1	2	R1223E
107.968	1.617	132330	PRACTICE_WORD	n/a	n/a	TONGUE	3	-1	[0, 0, 0]	n/a	FR1	2	R1223E
109.585	0.85	133947	PRACTICE_WORD_OFF	n/a	n/a	TONGUE	-999	-1	[0, 0, 0]	n/a	FR1	2	R1223E
110.435	1.618	134797	PRACTICE_WORD	n/a	n/a	COTTON	4	-1	[0, 0, 0]	n/a	FR1	2	R1223E
112.053	0.883	136415	PRACTICE_WORD_OFF	n/a	n/a	COTTON	-999	-1	[0, 0, 0]	n/a	FR1	2	R1223E
112.936	1.617	137298	PRACTICE_WORD	n/a	n/a	CAMEL	5	-1	[0, 0, 0]	n/a	FR1	2	R1223E
114.553	0.833	138914	PRACTICE_WORD_OFF	n/a	n/a	CAMEL	-999	-1	[0, 0, 0]	n/a	FR1	2	R1223E
115.386	1.617	139747	PRACTICE_WORD	n/a	n/a	BEAM	6	-1	[0, 0, 0]	n/a	FR1	2	R1223E
117.003	1.001	141364	PRACTICE_WORD_OFF	n/a	n/a	BEAM	-999	-1	[0, 0, 0]	n/a	FR1	2	R1223E
118.004	1.616	142365	PRACTICE_WORD	n/a	n/a	FLOOD	7	-1	[0, 0, 0]	n/a	FR1	2	R1223E
119.62	0.867	143981	PRACTICE_WORD_OFF	n/a	n/a	FLOOD	-999	-1	[0, 0, 0]	n/a	FR1	2	R1223E
120.487	1.618	144848	PRACTICE_WORD	n/a	n/a	RHINO	8	-1	[0, 0, 0]	n/a	FR1	2	R1223E
122.105	0.866	146466	PRACTICE_WORD_OFF	n/a	n/a	RHINO	-999	-1	[0, 0, 0]	n/a	FR1	2	R1223E
122.971	1.617	147332	PRACTICE_WORD	n/a	n/a	RING	9	-1	[0, 0, 0]	n/a	FR1	2	R1223E
124.588	0.8	148949	PRACTICE_WORD_OFF	n/a	n/a	RING	-999	-1	[0, 0, 0]	n/a	FR1	2	R1223E
125.388	1.617	149749	PRACTICE_WORD	n/a	n/a	CHEST	10	-1	[0, 0, 0]	n/a	FR1	2	R1223E
127.005	0.867	151366	PRACTICE_WORD_OFF	n/a	n/a	CHEST	-999	-1	[0, 0, 0]	n/a	FR1	2	R1223E
127.872	1.617	152233	PRACTICE_WORD	n/a	n/a	WATCH	11	-1	[0, 0, 0]	n/a	FR1	2	R1223E
129.489	0.817	153850	PRACTICE_WORD_OFF	n/a	n/a	WATCH	-999	-1	[0, 0, 0]	n/a	FR1	2	R1223E
130.306	1.617	154667	PRACTICE_WORD	n/a	n/a	ATTIC	12	-1	[0, 0, 0]	n/a	FR1	2	R1223E
131.923	0.0	156284	PRACTICE_WORD_OFF	n/a	n/a	ATTIC	-999	-1	[0, 0, 0]	n/a	FR1	2	R1223E
131.923	0.0	156284	DISTRACT_START	n/a	n/a	n/a	-999	-1	[0, 0, 0]	n/a	FR1	2	R1223E
131.923	0.016	156284	START	n/a	n/a	n/a	-999	-1	[-999, -999, -999]	n/a	FR1	2	R1223E
131.939	13.786	156300	PROB	13.786	n/a	n/a	-999	-1	[8, 1, 6]	15	FR1	2	R1223E
145.725	3.901	170085	PROB	3.901	n/a	n/a	-999	-1	[4, 1, 1]	6	FR1	2	R1223E
149.626	5.545	173986	PROB	5.545	n/a	n/a	-999	-1	[4, 4, 8]	16	FR1	2	R1223E
155.171	0.006	179531	STOP	n/a	n/a	n/a	-999	-1	[-999, -999, -999]	n/a	FR1	2	R1223E
155.177	0.6	179537	DISTRACT_END	n/a	n/a	n/a	-999	-1	[0, 0, 0]	n/a	FR1	2	R1223E
155.777	0.517	180137	RETRIEVAL_ORIENT	n/a	n/a	n/a	-999	-1	[0, 0, 0]	n/a	FR1	2	R1223E
156.294	30.011	180654	PRACTICE_REC_START	n/a	n/a	n/a	-999	-1	[0, 0, 0]	n/a	FR1	2	R1223E
186.305	35.933	210664	PRACTICE_REC_END	n/a	n/a	n/a	-999	-1	[0, 0, 0]	n/a	FR1	2	R1223E
222.238	0.5	246595	TRIAL	n/a	n/a	n/a	-999	1	[0, 0, 0]	n/a	FR1	2	R1223E
222.738	10.428	247095	COUNTDOWN_START	n/a	n/a	n/a	-999	1	[0, 0, 0]	n/a	FR1	2	R1223E
233.166	0.009	257523	COUNTDOWN_END	n/a	n/a	n/a	-999	1	[0, 0, 0]	n/a	FR1	2	R1223E
233.175	1.616	257532	ORIENT	n/a	n/a	n/a	-999	1	[0, 0, 0]	n/a	FR1	2	R1223E
234.791	1.95	259148	ORIENT_OFF	n/a	n/a	n/a	-999	1	[0, 0, 0]	n/a	FR1	2	R1223E
236.741	1.617	261098	WORD	n/a	wordpools/wordpool_EN.txt	FOAM	1	1	[0, 0, 0]	n/a	FR1	2	R1223E
238.358	1.0	262715	WORD_OFF	n/a	n/a	FOAM	1	1	[0, 0, 0]	n/a	FR1	2	R1223E
239.358	1.617	263715	WORD	n/a	wordpools/wordpool_EN.txt	SPEAR	2	1	[0, 0, 0]	n/a	FR1	2	R1223E
240.975	0.933	265332	WORD_OFF	n/a	n/a	SPEAR	2	1	[0, 0, 0]	n/a	FR1	2	R1223E
241.908	1.617	266265	WORD	n/a	wordpools/wordpool_EN.txt	WOOD	3	1	[0, 0, 0]	n/a	FR1	2	R1223E
243.525	1.001	267881	WORD_OFF	n/a	n/a	WOOD	3	1	[0, 0, 0]	n/a	FR1	2	R1223E
244.526	1.618	268882	WORD	n/a	wordpools/wordpool_EN.txt	RAKE	4	1	[0, 0, 0]	n/a	FR1	2	R1223E
246.144	0.966	270500	WORD_OFF	n/a	n/a	RAKE	4	1	[0, 0, 0]	n/a	FR1	2	R1223E
247.11	1.616	271466	WORD	n/a	wordpools/wordpool_EN.txt	STRING	5	1	[0, 0, 0]	n/a	FR1	2	R1223E
248.726	0.817	273082	WORD_OFF	n/a	n/a	STRING	5	1	[0, 0, 0]	n/a	FR1	2	R1223E
249.543	1.618	273899	WORD	n/a	wordpools/wordpool_EN.txt	BEACH	6	1	[0, 0, 0]	n/a	FR1	2	R1223E
251.161	0.883	275517	WORD_OFF	n/a	n/a	BEACH	6	1	[0, 0, 0]	n/a	FR1	2	R1223E
252.044	1.616	276400	WORD	n/a	wordpools/wordpool_EN.txt	SOAP	7	1	[0, 0, 0]	n/a	FR1	2	R1223E
253.66	0.801	278016	WORD_OFF	n/a	n/a	SOAP	7	1	[0, 0, 0]	n/a	FR1	2	R1223E
254.461	1.617	278817	WORD	n/a	wordpools/wordpool_EN.txt	SKUNK	8	1	[0, 0, 0]	n/a	FR1	2	R1223E
256.078	1.0	280434	WORD_OFF	n/a	n/a	SKUNK	8	1	[0, 0, 0]	n/a	FR1	2	R1223E
257.078	1.617	281434	WORD	n/a	wordpools/wordpool_EN.txt	FLEA	9	1	[0, 0, 0]	n/a	FR1	2	R1223E
258.695	0.85	283051	WORD_OFF	n/a	n/a	FLEA	9	1	[0, 0, 0]	n/a	FR1	2	R1223E
259.545	1.618	283901	WORD	n/a	wordpools/wordpool_EN.txt	SNAKE	10	1	[0, 0, 0]	n/a	FR1	2	R1223E
261.163	0.95	285519	WORD_OFF	n/a	n/a	SNAKE	10	1	[0, 0, 0]	n/a	FR1	2	R1223E
262.113	1.616	286469	WORD	n/a	wordpools/wordpool_EN.txt	HOOF	11	1	[0, 0, 0]	n/a	FR1	2	R1223E
263.729	0.983	288085	WORD_OFF	n/a	n/a	HOOF	11	1	[0, 0, 0]	n/a	FR1	2	R1223E
264.712	1.617	289068	WORD	n/a	wordpools/wordpool_EN.txt	PANTS	12	1	[0, 0, 0]	n/a	FR1	2	R1223E
266.329	0.0	290685	WORD_OFF	n/a	n/a	PANTS	12	1	[0, 0, 0]	n/a	FR1	2	R1223E
266.329	0.001	290685	DISTRACT_START	n/a	n/a	n/a	-999	1	[0, 0, 0]	n/a	FR1	2	R1223E
266.33	0.016	290686	START	n/a	n/a	n/a	-999	1	[-999, -999, -999]	n/a	FR1	2	R1223E
266.346	5.534	290702	PROB	5.534	n/a	n/a	-999	1	[9, 9, 5]	23	FR1	2	R1223E
271.88	7.152	296235	PROB	7.152	n/a	n/a	-999	1	[3, 9, 8]	20	FR1	2	R1223E
279.032	7.965	303387	PROB	7.965	n/a	n/a	-999	1	[1, 5, 8]	14	FR1	2	R1223E
286.997	0.019	311352	STOP	n/a	n/a	n/a	-999	1	[-999, -999, -999]	n/a	FR1	2	R1223E
287.016	0.617	311371	DISTRACT_END	n/a	n/a	n/a	-999	1	[0, 0, 0]	n/a	FR1	2	R1223E
287.633	0.519	311988	RETRIEVAL_ORIENT	n/a	n/a	n/a	-999	1	[0, 0, 0]	n/a	FR1	2	R1223E
288.152	6.396	312507	REC_START	n/a	n/a	n/a	-999	1	[0, 0, 0]	n/a	FR1	2	R1223E
294.548	9.122	318902	REC_WORD	9.122	n/a	SNAKE	-999	1	[0, 0, 0]	n/a	FR1	2	R1223E
303.67	4.945	328024	REC_WORD	4.945	n/a	SHOT	-999	1	[0, 0, 0]	n/a	FR1	2	R1223E
308.615	9.547	332969	REC_WORD	9.547	n/a	WOOD	-999	1	[0, 0, 0]	n/a	FR1	2	R1223E
318.162	5.894	342516	REC_END	n/a	n/a	n/a	-999	1	[0, 0, 0]	n/a	FR1	2	R1223E
324.056	0.5	348409	TRIAL	n/a	n/a	n/a	-999	2	[0, 0, 0]	n/a	FR1	2	R1223E
324.556	10.428	348909	COUNTDOWN_START	n/a	n/a	n/a	-999	2	[0, 0, 0]	n/a	FR1	2	R1223E
334.984	0.007	359337	COUNTDOWN_END	n/a	n/a	n/a	-999	2	[0, 0, 0]	n/a	FR1	2	R1223E
334.991	1.617	359344	ORIENT	n/a	n/a	n/a	-999	2	[0, 0, 0]	n/a	FR1	2	R1223E
336.608	2.017	360961	ORIENT_OFF	n/a	n/a	n/a	-999	2	[0, 0, 0]	n/a	FR1	2	R1223E
338.625	1.617	362978	WORD	n/a	wordpools/wordpool_EN.txt	CLOUD	1	2	[0, 0, 0]	n/a	FR1	2	R1223E
340.242	0.935	364595	WORD_OFF	n/a	n/a	CLOUD	1	2	[0, 0, 0]	n/a	FR1	2	R1223E
341.177	1.616	365530	WORD	n/a	wordpools/wordpool_EN.txt	SPARK	2	2	[0, 0, 0]	n/a	FR1	2	R1223E
342.793	0.9	367146	WORD_OFF	n/a	n/a	SPARK	2	2	[0, 0, 0]	n/a	FR1	2	R1223E
343.693	1.617	368046	WORD	n/a	wordpools/wordpool_EN.txt	RAIN	3	2	[0, 0, 0]	n/a	FR1	2	R1223E
345.31	0.917	369663	WORD_OFF	n/a	n/a	RAIN	3	2	[0, 0, 0]	n/a	FR1	2	R1223E
346.227	1.617	370579	WORD	n/a	wordpools/wordpool_EN.txt	JET	4	2	[0, 0, 0]	n/a	FR1	2	R1223E
347.844	0.8	372196	WORD_OFF	n/a	n/a	JET	4	2	[0, 0, 0]	n/a	FR1	2	R1223E
348.644	1.617	372996	WORD	n/a	wordpools/wordpool_EN.txt	PEA	5	2	[0, 0, 0]	n/a	FR1	2	R1223E
350.261	0.783	374613	WORD_OFF	n/a	n/a	PEA	5	2	[0, 0, 0]	n/a	FR1	2	R1223E
351.044	1.617	375396	WORD	n/a	wordpools/wordpool_EN.txt	TOAD	6	2	[0, 0, 0]	n/a	FR1	2	R1223E
352.661	0.9	377013	WORD_OFF	n/a	n/a	TOAD	6	2	[0, 0, 0]	n/a	FR1	2	R1223E
353.561	1.618	377913	WORD	n/a	wordpools/wordpool_EN.txt	BLOOM	7	2	[0, 0, 0]	n/a	FR1	2	R1223E
355.179	0.95	379531	WORD_OFF	n/a	n/a	BLOOM	7	2	[0, 0, 0]	n/a	FR1	2	R1223E
356.129	1.616	380481	WORD	n/a	wordpools/wordpool_EN.txt	BEE	8	2	[0, 0, 0]	n/a	FR1	2	R1223E
357.745	0.784	382097	WORD_OFF	n/a	n/a	BEE	8	2	[0, 0, 0]	n/a	FR1	2	R1223E
358.529	1.618	382881	WORD	n/a	wordpools/wordpool_EN.txt	WEB	9	2	[0, 0, 0]	n/a	FR1	2	R1223E
360.147	0.766	384499	WORD_OFF	n/a	n/a	WEB	9	2	[0, 0, 0]	n/a	FR1	2	R1223E
360.913	1.616	385265	WORD	n/a	wordpools/wordpool_EN.txt	FISH	10	2	[0, 0, 0]	n/a	FR1	2	R1223E
362.529	1.017	386881	WORD_OFF	n/a	n/a	FISH	10	2	[0, 0, 0]	n/a	FR1	2	R1223E
363.546	1.601	387898	WORD	n/a	wordpools/wordpool_EN.txt	CROW	11	2	[0, 0, 0]	n/a	FR1	2	R1223E
365.147	0.984	389499	WORD_OFF	n/a	n/a	CROW	11	2	[0, 0, 0]	n/a	FR1	2	R1223E
366.131	1.616	390483	WORD	n/a	wordpools/wordpool_EN.txt	SCHOOL	12	2	[0, 0, 0]	n/a	FR1	2	R1223E
367.747	0.0	392099	WORD_OFF	n/a	n/a	SCHOOL	12	2	[0, 0, 0]	n/a	FR1	2	R1223E
367.747	0.001	392099	DISTRACT_START	n/a	n/a	n/a	-999	2	[0, 0, 0]	n/a	FR1	2	R1223E
367.748	0.016	392100	START	n/a	n/a	n/a	-999	2	[-999, -999, -999]	n/a	FR1	2	R1223E
367.764	3.817	392116	PROB	3.817	n/a	n/a	-999	2	[1, 1, 1]	3	FR1	2	R1223E
371.581	6.118	395933	PROB	6.118	n/a	n/a	-999	2	[7, 1, 2]	10	FR1	2	R1223E
377.699	4.951	402050	PROB	4.951	n/a	n/a	-999	2	[5, 7, 8]	20	FR1	2	R1223E
382.65	4.334	407001	PROB	4.334	n/a	n/a	-999	2	[3, 1, 7]	11	FR1	2	R1223E
386.984	6.622	411335	PROB	6.622	n/a	n/a	-999	2	[9, 5, 2]	16	FR1	2	R1223E
393.606	0.012	417957	STOP	n/a	n/a	n/a	-999	2	[-999, -999, -999]	n/a	FR1	2	R1223E
393.618	0.551	417969	DISTRACT_END	n/a	n/a	n/a	-999	2	[0, 0, 0]	n/a	FR1	2	R1223E
394.169	0.517	418520	RETRIEVAL_ORIENT	n/a	n/a	n/a	-999	2	[0, 0, 0]	n/a	FR1	2	R1223E
394.686	2.342	419037	REC_START	n/a	n/a	n/a	-999	2	[0, 0, 0]	n/a	FR1	2	R1223E
397.028	1.919	421379	REC_WORD	1.919	n/a	RAIN	-999	2	[0, 0, 0]	n/a	FR1	2	R1223E
398.947	3.083	423297	REC_WORD	3.083	n/a	CLOUD	-999	2	[0, 0, 0]	n/a	FR1	2	R1223E
402.03	22.668	426380	REC_WORD	22.668	n/a	JET	-999	2	[0, 0, 0]	n/a	FR1	2	R1223E
424.698	6.827	449047	REC_END	n/a	n/a	n/a	-999	2	[0, 0, 0]	n/a	FR1	2	R1223E
431.525	0.5	455874	TRIAL	n/a	n/a	n/a	-999	3	[0, 0, 0]	n/a	FR1	2	R1223E
432.025	10.428	456374	COUNTDOWN_START	n/a	n/a	n/a	-999	3	[0, 0, 0]	n/a	FR1	2	R1223E
442.453	0.007	466802	COUNTDOWN_END	n/a	n/a	n/a	-999	3	[0, 0, 0]	n/a	FR1	2	R1223E
442.46	1.617	466809	ORIENT	n/a	n/a	n/a	-999	3	[0, 0, 0]	n/a	FR1	2	R1223E
444.077	2.117	468426	ORIENT_OFF	n/a	n/a	n/a	-999	3	[0, 0, 0]	n/a	FR1	2	R1223E
446.194	1.617	470543	WORD	n/a	wordpools/wordpool_EN.txt	FLUTE	1	3	[0, 0, 0]	n/a	FR1	2	R1223E
447.811	0.984	472160	WORD_OFF	n/a	n/a	FLUTE	1	3	[0, 0, 0]	n/a	FR1	2	R1223E
448.795	1.616	473144	WORD	n/a	wordpools/wordpool_EN.txt	DOOR	2	3	[0, 0, 0]	n/a	FR1	2	R1223E
450.411	0.951	474759	WORD_OFF	n/a	n/a	DOOR	2	3	[0, 0, 0]	n/a	FR1	2	R1223E
451.362	1.617	475710	WORD	n/a	wordpools/wordpool_EN.txt	SINK	3	3	[0, 0, 0]	n/a	FR1	2	R1223E
452.979	0.783	477327	WORD_OFF	n/a	n/a	SINK	3	3	[0, 0, 0]	n/a	FR1	2	R1223E
453.762	1.617	478110	WORD	n/a	wordpools/wordpool_EN.txt	TOAST	4	3	[0, 0, 0]	n/a	FR1	2	R1223E
455.379	0.917	479727	WORD_OFF	n/a	n/a	TOAST	4	3	[0, 0, 0]	n/a	FR1	2	R1223E
456.296	1.617	480644	WORD	n/a	wordpools/wordpool_EN.txt	SPOON	5	3	[0, 0, 0]	n/a	FR1	2	R1223E
457.913	0.917	482261	WORD_OFF	n/a	n/a	SPOON	5	3	[0, 0, 0]	n/a	FR1	2	R1223E
458.83	1.617	483178	WORD	n/a	wordpools/wordpool_EN.txt	MUD	6	3	[0, 0, 0]	n/a	FR1	2	R1223E
460.447	0.85	484795	WORD_OFF	n/a	n/a	MUD	6	3	[0, 0, 0]	n/a	FR1	2	R1223E
461.297	1.617	485645	WORD	n/a	wordpools/wordpool_EN.txt	BATH	7	3	[0, 0, 0]	n/a	FR1	2	R1223E
462.914	0.966	487262	WORD_OFF	n/a	n/a	BATH	7	3	[0, 0, 0]	n/a	FR1	2	R1223E
463.88	1.618	488228	WORD	n/a	wordpools/wordpool_EN.txt	MAT	8	3	[0, 0, 0]	n/a	FR1	2	R1223E
465.498	0.933	489846	WORD_OFF	n/a	n/a	MAT	8	3	[0, 0, 0]	n/a	FR1	2	R1223E
466.431	1.617	490779	WORD	n/a	wordpools/wordpool_EN.txt	TENT	9	3	[0, 0, 0]	n/a	FR1	2	R1223E
468.048	0.817	492396	WORD_OFF	n/a	n/a	TENT	9	3	[0, 0, 0]	n/a	FR1	2	R1223E
468.865	1.617	493213	WORD	n/a	wordpools/wordpool_EN.txt	BED	10	3	[0, 0, 0]	n/a	FR1	2	R1223E
470.482	0.8	494830	WORD_OFF	n/a	n/a	BED	10	3	[0, 0, 0]	n/a	FR1	2	R1223E
471.282	1.617	495630	WORD	n/a	wordpools/wordpool_EN.txt	FORK	11	3	[0, 0, 0]	n/a	FR1	2	R1223E
472.899	0.983	497247	WORD_OFF	n/a	n/a	FORK	11	3	[0, 0, 0]	n/a	FR1	2	R1223E
473.882	1.617	498230	WORD	n/a	wordpools/wordpool_EN.txt	SWAMP	12	3	[0, 0, 0]	n/a	FR1	2	R1223E
475.499	0.0	499846	WORD_OFF	n/a	n/a	SWAMP	12	3	[0, 0, 0]	n/a	FR1	2	R1223E
475.499	0.001	499846	DISTRACT_START	n/a	n/a	n/a	-999	3	[0, 0, 0]	n/a	FR1	2	R1223E
475.5	0.016	499847	START	n/a	n/a	n/a	-999	3	[-999, -999, -999]	n/a	FR1	2	R1223E
475.516	7.268	499863	PROB	7.268	n/a	n/a	-999	3	[4, 8, 9]	21	FR1	2	R1223E
482.784	6.352	507131	PROB	6.352	n/a	n/a	-999	3	[5, 2, 3]	10	FR1	2	R1223E
489.136	4.967	513483	PROB	4.967	n/a	n/a	-999	3	[1, 1, 4]	6	FR1	2	R1223E
494.103	9.262	518450	PROB	9.262	n/a	n/a	-999	3	[6, 7, 9]	22	FR1	2	R1223E
503.365	0.005	527711	STOP	n/a	n/a	n/a	-999	3	[-999, -999, -999]	n/a	FR1	2	R1223E
503.37	0.551	527716	DISTRACT_END	n/a	n/a	n/a	-999	3	[0, 0, 0]	n/a	FR1	2	R1223E
503.921	0.517	528267	RETRIEVAL_ORIENT	n/a	n/a	n/a	-999	3	[0, 0, 0]	n/a	FR1	2	R1223E
504.438	3.28	528784	REC_START	n/a	n/a	n/a	-999	3	[0, 0, 0]	n/a	FR1	2	R1223E
507.718	2.357	532064	REC_WORD	2.357	n/a	SINK	-999	3	[0, 0, 0]	n/a	FR1	2	R1223E
510.075	24.375	534421	REC_WORD	24.375	n/a	DOOR	-999	3	[0, 0, 0]	n/a	FR1	2	R1223E
534.45	7.077	558795	REC_END	n/a	n/a	n/a	-999	3	[0, 0, 0]	n/a	FR1	2	R1223E
541.527	0.5	565872	TRIAL	n/a	n/a	n/a	-999	4	[0, 0, 0]	n/a	FR1	2	R1223E
542.027	10.428	566372	COUNTDOWN_START	n/a	n/a	n/a	-999	4	[0, 0, 0]	n/a	FR1	2	R1223E
552.455	0.008	576800	COUNTDOWN_END	n/a	n/a	n/a	-999	4	[0, 0, 0]	n/a	FR1	2	R1223E
552.463	1.618	576808	ORIENT	n/a	n/a	n/a	-999	4	[0, 0, 0]	n/a	FR1	2	R1223E
554.081	2.083	578425	ORIENT_OFF	n/a	n/a	n/a	-999	4	[0, 0, 0]	n/a	FR1	2	R1223E
556.164	1.616	580508	WORD	n/a	wordpools/wordpool_EN.txt	BEAR	1	4	[0, 0, 0]	n/a	FR1	2	R1223E
557.78	0.867	582124	WORD_OFF	n/a	n/a	BEAR	1	4	[0, 0, 0]	n/a	FR1	2	R1223E
558.647	1.617	582991	WORD	n/a	wordpools/wordpool_EN.txt	WAVE	2	4	[0, 0, 0]	n/a	FR1	2	R1223E
560.264	0.901	584608	WORD_OFF	n/a	n/a	WAVE	2	4	[0, 0, 0]	n/a	FR1	2	R1223E
561.165	1.616	585509	WORD	n/a	wordpools/wordpool_EN.txt	MOON	3	4	[0, 0, 0]	n/a	FR1	2	R1223E
562.781	0.9	587125	WORD_OFF	n/a	n/a	MOON	3	4	[0, 0, 0]	n/a	FR1	2	R1223E
563.681	1.617	588025	WORD	n/a	wordpools/wordpool_EN.txt	MAP	4	4	[0, 0, 0]	n/a	FR1	2	R1223E
565.298	0.984	589642	WORD_OFF	n/a	n/a	MAP	4	4	[0, 0, 0]	n/a	FR1	2	R1223E
566.282	1.617	590626	WORD	n/a	wordpools/wordpool_EN.txt	TOOTH	5	4	[0, 0, 0]	n/a	FR1	2	R1223E
567.899	0.867	592243	WORD_OFF	n/a	n/a	TOOTH	5	4	[0, 0, 0]	n/a	FR1	2	R1223E
568.766	1.617	593110	WORD	n/a	wordpools/wordpool_EN.txt	FILM	6	4	[0, 0, 0]	n/a	FR1	2	R1223E
570.383	0.95	594727	WORD_OFF	n/a	n/a	FILM	6	4	[0, 0, 0]	n/a	FR1	2	R1223E
571.333	1.617	595677	WORD	n/a	wordpools/wordpool_EN.txt	DART	7	4	[0, 0, 0]	n/a	FR1	2	R1223E
572.95	0.8	597294	WORD_OFF	n/a	n/a	DART	7	4	[0, 0, 0]	n/a	FR1	2	R1223E
573.75	1.617	598094	WORD	n/a	wordpools/wordpool_EN.txt	EGG	8	4	[0, 0, 0]	n/a	FR1	2	R1223E
575.367	0.768	599711	WORD_OFF	n/a	n/a	EGG	8	4	[0, 0, 0]	n/a	FR1	2	R1223E
576.135	1.615	600479	WORD	n/a	wordpools/wordpool_EN.txt	GOLD	9	4	[0, 0, 0]	n/a	FR1	2	R1223E
577.75	0.901	602094	WORD_OFF	n/a	n/a	GOLD	9	4	[0, 0, 0]	n/a	FR1	2	R1223E
578.651	1.617	602994	WORD	n/a	wordpools/wordpool_EN.txt	TRASH	10	4	[0, 0, 0]	n/a	FR1	2	R1223E
580.268	0.966	604611	WORD_OFF	n/a	n/a	TRASH	10	4	[0, 0, 0]	n/a	FR1	2	R1223E
581.234	1.617	605577	WORD	n/a	wordpools/wordpool_EN.txt	GRAPE	11	4	[0, 0, 0]	n/a	FR1	2	R1223E
582.851	0.834	607194	WORD_OFF	n/a	n/a	GRAPE	11	4	[0, 0, 0]	n/a	FR1	2	R1223E
583.685	1.617	608028	WORD	n/a	wordpools/wordpool_EN.txt	DEER	12	4	[0, 0, 0]	n/a	FR1	2	R1223E
585.302	0.0	609645	WORD_OFF	n/a	n/a	DEER	12	4	[0, 0, 0]	n/a	FR1	2	R1223E
585.302	0.0	609645	DISTRACT_START	n/a	n/a	n/a	-999	4	[0, 0, 0]	n/a	FR1	2	R1223E
585.302	0.016	609645	START	n/a	n/a	n/a	-999	4	[-999, -999, -999]	n/a	FR1	2	R1223E
585.318	6.051	609661	PROB	6.051	n/a	n/a	-999	4	[9, 8, 3]	20	FR1	2	R1223E
591.369	6.418	615712	PROB	6.418	n/a	n/a	-999	4	[3, 7, 9]	19	FR1	2	R1223E
597.787	7.502	622130	PROB	7.502	n/a	n/a	-999	4	[8, 9, 3]	20	FR1	2	R1223E
605.289	4.702	629631	PROB	4.702	n/a	n/a	-999	4	[2, 1, 5]	8	FR1	2	R1223E
609.991	0.015	634333	STOP	n/a	n/a	n/a	-999	4	[-999, -999, -999]	n/a	FR1	2	R1223E
610.006	0.65	634348	DISTRACT_END	n/a	n/a	n/a	-999	4	[0, 0, 0]	n/a	FR1	2	R1223E
610.656	0.519	634998	RETRIEVAL_ORIENT	n/a	n/a	n/a	-999	4	[0, 0, 0]	n/a	FR1	2	R1223E
611.175	3.918	635517	REC_START	n/a	n/a	n/a	-999	4	[0, 0, 0]	n/a	FR1	2	R1223E
615.093	26.093	639435	REC_WORD	26.093	n/a	EGG	-999	4	[0, 0, 0]	n/a	FR1	2	R1223E
641.186	4.71	665527	REC_END	n/a	n/a	n/a	-999	4	[0, 0, 0]	n/a	FR1	2	R1223E
645.896	0.5	670237	TRIAL	n/a	n/a	n/a	-999	5	[0, 0, 0]	n/a	FR1	2	R1223E
646.396	10.428	670737	COUNTDOWN_START	n/a	n/a	n/a	-999	5	[0, 0, 0]	n/a	FR1	2	R1223E
656.824	0.007	681164	COUNTDOWN_END	n/a	n/a	n/a	-999	5	[0, 0, 0]	n/a	FR1	2	R1223E
656.831	1.617	681171	ORIENT	n/a	n/a	n/a	-999	5	[0, 0, 0]	n/a	FR1	2	R1223E
658.448	2.35	682788	ORIENT_OFF	n/a	n/a	n/a	-999	5	[0, 0, 0]	n/a	FR1	2	R1223E
660.798	1.617	685138	WORD	n/a	wordpools/wordpool_EN.txt	FOX	1	5	[0, 0, 0]	n/a	FR1	2	R1223E
662.415	0.834	686755	WORD_OFF	n/a	n/a	FOX	1	5	[0, 0, 0]	n/a	FR1	2	R1223E
663.249	1.617	687589	WORD	n/a	wordpools/wordpool_EN.txt	PET	2	5	[0, 0, 0]	n/a	FR1	2	R1223E
664.866	0.967	689206	WORD_OFF	n/a	n/a	PET	2	5	[0, 0, 0]	n/a	FR1	2	R1223E
665.833	1.616	690173	WORD	n/a	wordpools/wordpool_EN.txt	DOG	3	5	[0, 0, 0]	n/a	FR1	2	R1223E
667.449	0.934	691789	WORD_OFF	n/a	n/a	DOG	3	5	[0, 0, 0]	n/a	FR1	2	R1223E
668.383	1.617	692723	WORD	n/a	wordpools/wordpool_EN.txt	CAT	4	5	[0, 0, 0]	n/a	FR1	2	R1223E
670.0	0.817	694340	WORD_OFF	n/a	n/a	CAT	4	5	[0, 0, 0]	n/a	FR1	2	R1223E
670.817	1.617	695157	WORD	n/a	wordpools/wordpool_EN.txt	FARM	5	5	[0, 0, 0]	n/a	FR1	2	R1223E
672.434	0.9	696774	WORD_OFF	n/a	n/a	FARM	5	5	[0, 0, 0]	n/a	FR1	2	R1223E
673.334	1.617	697674	WORD	n/a	wordpools/wordpool_EN.txt	CUP	6	5	[0, 0, 0]	n/a	FR1	2	R1223E
674.951	1.0	699291	WORD_OFF	n/a	n/a	CUP	6	5	[0, 0, 0]	n/a	FR1	2	R1223E
675.951	1.617	700291	WORD	n/a	wordpools/wordpool_EN.txt	KITE	7	5	[0, 0, 0]	n/a	FR1	2	R1223E
677.568	0.8	701908	WORD_OFF	n/a	n/a	KITE	7	5	[0, 0, 0]	n/a	FR1	2	R1223E
678.368	1.617	702708	WORD	n/a	wordpools/wordpool_EN.txt	ZOO	8	5	[0, 0, 0]	n/a	FR1	2	R1223E
679.985	0.984	704325	WORD_OFF	n/a	n/a	ZOO	8	5	[0, 0, 0]	n/a	FR1	2	R1223E
680.969	1.617	705309	WORD	n/a	wordpools/wordpool_EN.txt	CORN	9	5	[0, 0, 0]	n/a	FR1	2	R1223E
682.586	0.85	706925	WORD_OFF	n/a	n/a	CORN	9	5	[0, 0, 0]	n/a	FR1	2	R1223E
683.436	1.617	707775	WORD	n/a	wordpools/wordpool_EN.txt	HORSE	10	5	[0, 0, 0]	n/a	FR1	2	R1223E
685.053	0.85	709392	WORD_OFF	n/a	n/a	HORSE	10	5	[0, 0, 0]	n/a	FR1	2	R1223E
685.903	1.617	710242	WORD	n/a	wordpools/wordpool_EN.txt	BIRD	11	5	[0, 0, 0]	n/a	FR1	2	R1223E
687.52	0.85	711859	WORD_OFF	n/a	n/a	BIRD	11	5	[0, 0, 0]	n/a	FR1	2	R1223E
688.37	1.617	712709	WORD	n/a	wordpools/wordpool_EN.txt	ANT	12	5	[0, 0, 0]	n/a	FR1	2	R1223E
689.987	0.0	714326	WORD_OFF	n/a	n/a	ANT	12	5	[0, 0, 0]	n/a	FR1	2	R1223E
689.987	0.0	714326	DISTRACT_START	n/a	n/a	n/a	-999	5	[0, 0, 0]	n/a	FR1	2	R1223E
689.987	0.017	714326	START	n/a	n/a	n/a	-999	5	[-999, -999, -999]	n/a	FR1	2	R1223E
690.004	9.601	714343	PROB	9.601	n/a	n/a	-999	5	[5, 6, 9]	20	FR1	2	R1223E
699.605	6.818	723944	PROB	6.818	n/a	n/a	-999	5	[9, 2, 4]	15	FR1	2	R1223E
706.423	4.571	730762	PROB	4.571	n/a	n/a	-999	5	[9, 2, 2]	13	FR1	2	R1223E
710.994	0.013	735332	STOP	n/a	n/a	n/a	-999	5	[-999, -999, -999]	n/a	FR1	2	R1223E
711.007	0.617	735345	DISTRACT_END	n/a	n/a	n/a	-999	5	[0, 0, 0]	n/a	FR1	2	R1223E
711.624	0.518	735962	RETRIEVAL_ORIENT	n/a	n/a	n/a	-999	5	[0, 0, 0]	n/a	FR1	2	R1223E
712.142	3.666	736480	REC_START	n/a	n/a	n/a	-999	5	[0, 0, 0]	n/a	FR1	2	R1223E
715.808	1.941	740146	REC_WORD	1.941	n/a	PET	-999	5	[0, 0, 0]	n/a	FR1	2	R1223E
717.749	1.993	742087	REC_WORD	1.993	n/a	DOG	-999	5	[0, 0, 0]	n/a	FR1	2	R1223E
719.742	2.714	744080	REC_WORD	2.714	n/a	CAT	-999	5	[0, 0, 0]	n/a	FR1	2	R1223E
722.456	2.554	746794	REC_WORD	2.554	n/a	KITE	-999	5	[0, 0, 0]	n/a	FR1	2	R1223E
725.01	17.144	749348	REC_WORD	17.144	n/a	ZOO	-999	5	[0, 0, 0]	n/a	FR1	2	R1223E
742.154	7.277	766491	REC_END	n/a	n/a	n/a	-999	5	[0, 0, 0]	n/a	FR1	2	R1223E
749.431	0.5	773768	TRIAL	n/a	n/a	n/a	-999	6	[0, 0, 0]	n/a	FR1	2	R1223E
749.931	10.428	774268	COUNTDOWN_START	n/a	n/a	n/a	-999	6	[0, 0, 0]	n/a	FR1	2	R1223E
760.359	0.007	784695	COUNTDOWN_END	n/a	n/a	n/a	-999	6	[0, 0, 0]	n/a	FR1	2	R1223E
760.366	1.617	784702	ORIENT	n/a	n/a	n/a	-999	6	[0, 0, 0]	n/a	FR1	2	R1223E
761.983	2.117	786319	ORIENT_OFF	n/a	n/a	n/a	-999	6	[0, 0, 0]	n/a	FR1	2	R1223E
764.1	1.617	788436	WORD	n/a	wordpools/wordpool_EN.txt	FACE	1	6	[0, 0, 0]	n/a	FR1	2	R1223E
765.717	0.833	790053	WORD_OFF	n/a	n/a	FACE	1	6	[0, 0, 0]	n/a	FR1	2	R1223E
766.55	1.618	790886	WORD	n/a	wordpools/wordpool_EN.txt	DIME	2	6	[0, 0, 0]	n/a	FR1	2	R1223E
768.168	0.934	792504	WORD_OFF	n/a	n/a	DIME	2	6	[0, 0, 0]	n/a	FR1	2	R1223E
769.102	1.616	793438	WORD	n/a	wordpools/wordpool_EN.txt	SHOE	3	6	[0, 0, 0]	n/a	FR1	2	R1223E
770.718	0.883	795054	WORD_OFF	n/a	n/a	SHOE	3	6	[0, 0, 0]	n/a	FR1	2	R1223E
771.601	1.617	795937	WORD	n/a	wordpools/wordpool_EN.txt	TOY	4	6	[0, 0, 0]	n/a	FR1	2	R1223E
773.218	0.901	797554	WORD_OFF	n/a	n/a	TOY	4	6	[0, 0, 0]	n/a	FR1	2	R1223E
774.119	1.616	798455	WORD	n/a	wordpools/wordpool_EN.txt	STICK	5	6	[0, 0, 0]	n/a	FR1	2	R1223E
775.735	0.834	800071	WORD_OFF	n/a	n/a	STICK	5	6	[0, 0, 0]	n/a	FR1	2	R1223E
776.569	1.618	800905	WORD	n/a	wordpools/wordpool_EN.txt	LEG	6	6	[0, 0, 0]	n/a	FR1	2	R1223E
778.187	0.916	802523	WORD_OFF	n/a	n/a	LEG	6	6	[0, 0, 0]	n/a	FR1	2	R1223E
779.103	1.616	803439	WORD	n/a	wordpools/wordpool_EN.txt	BALL	7	6	[0, 0, 0]	n/a	FR1	2	R1223E
780.719	0.8	805055	WORD_OFF	n/a	n/a	BALL	7	6	[0, 0, 0]	n/a	FR1	2	R1223E
781.519	1.618	805855	WORD	n/a	wordpools/wordpool_EN.txt	BENCH	8	6	[0, 0, 0]	n/a	FR1	2	R1223E
783.137	0.783	807473	WORD_OFF	n/a	n/a	BENCH	8	6	[0, 0, 0]	n/a	FR1	2	R1223E
783.92	1.617	808256	WORD	n/a	wordpools/wordpool_EN.txt	GRASS	9	6	[0, 0, 0]	n/a	FR1	2	R1223E
785.537	0.783	809872	WORD_OFF	n/a	n/a	GRASS	9	6	[0, 0, 0]	n/a	FR1	2	R1223E
786.32	1.617	810655	WORD	n/a	wordpools/wordpool_EN.txt	LIP	10	6	[0, 0, 0]	n/a	FR1	2	R1223E
787.937	0.917	812272	WORD_OFF	n/a	n/a	LIP	10	6	[0, 0, 0]	n/a	FR1	2	R1223E
788.854	1.617	813189	WORD	n/a	wordpools/wordpool_EN.txt	SUN	11	6	[0, 0, 0]	n/a	FR1	2	R1223E
790.471	0.984	814806	WORD_OFF	n/a	n/a	SUN	11	6	[0, 0, 0]	n/a	FR1	2	R1223E
791.455	1.617	815790	WORD	n/a	wordpools/wordpool_EN.txt	PALM	12	6	[0, 0, 0]	n/a	FR1	2	R1223E
793.072	0.0	817407	WORD_OFF	n/a	n/a	PALM	12	6	[0, 0, 0]	n/a	FR1	2	R1223E
793.072	0.0	817407	DISTRACT_START	n/a	n/a	n/a	-999	6	[0, 0, 0]	n/a	FR1	2	R1223E
793.072	0.017	817407	START	n/a	n/a	n/a	-999	6	[-999, -999, -999]	n/a	FR1	2	R1223E
793.089	4.084	817424	PROB	4.084	n/a	n/a	-999	6	[2, 2, 1]	5	FR1	2	R1223E
797.173	10.234	821508	PROB	10.234	n/a	n/a	-999	6	[5, 9, 4]	18	FR1	2	R1223E
807.407	3.851	831742	PROB	3.851	n/a	n/a	-999	6	[3, 3, 2]	8	FR1	2	R1223E
811.258	4.576	835592	PROB	4.576	n/a	n/a	-999	6	[6, 4, 3]	13	FR1	2	R1223E
815.834	0.008	840168	STOP	n/a	n/a	n/a	-999	6	[-999, -999, -999]	n/a	FR1	2	R1223E
815.842	0.684	840176	DISTRACT_END	n/a	n/a	n/a	-999	6	[0, 0, 0]	n/a	FR1	2	R1223E
816.526	0.517	840860	RETRIEVAL_ORIENT	n/a	n/a	n/a	-999	6	[0, 0, 0]	n/a	FR1	2	R1223E
817.043	3.439	841377	REC_START	n/a	n/a	n/a	-999	6	[0, 0, 0]	n/a	FR1	2	R1223E
820.482	5.144	844816	REC_WORD	5.144	n/a	LEG	-999	6	[0, 0, 0]	n/a	FR1	2	R1223E
825.626	2.912	849960	REC_WORD	2.912	n/a	FACE	-999	6	[0, 0, 0]	n/a	FR1	2	R1223E
828.538	18.517	852872	REC_WORD	18.517	n/a	LIP	-999	6	[0, 0, 0]	n/a	FR1	2	R1223E
847.055	7.277	871388	REC_END	n/a	n/a	n/a	-999	6	[0, 0, 0]	n/a	FR1	2	R1223E
854.332	0.5	878665	TRIAL	n/a	n/a	n/a	-999	7	[0, 0, 0]	n/a	FR1	2	R1223E
854.832	10.428	879165	COUNTDOWN_START	n/a	n/a	n/a	-999	7	[0, 0, 0]	n/a	FR1	2	R1223E
865.26	0.008	889592	COUNTDOWN_END	n/a	n/a	n/a	-999	7	[0, 0, 0]	n/a	FR1	2	R1223E
865.268	1.617	889600	ORIENT	n/a	n/a	n/a	-999	7	[0, 0, 0]	n/a	FR1	2	R1223E
866.885	2.116	891217	ORIENT_OFF	n/a	n/a	n/a	-999	7	[0, 0, 0]	n/a	FR1	2	R1223E
869.001	1.617	893333	WORD	n/a	wordpools/wordpool_EN.txt	STREET	1	7	[0, 0, 0]	n/a	FR1	2	R1223E
870.618	0.834	894950	WORD_OFF	n/a	n/a	STREET	1	7	[0, 0, 0]	n/a	FR1	2	R1223E
871.452	1.617	895784	WORD	n/a	wordpools/wordpool_EN.txt	JUDGE	2	7	[0, 0, 0]	n/a	FR1	2	R1223E
873.069	0.85	897401	WORD_OFF	n/a	n/a	JUDGE	2	7	[0, 0, 0]	n/a	FR1	2	R1223E
873.919	1.617	898251	WORD	n/a	wordpools/wordpool_EN.txt	BOOK	3	7	[0, 0, 0]	n/a	FR1	2	R1223E
875.536	0.8	899868	WORD_OFF	n/a	n/a	BOOK	3	7	[0, 0, 0]	n/a	FR1	2	R1223E
876.336	1.617	900668	WORD	n/a	wordpools/wordpool_EN.txt	CAR	4	7	[0, 0, 0]	n/a	FR1	2	R1223E
877.953	0.884	902285	WORD_OFF	n/a	n/a	CAR	4	7	[0, 0, 0]	n/a	FR1	2	R1223E
878.837	1.617	903169	WORD	n/a	wordpools/wordpool_EN.txt	STORE	5	7	[0, 0, 0]	n/a	FR1	2	R1223E
880.454	0.95	904786	WORD_OFF	n/a	n/a	STORE	5	7	[0, 0, 0]	n/a	FR1	2	R1223E
881.404	1.617	905736	WORD	n/a	wordpools/wordpool_EN.txt	CLOCK	6	7	[0, 0, 0]	n/a	FR1	2	R1223E
883.021	0.883	907353	WORD_OFF	n/a	n/a	CLOCK	6	7	[0, 0, 0]	n/a	FR1	2	R1223E
883.904	1.617	908236	WORD	n/a	wordpools/wordpool_EN.txt	KEY	7	7	[0, 0, 0]	n/a	FR1	2	R1223E
885.521	0.817	909853	WORD_OFF	n/a	n/a	KEY	7	7	[0, 0, 0]	n/a	FR1	2	R1223E
886.338	1.617	910670	WORD	n/a	wordpools/wordpool_EN.txt	TANK	8	7	[0, 0, 0]	n/a	FR1	2	R1223E
887.955	0.867	912287	WORD_OFF	n/a	n/a	TANK	8	7	[0, 0, 0]	n/a	FR1	2	R1223E
888.822	1.617	913153	WORD	n/a	wordpools/wordpool_EN.txt	FROG	9	7	[0, 0, 0]	n/a	FR1	2	R1223E
890.439	1.0	914770	WORD_OFF	n/a	n/a	FROG	9	7	[0, 0, 0]	n/a	FR1	2	R1223E
891.439	1.617	915770	WORD	n/a	wordpools/wordpool_EN.txt	COIN	10	7	[0, 0, 0]	n/a	FR1	2	R1223E
893.056	0.9	917387	WORD_OFF	n/a	n/a	COIN	10	7	[0, 0, 0]	n/a	FR1	2	R1223E
893.956	1.617	918287	WORD	n/a	wordpools/wordpool_EN.txt	BADGE	11	7	[0, 0, 0]	n/a	FR1	2	R1223E
895.573	0.983	919904	WORD_OFF	n/a	n/a	BADGE	11	7	[0, 0, 0]	n/a	FR1	2	R1223E
896.556	1.601	920887	WORD	n/a	wordpools/wordpool_EN.txt	MAIL	12	7	[0, 0, 0]	n/a	FR1	2	R1223E
898.157	0.0	922488	WORD_OFF	n/a	n/a	MAIL	12	7	[0, 0, 0]	n/a	FR1	2	R1223E
898.157	0.001	922488	DISTRACT_START	n/a	n/a	n/a	-999	7	[0, 0, 0]	n/a	FR1	2	R1223E
898.158	0.016	922489	START	n/a	n/a	n/a	-999	7	[-999, -999, -999]	n/a	FR1	2	R1223E
898.174	6.867	922505	PROB	6.867	n/a	n/a	-999	7	[9, 3, 5]	17	FR1	2	R1223E
905.041	10.852	929372	PROB	10.852	n/a	n/a	-999	7	[5, 9, 6]	20	FR1	2	R1223E
915.893	4.281	940223	PROB	4.281	n/a	n/a	-999	7	[3, 3, 1]	7	FR1	2	R1223E
920.174	0.02	944504	STOP	n/a	n/a	n/a	-999	7	[-999, -999, -999]	n/a	FR1	2	R1223E
920.194	0.65	944524	DISTRACT_END	n/a	n/a	n/a	-999	7	[0, 0, 0]	n/a	FR1	2	R1223E
920.844	0.517	945174	RETRIEVAL_ORIENT	n/a	n/a	n/a	-999	7	[0, 0, 0]	n/a	FR1	2	R1223E
921.361	30.0	945691	REC_START	n/a	n/a	n/a	-999	7	[0, 0, 0]	n/a	FR1	2	R1223E
951.361	0.013	975690	REC_WORD_VV	0.013	n/a	<>	-999	7	[0, 0, 0]	n/a	FR1	2	R1223E
951.374	199.778	975703	REC_END	n/a	n/a	n/a	-999	7	[0, 0, 0]	n/a	FR1	2	R1223E
1151.152	0.5	1175473	TRIAL	n/a	n/a	n/a	-999	8	[0, 0, 0]	n/a	FR1	2	R1223E
1151.652	10.428	1175973	COUNTDOWN_START	n/a	n/a	n/a	-999	8	[0, 0, 0]	n/a	FR1	2	R1223E
1162.08	0.007	1186401	COUNTDOWN_END	n/a	n/a	n/a	-999	8	[0, 0, 0]	n/a	FR1	2	R1223E
1162.087	1.616	1186408	ORIENT	n/a	n/a	n/a	-999	8	[0, 0, 0]	n/a	FR1	2	R1223E
1163.703	1.984	1188024	ORIENT_OFF	n/a	n/a	n/a	-999	8	[0, 0, 0]	n/a	FR1	2	R1223E
1165.687	1.617	1190008	WORD	n/a	wordpools/wordpool_EN.txt	JEEP	1	8	[0, 0, 0]	n/a	FR1	2	R1223E
1167.304	0.834	1191625	WORD_OFF	n/a	n/a	JEEP	1	8	[0, 0, 0]	n/a	FR1	2	R1223E
1168.138	1.616	1192459	WORD	n/a	wordpools/wordpool_EN.txt	ROOM	2	8	[0, 0, 0]	n/a	FR1	2	R1223E
1169.754	0.884	1194075	WORD_OFF	n/a	n/a	ROOM	2	8	[0, 0, 0]	n/a	FR1	2	R1223E
1170.638	1.617	1194959	WORD	n/a	wordpools/wordpool_EN.txt	PARK	3	8	[0, 0, 0]	n/a	FR1	2	R1223E
1172.255	0.851	1196576	WORD_OFF	n/a	n/a	PARK	3	8	[0, 0, 0]	n/a	FR1	2	R1223E
1173.106	1.616	1197427	WORD	n/a	wordpools/wordpool_EN.txt	SHIRT	4	8	[0, 0, 0]	n/a	FR1	2	R1223E
1174.722	1.017	1199042	WORD_OFF	n/a	n/a	SHIRT	4	8	[0, 0, 0]	n/a	FR1	2	R1223E
1175.739	1.617	1200059	WORD	n/a	wordpools/wordpool_EN.txt	DRESS	5	8	[0, 0, 0]	n/a	FR1	2	R1223E
1177.356	0.916	1201676	WORD_OFF	n/a	n/a	DRESS	5	8	[0, 0, 0]	n/a	FR1	2	R1223E
1178.272	1.617	1202592	WORD	n/a	wordpools/wordpool_EN.txt	MULE	6	8	[0, 0, 0]	n/a	FR1	2	R1223E
1179.889	0.867	1204209	WORD_OFF	n/a	n/a	MULE	6	8	[0, 0, 0]	n/a	FR1	2	R1223E
1180.756	1.617	1205076	WORD	n/a	wordpools/wordpool_EN.txt	LAWN	7	8	[0, 0, 0]	n/a	FR1	2	R1223E
1182.373	0.917	1206693	WORD_OFF	n/a	n/a	LAWN	7	8	[0, 0, 0]	n/a	FR1	2	R1223E
1183.29	1.617	1207610	WORD	n/a	wordpools/wordpool_EN.txt	TRUCK	8	8	[0, 0, 0]	n/a	FR1	2	R1223E
1184.907	0.983	1209227	WORD_OFF	n/a	n/a	TRUCK	8	8	[0, 0, 0]	n/a	FR1	2	R1223E
1185.89	1.617	1210210	WORD	n/a	wordpools/wordpool_EN.txt	OAR	9	8	[0, 0, 0]	n/a	FR1	2	R1223E
1187.507	0.967	1211827	WORD_OFF	n/a	n/a	OAR	9	8	[0, 0, 0]	n/a	FR1	2	R1223E
1188.474	1.618	1212794	WORD	n/a	wordpools/wordpool_EN.txt	SMILE	10	8	[0, 0, 0]	n/a	FR1	2	R1223E
1190.092	1.0	1214412	WORD_OFF	n/a	n/a	SMILE	10	8	[0, 0, 0]	n/a	FR1	2	R1223E
1191.092	1.616	1215412	WORD	n/a	wordpools/wordpool_EN.txt	HOUSE	11	8	[0, 0, 0]	n/a	FR1	2	R1223E
1192.708	0.8	1217028	WORD_OFF	n/a	n/a	HOUSE	11	8	[0, 0, 0]	n/a	FR1	2	R1223E
1193.508	1.601	1217828	WORD	n/a	wordpools/wordpool_EN.txt	SEAT	12	8	[0, 0, 0]	n/a	FR1	2	R1223E
1195.109	0.0	1219429	DISTRACT_START	n/a	n/a	n/a	-999	8	[0, 0, 0]	n/a	FR1	2	R1223E
1195.109	0.001	1219429	WORD_OFF	n/a	n/a	SEAT	12	8	[0, 0, 0]	n/a	FR1	2	R1223E
1195.11	0.016	1219430	START	n/a	n/a	n/a	-999	8	[-999, -999, -999]	n/a	FR1	2	R1223E
1195.126	9.584	1219446	PROB	9.584	n/a	n/a	-999	8	[1, 4, 2]	7	FR1	2	R1223E
1204.71	4.718	1229029	PROB	4.718	n/a	n/a	-999	8	[4, 4, 8]	16	FR1	2	R1223E
1209.428	5.584	1233747	PROB	5.584	n/a	n/a	-999	8	[2, 7, 7]	16	FR1	2	R1223E
1215.012	5.353	1239331	PROB	5.353	n/a	n/a	-999	8	[3, 4, 2]	9	FR1	2	R1223E
1220.365	0.015	1244684	STOP	n/a	n/a	n/a	-999	8	[-999, -999, -999]	n/a	FR1	2	R1223E
1220.38	0.667	1244699	DISTRACT_END	n/a	n/a	n/a	-999	8	[0, 0, 0]	n/a	FR1	2	R1223E
1221.047	0.517	1245366	RETRIEVAL_ORIENT	n/a	n/a	n/a	-999	8	[0, 0, 0]	n/a	FR1	2	R1223E
1221.564	30.0	1245883	REC_START	n/a	n/a	n/a	-999	8	[0, 0, 0]	n/a	FR1	2	R1223E
1251.564	0.011	1275881	REC_WORD_VV	0.011	n/a	<>	-999	8	[0, 0, 0]	n/a	FR1	2	R1223E
1251.575	25.915	1275892	REC_END	n/a	n/a	n/a	-999	8	[0, 0, 0]	n/a	FR1	2	R1223E
1277.49	0.5	1301806	TRIAL	n/a	n/a	n/a	-999	9	[0, 0, 0]	n/a	FR1	2	R1223E
1277.99	10.428	1302306	COUNTDOWN_START	n/a	n/a	n/a	-999	9	[0, 0, 0]	n/a	FR1	2	R1223E
1288.418	0.007	1312734	COUNTDOWN_END	n/a	n/a	n/a	-999	9	[0, 0, 0]	n/a	FR1	2	R1223E
1288.425	1.617	1312741	ORIENT	n/a	n/a	n/a	-999	9	[0, 0, 0]	n/a	FR1	2	R1223E
1290.042	2.051	1314358	ORIENT_OFF	n/a	n/a	n/a	-999	9	[0, 0, 0]	n/a	FR1	2	R1223E
1292.093	1.616	1316409	WORD	n/a	wordpools/wordpool_EN.txt	SEA	1	9	[0, 0, 0]	n/a	FR1	2	R1223E
1293.709	0.801	1318025	WORD_OFF	n/a	n/a	SEA	1	9	[0, 0, 0]	n/a	FR1	2	R1223E
1294.51	1.618	1318826	WORD	n/a	wordpools/wordpool_EN.txt	SPONGE	2	9	[0, 0, 0]	n/a	FR1	2	R1223E
1296.128	0.966	1320444	WORD_OFF	n/a	n/a	SPONGE	2	9	[0, 0, 0]	n/a	FR1	2	R1223E
1297.094	1.616	1321410	WORD	n/a	wordpools/wordpool_EN.txt	STEM	3	9	[0, 0, 0]	n/a	FR1	2	R1223E
1298.71	0.867	1323026	WORD_OFF	n/a	n/a	STEM	3	9	[0, 0, 0]	n/a	FR1	2	R1223E
1299.577	1.617	1323893	WORD	n/a	wordpools/wordpool_EN.txt	PLANT	4	9	[0, 0, 0]	n/a	FR1	2	R1223E
1301.194	1.0	1325510	WORD_OFF	n/a	n/a	PLANT	4	9	[0, 0, 0]	n/a	FR1	2	R1223E
1302.194	1.617	1326510	WORD	n/a	wordpools/wordpool_EN.txt	THREAD	5	9	[0, 0, 0]	n/a	FR1	2	R1223E
1303.811	0.9	1328126	WORD_OFF	n/a	n/a	THREAD	5	9	[0, 0, 0]	n/a	FR1	2	R1223E
1304.711	1.617	1329026	WORD	n/a	wordpools/wordpool_EN.txt	MOOSE	6	9	[0, 0, 0]	n/a	FR1	2	R1223E
1306.328	0.785	1330643	WORD_OFF	n/a	n/a	MOOSE	6	9	[0, 0, 0]	n/a	FR1	2	R1223E
1307.113	1.616	1331428	WORD	n/a	wordpools/wordpool_EN.txt	LAMB	7	9	[0, 0, 0]	n/a	FR1	2	R1223E
1308.729	0.816	1333044	WORD_OFF	n/a	n/a	LAMB	7	9	[0, 0, 0]	n/a	FR1	2	R1223E
1309.545	1.618	1333860	WORD	n/a	wordpools/wordpool_EN.txt	FOOD	8	9	[0, 0, 0]	n/a	FR1	2	R1223E
1311.163	1.017	1335478	WORD_OFF	n/a	n/a	FOOD	8	9	[0, 0, 0]	n/a	FR1	2	R1223E
1312.18	1.616	1336495	WORD	n/a	wordpools/wordpool_EN.txt	RICE	9	9	[0, 0, 0]	n/a	FR1	2	R1223E
1313.796	0.884	1338111	WORD_OFF	n/a	n/a	RICE	9	9	[0, 0, 0]	n/a	FR1	2	R1223E
1314.68	1.617	1338995	WORD	n/a	wordpools/wordpool_EN.txt	PEARL	10	9	[0, 0, 0]	n/a	FR1	2	R1223E
1316.297	0.9	1340612	WORD_OFF	n/a	n/a	PEARL	10	9	[0, 0, 0]	n/a	FR1	2	R1223E
1317.197	1.617	1341512	WORD	n/a	wordpools/wordpool_EN.txt	SHRIMP	11	9	[0, 0, 0]	n/a	FR1	2	R1223E
1318.814	0.85	1343129	WORD_OFF	n/a	n/a	SHRIMP	11	9	[0, 0, 0]	n/a	FR1	2	R1223E
1319.664	1.617	1343979	WORD	n/a	wordpools/wordpool_EN.txt	SEED	12	9	[0, 0, 0]	n/a	FR1	2	R1223E
1321.281	0.0	1345596	WORD_OFF	n/a	n/a	SEED	12	9	[0, 0, 0]	n/a	FR1	2	R1223E
1321.281	0.0	1345596	DISTRACT_START	n/a	n/a	n/a	-999	9	[0, 0, 0]	n/a	FR1	2	R1223E
1321.281	0.017	1345596	START	n/a	n/a	n/a	-999	9	[-999, -999, -999]	n/a	FR1	2	R1223E
1321.298	8.284	1345613	PROB	8.284	n/a	n/a	-999	9	[5, 9, 3]	17	FR1	2	R1223E
1329.582	9.902	1353896	PROB	9.902	n/a	n/a	-999	9	[7, 6, 5]	18	FR1	2	R1223E
1339.484	3.617	1363798	PROB	3.617	n/a	n/a	-999	9	[1, 1, 3]	5	FR1	2	R1223E
1343.101	0.018	1367415	STOP	n/a	n/a	n/a	-999	9	[-999, -999, -999]	n/a	FR1	2	R1223E
1343.119	0.649	1367433	DISTRACT_END	n/a	n/a	n/a	-999	9	[0, 0, 0]	n/a	FR1	2	R1223E
1343.768	0.518	1368082	RETRIEVAL_ORIENT	n/a	n/a	n/a	-999	9	[0, 0, 0]	n/a	FR1	2	R1223E
1344.286	1.81	1368600	REC_START	n/a	n/a	n/a	-999	9	[0, 0, 0]	n/a	FR1	2	R1223E
1346.096	1.958	1370410	REC_WORD	1.958	n/a	FOOD	-999	9	[0, 0, 0]	n/a	FR1	2	R1223E
1348.054	2.233	1372368	REC_WORD	2.233	n/a	RICE	-999	9	[0, 0, 0]	n/a	FR1	2	R1223E
1350.287	2.805	1374601	REC_WORD	2.805	n/a	SEED	-999	9	[0, 0, 0]	n/a	FR1	2	R1223E
1353.092	21.206	1377406	REC_WORD	21.206	n/a	SHRIMP	-999	9	[0, 0, 0]	n/a	FR1	2	R1223E
1374.298	5.828	1398611	REC_END	n/a	n/a	n/a	-999	9	[0, 0, 0]	n/a	FR1	2	R1223E
1380.126	0.5	1404438	TRIAL	n/a	n/a	n/a	-999	10	[0, 0, 0]	n/a	FR1	2	R1223E
1380.626	10.428	1404938	COUNTDOWN_START	n/a	n/a	n/a	-999	10	[0, 0, 0]	n/a	FR1	2	R1223E
1391.054	0.006	1415366	COUNTDOWN_END	n/a	n/a	n/a	-999	10	[0, 0, 0]	n/a	FR1	2	R1223E
1391.06	1.617	1415372	ORIENT	n/a	n/a	n/a	-999	10	[0, 0, 0]	n/a	FR1	2	R1223E
1392.677	1.95	1416989	ORIENT_OFF	n/a	n/a	n/a	-999	10	[0, 0, 0]	n/a	FR1	2	R1223E
1394.627	1.617	1418939	WORD	n/a	wordpools/wordpool_EN.txt	MUG	1	10	[0, 0, 0]	n/a	FR1	2	R1223E
1396.244	0.935	1420556	WORD_OFF	n/a	n/a	MUG	1	10	[0, 0, 0]	n/a	FR1	2	R1223E
1397.179	1.616	1421491	WORD	n/a	wordpools/wordpool_EN.txt	SLEEVE	2	10	[0, 0, 0]	n/a	FR1	2	R1223E
1398.795	0.95	1423107	WORD_OFF	n/a	n/a	SLEEVE	2	10	[0, 0, 0]	n/a	FR1	2	R1223E
1399.745	1.617	1424057	WORD	n/a	wordpools/wordpool_EN.txt	BRUSH	3	10	[0, 0, 0]	n/a	FR1	2	R1223E
1401.362	0.833	1425674	WORD_OFF	n/a	n/a	BRUSH	3	10	[0, 0, 0]	n/a	FR1	2	R1223E
1402.195	1.617	1426507	WORD	n/a	wordpools/wordpool_EN.txt	PIT	4	10	[0, 0, 0]	n/a	FR1	2	R1223E
1403.812	1.0	1428124	WORD_OFF	n/a	n/a	PIT	4	10	[0, 0, 0]	n/a	FR1	2	R1223E
1404.812	1.617	1429124	WORD	n/a	wordpools/wordpool_EN.txt	FAN	5	10	[0, 0, 0]	n/a	FR1	2	R1223E
1406.429	0.883	1430740	WORD_OFF	n/a	n/a	FAN	5	10	[0, 0, 0]	n/a	FR1	2	R1223E
1407.312	1.618	1431623	WORD	n/a	wordpools/wordpool_EN.txt	BROOM	6	10	[0, 0, 0]	n/a	FR1	2	R1223E
1408.93	0.883	1433241	WORD_OFF	n/a	n/a	BROOM	6	10	[0, 0, 0]	n/a	FR1	2	R1223E
1409.813	1.617	1434124	WORD	n/a	wordpools/wordpool_EN.txt	PIG	7	10	[0, 0, 0]	n/a	FR1	2	R1223E
1411.43	0.984	1435741	WORD_OFF	n/a	n/a	PIG	7	10	[0, 0, 0]	n/a	FR1	2	R1223E
1412.414	1.617	1436725	WORD	n/a	wordpools/wordpool_EN.txt	BOX	8	10	[0, 0, 0]	n/a	FR1	2	R1223E
1414.031	0.983	1438342	WORD_OFF	n/a	n/a	BOX	8	10	[0, 0, 0]	n/a	FR1	2	R1223E
1415.014	1.617	1439325	WORD	n/a	wordpools/wordpool_EN.txt	HOSE	9	10	[0, 0, 0]	n/a	FR1	2	R1223E
1416.631	0.783	1440942	WORD_OFF	n/a	n/a	HOSE	9	10	[0, 0, 0]	n/a	FR1	2	R1223E
1417.414	1.617	1441725	WORD	n/a	wordpools/wordpool_EN.txt	FUDGE	10	10	[0, 0, 0]	n/a	FR1	2	R1223E
1419.031	0.767	1443342	WORD_OFF	n/a	n/a	FUDGE	10	10	[0, 0, 0]	n/a	FR1	2	R1223E
1419.798	1.617	1444109	WORD	n/a	wordpools/wordpool_EN.txt	RAT	11	10	[0, 0, 0]	n/a	FR1	2	R1223E
1421.415	0.784	1445726	WORD_OFF	n/a	n/a	RAT	11	10	[0, 0, 0]	n/a	FR1	2	R1223E
1422.199	1.617	1446510	WORD	n/a	wordpools/wordpool_EN.txt	COUCH	12	10	[0, 0, 0]	n/a	FR1	2	R1223E
1423.816	0.0	1448127	DISTRACT_START	n/a	n/a	n/a	-999	10	[0, 0, 0]	n/a	FR1	2	R1223E
1423.816	0.0	1448127	WORD_OFF	n/a	n/a	COUCH	12	10	[0, 0, 0]	n/a	FR1	2	R1223E
1423.816	0.016	1448127	START	n/a	n/a	n/a	-999	10	[-999, -999, -999]	n/a	FR1	2	R1223E
1423.832	9.902	1448143	PROB	9.902	n/a	n/a	-999	10	[2, 7, 8]	17	FR1	2	R1223E
1433.734	4.551	1458044	PROB	4.551	n/a	n/a	-999	10	[5, 1, 6]	12	FR1	2	R1223E
1438.285	9.204	1462595	PROB	9.204	n/a	n/a	-999	10	[2, 6, 9]	17	FR1	2	R1223E
1447.489	0.014	1471799	STOP	n/a	n/a	n/a	-999	10	[-999, -999, -999]	n/a	FR1	2	R1223E
1447.503	0.685	1471813	DISTRACT_END	n/a	n/a	n/a	-999	10	[0, 0, 0]	n/a	FR1	2	R1223E
1448.188	0.516	1472498	RETRIEVAL_ORIENT	n/a	n/a	n/a	-999	10	[0, 0, 0]	n/a	FR1	2	R1223E
1448.704	1.933	1473014	REC_START	n/a	n/a	n/a	-999	10	[0, 0, 0]	n/a	FR1	2	R1223E
1450.637	6.384	1474947	REC_WORD	6.384	n/a	COUCH	-999	10	[0, 0, 0]	n/a	FR1	2	R1223E
1457.021	21.694	1481331	REC_WORD	21.694	n/a	MUG	-999	10	[0, 0, 0]	n/a	FR1	2	R1223E
1478.715	6.446	1503024	REC_END	n/a	n/a	n/a	-999	10	[0, 0, 0]	n/a	FR1	2	R1223E
1485.161	0.5	1509469	TRIAL	n/a	n/a	n/a	-999	11	[0, 0, 0]	n/a	FR1	2	R1223E
1485.661	10.428	1509969	COUNTDOWN_START	n/a	n/a	n/a	-999	11	[0, 0, 0]	n/a	FR1	2	R1223E
1496.089	0.007	1520397	COUNTDOWN_END	n/a	n/a	n/a	-999	11	[0, 0, 0]	n/a	FR1	2	R1223E
1496.096	1.616	1520404	ORIENT	n/a	n/a	n/a	-999	11	[0, 0, 0]	n/a	FR1	2	R1223E
1497.712	2.084	1522020	ORIENT_OFF	n/a	n/a	n/a	-999	11	[0, 0, 0]	n/a	FR1	2	R1223E
1499.796	1.616	1524104	WORD	n/a	wordpools/wordpool_EN.txt	DOLL	1	11	[0, 0, 0]	n/a	FR1	2	R1223E
1501.412	1.001	1525720	WORD_OFF	n/a	n/a	DOLL	1	11	[0, 0, 0]	n/a	FR1	2	R1223E
1502.413	1.617	1526721	WORD	n/a	wordpools/wordpool_EN.txt	BOOT	2	11	[0, 0, 0]	n/a	FR1	2	R1223E
1504.03	0.783	1528338	WORD_OFF	n/a	n/a	BOOT	2	11	[0, 0, 0]	n/a	FR1	2	R1223E
1504.813	1.617	1529121	WORD	n/a	wordpools/wordpool_EN.txt	DESK	3	11	[0, 0, 0]	n/a	FR1	2	R1223E
1506.43	0.95	1530738	WORD_OFF	n/a	n/a	DESK	3	11	[0, 0, 0]	n/a	FR1	2	R1223E
1507.38	1.617	1531688	WORD	n/a	wordpools/wordpool_EN.txt	CLOTH	4	11	[0, 0, 0]	n/a	FR1	2	R1223E
1508.997	1.0	1533305	WORD_OFF	n/a	n/a	CLOTH	4	11	[0, 0, 0]	n/a	FR1	2	R1223E
1509.997	1.617	1534304	WORD	n/a	wordpools/wordpool_EN.txt	SOUP	5	11	[0, 0, 0]	n/a	FR1	2	R1223E
1511.614	0.8	1535921	WORD_OFF	n/a	n/a	SOUP	5	11	[0, 0, 0]	n/a	FR1	2	R1223E
1512.414	1.617	1536721	WORD	n/a	wordpools/wordpool_EN.txt	ROSE	6	11	[0, 0, 0]	n/a	FR1	2	R1223E
1514.031	0.884	1538338	WORD_OFF	n/a	n/a	ROSE	6	11	[0, 0, 0]	n/a	FR1	2	R1223E
1514.915	1.617	1539222	WORD	n/a	wordpools/wordpool_EN.txt	HAT	7	11	[0, 0, 0]	n/a	FR1	2	R1223E
1516.532	0.917	1540839	WORD_OFF	n/a	n/a	HAT	7	11	[0, 0, 0]	n/a	FR1	2	R1223E
1517.449	1.617	1541756	WORD	n/a	wordpools/wordpool_EN.txt	STOVE	8	11	[0, 0, 0]	n/a	FR1	2	R1223E
1519.066	0.783	1543373	WORD_OFF	n/a	n/a	STOVE	8	11	[0, 0, 0]	n/a	FR1	2	R1223E
1519.849	1.617	1544156	WORD	n/a	wordpools/wordpool_EN.txt	PIN	9	11	[0, 0, 0]	n/a	FR1	2	R1223E
1521.466	0.784	1545773	WORD_OFF	n/a	n/a	PIN	9	11	[0, 0, 0]	n/a	FR1	2	R1223E
1522.25	1.617	1546557	WORD	n/a	wordpools/wordpool_EN.txt	APE	10	11	[0, 0, 0]	n/a	FR1	2	R1223E
1523.867	0.983	1548174	WORD_OFF	n/a	n/a	APE	10	11	[0, 0, 0]	n/a	FR1	2	R1223E
1524.85	1.617	1549157	WORD	n/a	wordpools/wordpool_EN.txt	GLASS	11	11	[0, 0, 0]	n/a	FR1	2	R1223E
1526.467	0.85	1550774	WORD_OFF	n/a	n/a	GLASS	11	11	[0, 0, 0]	n/a	FR1	2	R1223E
1527.317	1.617	1551624	WORD	n/a	wordpools/wordpool_EN.txt	LAMP	12	11	[0, 0, 0]	n/a	FR1	2	R1223E
1528.934	0.0	1553241	WORD_OFF	n/a	n/a	LAMP	12	11	[0, 0, 0]	n/a	FR1	2	R1223E
1528.934	0.001	1553241	DISTRACT_START	n/a	n/a	n/a	-999	11	[0, 0, 0]	n/a	FR1	2	R1223E
1528.935	0.016	1553242	START	n/a	n/a	n/a	-999	11	[-999, -999, -999]	n/a	FR1	2	R1223E
1528.951	8.169	1553258	PROB	8.169	n/a	n/a	-999	11	[8, 7, 4]	19	FR1	2	R1223E
1537.12	4.967	1561426	PROB	4.967	n/a	n/a	-999	11	[8, 9, 1]	18	FR1	2	R1223E
1542.087	7.522	1566393	PROB	7.522	n/a	n/a	-999	11	[5, 3, 2]	10	FR1	2	R1223E
1549.609	0.012	1573915	STOP	n/a	n/a	n/a	-999	11	[-999, -999, -999]	n/a	FR1	2	R1223E
1549.621	0.551	1573927	DISTRACT_END	n/a	n/a	n/a	-999	11	[0, 0, 0]	n/a	FR1	2	R1223E
1550.172	0.517	1574478	RETRIEVAL_ORIENT	n/a	n/a	n/a	-999	11	[0, 0, 0]	n/a	FR1	2	R1223E
1550.689	5.02	1574995	REC_START	n/a	n/a	n/a	-999	11	[0, 0, 0]	n/a	FR1	2	R1223E
1555.709	14.28	1580015	REC_WORD	14.28	n/a	CLOTH	-999	11	[0, 0, 0]	n/a	FR1	2	R1223E
1569.989	10.711	1594294	REC_WORD	10.711	n/a	DESK	-999	11	[0, 0, 0]	n/a	FR1	2	R1223E
1580.7	6.744	1605005	REC_END	n/a	n/a	n/a	-999	11	[0, 0, 0]	n/a	FR1	2	R1223E
1587.444	0.5	1611748	TRIAL	n/a	n/a	n/a	-999	12	[0, 0, 0]	n/a	FR1	2	R1223E
1587.944	10.428	1612248	COUNTDOWN_START	n/a	n/a	n/a	-999	12	[0, 0, 0]	n/a	FR1	2	R1223E
1598.372	0.008	1622676	COUNTDOWN_END	n/a	n/a	n/a	-999	12	[0, 0, 0]	n/a	FR1	2	R1223E
1598.38	1.617	1622684	ORIENT	n/a	n/a	n/a	-999	12	[0, 0, 0]	n/a	FR1	2	R1223E
1599.997	2.101	1624301	ORIENT_OFF	n/a	n/a	n/a	-999	12	[0, 0, 0]	n/a	FR1	2	R1223E
1602.098	1.616	1626402	WORD	n/a	wordpools/wordpool_EN.txt	PASTE	1	12	[0, 0, 0]	n/a	FR1	2	R1223E
1603.714	0.767	1628018	WORD_OFF	n/a	n/a	PASTE	1	12	[0, 0, 0]	n/a	FR1	2	R1223E
1604.481	1.618	1628785	WORD	n/a	wordpools/wordpool_EN.txt	BEAN	2	12	[0, 0, 0]	n/a	FR1	2	R1223E
1606.099	0.983	1630403	WORD_OFF	n/a	n/a	BEAN	2	12	[0, 0, 0]	n/a	FR1	2	R1223E
1607.082	1.616	1631386	WORD	n/a	wordpools/wordpool_EN.txt	TRAY	3	12	[0, 0, 0]	n/a	FR1	2	R1223E
1608.698	0.834	1633002	WORD_OFF	n/a	n/a	TRAY	3	12	[0, 0, 0]	n/a	FR1	2	R1223E
1609.532	1.618	1633836	WORD	n/a	wordpools/wordpool_EN.txt	FRUIT	4	12	[0, 0, 0]	n/a	FR1	2	R1223E
1611.15	0.899	1635454	WORD_OFF	n/a	n/a	FRUIT	4	12	[0, 0, 0]	n/a	FR1	2	R1223E
1612.049	1.617	1636353	WORD	n/a	wordpools/wordpool_EN.txt	PLATE	5	12	[0, 0, 0]	n/a	FR1	2	R1223E
1613.666	0.916	1637969	WORD_OFF	n/a	n/a	PLATE	5	12	[0, 0, 0]	n/a	FR1	2	R1223E
1614.582	1.617	1638885	WORD	n/a	wordpools/wordpool_EN.txt	CART	6	12	[0, 0, 0]	n/a	FR1	2	R1223E
1616.199	0.901	1640502	WORD_OFF	n/a	n/a	CART	6	12	[0, 0, 0]	n/a	FR1	2	R1223E
1617.1	1.616	1641403	WORD	n/a	wordpools/wordpool_EN.txt	SHARK	7	12	[0, 0, 0]	n/a	FR1	2	R1223E
1618.716	0.767	1643019	WORD_OFF	n/a	n/a	SHARK	7	12	[0, 0, 0]	n/a	FR1	2	R1223E
1619.483	1.618	1643786	WORD	n/a	wordpools/wordpool_EN.txt	FENCE	8	12	[0, 0, 0]	n/a	FR1	2	R1223E
1621.101	0.883	1645404	WORD_OFF	n/a	n/a	FENCE	8	12	[0, 0, 0]	n/a	FR1	2	R1223E
1621.984	1.617	1646287	WORD	n/a	wordpools/wordpool_EN.txt	CHALK	9	12	[0, 0, 0]	n/a	FR1	2	R1223E
1623.601	1.0	1647904	WORD_OFF	n/a	n/a	CHALK	9	12	[0, 0, 0]	n/a	FR1	2	R1223E
1624.601	1.617	1648904	WORD	n/a	wordpools/wordpool_EN.txt	INK	10	12	[0, 0, 0]	n/a	FR1	2	R1223E
1626.218	0.8	1650521	WORD_OFF	n/a	n/a	INK	10	12	[0, 0, 0]	n/a	FR1	2	R1223E
1627.018	1.617	1651321	WORD	n/a	wordpools/wordpool_EN.txt	STONE	11	12	[0, 0, 0]	n/a	FR1	2	R1223E
1628.635	0.85	1652938	WORD_OFF	n/a	n/a	STONE	11	12	[0, 0, 0]	n/a	FR1	2	R1223E
1629.485	1.618	1653788	WORD	n/a	wordpools/wordpool_EN.txt	SALT	12	12	[0, 0, 0]	n/a	FR1	2	R1223E
1631.103	0.0	1655406	WORD_OFF	n/a	n/a	SALT	12	12	[0, 0, 0]	n/a	FR1	2	R1223E
1631.103	0.001	1655406	DISTRACT_START	n/a	n/a	n/a	-999	12	[0, 0, 0]	n/a	FR1	2	R1223E
1631.104	0.016	1655407	START	n/a	n/a	n/a	-999	12	[-999, -999, -999]	n/a	FR1	2	R1223E
1631.12	12.234	1655423	PROB	12.234	n/a	n/a	-999	12	[7, 6, 8]	21	FR1	2	R1223E
1643.354	3.434	1667656	PROB	3.434	n/a	n/a	-999	12	[5, 5, 1]	11	FR1	2	R1223E
1646.788	6.494	1671090	PROB	6.494	n/a	n/a	-999	12	[5, 7, 7]	19	FR1	2	R1223E
1653.282	0.007	1677584	STOP	n/a	n/a	n/a	-999	12	[-999, -999, -999]	n/a	FR1	2	R1223E
1653.289	0.517	1677591	DISTRACT_END	n/a	n/a	n/a	-999	12	[0, 0, 0]	n/a	FR1	2	R1223E
1653.806	0.517	1678108	RETRIEVAL_ORIENT	n/a	n/a	n/a	-999	12	[0, 0, 0]	n/a	FR1	2	R1223E
1654.323	2.814	1678625	REC_START	n/a	n/a	n/a	-999	12	[0, 0, 0]	n/a	FR1	2	R1223E
1657.137	18.027	1681439	REC_WORD	18.027	n/a	STONE	-999	12	[0, 0, 0]	n/a	FR1	2	R1223E
1675.164	9.17	1699465	REC_WORD	9.17	n/a	SINK	-999	12	[0, 0, 0]	n/a	FR1	2	R1223E
1684.334	6.979	1708635	REC_END	n/a	n/a	n/a	-999	12	[0, 0, 0]	n/a	FR1	2	R1223E
1691.313	0.5	1715613	TRIAL	n/a	n/a	n/a	-999	13	[0, 0, 0]	n/a	FR1	2	R1223E
1691.813	10.428	1716113	COUNTDOWN_START	n/a	n/a	n/a	-999	13	[0, 0, 0]	n/a	FR1	2	R1223E
1702.241	0.007	1726541	COUNTDOWN_END	n/a	n/a	n/a	-999	13	[0, 0, 0]	n/a	FR1	2	R1223E
1702.248	1.617	1726548	ORIENT	n/a	n/a	n/a	-999	13	[0, 0, 0]	n/a	FR1	2	R1223E
1703.865	2.117	1728165	ORIENT_OFF	n/a	n/a	n/a	-999	13	[0, 0, 0]	n/a	FR1	2	R1223E
1705.982	1.617	1730282	WORD	n/a	wordpools/wordpool_EN.txt	FLAG	1	13	[0, 0, 0]	n/a	FR1	2	R1223E
1707.599	0.917	1731899	WORD_OFF	n/a	n/a	FLAG	1	13	[0, 0, 0]	n/a	FR1	2	R1223E
1708.516	1.618	1732816	WORD	n/a	wordpools/wordpool_EN.txt	DOCK	2	13	[0, 0, 0]	n/a	FR1	2	R1223E
1710.134	0.865	1734434	WORD_OFF	n/a	n/a	DOCK	2	13	[0, 0, 0]	n/a	FR1	2	R1223E
1710.999	1.617	1735299	WORD	n/a	wordpools/wordpool_EN.txt	YARD	3	13	[0, 0, 0]	n/a	FR1	2	R1223E
1712.616	0.784	1736916	WORD_OFF	n/a	n/a	YARD	3	13	[0, 0, 0]	n/a	FR1	2	R1223E
1713.4	1.617	1737700	WORD	n/a	wordpools/wordpool_EN.txt	WAND	4	13	[0, 0, 0]	n/a	FR1	2	R1223E
1715.017	1.0	1739317	WORD_OFF	n/a	n/a	WAND	4	13	[0, 0, 0]	n/a	FR1	2	R1223E
1716.017	1.617	1740317	WORD	n/a	wordpools/wordpool_EN.txt	SNOW	5	13	[0, 0, 0]	n/a	FR1	2	R1223E
1717.634	0.833	1741933	WORD_OFF	n/a	n/a	SNOW	5	13	[0, 0, 0]	n/a	FR1	2	R1223E
1718.467	1.618	1742766	WORD	n/a	wordpools/wordpool_EN.txt	SUIT	6	13	[0, 0, 0]	n/a	FR1	2	R1223E
1720.085	0.766	1744384	WORD_OFF	n/a	n/a	SUIT	6	13	[0, 0, 0]	n/a	FR1	2	R1223E
1720.851	1.617	1745150	WORD	n/a	wordpools/wordpool_EN.txt	OAK	7	13	[0, 0, 0]	n/a	FR1	2	R1223E
1722.468	0.767	1746767	WORD_OFF	n/a	n/a	OAK	7	13	[0, 0, 0]	n/a	FR1	2	R1223E
1723.235	1.617	1747534	WORD	n/a	wordpools/wordpool_EN.txt	ROPE	8	13	[0, 0, 0]	n/a	FR1	2	R1223E
1724.852	0.833	1749151	WORD_OFF	n/a	n/a	ROPE	8	13	[0, 0, 0]	n/a	FR1	2	R1223E
1725.685	1.617	1749984	WORD	n/a	wordpools/wordpool_EN.txt	FOOT	9	13	[0, 0, 0]	n/a	FR1	2	R1223E
1727.302	0.885	1751601	WORD_OFF	n/a	n/a	FOOT	9	13	[0, 0, 0]	n/a	FR1	2	R1223E
1728.187	1.616	1752486	WORD	n/a	wordpools/wordpool_EN.txt	HEART	10	13	[0, 0, 0]	n/a	FR1	2	R1223E
1729.803	0.833	1754102	WORD_OFF	n/a	n/a	HEART	10	13	[0, 0, 0]	n/a	FR1	2	R1223E
1730.636	1.617	1754935	WORD	n/a	wordpools/wordpool_EN.txt	SIGN	11	13	[0, 0, 0]	n/a	FR1	2	R1223E
1732.253	0.901	1756552	WORD_OFF	n/a	n/a	SIGN	11	13	[0, 0, 0]	n/a	FR1	2	R1223E
1733.154	1.616	1757453	WORD	n/a	wordpools/wordpool_EN.txt	SKY	12	13	[0, 0, 0]	n/a	FR1	2	R1223E
1734.77	0.0	1759069	WORD_OFF	n/a	n/a	SKY	12	13	[0, 0, 0]	n/a	FR1	2	R1223E
1734.77	0.001	1759069	DISTRACT_START	n/a	n/a	n/a	-999	13	[0, 0, 0]	n/a	FR1	2	R1223E
1734.771	0.016	1759070	START	n/a	n/a	n/a	-999	13	[-999, -999, -999]	n/a	FR1	2	R1223E
1734.787	6.451	1759086	PROB	6.451	n/a	n/a	-999	13	[7, 7, 6]	20	FR1	2	R1223E
1741.238	5.568	1765537	PROB	5.568	n/a	n/a	-999	13	[5, 4, 6]	15	FR1	2	R1223E
1746.806	6.651	1771104	PROB	6.651	n/a	n/a	-999	13	[6, 9, 3]	18	FR1	2	R1223E
1753.457	5.844	1777755	PROB	5.844	n/a	n/a	-999	13	[4, 7, 6]	17	FR1	2	R1223E
1759.301	0.007	1783599	STOP	n/a	n/a	n/a	-999	13	[-999, -999, -999]	n/a	FR1	2	R1223E
1759.308	0.633	1783606	DISTRACT_END	n/a	n/a	n/a	-999	13	[0, 0, 0]	n/a	FR1	2	R1223E
1759.941	0.518	1784239	RETRIEVAL_ORIENT	n/a	n/a	n/a	-999	13	[0, 0, 0]	n/a	FR1	2	R1223E
1760.459	30.0	1784757	REC_START	n/a	n/a	n/a	-999	13	[0, 0, 0]	n/a	FR1	2	R1223E
1790.459	0.012	1814756	REC_WORD_VV	0.012	n/a	<>	-999	13	[0, 0, 0]	n/a	FR1	2	R1223E
1790.471	162.904	1814768	REC_END	n/a	n/a	n/a	-999	13	[0, 0, 0]	n/a	FR1	2	R1223E
1953.375	0.5	1977665	TRIAL	n/a	n/a	n/a	-999	14	[0, 0, 0]	n/a	FR1	2	R1223E
1953.875	10.428	1978165	COUNTDOWN_START	n/a	n/a	n/a	-999	14	[0, 0, 0]	n/a	FR1	2	R1223E
1964.303	0.008	1988593	COUNTDOWN_END	n/a	n/a	n/a	-999	14	[0, 0, 0]	n/a	FR1	2	R1223E
1964.311	1.617	1988601	ORIENT	n/a	n/a	n/a	-999	14	[0, 0, 0]	n/a	FR1	2	R1223E
1965.928	2.083	1990218	ORIENT_OFF	n/a	n/a	n/a	-999	14	[0, 0, 0]	n/a	FR1	2	R1223E
1968.011	1.617	1992301	WORD	n/a	wordpools/wordpool_EN.txt	CHIEF	1	14	[0, 0, 0]	n/a	FR1	2	R1223E
1969.628	1.0	1993918	WORD_OFF	n/a	n/a	CHIEF	1	14	[0, 0, 0]	n/a	FR1	2	R1223E
1970.628	1.617	1994918	WORD	n/a	wordpools/wordpool_EN.txt	WEED	2	14	[0, 0, 0]	n/a	FR1	2	R1223E
1972.245	0.835	1996535	WORD_OFF	n/a	n/a	WEED	2	14	[0, 0, 0]	n/a	FR1	2	R1223E
1973.08	1.616	1997370	WORD	n/a	wordpools/wordpool_EN.txt	STEAM	3	14	[0, 0, 0]	n/a	FR1	2	R1223E
1974.696	0.767	1998985	WORD_OFF	n/a	n/a	STEAM	3	14	[0, 0, 0]	n/a	FR1	2	R1223E
1975.463	1.618	1999752	WORD	n/a	wordpools/wordpool_EN.txt	FOG	4	14	[0, 0, 0]	n/a	FR1	2	R1223E
1977.081	0.815	2001370	WORD_OFF	n/a	n/a	FOG	4	14	[0, 0, 0]	n/a	FR1	2	R1223E
1977.896	1.617	2002185	WORD	n/a	wordpools/wordpool_EN.txt	SHIP	5	14	[0, 0, 0]	n/a	FR1	2	R1223E
1979.513	0.884	2003802	WORD_OFF	n/a	n/a	SHIP	5	14	[0, 0, 0]	n/a	FR1	2	R1223E
1980.397	1.617	2004686	WORD	n/a	wordpools/wordpool_EN.txt	SWORD	6	14	[0, 0, 0]	n/a	FR1	2	R1223E
1982.014	0.9	2006303	WORD_OFF	n/a	n/a	SWORD	6	14	[0, 0, 0]	n/a	FR1	2	R1223E
1982.914	1.617	2007203	WORD	n/a	wordpools/wordpool_EN.txt	SMOKE	7	14	[0, 0, 0]	n/a	FR1	2	R1223E
1984.531	0.85	2008820	WORD_OFF	n/a	n/a	SMOKE	7	14	[0, 0, 0]	n/a	FR1	2	R1223E
1985.381	1.617	2009670	WORD	n/a	wordpools/wordpool_EN.txt	SAIL	8	14	[0, 0, 0]	n/a	FR1	2	R1223E
1986.998	0.933	2011287	WORD_OFF	n/a	n/a	SAIL	8	14	[0, 0, 0]	n/a	FR1	2	R1223E
1987.931	1.617	2012220	WORD	n/a	wordpools/wordpool_EN.txt	TRAIN	9	14	[0, 0, 0]	n/a	FR1	2	R1223E
1989.548	0.834	2013837	WORD_OFF	n/a	n/a	TRAIN	9	14	[0, 0, 0]	n/a	FR1	2	R1223E
1990.382	1.617	2014671	WORD	n/a	wordpools/wordpool_EN.txt	STAR	10	14	[0, 0, 0]	n/a	FR1	2	R1223E
1991.999	0.9	2016288	WORD_OFF	n/a	n/a	STAR	10	14	[0, 0, 0]	n/a	FR1	2	R1223E
1992.899	1.617	2017188	WORD	n/a	wordpools/wordpool_EN.txt	FORT	11	14	[0, 0, 0]	n/a	FR1	2	R1223E
1994.516	0.983	2018805	WORD_OFF	n/a	n/a	FORT	11	14	[0, 0, 0]	n/a	FR1	2	R1223E
1995.499	1.618	2019788	WORD	n/a	wordpools/wordpool_EN.txt	SHIELD	12	14	[0, 0, 0]	n/a	FR1	2	R1223E
1997.117	0.0	2021406	WORD_OFF	n/a	n/a	SHIELD	12	14	[0, 0, 0]	n/a	FR1	2	R1223E
1997.117	0.001	2021406	DISTRACT_START	n/a	n/a	n/a	-999	14	[0, 0, 0]	n/a	FR1	2	R1223E
1997.118	0.016	2021407	START	n/a	n/a	n/a	-999	14	[-999, -999, -999]	n/a	FR1	2	R1223E
1997.134	8.018	2021423	PROB	8.018	n/a	n/a	-999	14	[7, 9, 8]	24	FR1	2	R1223E
2005.152	7.584	2029440	PROB	7.584	n/a	n/a	-999	14	[3, 2, 4]	9	FR1	2	R1223E
2012.736	6.758	2037024	PROB	6.758	n/a	n/a	-999	14	[4, 7, 4]	15	FR1	2	R1223E
2019.494	0.01	2043782	STOP	n/a	n/a	n/a	-999	14	[-999, -999, -999]	n/a	FR1	2	R1223E
2019.504	0.684	2043792	DISTRACT_END	n/a	n/a	n/a	-999	14	[0, 0, 0]	n/a	FR1	2	R1223E
2020.188	0.517	2044476	RETRIEVAL_ORIENT	n/a	n/a	n/a	-999	14	[0, 0, 0]	n/a	FR1	2	R1223E
2020.705	1.967	2044993	REC_START	n/a	n/a	n/a	-999	14	[0, 0, 0]	n/a	FR1	2	R1223E
2022.672	19.176	2046960	REC_WORD	19.176	n/a	SHIELD	-999	14	[0, 0, 0]	n/a	FR1	2	R1223E
2041.848	8.232	2066135	REC_WORD	8.232	n/a	STEAM	-999	14	[0, 0, 0]	n/a	FR1	2	R1223E
2050.08	0.636	2074367	REC_WORD	0.636	n/a	INK	-999	14	[0, 0, 0]	n/a	FR1	2	R1223E
2050.716	7.761	2075003	REC_END	n/a	n/a	n/a	-999	14	[0, 0, 0]	n/a	FR1	2	R1223E
2058.477	0.5	2082763	TRIAL	n/a	n/a	n/a	-999	15	[0, 0, 0]	n/a	FR1	2	R1223E
2058.977	10.428	2083263	COUNTDOWN_START	n/a	n/a	n/a	-999	15	[0, 0, 0]	n/a	FR1	2	R1223E
2069.405	0.007	2093691	COUNTDOWN_END	n/a	n/a	n/a	-999	15	[0, 0, 0]	n/a	FR1	2	R1223E
2069.412	1.617	2093698	ORIENT	n/a	n/a	n/a	-999	15	[0, 0, 0]	n/a	FR1	2	R1223E
2071.029	2.184	2095315	ORIENT_OFF	n/a	n/a	n/a	-999	15	[0, 0, 0]	n/a	FR1	2	R1223E
2073.213	1.617	2097499	WORD	n/a	wordpools/wordpool_EN.txt	JAIL	1	15	[0, 0, 0]	n/a	FR1	2	R1223E
2074.83	0.833	2099116	WORD_OFF	n/a	n/a	JAIL	1	15	[0, 0, 0]	n/a	FR1	2	R1223E
2075.663	1.618	2099949	WORD	n/a	wordpools/wordpool_EN.txt	BANK	2	15	[0, 0, 0]	n/a	FR1	2	R1223E
2077.281	0.95	2101567	WORD_OFF	n/a	n/a	BANK	2	15	[0, 0, 0]	n/a	FR1	2	R1223E
2078.231	1.617	2102516	WORD	n/a	wordpools/wordpool_EN.txt	LAKE	3	15	[0, 0, 0]	n/a	FR1	2	R1223E
2079.848	0.95	2104133	WORD_OFF	n/a	n/a	LAKE	3	15	[0, 0, 0]	n/a	FR1	2	R1223E
2080.798	1.617	2105083	WORD	n/a	wordpools/wordpool_EN.txt	HILL	4	15	[0, 0, 0]	n/a	FR1	2	R1223E
2082.415	0.817	2106700	WORD_OFF	n/a	n/a	HILL	4	15	[0, 0, 0]	n/a	FR1	2	R1223E
2083.232	1.617	2107517	WORD	n/a	wordpools/wordpool_EN.txt	BLUSH	5	15	[0, 0, 0]	n/a	FR1	2	R1223E
2084.849	0.983	2109134	WORD_OFF	n/a	n/a	BLUSH	5	15	[0, 0, 0]	n/a	FR1	2	R1223E
2085.832	1.617	2110117	WORD	n/a	wordpools/wordpool_EN.txt	LOCK	6	15	[0, 0, 0]	n/a	FR1	2	R1223E
2087.449	0.784	2111734	WORD_OFF	n/a	n/a	LOCK	6	15	[0, 0, 0]	n/a	FR1	2	R1223E
2088.233	1.616	2112518	WORD	n/a	wordpools/wordpool_EN.txt	BRICK	7	15	[0, 0, 0]	n/a	FR1	2	R1223E
2089.849	0.834	2114134	WORD_OFF	n/a	n/a	BRICK	7	15	[0, 0, 0]	n/a	FR1	2	R1223E
2090.683	1.617	2114968	WORD	n/a	wordpools/wordpool_EN.txt	CROWN	8	15	[0, 0, 0]	n/a	FR1	2	R1223E
2092.3	0.983	2116585	WORD_OFF	n/a	n/a	CROWN	8	15	[0, 0, 0]	n/a	FR1	2	R1223E
2093.283	1.617	2117568	WORD	n/a	wordpools/wordpool_EN.txt	ICE	9	15	[0, 0, 0]	n/a	FR1	2	R1223E
2094.9	0.95	2119185	WORD_OFF	n/a	n/a	ICE	9	15	[0, 0, 0]	n/a	FR1	2	R1223E
2095.85	1.617	2120135	WORD	n/a	wordpools/wordpool_EN.txt	POLE	10	15	[0, 0, 0]	n/a	FR1	2	R1223E
2097.467	0.9	2121752	WORD_OFF	n/a	n/a	POLE	10	15	[0, 0, 0]	n/a	FR1	2	R1223E
2098.367	1.617	2122652	WORD	n/a	wordpools/wordpool_EN.txt	BRIDGE	11	15	[0, 0, 0]	n/a	FR1	2	R1223E
2099.984	0.951	2124269	WORD_OFF	n/a	n/a	BRIDGE	11	15	[0, 0, 0]	n/a	FR1	2	R1223E
2100.935	1.617	2125220	WORD	n/a	wordpools/wordpool_EN.txt	MAZE	12	15	[0, 0, 0]	n/a	FR1	2	R1223E
2102.552	0.0	2126837	WORD_OFF	n/a	n/a	MAZE	12	15	[0, 0, 0]	n/a	FR1	2	R1223E
2102.552	0.0	2126837	DISTRACT_START	n/a	n/a	n/a	-999	15	[0, 0, 0]	n/a	FR1	2	R1223E
2102.552	0.016	2126837	START	n/a	n/a	n/a	-999	15	[-999, -999, -999]	n/a	FR1	2	R1223E
2102.568	7.553	2126853	PROB	7.553	n/a	n/a	-999	15	[5, 3, 4]	12	FR1	2	R1223E
2110.121	5.0	2134405	PROB	5.0	n/a	n/a	-999	15	[6, 4, 5]	15	FR1	2	R1223E
2115.121	5.484	2139405	PROB	5.484	n/a	n/a	-999	15	[3, 8, 3]	14	FR1	2	R1223E
2120.605	6.53	2144889	PROB	6.53	n/a	n/a	-999	15	[2, 7, 5]	14	FR1	2	R1223E
2127.135	0.022	2151419	STOP	n/a	n/a	n/a	-999	15	[-999, -999, -999]	n/a	FR1	2	R1223E
2127.157	0.616	2151441	DISTRACT_END	n/a	n/a	n/a	-999	15	[0, 0, 0]	n/a	FR1	2	R1223E
2127.773	0.517	2152057	RETRIEVAL_ORIENT	n/a	n/a	n/a	-999	15	[0, 0, 0]	n/a	FR1	2	R1223E
2128.29	30.0	2152574	REC_START	n/a	n/a	n/a	-999	15	[0, 0, 0]	n/a	FR1	2	R1223E
2158.29	0.012	2182572	REC_WORD_VV	0.012	n/a	<>	-999	15	[0, 0, 0]	n/a	FR1	2	R1223E
2158.302	36.149	2182584	REC_END	n/a	n/a	n/a	-999	15	[0, 0, 0]	n/a	FR1	2	R1223E
2194.451	0.5	2218732	TRIAL	n/a	n/a	n/a	-999	16	[0, 0, 0]	n/a	FR1	2	R1223E
2194.951	10.428	2219232	COUNTDOWN_START	n/a	n/a	n/a	-999	16	[0, 0, 0]	n/a	FR1	2	R1223E
2205.379	0.007	2229660	COUNTDOWN_END	n/a	n/a	n/a	-999	16	[0, 0, 0]	n/a	FR1	2	R1223E
2205.386	1.617	2229667	ORIENT	n/a	n/a	n/a	-999	16	[0, 0, 0]	n/a	FR1	2	R1223E
2207.003	2.118	2231284	ORIENT_OFF	n/a	n/a	n/a	-999	16	[0, 0, 0]	n/a	FR1	2	R1223E
2209.121	1.616	2233401	WORD	n/a	wordpools/wordpool_EN.txt	BOWL	1	16	[0, 0, 0]	n/a	FR1	2	R1223E
2210.737	0.917	2235017	WORD_OFF	n/a	n/a	BOWL	1	16	[0, 0, 0]	n/a	FR1	2	R1223E
2211.654	1.617	2235934	WORD	n/a	wordpools/wordpool_EN.txt	ROOF	2	16	[0, 0, 0]	n/a	FR1	2	R1223E
2213.271	0.818	2237551	WORD_OFF	n/a	n/a	ROOF	2	16	[0, 0, 0]	n/a	FR1	2	R1223E
2214.089	1.616	2238369	WORD	n/a	wordpools/wordpool_EN.txt	PEACH	3	16	[0, 0, 0]	n/a	FR1	2	R1223E
2215.705	0.833	2239985	WORD_OFF	n/a	n/a	PEACH	3	16	[0, 0, 0]	n/a	FR1	2	R1223E
2216.538	1.601	2240818	WORD	n/a	wordpools/wordpool_EN.txt	AXE	4	16	[0, 0, 0]	n/a	FR1	2	R1223E
2218.139	1.0	2242419	WORD_OFF	n/a	n/a	AXE	4	16	[0, 0, 0]	n/a	FR1	2	R1223E
2219.139	1.617	2243419	WORD	n/a	wordpools/wordpool_EN.txt	STAIR	5	16	[0, 0, 0]	n/a	FR1	2	R1223E
2220.756	0.783	2245036	WORD_OFF	n/a	n/a	STAIR	5	16	[0, 0, 0]	n/a	FR1	2	R1223E
2221.539	1.618	2245819	WORD	n/a	wordpools/wordpool_EN.txt	PIPE	6	16	[0, 0, 0]	n/a	FR1	2	R1223E
2223.157	0.984	2247437	WORD_OFF	n/a	n/a	PIPE	6	16	[0, 0, 0]	n/a	FR1	2	R1223E
2224.141	1.616	2248421	WORD	n/a	wordpools/wordpool_EN.txt	TIE	7	16	[0, 0, 0]	n/a	FR1	2	R1223E
2225.757	0.816	2250037	WORD_OFF	n/a	n/a	TIE	7	16	[0, 0, 0]	n/a	FR1	2	R1223E
2226.573	1.618	2250853	WORD	n/a	wordpools/wordpool_EN.txt	DITCH	8	16	[0, 0, 0]	n/a	FR1	2	R1223E
2228.191	0.783	2252471	WORD_OFF	n/a	n/a	DITCH	8	16	[0, 0, 0]	n/a	FR1	2	R1223E
2228.974	1.617	2253254	WORD	n/a	wordpools/wordpool_EN.txt	STORM	9	16	[0, 0, 0]	n/a	FR1	2	R1223E
2230.591	0.95	2254871	WORD_OFF	n/a	n/a	STORM	9	16	[0, 0, 0]	n/a	FR1	2	R1223E
2231.541	1.618	2255821	WORD	n/a	wordpools/wordpool_EN.txt	HOLE	10	16	[0, 0, 0]	n/a	FR1	2	R1223E
2233.159	0.983	2257438	WORD_OFF	n/a	n/a	HOLE	10	16	[0, 0, 0]	n/a	FR1	2	R1223E
2234.142	1.616	2258421	WORD	n/a	wordpools/wordpool_EN.txt	WHALE	11	16	[0, 0, 0]	n/a	FR1	2	R1223E
2235.758	0.784	2260037	WORD_OFF	n/a	n/a	WHALE	11	16	[0, 0, 0]	n/a	FR1	2	R1223E
2236.542	1.618	2260821	WORD	n/a	wordpools/wordpool_EN.txt	JAR	12	16	[0, 0, 0]	n/a	FR1	2	R1223E
2238.16	0.0	2262439	WORD_OFF	n/a	n/a	JAR	12	16	[0, 0, 0]	n/a	FR1	2	R1223E
2238.16	0.0	2262439	DISTRACT_START	n/a	n/a	n/a	-999	16	[0, 0, 0]	n/a	FR1	2	R1223E
2238.16	0.016	2262439	START	n/a	n/a	n/a	-999	16	[-999, -999, -999]	n/a	FR1	2	R1223E
2238.176	5.484	2262455	PROB	5.484	n/a	n/a	-999	16	[9, 9, 9]	27	FR1	2	R1223E
2243.66	7.684	2267939	PROB	7.684	n/a	n/a	-999	16	[5, 3, 4]	14	FR1	2	R1223E
2251.344	8.286	2275623	PROB	8.286	n/a	n/a	-999	16	[9, 2, 3]	14	FR1	2	R1223E
2259.63	0.016	2283908	STOP	n/a	n/a	n/a	-999	16	[-999, -999, -999]	n/a	FR1	2	R1223E
2259.646	0.7	2283924	DISTRACT_END	n/a	n/a	n/a	-999	16	[0, 0, 0]	n/a	FR1	2	R1223E
2260.346	0.518	2284624	RETRIEVAL_ORIENT	n/a	n/a	n/a	-999	16	[0, 0, 0]	n/a	FR1	2	R1223E
2260.864	30.0	2285142	REC_START	n/a	n/a	n/a	-999	16	[0, 0, 0]	n/a	FR1	2	R1223E
2290.864	0.011	2315141	REC_WORD_VV	0.011	n/a	<>	-999	16	[0, 0, 0]	n/a	FR1	2	R1223E
2290.875	1046.711	2315152	REC_END	n/a	n/a	n/a	-999	16	[0, 0, 0]	n/a	FR1	2	R1223E
3337.586	0.5	3361823	TRIAL	n/a	n/a	n/a	-999	17	[0, 0, 0]	n/a	FR1	2	R1223E
3338.086	10.428	3362323	COUNTDOWN_START	n/a	n/a	n/a	-999	17	[0, 0, 0]	n/a	FR1	2	R1223E
3348.514	0.007	3372750	COUNTDOWN_END	n/a	n/a	n/a	-999	17	[0, 0, 0]	n/a	FR1	2	R1223E
3348.521	1.618	3372757	ORIENT	n/a	n/a	n/a	-999	17	[0, 0, 0]	n/a	FR1	2	R1223E
3350.139	2.099	3374375	ORIENT_OFF	n/a	n/a	n/a	-999	17	[0, 0, 0]	n/a	FR1	2	R1223E
3352.238	1.617	3376474	WORD	n/a	wordpools/wordpool_EN.txt	CONE	1	17	[0, 0, 0]	n/a	FR1	2	R1223E
3353.855	0.85	3378091	WORD_OFF	n/a	n/a	CONE	1	17	[0, 0, 0]	n/a	FR1	2	R1223E
3354.705	1.617	3378941	WORD	n/a	wordpools/wordpool_EN.txt	RUG	2	17	[0, 0, 0]	n/a	FR1	2	R1223E
3356.322	0.934	3380558	WORD_OFF	n/a	n/a	RUG	2	17	[0, 0, 0]	n/a	FR1	2	R1223E
3357.256	1.617	3381492	WORD	n/a	wordpools/wordpool_EN.txt	FUR	3	17	[0, 0, 0]	n/a	FR1	2	R1223E
3358.873	0.867	3383109	WORD_OFF	n/a	n/a	FUR	3	17	[0, 0, 0]	n/a	FR1	2	R1223E
3359.74	1.617	3383976	WORD	n/a	wordpools/wordpool_EN.txt	VINE	4	17	[0, 0, 0]	n/a	FR1	2	R1223E
3361.357	0.834	3385593	WORD_OFF	n/a	n/a	VINE	4	17	[0, 0, 0]	n/a	FR1	2	R1223E
3362.191	1.616	3386427	WORD	n/a	wordpools/wordpool_EN.txt	CLIFF	5	17	[0, 0, 0]	n/a	FR1	2	R1223E
3363.807	0.9	3388043	WORD_OFF	n/a	n/a	CLIFF	5	17	[0, 0, 0]	n/a	FR1	2	R1223E
3364.707	1.617	3388943	WORD	n/a	wordpools/wordpool_EN.txt	RIB	6	17	[0, 0, 0]	n/a	FR1	2	R1223E
3366.324	0.95	3390560	WORD_OFF	n/a	n/a	RIB	6	17	[0, 0, 0]	n/a	FR1	2	R1223E
3367.274	1.617	3391510	WORD	n/a	wordpools/wordpool_EN.txt	SOCK	7	17	[0, 0, 0]	n/a	FR1	2	R1223E
3368.891	0.917	3393127	WORD_OFF	n/a	n/a	SOCK	7	17	[0, 0, 0]	n/a	FR1	2	R1223E
3369.808	1.617	3394044	WORD	n/a	wordpools/wordpool_EN.txt	LAND	8	17	[0, 0, 0]	n/a	FR1	2	R1223E
3371.425	0.933	3395660	WORD_OFF	n/a	n/a	LAND	8	17	[0, 0, 0]	n/a	FR1	2	R1223E
3372.358	1.617	3396593	WORD	n/a	wordpools/wordpool_EN.txt	FLOOR	9	17	[0, 0, 0]	n/a	FR1	2	R1223E
3373.975	0.817	3398210	WORD_OFF	n/a	n/a	FLOOR	9	17	[0, 0, 0]	n/a	FR1	2	R1223E
3374.792	1.617	3399027	WORD	n/a	wordpools/wordpool_EN.txt	CHIN	10	17	[0, 0, 0]	n/a	FR1	2	R1223E
3376.409	0.934	3400644	WORD_OFF	n/a	n/a	CHIN	10	17	[0, 0, 0]	n/a	FR1	2	R1223E
3377.343	1.617	3401578	WORD	n/a	wordpools/wordpool_EN.txt	WALL	11	17	[0, 0, 0]	n/a	FR1	2	R1223E
3378.96	0.95	3403195	WORD_OFF	n/a	n/a	WALL	11	17	[0, 0, 0]	n/a	FR1	2	R1223E
3379.91	1.617	3404145	WORD	n/a	wordpools/wordpool_EN.txt	VEST	12	17	[0, 0, 0]	n/a	FR1	2	R1223E
3381.527	0.0	3405762	DISTRACT_START	n/a	n/a	n/a	-999	17	[0, 0, 0]	n/a	FR1	2	R1223E
3381.527	0.0	3405762	WORD_OFF	n/a	n/a	VEST	12	17	[0, 0, 0]	n/a	FR1	2	R1223E
3381.527	0.016	3405762	START	n/a	n/a	n/a	-999	17	[-999, -999, -999]	n/a	FR1	2	R1223E
3381.543	5.035	3405778	PROB	5.035	n/a	n/a	-999	17	[3, 9, 3]	15	FR1	2	R1223E
3386.578	4.767	3410813	PROB	4.767	n/a	n/a	-999	17	[1, 5, 5]	11	FR1	2	R1223E
3391.345	4.752	3415580	PROB	4.752	n/a	n/a	-999	17	[9, 3, 8]	20	FR1	2	R1223E
3396.097	6.835	3420332	PROB	6.835	n/a	n/a	-999	17	[8, 9, 7]	24	FR1	2	R1223E
3402.932	0.015	3427166	STOP	n/a	n/a	n/a	-999	17	[-999, -999, -999]	n/a	FR1	2	R1223E
3402.947	0.617	3427181	DISTRACT_END	n/a	n/a	n/a	-999	17	[0, 0, 0]	n/a	FR1	2	R1223E
3403.564	0.518	3427798	RETRIEVAL_ORIENT	n/a	n/a	n/a	-999	17	[0, 0, 0]	n/a	FR1	2	R1223E
3404.082	13.311	3428316	REC_START	n/a	n/a	n/a	-999	17	[0, 0, 0]	n/a	FR1	2	R1223E
3417.393	16.7	3441627	REC_WORD	16.7	n/a	CONE	-999	17	[0, 0, 0]	n/a	FR1	2	R1223E
3434.093	6.878	3458326	REC_END	n/a	n/a	n/a	-999	17	[0, 0, 0]	n/a	FR1	2	R1223E
3440.971	0.5	3465204	TRIAL	n/a	n/a	n/a	-999	18	[0, 0, 0]	n/a	FR1	2	R1223E
3441.471	10.428	3465704	COUNTDOWN_START	n/a	n/a	n/a	-999	18	[0, 0, 0]	n/a	FR1	2	R1223E
3451.899	0.007	3476131	COUNTDOWN_END	n/a	n/a	n/a	-999	18	[0, 0, 0]	n/a	FR1	2	R1223E
3451.906	1.617	3476138	ORIENT	n/a	n/a	n/a	-999	18	[0, 0, 0]	n/a	FR1	2	R1223E
3453.523	2.0	3477755	ORIENT_OFF	n/a	n/a	n/a	-999	18	[0, 0, 0]	n/a	FR1	2	R1223E
3455.523	1.618	3479755	WORD	n/a	wordpools/wordpool_EN.txt	SKI	1	18	[0, 0, 0]	n/a	FR1	2	R1223E
3457.141	1.0	3481373	WORD_OFF	n/a	n/a	SKI	1	18	[0, 0, 0]	n/a	FR1	2	R1223E
3458.141	1.616	3482373	WORD	n/a	wordpools/wordpool_EN.txt	THUMB	2	18	[0, 0, 0]	n/a	FR1	2	R1223E
3459.757	0.867	3483989	WORD_OFF	n/a	n/a	THUMB	2	18	[0, 0, 0]	n/a	FR1	2	R1223E
3460.624	1.617	3484856	WORD	n/a	wordpools/wordpool_EN.txt	SQUARE	3	18	[0, 0, 0]	n/a	FR1	2	R1223E
3462.241	0.901	3486473	WORD_OFF	n/a	n/a	SQUARE	3	18	[0, 0, 0]	n/a	FR1	2	R1223E
3463.142	1.616	3487374	WORD	n/a	wordpools/wordpool_EN.txt	ARM	4	18	[0, 0, 0]	n/a	FR1	2	R1223E
3464.758	0.967	3488990	WORD_OFF	n/a	n/a	ARM	4	18	[0, 0, 0]	n/a	FR1	2	R1223E
3465.725	1.617	3489957	WORD	n/a	wordpools/wordpool_EN.txt	HORN	5	18	[0, 0, 0]	n/a	FR1	2	R1223E
3467.342	0.9	3491574	WORD_OFF	n/a	n/a	HORN	5	18	[0, 0, 0]	n/a	FR1	2	R1223E
3468.242	1.617	3492474	WORD	n/a	wordpools/wordpool_EN.txt	BAND	6	18	[0, 0, 0]	n/a	FR1	2	R1223E
3469.859	0.933	3494091	WORD_OFF	n/a	n/a	BAND	6	18	[0, 0, 0]	n/a	FR1	2	R1223E
3470.792	1.617	3495024	WORD	n/a	wordpools/wordpool_EN.txt	VAN	7	18	[0, 0, 0]	n/a	FR1	2	R1223E
3472.409	0.951	3496641	WORD_OFF	n/a	n/a	VAN	7	18	[0, 0, 0]	n/a	FR1	2	R1223E
3473.36	1.616	3497592	WORD	n/a	wordpools/wordpool_EN.txt	CANE	8	18	[0, 0, 0]	n/a	FR1	2	R1223E
3474.976	0.801	3499207	WORD_OFF	n/a	n/a	CANE	8	18	[0, 0, 0]	n/a	FR1	2	R1223E
3475.777	1.617	3500008	WORD	n/a	wordpools/wordpool_EN.txt	ROAD	9	18	[0, 0, 0]	n/a	FR1	2	R1223E
3477.394	0.967	3501625	WORD_OFF	n/a	n/a	ROAD	9	18	[0, 0, 0]	n/a	FR1	2	R1223E
3478.361	1.616	3502592	WORD	n/a	wordpools/wordpool_EN.txt	CHEEK	10	18	[0, 0, 0]	n/a	FR1	2	R1223E
3479.977	0.801	3504208	WORD_OFF	n/a	n/a	CHEEK	10	18	[0, 0, 0]	n/a	FR1	2	R1223E
3480.778	1.617	3505009	WORD	n/a	wordpools/wordpool_EN.txt	DRUM	11	18	[0, 0, 0]	n/a	FR1	2	R1223E
3482.395	1.0	3506626	WORD_OFF	n/a	n/a	DRUM	11	18	[0, 0, 0]	n/a	FR1	2	R1223E
3483.395	1.617	3507626	WORD	n/a	wordpools/wordpool_EN.txt	ARK	12	18	[0, 0, 0]	n/a	FR1	2	R1223E
3485.012	0.0	3509243	WORD_OFF	n/a	n/a	ARK	12	18	[0, 0, 0]	n/a	FR1	2	R1223E
3485.012	0.0	3509243	DISTRACT_START	n/a	n/a	n/a	-999	18	[0, 0, 0]	n/a	FR1	2	R1223E
3485.012	0.016	3509243	START	n/a	n/a	n/a	-999	18	[-999, -999, -999]	n/a	FR1	2	R1223E
3485.028	9.402	3509259	PROB	9.402	n/a	n/a	-999	18	[7, 9, 8]	24	FR1	2	R1223E
3494.43	3.951	3518661	PROB	3.951	n/a	n/a	-999	18	[3, 3, 1]	7	FR1	2	R1223E
3498.381	9.141	3522612	PROB	9.141	n/a	n/a	-999	18	[2, 6, 1]	9	FR1	2	R1223E
3507.522	0.01	3531752	STOP	n/a	n/a	n/a	-999	18	[-999, -999, -999]	n/a	FR1	2	R1223E
3507.532	0.618	3531762	DISTRACT_END	n/a	n/a	n/a	-999	18	[0, 0, 0]	n/a	FR1	2	R1223E
3508.15	0.516	3532380	RETRIEVAL_ORIENT	n/a	n/a	n/a	-999	18	[0, 0, 0]	n/a	FR1	2	R1223E
3508.666	30.0	3532896	REC_START	n/a	n/a	n/a	-999	18	[0, 0, 0]	n/a	FR1	2	R1223E
3538.666	0.012	3562895	REC_WORD_VV	0.012	n/a	<>	-999	18	[0, 0, 0]	n/a	FR1	2	R1223E
3538.678	5.811	3562907	REC_END	n/a	n/a	n/a	-999	18	[0, 0, 0]	n/a	FR1	2	R1223E
3544.489	0.5	3568718	TRIAL	n/a	n/a	n/a	-999	19	[0, 0, 0]	n/a	FR1	2	R1223E
3544.989	10.428	3569218	COUNTDOWN_START	n/a	n/a	n/a	-999	19	[0, 0, 0]	n/a	FR1	2	R1223E
3555.417	0.007	3579645	COUNTDOWN_END	n/a	n/a	n/a	-999	19	[0, 0, 0]	n/a	FR1	2	R1223E
3555.424	1.617	3579652	ORIENT	n/a	n/a	n/a	-999	19	[0, 0, 0]	n/a	FR1	2	R1223E
3557.041	2.135	3581269	ORIENT_OFF	n/a	n/a	n/a	-999	19	[0, 0, 0]	n/a	FR1	2	R1223E
3559.176	1.616	3583404	WORD	n/a	wordpools/wordpool_EN.txt	STRAW	1	19	[0, 0, 0]	n/a	FR1	2	R1223E
3560.792	0.933	3585020	WORD_OFF	n/a	n/a	STRAW	1	19	[0, 0, 0]	n/a	FR1	2	R1223E
3561.725	1.617	3585953	WORD	n/a	wordpools/wordpool_EN.txt	CAGE	2	19	[0, 0, 0]	n/a	FR1	2	R1223E
3563.342	0.917	3587570	WORD_OFF	n/a	n/a	CAGE	2	19	[0, 0, 0]	n/a	FR1	2	R1223E
3564.259	1.617	3588487	WORD	n/a	wordpools/wordpool_EN.txt	SLUSH	3	19	[0, 0, 0]	n/a	FR1	2	R1223E
3565.876	0.833	3590104	WORD_OFF	n/a	n/a	SLUSH	3	19	[0, 0, 0]	n/a	FR1	2	R1223E
3566.709	1.617	3590937	WORD	n/a	wordpools/wordpool_EN.txt	TAIL	4	19	[0, 0, 0]	n/a	FR1	2	R1223E
3568.326	1.0	3592554	WORD_OFF	n/a	n/a	TAIL	4	19	[0, 0, 0]	n/a	FR1	2	R1223E
3569.326	1.618	3593554	WORD	n/a	wordpools/wordpool_EN.txt	GEESE	5	19	[0, 0, 0]	n/a	FR1	2	R1223E
3570.944	0.833	3595172	WORD_OFF	n/a	n/a	GEESE	5	19	[0, 0, 0]	n/a	FR1	2	R1223E
3571.777	1.617	3596005	WORD	n/a	wordpools/wordpool_EN.txt	NEST	6	19	[0, 0, 0]	n/a	FR1	2	R1223E
3573.394	0.917	3597622	WORD_OFF	n/a	n/a	NEST	6	19	[0, 0, 0]	n/a	FR1	2	R1223E
3574.311	1.617	3598539	WORD	n/a	wordpools/wordpool_EN.txt	HAWK	7	19	[0, 0, 0]	n/a	FR1	2	R1223E
3575.928	0.817	3600156	WORD_OFF	n/a	n/a	HAWK	7	19	[0, 0, 0]	n/a	FR1	2	R1223E
3576.745	1.616	3600973	WORD	n/a	wordpools/wordpool_EN.txt	TOE	8	19	[0, 0, 0]	n/a	FR1	2	R1223E
3578.361	0.867	3602588	WORD_OFF	n/a	n/a	TOE	8	19	[0, 0, 0]	n/a	FR1	2	R1223E
3579.228	1.617	3603455	WORD	n/a	wordpools/wordpool_EN.txt	BUSH	9	19	[0, 0, 0]	n/a	FR1	2	R1223E
3580.845	0.984	3605072	WORD_OFF	n/a	n/a	BUSH	9	19	[0, 0, 0]	n/a	FR1	2	R1223E
3581.829	1.617	3606056	WORD	n/a	wordpools/wordpool_EN.txt	POND	10	19	[0, 0, 0]	n/a	FR1	2	R1223E
3583.446	0.867	3607673	WORD_OFF	n/a	n/a	POND	10	19	[0, 0, 0]	n/a	FR1	2	R1223E
3584.313	1.617	3608540	WORD	n/a	wordpools/wordpool_EN.txt	WING	11	19	[0, 0, 0]	n/a	FR1	2	R1223E
3585.93	0.783	3610157	WORD_OFF	n/a	n/a	WING	11	19	[0, 0, 0]	n/a	FR1	2	R1223E
3586.713	1.617	3610940	WORD	n/a	wordpools/wordpool_EN.txt	TREE	12	19	[0, 0, 0]	n/a	FR1	2	R1223E
3588.33	0.0	3612557	WORD_OFF	n/a	n/a	TREE	12	19	[0, 0, 0]	n/a	FR1	2	R1223E
3588.33	0.0	3612557	DISTRACT_START	n/a	n/a	n/a	-999	19	[0, 0, 0]	n/a	FR1	2	R1223E
3588.33	0.017	3612557	START	n/a	n/a	n/a	-999	19	[-999, -999, -999]	n/a	FR1	2	R1223E
3588.347	8.001	3612574	PROB	8.001	n/a	n/a	-999	19	[7, 5, 6]	18	FR1	2	R1223E
3596.348	5.968	3620575	PROB	5.968	n/a	n/a	-999	19	[2, 3, 9]	14	FR1	2	R1223E
3602.316	8.65	3626543	PROB	8.65	n/a	n/a	-999	19	[7, 8, 8]	24	FR1	2	R1223E
3610.966	0.018	3635192	STOP	n/a	n/a	n/a	-999	19	[-999, -999, -999]	n/a	FR1	2	R1223E
3610.984	0.55	3635210	DISTRACT_END	n/a	n/a	n/a	-999	19	[0, 0, 0]	n/a	FR1	2	R1223E
3611.534	0.518	3635760	RETRIEVAL_ORIENT	n/a	n/a	n/a	-999	19	[0, 0, 0]	n/a	FR1	2	R1223E
3612.052	9.838	3636278	REC_START	n/a	n/a	n/a	-999	19	[0, 0, 0]	n/a	FR1	2	R1223E
3621.89	2.993	3646116	REC_WORD	2.993	n/a	TOE	-999	19	[0, 0, 0]	n/a	FR1	2	R1223E
3624.883	17.18	3649109	REC_WORD	17.18	n/a	STRAW	-999	19	[0, 0, 0]	n/a	FR1	2	R1223E
3642.063	6.611	3666288	REC_END	n/a	n/a	n/a	-999	19	[0, 0, 0]	n/a	FR1	2	R1223E
3648.674	0.5	3672899	TRIAL	n/a	n/a	n/a	-999	20	[0, 0, 0]	n/a	FR1	2	R1223E
3649.174	10.428	3673399	COUNTDOWN_START	n/a	n/a	n/a	-999	20	[0, 0, 0]	n/a	FR1	2	R1223E
3659.602	0.007	3683826	COUNTDOWN_END	n/a	n/a	n/a	-999	20	[0, 0, 0]	n/a	FR1	2	R1223E
3659.609	1.617	3683833	ORIENT	n/a	n/a	n/a	-999	20	[0, 0, 0]	n/a	FR1	2	R1223E
3661.226	2.017	3685450	ORIENT_OFF	n/a	n/a	n/a	-999	20	[0, 0, 0]	n/a	FR1	2	R1223E
3663.243	1.617	3687467	WORD	n/a	wordpools/wordpool_EN.txt	COW	1	20	[0, 0, 0]	n/a	FR1	2	R1223E
3664.86	0.817	3689084	WORD_OFF	n/a	n/a	COW	1	20	[0, 0, 0]	n/a	FR1	2	R1223E
3665.677	1.617	3689901	WORD	n/a	wordpools/wordpool_EN.txt	BAG	2	20	[0, 0, 0]	n/a	FR1	2	R1223E
3667.294	0.834	3691518	WORD_OFF	n/a	n/a	BAG	2	20	[0, 0, 0]	n/a	FR1	2	R1223E
3668.128	1.616	3692352	WORD	n/a	wordpools/wordpool_EN.txt	BARN	3	20	[0, 0, 0]	n/a	FR1	2	R1223E
3669.744	0.767	3693968	WORD_OFF	n/a	n/a	BARN	3	20	[0, 0, 0]	n/a	FR1	2	R1223E
3670.511	1.618	3694735	WORD	n/a	wordpools/wordpool_EN.txt	PRINCE	4	20	[0, 0, 0]	n/a	FR1	2	R1223E
3672.129	0.833	3696353	WORD_OFF	n/a	n/a	PRINCE	4	20	[0, 0, 0]	n/a	FR1	2	R1223E
3672.962	1.616	3697186	WORD	n/a	wordpools/wordpool_EN.txt	GUARD	5	20	[0, 0, 0]	n/a	FR1	2	R1223E
3674.578	0.801	3698802	WORD_OFF	n/a	n/a	GUARD	5	20	[0, 0, 0]	n/a	FR1	2	R1223E
3675.379	1.617	3699603	WORD	n/a	wordpools/wordpool_EN.txt	GOAT	6	20	[0, 0, 0]	n/a	FR1	2	R1223E
3676.996	0.966	3701220	WORD_OFF	n/a	n/a	GOAT	6	20	[0, 0, 0]	n/a	FR1	2	R1223E
3677.962	1.617	3702186	WORD	n/a	wordpools/wordpool_EN.txt	MOUTH	7	20	[0, 0, 0]	n/a	FR1	2	R1223E
3679.579	0.8	3703803	WORD_OFF	n/a	n/a	MOUTH	7	20	[0, 0, 0]	n/a	FR1	2	R1223E
3680.379	1.617	3704603	WORD	n/a	wordpools/wordpool_EN.txt	WOLF	8	20	[0, 0, 0]	n/a	FR1	2	R1223E
3681.996	0.967	3706219	WORD_OFF	n/a	n/a	WOLF	8	20	[0, 0, 0]	n/a	FR1	2	R1223E
3682.963	1.617	3707186	WORD	n/a	wordpools/wordpool_EN.txt	CALF	9	20	[0, 0, 0]	n/a	FR1	2	R1223E
3684.58	0.783	3708803	WORD_OFF	n/a	n/a	CALF	9	20	[0, 0, 0]	n/a	FR1	2	R1223E
3685.363	1.618	3709586	WORD	n/a	wordpools/wordpool_EN.txt	STEAK	10	20	[0, 0, 0]	n/a	FR1	2	R1223E
3686.981	0.983	3711204	WORD_OFF	n/a	n/a	STEAK	10	20	[0, 0, 0]	n/a	FR1	2	R1223E
3687.964	1.617	3712187	WORD	n/a	wordpools/wordpool_EN.txt	BEAK	11	20	[0, 0, 0]	n/a	FR1	2	R1223E
3689.581	0.883	3713804	WORD_OFF	n/a	n/a	BEAK	11	20	[0, 0, 0]	n/a	FR1	2	R1223E
3690.464	1.619	3714687	WORD	n/a	wordpools/wordpool_EN.txt	GATE	12	20	[0, 0, 0]	n/a	FR1	2	R1223E
3692.083	0.0	3716306	WORD_OFF	n/a	n/a	GATE	12	20	[0, 0, 0]	n/a	FR1	2	R1223E
3692.083	0.0	3716306	DISTRACT_START	n/a	n/a	n/a	-999	20	[0, 0, 0]	n/a	FR1	2	R1223E
3692.083	0.016	3716306	START	n/a	n/a	n/a	-999	20	[-999, -999, -999]	n/a	FR1	2	R1223E
3692.099	5.333	3716322	PROB	5.333	n/a	n/a	-999	20	[8, 3, 9]	21	FR1	2	R1223E
3697.432	5.852	3721655	PROB	5.852	n/a	n/a	-999	20	[9, 9, 3]	21	FR1	2	R1223E
3703.284	7.317	3727507	PROB	7.317	n/a	n/a	-999	20	[4, 4, 3]	11	FR1	2	R1223E
3710.601	4.374	3734823	PROB	4.374	n/a	n/a	-999	20	[2, 7, 2]	11	FR1	2	R1223E
3714.975	0.01	3739197	STOP	n/a	n/a	n/a	-999	20	[-999, -999, -999]	n/a	FR1	2	R1223E
3714.985	0.651	3739207	DISTRACT_END	n/a	n/a	n/a	-999	20	[0, 0, 0]	n/a	FR1	2	R1223E
3715.636	0.518	3739858	RETRIEVAL_ORIENT	n/a	n/a	n/a	-999	20	[0, 0, 0]	n/a	FR1	2	R1223E
3716.154	2.455	3740376	REC_START	n/a	n/a	n/a	-999	20	[0, 0, 0]	n/a	FR1	2	R1223E
3718.609	4.319	3742831	REC_WORD	4.319	n/a	COW	-999	20	[0, 0, 0]	n/a	FR1	2	R1223E
3722.928	3.725	3747150	REC_WORD	3.725	n/a	GOAT	-999	20	[0, 0, 0]	n/a	FR1	2	R1223E
3726.653	8.646	3750875	REC_WORD	8.646	n/a	STEAK	-999	20	[0, 0, 0]	n/a	FR1	2	R1223E
3735.299	10.865	3759520	REC_WORD	10.865	n/a	CALF	-999	20	[0, 0, 0]	n/a	FR1	2	R1223E
3746.164	8.912	3770385	REC_END	n/a	n/a	n/a	-999	20	[0, 0, 0]	n/a	FR1	2	R1223E
3755.076	0.5	3779297	TRIAL	n/a	n/a	n/a	-999	21	[0, 0, 0]	n/a	FR1	2	R1223E
3755.576	10.428	3779797	COUNTDOWN_START	n/a	n/a	n/a	-999	21	[0, 0, 0]	n/a	FR1	2	R1223E
3766.004	0.007	3790224	COUNTDOWN_END	n/a	n/a	n/a	-999	21	[0, 0, 0]	n/a	FR1	2	R1223E
3766.011	1.617	3790231	ORIENT	n/a	n/a	n/a	-999	21	[0, 0, 0]	n/a	FR1	2	R1223E
3767.628	2.201	3791848	ORIENT_OFF	n/a	n/a	n/a	-999	21	[0, 0, 0]	n/a	FR1	2	R1223E
3769.829	1.616	3794049	WORD	n/a	wordpools/wordpool_EN.txt	TEA	1	21	[0, 0, 0]	n/a	FR1	2	R1223E
3771.445	0.901	3795665	WORD_OFF	n/a	n/a	TEA	1	21	[0, 0, 0]	n/a	FR1	2	R1223E
3772.346	1.617	3796566	WORD	n/a	wordpools/wordpool_EN.txt	BOAT	2	21	[0, 0, 0]	n/a	FR1	2	R1223E
3773.963	0.85	3798183	WORD_OFF	n/a	n/a	BOAT	2	21	[0, 0, 0]	n/a	FR1	2	R1223E
3774.813	1.617	3799033	WORD	n/a	wordpools/wordpool_EN.txt	SPRING	3	21	[0, 0, 0]	n/a	FR1	2	R1223E
3776.43	1.0	3800650	WORD_OFF	n/a	n/a	SPRING	3	21	[0, 0, 0]	n/a	FR1	2	R1223E
3777.43	1.617	3801650	WORD	n/a	wordpools/wordpool_EN.txt	NET	4	21	[0, 0, 0]	n/a	FR1	2	R1223E
3779.047	0.983	3803267	WORD_OFF	n/a	n/a	NET	4	21	[0, 0, 0]	n/a	FR1	2	R1223E
3780.03	1.617	3804250	WORD	n/a	wordpools/wordpool_EN.txt	VASE	5	21	[0, 0, 0]	n/a	FR1	2	R1223E
3781.647	0.917	3805867	WORD_OFF	n/a	n/a	VASE	5	21	[0, 0, 0]	n/a	FR1	2	R1223E
3782.564	1.601	3806784	WORD	n/a	wordpools/wordpool_EN.txt	SEAL	6	21	[0, 0, 0]	n/a	FR1	2	R1223E
3784.165	0.934	3808385	WORD_OFF	n/a	n/a	SEAL	6	21	[0, 0, 0]	n/a	FR1	2	R1223E
3785.099	1.616	3809318	WORD	n/a	wordpools/wordpool_EN.txt	DUCK	7	21	[0, 0, 0]	n/a	FR1	2	R1223E
3786.715	0.867	3810934	WORD_OFF	n/a	n/a	DUCK	7	21	[0, 0, 0]	n/a	FR1	2	R1223E
3787.582	1.617	3811801	WORD	n/a	wordpools/wordpool_EN.txt	CHAIR	8	21	[0, 0, 0]	n/a	FR1	2	R1223E
3789.199	0.866	3813418	WORD_OFF	n/a	n/a	CHAIR	8	21	[0, 0, 0]	n/a	FR1	2	R1223E
3790.065	1.617	3814284	WORD	n/a	wordpools/wordpool_EN.txt	EEL	9	21	[0, 0, 0]	n/a	FR1	2	R1223E
3791.682	0.867	3815901	WORD_OFF	n/a	n/a	EEL	9	21	[0, 0, 0]	n/a	FR1	2	R1223E
3792.549	1.601	3816768	WORD	n/a	wordpools/wordpool_EN.txt	CLOWN	10	21	[0, 0, 0]	n/a	FR1	2	R1223E
3794.15	0.883	3818369	WORD_OFF	n/a	n/a	CLOWN	10	21	[0, 0, 0]	n/a	FR1	2	R1223E
3795.033	1.617	3819252	WORD	n/a	wordpools/wordpool_EN.txt	POOL	11	21	[0, 0, 0]	n/a	FR1	2	R1223E
3796.65	0.983	3820869	WORD_OFF	n/a	n/a	POOL	11	21	[0, 0, 0]	n/a	FR1	2	R1223E
3797.633	1.617	3821852	WORD	n/a	wordpools/wordpool_EN.txt	CLAY	12	21	[0, 0, 0]	n/a	FR1	2	R1223E
3799.25	0.0	3823469	WORD_OFF	n/a	n/a	CLAY	12	21	[0, 0, 0]	n/a	FR1	2	R1223E
3799.25	0.001	3823469	DISTRACT_START	n/a	n/a	n/a	-999	21	[0, 0, 0]	n/a	FR1	2	R1223E
3799.251	0.016	3823470	START	n/a	n/a	n/a	-999	21	[-999, -999, -999]	n/a	FR1	2	R1223E
3799.267	5.184	3823486	PROB	5.184	n/a	n/a	-999	21	[4, 6, 3]	13	FR1	2	R1223E
3804.451	3.901	3828670	PROB	3.901	n/a	n/a	-999	21	[1, 3, 1]	5	FR1	2	R1223E
3808.352	13.438	3832571	PROB	13.438	n/a	n/a	-999	21	[9, 7, 9]	25	FR1	2	R1223E
3821.79	0.014	3846008	STOP	n/a	n/a	n/a	-999	21	[-999, -999, -999]	n/a	FR1	2	R1223E
3821.804	0.534	3846022	DISTRACT_END	n/a	n/a	n/a	-999	21	[0, 0, 0]	n/a	FR1	2	R1223E
3822.338	0.517	3846556	RETRIEVAL_ORIENT	n/a	n/a	n/a	-999	21	[0, 0, 0]	n/a	FR1	2	R1223E
3822.855	9.595	3847073	REC_START	n/a	n/a	n/a	-999	21	[0, 0, 0]	n/a	FR1	2	R1223E
3832.45	15.755	3856668	REC_WORD	15.755	n/a	TEA	-999	21	[0, 0, 0]	n/a	FR1	2	R1223E
3848.205	4.662	3872422	REC_WORD	4.662	n/a	CHAIR	-999	21	[0, 0, 0]	n/a	FR1	2	R1223E
3852.867	6.427	3877084	REC_END	n/a	n/a	n/a	-999	21	[0, 0, 0]	n/a	FR1	2	R1223E
3859.294	0.5	3883511	TRIAL	n/a	n/a	n/a	-999	22	[0, 0, 0]	n/a	FR1	2	R1223E
3859.794	10.428	3884011	COUNTDOWN_START	n/a	n/a	n/a	-999	22	[0, 0, 0]	n/a	FR1	2	R1223E
3870.222	0.008	3894438	COUNTDOWN_END	n/a	n/a	n/a	-999	22	[0, 0, 0]	n/a	FR1	2	R1223E
3870.23	1.617	3894446	ORIENT	n/a	n/a	n/a	-999	22	[0, 0, 0]	n/a	FR1	2	R1223E
3871.847	2.284	3896063	ORIENT_OFF	n/a	n/a	n/a	-999	22	[0, 0, 0]	n/a	FR1	2	R1223E
3874.131	1.616	3898347	WORD	n/a	wordpools/wordpool_EN.txt	PURSE	1	22	[0, 0, 0]	n/a	FR1	2	R1223E
3875.747	0.85	3899963	WORD_OFF	n/a	n/a	PURSE	1	22	[0, 0, 0]	n/a	FR1	2	R1223E
3876.597	1.617	3900813	WORD	n/a	wordpools/wordpool_EN.txt	HAND	2	22	[0, 0, 0]	n/a	FR1	2	R1223E
3878.214	0.935	3902430	WORD_OFF	n/a	n/a	HAND	2	22	[0, 0, 0]	n/a	FR1	2	R1223E
3879.149	1.616	3903365	WORD	n/a	wordpools/wordpool_EN.txt	PEN	3	22	[0, 0, 0]	n/a	FR1	2	R1223E
3880.765	0.95	3904981	WORD_OFF	n/a	n/a	PEN	3	22	[0, 0, 0]	n/a	FR1	2	R1223E
3881.715	1.617	3905931	WORD	n/a	wordpools/wordpool_EN.txt	ELF	4	22	[0, 0, 0]	n/a	FR1	2	R1223E
3883.332	0.851	3907548	WORD_OFF	n/a	n/a	ELF	4	22	[0, 0, 0]	n/a	FR1	2	R1223E
3884.183	1.616	3908399	WORD	n/a	wordpools/wordpool_EN.txt	NAIL	5	22	[0, 0, 0]	n/a	FR1	2	R1223E
3885.799	0.9	3910015	WORD_OFF	n/a	n/a	NAIL	5	22	[0, 0, 0]	n/a	FR1	2	R1223E
3886.699	1.617	3910915	WORD	n/a	wordpools/wordpool_EN.txt	GLOVE	6	22	[0, 0, 0]	n/a	FR1	2	R1223E
3888.316	0.835	3912531	WORD_OFF	n/a	n/a	GLOVE	6	22	[0, 0, 0]	n/a	FR1	2	R1223E
3889.151	1.616	3913366	WORD	n/a	wordpools/wordpool_EN.txt	BREAD	7	22	[0, 0, 0]	n/a	FR1	2	R1223E
3890.767	0.833	3914982	WORD_OFF	n/a	n/a	BREAD	7	22	[0, 0, 0]	n/a	FR1	2	R1223E
3891.6	1.617	3915815	WORD	n/a	wordpools/wordpool_EN.txt	HOOK	8	22	[0, 0, 0]	n/a	FR1	2	R1223E
3893.217	0.783	3917432	WORD_OFF	n/a	n/a	HOOK	8	22	[0, 0, 0]	n/a	FR1	2	R1223E
3894.0	1.617	3918215	WORD	n/a	wordpools/wordpool_EN.txt	PIE	9	22	[0, 0, 0]	n/a	FR1	2	R1223E
3895.617	0.767	3919832	WORD_OFF	n/a	n/a	PIE	9	22	[0, 0, 0]	n/a	FR1	2	R1223E
3896.384	1.617	3920599	WORD	n/a	wordpools/wordpool_EN.txt	BAT	10	22	[0, 0, 0]	n/a	FR1	2	R1223E
3898.001	0.817	3922216	WORD_OFF	n/a	n/a	BAT	10	22	[0, 0, 0]	n/a	FR1	2	R1223E
3898.818	1.617	3923033	WORD	n/a	wordpools/wordpool_EN.txt	BOY	11	22	[0, 0, 0]	n/a	FR1	2	R1223E
3900.435	1.0	3924650	WORD_OFF	n/a	n/a	BOY	11	22	[0, 0, 0]	n/a	FR1	2	R1223E
3901.435	1.617	3925650	WORD	n/a	wordpools/wordpool_EN.txt	STOOL	12	22	[0, 0, 0]	n/a	FR1	2	R1223E
3903.052	0.0	3927267	WORD_OFF	n/a	n/a	STOOL	12	22	[0, 0, 0]	n/a	FR1	2	R1223E
3903.052	0.001	3927267	DISTRACT_START	n/a	n/a	n/a	-999	22	[0, 0, 0]	n/a	FR1	2	R1223E
3903.053	0.016	3927268	START	n/a	n/a	n/a	-999	22	[-999, -999, -999]	n/a	FR1	2	R1223E
3903.069	7.268	3927284	PROB	7.268	n/a	n/a	-999	22	[7, 8, 6]	20	FR1	2	R1223E
3910.337	9.001	3934552	PROB	9.001	n/a	n/a	-999	22	[6, 1, 8]	15	FR1	2	R1223E
3919.338	8.085	3943552	PROB	8.085	n/a	n/a	-999	22	[7, 6, 5]	19	FR1	2	R1223E
3927.423	0.017	3951637	STOP	n/a	n/a	n/a	-999	22	[-999, -999, -999]	n/a	FR1	2	R1223E
3927.44	0.516	3951654	DISTRACT_END	n/a	n/a	n/a	-999	22	[0, 0, 0]	n/a	FR1	2	R1223E
3927.956	0.518	3952170	RETRIEVAL_ORIENT	n/a	n/a	n/a	-999	22	[0, 0, 0]	n/a	FR1	2	R1223E
3928.474	7.238	3952688	REC_START	n/a	n/a	n/a	-999	22	[0, 0, 0]	n/a	FR1	2	R1223E
3935.712	3.359	3959926	REC_WORD	3.359	n/a	ELF	-999	22	[0, 0, 0]	n/a	FR1	2	R1223E
3939.071	4.076	3963285	REC_WORD	4.076	n/a	PIE	-999	22	[0, 0, 0]	n/a	FR1	2	R1223E
3943.147	15.339	3967360	REC_WORD_VV	15.339	n/a	<>	-999	22	[0, 0, 0]	n/a	FR1	2	R1223E
3958.486	6.893	3982699	REC_END	n/a	n/a	n/a	-999	22	[0, 0, 0]	n/a	FR1	2	R1223E
3965.379	0.5	3989591	TRIAL	n/a	n/a	n/a	-999	23	[0, 0, 0]	n/a	FR1	2	R1223E
3965.879	10.428	3990091	COUNTDOWN_START	n/a	n/a	n/a	-999	23	[0, 0, 0]	n/a	FR1	2	R1223E
3976.307	0.008	4000519	COUNTDOWN_END	n/a	n/a	n/a	-999	23	[0, 0, 0]	n/a	FR1	2	R1223E
3976.315	1.617	4000527	ORIENT	n/a	n/a	n/a	-999	23	[0, 0, 0]	n/a	FR1	2	R1223E
3977.932	2.168	4002144	ORIENT_OFF	n/a	n/a	n/a	-999	23	[0, 0, 0]	n/a	FR1	2	R1223E
3980.1	1.616	4004312	WORD	n/a	wordpools/wordpool_EN.txt	CASH	1	23	[0, 0, 0]	n/a	FR1	2	R1223E
3981.716	1.017	4005928	WORD_OFF	n/a	n/a	CASH	1	23	[0, 0, 0]	n/a	FR1	2	R1223E
3982.733	1.617	4006945	WORD	n/a	wordpools/wordpool_EN.txt	CAPE	2	23	[0, 0, 0]	n/a	FR1	2	R1223E
3984.35	0.817	4008562	WORD_OFF	n/a	n/a	CAPE	2	23	[0, 0, 0]	n/a	FR1	2	R1223E
3985.167	1.616	4009379	WORD	n/a	wordpools/wordpool_EN.txt	PHONE	3	23	[0, 0, 0]	n/a	FR1	2	R1223E
3986.783	0.901	4010995	WORD_OFF	n/a	n/a	PHONE	3	23	[0, 0, 0]	n/a	FR1	2	R1223E
3987.684	1.617	4011896	WORD	n/a	wordpools/wordpool_EN.txt	WHEEL	4	23	[0, 0, 0]	n/a	FR1	2	R1223E
3989.301	0.95	4013513	WORD_OFF	n/a	n/a	WHEEL	4	23	[0, 0, 0]	n/a	FR1	2	R1223E
3990.251	1.617	4014463	WORD	n/a	wordpools/wordpool_EN.txt	BOARD	5	23	[0, 0, 0]	n/a	FR1	2	R1223E
3991.868	0.933	4016079	WORD_OFF	n/a	n/a	BOARD	5	23	[0, 0, 0]	n/a	FR1	2	R1223E
3992.801	1.617	4017012	WORD	n/a	wordpools/wordpool_EN.txt	PLANE	6	23	[0, 0, 0]	n/a	FR1	2	R1223E
3994.418	0.884	4018629	WORD_OFF	n/a	n/a	PLANE	6	23	[0, 0, 0]	n/a	FR1	2	R1223E
3995.302	1.616	4019513	WORD	n/a	wordpools/wordpool_EN.txt	TEETH	7	23	[0, 0, 0]	n/a	FR1	2	R1223E
3996.918	0.851	4021129	WORD_OFF	n/a	n/a	TEETH	7	23	[0, 0, 0]	n/a	FR1	2	R1223E
3997.769	1.617	4021980	WORD	n/a	wordpools/wordpool_EN.txt	SHEET	8	23	[0, 0, 0]	n/a	FR1	2	R1223E
3999.386	0.833	4023597	WORD_OFF	n/a	n/a	SHEET	8	23	[0, 0, 0]	n/a	FR1	2	R1223E
4000.219	1.617	4024430	WORD	n/a	wordpools/wordpool_EN.txt	CORD	9	23	[0, 0, 0]	n/a	FR1	2	R1223E
4001.836	0.967	4026047	WORD_OFF	n/a	n/a	CORD	9	23	[0, 0, 0]	n/a	FR1	2	R1223E
4002.803	1.617	4027014	WORD	n/a	wordpools/wordpool_EN.txt	TOOL	10	23	[0, 0, 0]	n/a	FR1	2	R1223E
4004.42	0.8	4028631	WORD_OFF	n/a	n/a	TOOL	10	23	[0, 0, 0]	n/a	FR1	2	R1223E
4005.22	1.617	4029431	WORD	n/a	wordpools/wordpool_EN.txt	BOMB	11	23	[0, 0, 0]	n/a	FR1	2	R1223E
4006.837	0.833	4031048	WORD_OFF	n/a	n/a	BOMB	11	23	[0, 0, 0]	n/a	FR1	2	R1223E
4007.67	1.617	4031881	WORD	n/a	wordpools/wordpool_EN.txt	WORLD	12	23	[0, 0, 0]	n/a	FR1	2	R1223E
4009.287	0.0	4033498	WORD_OFF	n/a	n/a	WORLD	12	23	[0, 0, 0]	n/a	FR1	2	R1223E
4009.287	0.001	4033498	DISTRACT_START	n/a	n/a	n/a	-999	23	[0, 0, 0]	n/a	FR1	2	R1223E
4009.288	0.016	4033499	START	n/a	n/a	n/a	-999	23	[-999, -999, -999]	n/a	FR1	2	R1223E
4009.304	8.168	4033515	PROB	8.168	n/a	n/a	-999	23	[6, 1, 5]	12	FR1	2	R1223E
4017.472	5.385	4041682	PROB	5.385	n/a	n/a	-999	23	[7, 1, 7]	15	FR1	2	R1223E
4022.857	5.817	4047067	PROB	5.817	n/a	n/a	-999	23	[3, 9, 6]	18	FR1	2	R1223E
4028.674	4.118	4052884	PROB	4.118	n/a	n/a	-999	23	[3, 9, 9]	21	FR1	2	R1223E
4032.792	0.016	4057002	STOP	n/a	n/a	n/a	-999	23	[-999, -999, -999]	n/a	FR1	2	R1223E
4032.808	0.6	4057018	DISTRACT_END	n/a	n/a	n/a	-999	23	[0, 0, 0]	n/a	FR1	2	R1223E
4033.408	0.518	4057618	RETRIEVAL_ORIENT	n/a	n/a	n/a	-999	23	[0, 0, 0]	n/a	FR1	2	R1223E
4033.926	3.346	4058136	REC_START	n/a	n/a	n/a	-999	23	[0, 0, 0]	n/a	FR1	2	R1223E
4037.272	2.071	4061482	REC_WORD	2.071	n/a	CASH	-999	23	[0, 0, 0]	n/a	FR1	2	R1223E
4039.343	24.594	4063553	REC_WORD	24.594	n/a	PHONE	-999	23	[0, 0, 0]	n/a	FR1	2	R1223E
4063.937	8.028	4088146	REC_END	n/a	n/a	n/a	-999	23	[0, 0, 0]	n/a	FR1	2	R1223E
4071.965	0.5	4096173	TRIAL	n/a	n/a	n/a	-999	24	[0, 0, 0]	n/a	FR1	2	R1223E
4072.465	10.428	4096673	COUNTDOWN_START	n/a	n/a	n/a	-999	24	[0, 0, 0]	n/a	FR1	2	R1223E
4082.893	0.008	4107101	COUNTDOWN_END	n/a	n/a	n/a	-999	24	[0, 0, 0]	n/a	FR1	2	R1223E
4082.901	1.616	4107109	ORIENT	n/a	n/a	n/a	-999	24	[0, 0, 0]	n/a	FR1	2	R1223E
4084.517	2.001	4108725	ORIENT_OFF	n/a	n/a	n/a	-999	24	[0, 0, 0]	n/a	FR1	2	R1223E
4086.518	1.618	4110726	WORD	n/a	wordpools/wordpool_EN.txt	SLIME	1	24	[0, 0, 0]	n/a	FR1	2	R1223E
4088.136	0.95	4112344	WORD_OFF	n/a	n/a	SLIME	1	24	[0, 0, 0]	n/a	FR1	2	R1223E
4089.086	1.616	4113294	WORD	n/a	wordpools/wordpool_EN.txt	OWL	2	24	[0, 0, 0]	n/a	FR1	2	R1223E
4090.702	1.0	4114910	WORD_OFF	n/a	n/a	OWL	2	24	[0, 0, 0]	n/a	FR1	2	R1223E
4091.702	1.617	4115910	WORD	n/a	wordpools/wordpool_EN.txt	SHELL	3	24	[0, 0, 0]	n/a	FR1	2	R1223E
4093.319	0.883	4117527	WORD_OFF	n/a	n/a	SHELL	3	24	[0, 0, 0]	n/a	FR1	2	R1223E
4094.202	1.617	4118410	WORD	n/a	wordpools/wordpool_EN.txt	MOTH	4	24	[0, 0, 0]	n/a	FR1	2	R1223E
4095.819	1.0	4120026	WORD_OFF	n/a	n/a	MOTH	4	24	[0, 0, 0]	n/a	FR1	2	R1223E
4096.819	1.618	4121026	WORD	n/a	wordpools/wordpool_EN.txt	HEN	5	24	[0, 0, 0]	n/a	FR1	2	R1223E
4098.437	0.966	4122644	WORD_OFF	n/a	n/a	HEN	5	24	[0, 0, 0]	n/a	FR1	2	R1223E
4099.403	1.617	4123610	WORD	n/a	wordpools/wordpool_EN.txt	PEAR	6	24	[0, 0, 0]	n/a	FR1	2	R1223E
4101.02	0.767	4125227	WORD_OFF	n/a	n/a	PEAR	6	24	[0, 0, 0]	n/a	FR1	2	R1223E
4101.787	1.617	4125994	WORD	n/a	wordpools/wordpool_EN.txt	CRANE	7	24	[0, 0, 0]	n/a	FR1	2	R1223E
4103.404	0.967	4127611	WORD_OFF	n/a	n/a	CRANE	7	24	[0, 0, 0]	n/a	FR1	2	R1223E
4104.371	1.617	4128578	WORD	n/a	wordpools/wordpool_EN.txt	MOLE	8	24	[0, 0, 0]	n/a	FR1	2	R1223E
4105.988	0.966	4130195	WORD_OFF	n/a	n/a	MOLE	8	24	[0, 0, 0]	n/a	FR1	2	R1223E
4106.954	1.618	4131161	WORD	n/a	wordpools/wordpool_EN.txt	EAR	9	24	[0, 0, 0]	n/a	FR1	2	R1223E
4108.572	0.8	4132779	WORD_OFF	n/a	n/a	EAR	9	24	[0, 0, 0]	n/a	FR1	2	R1223E
4109.372	1.617	4133579	WORD	n/a	wordpools/wordpool_EN.txt	SNAIL	10	24	[0, 0, 0]	n/a	FR1	2	R1223E
4110.989	0.767	4135196	WORD_OFF	n/a	n/a	SNAIL	10	24	[0, 0, 0]	n/a	FR1	2	R1223E
4111.756	1.617	4135963	WORD	n/a	wordpools/wordpool_EN.txt	CAKE	11	24	[0, 0, 0]	n/a	FR1	2	R1223E
4113.373	1.0	4137580	WORD_OFF	n/a	n/a	CAKE	11	24	[0, 0, 0]	n/a	FR1	2	R1223E
4114.373	1.617	4138580	WORD	n/a	wordpools/wordpool_EN.txt	FLAME	12	24	[0, 0, 0]	n/a	FR1	2	R1223E
4115.99	0.0	4140197	WORD_OFF	n/a	n/a	FLAME	12	24	[0, 0, 0]	n/a	FR1	2	R1223E
4115.99	0.0	4140197	DISTRACT_START	n/a	n/a	n/a	-999	24	[0, 0, 0]	n/a	FR1	2	R1223E
4115.99	0.016	4140197	START	n/a	n/a	n/a	-999	24	[-999, -999, -999]	n/a	FR1	2	R1223E
4116.006	6.518	4140213	PROB	6.518	n/a	n/a	-999	24	[7, 3, 5]	15	FR1	2	R1223E
4122.524	5.901	4146730	PROB	5.901	n/a	n/a	-999	24	[8, 7, 5]	20	FR1	2	R1223E
4128.425	6.801	4152631	PROB	6.801	n/a	n/a	-999	24	[9, 8, 5]	22	FR1	2	R1223E
4135.226	7.505	4159432	PROB	7.505	n/a	n/a	-999	24	[5, 3, 6]	14	FR1	2	R1223E
4142.731	0.013	4166937	STOP	n/a	n/a	n/a	-999	24	[-999, -999, -999]	n/a	FR1	2	R1223E
4142.744	0.684	4166950	DISTRACT_END	n/a	n/a	n/a	-999	24	[0, 0, 0]	n/a	FR1	2	R1223E
4143.428	0.523	4167634	RETRIEVAL_ORIENT	n/a	n/a	n/a	-999	24	[0, 0, 0]	n/a	FR1	2	R1223E
4143.951	12.005	4168157	REC_START	n/a	n/a	n/a	-999	24	[0, 0, 0]	n/a	FR1	2	R1223E
4155.956	18.001	4180161	REC_WORD	18.001	n/a	EAR	-999	24	[0, 0, 0]	n/a	FR1	2	R1223E
4173.957	6.011	4198161	REC_END	n/a	n/a	n/a	-999	24	[0, 0, 0]	n/a	FR1	2	R1223E
4179.968	0.5	4204172	TRIAL	n/a	n/a	n/a	-999	25	[0, 0, 0]	n/a	FR1	2	R1223E
4180.468	10.428	4204672	COUNTDOWN_START	n/a	n/a	n/a	-999	25	[0, 0, 0]	n/a	FR1	2	R1223E
4190.896	0.007	4215100	COUNTDOWN_END	n/a	n/a	n/a	-999	25	[0, 0, 0]	n/a	FR1	2	R1223E
4190.903	1.617	4215107	ORIENT	n/a	n/a	n/a	-999	25	[0, 0, 0]	n/a	FR1	2	R1223E
4192.52	2.017	4216724	ORIENT_OFF	n/a	n/a	n/a	-999	25	[0, 0, 0]	n/a	FR1	2	R1223E
4194.537	1.618	4218741	WORD	n/a	wordpools/wordpool_EN.txt	WORM	1	25	[0, 0, 0]	n/a	FR1	2	R1223E
4196.155	0.849	4220359	WORD_OFF	n/a	n/a	WORM	1	25	[0, 0, 0]	n/a	FR1	2	R1223E
4197.004	1.617	4221208	WORD	n/a	wordpools/wordpool_EN.txt	BRANCH	2	25	[0, 0, 0]	n/a	FR1	2	R1223E
4198.621	0.95	4222824	WORD_OFF	n/a	n/a	BRANCH	2	25	[0, 0, 0]	n/a	FR1	2	R1223E
4199.571	1.618	4223774	WORD	n/a	wordpools/wordpool_EN.txt	LEAF	3	25	[0, 0, 0]	n/a	FR1	2	R1223E
4201.189	0.917	4225392	WORD_OFF	n/a	n/a	LEAF	3	25	[0, 0, 0]	n/a	FR1	2	R1223E
4202.106	1.616	4226309	WORD	n/a	wordpools/wordpool_EN.txt	CAVE	4	25	[0, 0, 0]	n/a	FR1	2	R1223E
4203.722	0.95	4227925	WORD_OFF	n/a	n/a	CAVE	4	25	[0, 0, 0]	n/a	FR1	2	R1223E
4204.672	1.617	4228875	WORD	n/a	wordpools/wordpool_EN.txt	NOSE	5	25	[0, 0, 0]	n/a	FR1	2	R1223E
4206.289	1.0	4230492	WORD_OFF	n/a	n/a	NOSE	5	25	[0, 0, 0]	n/a	FR1	2	R1223E
4207.289	1.617	4231492	WORD	n/a	wordpools/wordpool_EN.txt	CUBE	6	25	[0, 0, 0]	n/a	FR1	2	R1223E
4208.906	1.017	4233109	WORD_OFF	n/a	n/a	CUBE	6	25	[0, 0, 0]	n/a	FR1	2	R1223E
4209.923	1.617	4234126	WORD	n/a	wordpools/wordpool_EN.txt	JUICE	7	25	[0, 0, 0]	n/a	FR1	2	R1223E
4211.54	0.917	4235743	WORD_OFF	n/a	n/a	JUICE	7	25	[0, 0, 0]	n/a	FR1	2	R1223E
4212.457	1.617	4236660	WORD	n/a	wordpools/wordpool_EN.txt	MILK	8	25	[0, 0, 0]	n/a	FR1	2	R1223E
4214.074	0.916	4238277	WORD_OFF	n/a	n/a	MILK	8	25	[0, 0, 0]	n/a	FR1	2	R1223E
4214.99	1.617	4239193	WORD	n/a	wordpools/wordpool_EN.txt	SHEEP	9	25	[0, 0, 0]	n/a	FR1	2	R1223E
4216.607	0.934	4240810	WORD_OFF	n/a	n/a	SHEEP	9	25	[0, 0, 0]	n/a	FR1	2	R1223E
4217.541	1.618	4241744	WORD	n/a	wordpools/wordpool_EN.txt	MOUSE	10	25	[0, 0, 0]	n/a	FR1	2	R1223E
4219.159	0.849	4243362	WORD_OFF	n/a	n/a	MOUSE	10	25	[0, 0, 0]	n/a	FR1	2	R1223E
4220.008	1.617	4244211	WORD	n/a	wordpools/wordpool_EN.txt	ROOT	11	25	[0, 0, 0]	n/a	FR1	2	R1223E
4221.625	0.8	4245828	WORD_OFF	n/a	n/a	ROOT	11	25	[0, 0, 0]	n/a	FR1	2	R1223E
4222.425	1.617	4246628	WORD	n/a	wordpools/wordpool_EN.txt	ROCK	12	25	[0, 0, 0]	n/a	FR1	2	R1223E
4224.042	0.0	4248244	WORD_OFF	n/a	n/a	ROCK	12	25	[0, 0, 0]	n/a	FR1	2	R1223E
4224.042	0.001	4248244	DISTRACT_START	n/a	n/a	n/a	-999	25	[0, 0, 0]	n/a	FR1	2	R1223E
4224.043	0.016	4248245	START	n/a	n/a	n/a	-999	25	[-999, -999, -999]	n/a	FR1	2	R1223E
4224.059	6.868	4248261	PROB	6.868	n/a	n/a	-999	25	[4, 5, 7]	16	FR1	2	R1223E
4230.927	10.151	4255129	PROB	10.151	n/a	n/a	-999	25	[4, 7, 2]	13	FR1	2	R1223E
4241.078	6.787	4265280	PROB	6.787	n/a	n/a	-999	25	[6, 4, 7]	17	FR1	2	R1223E
4247.865	0.015	4272067	STOP	n/a	n/a	n/a	-999	25	[-999, -999, -999]	n/a	FR1	2	R1223E
4247.88	0.583	4272082	DISTRACT_END	n/a	n/a	n/a	-999	25	[0, 0, 0]	n/a	FR1	2	R1223E
4248.463	0.518	4272665	RETRIEVAL_ORIENT	n/a	n/a	n/a	-999	25	[0, 0, 0]	n/a	FR1	2	R1223E
4248.981	5.972	4273183	REC_START	n/a	n/a	n/a	-999	25	[0, 0, 0]	n/a	FR1	2	R1223E
4254.953	3.388	4279154	REC_WORD	3.388	n/a	JUICE	-999	25	[0, 0, 0]	n/a	FR1	2	R1223E
4258.341	20.65	4282542	REC_WORD	20.65	n/a	MILK	-999	25	[0, 0, 0]	n/a	FR1	2	R1223E
4278.991	0.0	4303191	REC_END	n/a	n/a	n/a	-999	25	[0, 0, 0]	n/a	FR1	2	R1223E
