onset	duration	sample	trial_type	response_time	stim_file	item_name	serialpos	list	test	answer	experiment	session	subject
0.0	150.043	-1	INSTRUCT_START	n/a	n/a	n/a	-999	-999	[0, 0, 0]	n/a	FR1	0	R1200T
150.043	0.0	12927	INSTRUCT_START	n/a	n/a	n/a	-999	-999	[0, 0, 0]	n/a	FR1	0	R1200T
150.043	11.15	12927	INSTRUCT_END	n/a	n/a	n/a	-999	-999	[0, 0, 0]	n/a	FR1	0	R1200T
161.193	0.0	24076	SESS_START	n/a	n/a	n/a	-999	-999	[0, 0, 0]	n/a	FR1	0	R1200T
161.193	259.798	24076	MIC_TEST	n/a	n/a	n/a	-999	-999	[0, 0, 0]	n/a	FR1	0	R1200T
420.991	2.352	283859	PRACTICE_TRIAL	n/a	n/a	n/a	-999	-1	[0, 0, 0]	n/a	FR1	0	R1200T
423.343	10.428	286211	COUNTDOWN_START	n/a	n/a	n/a	-999	-1	[0, 0, 0]	n/a	FR1	0	R1200T
433.771	0.007	296638	COUNTDOWN_END	n/a	n/a	n/a	-999	-1	[0, 0, 0]	n/a	FR1	0	R1200T
433.778	1.616	296645	PRACTICE_ORIENT	n/a	n/a	n/a	-999	-1	[0, 0, 0]	n/a	FR1	0	R1200T
435.394	2.152	298261	PRACTICE_ORIENT_OFF	n/a	n/a	n/a	-999	-1	[0, 0, 0]	n/a	FR1	0	R1200T
437.546	1.617	300413	PRACTICE_WORD	n/a	n/a	IRON	1	-1	[0, 0, 0]	n/a	FR1	0	R1200T
439.163	1.017	302030	PRACTICE_WORD_OFF	n/a	n/a	IRON	-999	-1	[0, 0, 0]	n/a	FR1	0	R1200T
440.18	1.617	303047	PRACTICE_WORD	n/a	n/a	BEAM	2	-1	[0, 0, 0]	n/a	FR1	0	R1200T
441.797	0.816	304664	PRACTICE_WORD_OFF	n/a	n/a	BEAM	-999	-1	[0, 0, 0]	n/a	FR1	0	R1200T
442.613	1.617	305480	PRACTICE_WORD	n/a	n/a	ATTIC	3	-1	[0, 0, 0]	n/a	FR1	0	R1200T
444.23	0.767	307097	PRACTICE_WORD_OFF	n/a	n/a	ATTIC	-999	-1	[0, 0, 0]	n/a	FR1	0	R1200T
444.997	1.617	307864	PRACTICE_WORD	n/a	n/a	CHEST	4	-1	[0, 0, 0]	n/a	FR1	0	R1200T
446.614	0.95	309480	PRACTICE_WORD_OFF	n/a	n/a	CHEST	-999	-1	[0, 0, 0]	n/a	FR1	0	R1200T
447.564	1.617	310430	PRACTICE_WORD	n/a	n/a	WATCH	5	-1	[0, 0, 0]	n/a	FR1	0	R1200T
449.181	0.784	312047	PRACTICE_WORD_OFF	n/a	n/a	WATCH	-999	-1	[0, 0, 0]	n/a	FR1	0	R1200T
449.965	1.617	312831	PRACTICE_WORD	n/a	n/a	WAGON	6	-1	[0, 0, 0]	n/a	FR1	0	R1200T
451.582	1.0	314448	PRACTICE_WORD_OFF	n/a	n/a	WAGON	-999	-1	[0, 0, 0]	n/a	FR1	0	R1200T
452.582	1.617	315448	PRACTICE_WORD	n/a	n/a	COTTON	7	-1	[0, 0, 0]	n/a	FR1	0	R1200T
454.199	0.917	317065	PRACTICE_WORD_OFF	n/a	n/a	COTTON	-999	-1	[0, 0, 0]	n/a	FR1	0	R1200T
455.116	1.617	317982	PRACTICE_WORD	n/a	n/a	FLOOD	8	-1	[0, 0, 0]	n/a	FR1	0	R1200T
456.733	0.883	319599	PRACTICE_WORD_OFF	n/a	n/a	FLOOD	-999	-1	[0, 0, 0]	n/a	FR1	0	R1200T
457.616	1.617	320482	PRACTICE_WORD	n/a	n/a	RHINO	9	-1	[0, 0, 0]	n/a	FR1	0	R1200T
459.233	0.817	322099	PRACTICE_WORD_OFF	n/a	n/a	RHINO	-999	-1	[0, 0, 0]	n/a	FR1	0	R1200T
460.05	1.617	322916	PRACTICE_WORD	n/a	n/a	CAMEL	10	-1	[0, 0, 0]	n/a	FR1	0	R1200T
461.667	0.765	324533	PRACTICE_WORD_OFF	n/a	n/a	CAMEL	-999	-1	[0, 0, 0]	n/a	FR1	0	R1200T
462.432	1.619	325298	PRACTICE_WORD	n/a	n/a	TONGUE	11	-1	[0, 0, 0]	n/a	FR1	0	R1200T
464.051	0.783	326916	PRACTICE_WORD_OFF	n/a	n/a	TONGUE	-999	-1	[0, 0, 0]	n/a	FR1	0	R1200T
464.834	1.616	327699	PRACTICE_WORD	n/a	n/a	RING	12	-1	[0, 0, 0]	n/a	FR1	0	R1200T
466.45	0.0	329315	PRACTICE_WORD_OFF	n/a	n/a	RING	-999	-1	[0, 0, 0]	n/a	FR1	0	R1200T
466.45	0.001	329315	DISTRACT_START	n/a	n/a	n/a	-999	-1	[0, 0, 0]	n/a	FR1	0	R1200T
466.451	0.016	329316	START	n/a	n/a	n/a	-999	-1	[-999, -999, -999]	n/a	FR1	0	R1200T
466.467	13.603	329332	PROB	13.603	n/a	n/a	-999	-1	[2, 4, 7]	13	FR1	0	R1200T
480.07	7.26	342934	PROB	7.26	n/a	n/a	-999	-1	[5, 9, 4]	18	FR1	0	R1200T
487.33	0.008	350194	STOP	n/a	n/a	n/a	-999	-1	[-999, -999, -999]	n/a	FR1	0	R1200T
487.338	0.6	350202	DISTRACT_END	n/a	n/a	n/a	-999	-1	[0, 0, 0]	n/a	FR1	0	R1200T
487.938	0.517	350802	RETRIEVAL_ORIENT	n/a	n/a	n/a	-999	-1	[0, 0, 0]	n/a	FR1	0	R1200T
488.455	30.011	351319	PRACTICE_REC_START	n/a	n/a	n/a	-999	-1	[0, 0, 0]	n/a	FR1	0	R1200T
518.466	133.486	381328	PRACTICE_REC_END	n/a	n/a	n/a	-999	-1	[0, 0, 0]	n/a	FR1	0	R1200T
651.952	0.5	514806	TRIAL	n/a	n/a	n/a	-999	1	[0, 0, 0]	n/a	FR1	0	R1200T
652.452	10.428	515306	COUNTDOWN_START	n/a	n/a	n/a	-999	1	[0, 0, 0]	n/a	FR1	0	R1200T
662.88	0.007	525734	COUNTDOWN_END	n/a	n/a	n/a	-999	1	[0, 0, 0]	n/a	FR1	0	R1200T
662.887	1.616	525741	ORIENT	n/a	n/a	n/a	-999	1	[0, 0, 0]	n/a	FR1	0	R1200T
664.503	2.201	527357	ORIENT_OFF	n/a	n/a	n/a	-999	1	[0, 0, 0]	n/a	FR1	0	R1200T
666.704	1.617	529558	WORD	n/a	wordpools/wordpool_EN.txt	SHIRT	1	1	[0, 0, 0]	n/a	FR1	0	R1200T
668.321	0.867	531174	WORD_OFF	n/a	n/a	SHIRT	1	1	[0, 0, 0]	n/a	FR1	0	R1200T
669.188	1.617	532041	WORD	n/a	wordpools/wordpool_EN.txt	STREET	2	1	[0, 0, 0]	n/a	FR1	0	R1200T
670.805	1.0	533658	WORD_OFF	n/a	n/a	STREET	2	1	[0, 0, 0]	n/a	FR1	0	R1200T
671.805	1.616	534658	WORD	n/a	wordpools/wordpool_EN.txt	TRUCK	3	1	[0, 0, 0]	n/a	FR1	0	R1200T
673.421	0.95	536274	WORD_OFF	n/a	n/a	TRUCK	3	1	[0, 0, 0]	n/a	FR1	0	R1200T
674.371	1.618	537224	WORD	n/a	wordpools/wordpool_EN.txt	ARK	4	1	[0, 0, 0]	n/a	FR1	0	R1200T
675.989	0.867	538842	WORD_OFF	n/a	n/a	ARK	4	1	[0, 0, 0]	n/a	FR1	0	R1200T
676.856	1.616	539709	WORD	n/a	wordpools/wordpool_EN.txt	COUCH	5	1	[0, 0, 0]	n/a	FR1	0	R1200T
678.472	0.851	541325	WORD_OFF	n/a	n/a	COUCH	5	1	[0, 0, 0]	n/a	FR1	0	R1200T
679.323	1.617	542176	WORD	n/a	wordpools/wordpool_EN.txt	DIME	6	1	[0, 0, 0]	n/a	FR1	0	R1200T
680.94	0.85	543793	WORD_OFF	n/a	n/a	DIME	6	1	[0, 0, 0]	n/a	FR1	0	R1200T
681.79	1.616	544643	WORD	n/a	wordpools/wordpool_EN.txt	CLOCK	7	1	[0, 0, 0]	n/a	FR1	0	R1200T
683.406	0.801	546259	WORD_OFF	n/a	n/a	CLOCK	7	1	[0, 0, 0]	n/a	FR1	0	R1200T
684.207	1.617	547059	WORD	n/a	wordpools/wordpool_EN.txt	FORK	8	1	[0, 0, 0]	n/a	FR1	0	R1200T
685.824	0.984	548676	WORD_OFF	n/a	n/a	FORK	8	1	[0, 0, 0]	n/a	FR1	0	R1200T
686.808	1.616	549660	WORD	n/a	wordpools/wordpool_EN.txt	BAND	9	1	[0, 0, 0]	n/a	FR1	0	R1200T
688.424	1.0	551276	WORD_OFF	n/a	n/a	BAND	9	1	[0, 0, 0]	n/a	FR1	0	R1200T
689.424	1.601	552276	WORD	n/a	wordpools/wordpool_EN.txt	CLOWN	10	1	[0, 0, 0]	n/a	FR1	0	R1200T
691.025	0.95	553877	WORD_OFF	n/a	n/a	CLOWN	10	1	[0, 0, 0]	n/a	FR1	0	R1200T
691.975	1.618	554827	WORD	n/a	wordpools/wordpool_EN.txt	LOCK	11	1	[0, 0, 0]	n/a	FR1	0	R1200T
693.593	0.849	556445	WORD_OFF	n/a	n/a	LOCK	11	1	[0, 0, 0]	n/a	FR1	0	R1200T
694.442	1.618	557294	WORD	n/a	wordpools/wordpool_EN.txt	CART	12	1	[0, 0, 0]	n/a	FR1	0	R1200T
696.06	0.0	558912	WORD_OFF	n/a	n/a	CART	12	1	[0, 0, 0]	n/a	FR1	0	R1200T
696.06	0.0	558912	DISTRACT_START	n/a	n/a	n/a	-999	1	[0, 0, 0]	n/a	FR1	0	R1200T
696.06	0.016	558912	START	n/a	n/a	n/a	-999	1	[-999, -999, -999]	n/a	FR1	0	R1200T
696.076	5.585	558928	PROB	5.585	n/a	n/a	-999	1	[6, 3, 3]	12	FR1	0	R1200T
701.661	7.434	564512	PROB	7.434	n/a	n/a	-999	1	[6, 6, 6]	18	FR1	0	R1200T
709.095	10.18	571946	PROB	10.18	n/a	n/a	-999	1	[5, 8, 7]	20	FR1	0	R1200T
719.275	0.005	582125	STOP	n/a	n/a	n/a	-999	1	[-999, -999, -999]	n/a	FR1	0	R1200T
719.28	0.651	582130	DISTRACT_END	n/a	n/a	n/a	-999	1	[0, 0, 0]	n/a	FR1	0	R1200T
719.931	0.516	582781	RETRIEVAL_ORIENT	n/a	n/a	n/a	-999	1	[0, 0, 0]	n/a	FR1	0	R1200T
720.447	3.204	583297	REC_START	n/a	n/a	n/a	-999	1	[0, 0, 0]	n/a	FR1	0	R1200T
723.651	1.018	586501	REC_WORD	1.018	n/a	TRUCK	3	1	[0, 0, 0]	n/a	FR1	0	R1200T
724.669	4.231	587519	REC_WORD	4.231	n/a	DIME	6	1	[0, 0, 0]	n/a	FR1	0	R1200T
728.9	3.932	591750	REC_WORD_VV	3.932	n/a	<>	-999	1	[0, 0, 0]	n/a	FR1	0	R1200T
732.832	3.719	595682	REC_WORD	3.719	n/a	LOCK	11	1	[0, 0, 0]	n/a	FR1	0	R1200T
736.551	4.347	599400	REC_WORD	4.347	n/a	SHIRT	1	1	[0, 0, 0]	n/a	FR1	0	R1200T
740.898	4.923	603747	REC_WORD_VV	4.923	n/a	<>	-999	1	[0, 0, 0]	n/a	FR1	0	R1200T
745.821	4.638	608670	REC_WORD	4.638	n/a	STREET	2	1	[0, 0, 0]	n/a	FR1	0	R1200T
750.459	6.328	613308	REC_END	n/a	n/a	n/a	-999	1	[0, 0, 0]	n/a	FR1	0	R1200T
756.787	0.5	619635	TRIAL	n/a	n/a	n/a	-999	2	[0, 0, 0]	n/a	FR1	0	R1200T
757.287	10.428	620135	COUNTDOWN_START	n/a	n/a	n/a	-999	2	[0, 0, 0]	n/a	FR1	0	R1200T
767.715	0.008	630563	COUNTDOWN_END	n/a	n/a	n/a	-999	2	[0, 0, 0]	n/a	FR1	0	R1200T
767.723	1.617	630571	ORIENT	n/a	n/a	n/a	-999	2	[0, 0, 0]	n/a	FR1	0	R1200T
769.34	2.317	632187	ORIENT_OFF	n/a	n/a	n/a	-999	2	[0, 0, 0]	n/a	FR1	0	R1200T
771.657	1.617	634504	WORD	n/a	wordpools/wordpool_EN.txt	PET	1	2	[0, 0, 0]	n/a	FR1	0	R1200T
773.274	0.833	636121	WORD_OFF	n/a	n/a	PET	1	2	[0, 0, 0]	n/a	FR1	0	R1200T
774.107	1.617	636954	WORD	n/a	wordpools/wordpool_EN.txt	HEN	2	2	[0, 0, 0]	n/a	FR1	0	R1200T
775.724	1.0	638571	WORD_OFF	n/a	n/a	HEN	2	2	[0, 0, 0]	n/a	FR1	0	R1200T
776.724	1.617	639571	WORD	n/a	wordpools/wordpool_EN.txt	RAT	3	2	[0, 0, 0]	n/a	FR1	0	R1200T
778.341	1.017	641188	WORD_OFF	n/a	n/a	RAT	3	2	[0, 0, 0]	n/a	FR1	0	R1200T
779.358	1.617	642205	WORD	n/a	wordpools/wordpool_EN.txt	DART	4	2	[0, 0, 0]	n/a	FR1	0	R1200T
780.975	0.767	643822	WORD_OFF	n/a	n/a	DART	4	2	[0, 0, 0]	n/a	FR1	0	R1200T
781.742	1.617	644589	WORD	n/a	wordpools/wordpool_EN.txt	ROAD	5	2	[0, 0, 0]	n/a	FR1	0	R1200T
783.359	0.767	646206	WORD_OFF	n/a	n/a	ROAD	5	2	[0, 0, 0]	n/a	FR1	0	R1200T
784.126	1.616	646973	WORD	n/a	wordpools/wordpool_EN.txt	STORE	6	2	[0, 0, 0]	n/a	FR1	0	R1200T
785.742	0.784	648589	WORD_OFF	n/a	n/a	STORE	6	2	[0, 0, 0]	n/a	FR1	0	R1200T
786.526	1.617	649372	WORD	n/a	wordpools/wordpool_EN.txt	JEEP	7	2	[0, 0, 0]	n/a	FR1	0	R1200T
788.143	0.833	650989	WORD_OFF	n/a	n/a	JEEP	7	2	[0, 0, 0]	n/a	FR1	0	R1200T
788.976	1.617	651822	WORD	n/a	wordpools/wordpool_EN.txt	TRAIN	8	2	[0, 0, 0]	n/a	FR1	0	R1200T
790.593	0.866	653439	WORD_OFF	n/a	n/a	TRAIN	8	2	[0, 0, 0]	n/a	FR1	0	R1200T
791.459	1.618	654305	WORD	n/a	wordpools/wordpool_EN.txt	FARM	9	2	[0, 0, 0]	n/a	FR1	0	R1200T
793.077	0.85	655923	WORD_OFF	n/a	n/a	FARM	9	2	[0, 0, 0]	n/a	FR1	0	R1200T
793.927	1.617	656773	WORD	n/a	wordpools/wordpool_EN.txt	LAWN	10	2	[0, 0, 0]	n/a	FR1	0	R1200T
795.544	0.967	658390	WORD_OFF	n/a	n/a	LAWN	10	2	[0, 0, 0]	n/a	FR1	0	R1200T
796.511	1.617	659357	WORD	n/a	wordpools/wordpool_EN.txt	CHALK	11	2	[0, 0, 0]	n/a	FR1	0	R1200T
798.128	0.8	660974	WORD_OFF	n/a	n/a	CHALK	11	2	[0, 0, 0]	n/a	FR1	0	R1200T
798.928	1.617	661774	WORD	n/a	wordpools/wordpool_EN.txt	HORSE	12	2	[0, 0, 0]	n/a	FR1	0	R1200T
800.545	0.0	663391	WORD_OFF	n/a	n/a	HORSE	12	2	[0, 0, 0]	n/a	FR1	0	R1200T
800.545	0.001	663391	DISTRACT_START	n/a	n/a	n/a	-999	2	[0, 0, 0]	n/a	FR1	0	R1200T
800.546	0.016	663392	START	n/a	n/a	n/a	-999	2	[-999, -999, -999]	n/a	FR1	0	R1200T
800.562	3.234	663408	PROB	3.234	n/a	n/a	-999	2	[2, 5, 5]	12	FR1	0	R1200T
803.796	6.118	666641	PROB	6.118	n/a	n/a	-999	2	[7, 5, 1]	13	FR1	0	R1200T
809.914	4.917	672759	PROB	4.917	n/a	n/a	-999	2	[4, 6, 6]	16	FR1	0	R1200T
814.831	4.001	677676	PROB	4.001	n/a	n/a	-999	2	[3, 7, 1]	11	FR1	0	R1200T
818.832	15.89	681677	PROB	15.89	n/a	n/a	-999	2	[5, 7, 6]	16	FR1	0	R1200T
834.722	0.013	697566	STOP	n/a	n/a	n/a	-999	2	[-999, -999, -999]	n/a	FR1	0	R1200T
834.735	0.6	697579	DISTRACT_END	n/a	n/a	n/a	-999	2	[0, 0, 0]	n/a	FR1	0	R1200T
835.335	0.517	698179	RETRIEVAL_ORIENT	n/a	n/a	n/a	-999	2	[0, 0, 0]	n/a	FR1	0	R1200T
835.852	0.588	698696	REC_START	n/a	n/a	n/a	-999	2	[0, 0, 0]	n/a	FR1	0	R1200T
836.44	0.572	699284	REC_WORD_VV	0.572	n/a	<>	-999	2	[0, 0, 0]	n/a	FR1	0	R1200T
837.012	0.535	699855	REC_WORD_VV	0.535	n/a	<>	-999	2	[0, 0, 0]	n/a	FR1	0	R1200T
837.547	1.572	700390	REC_WORD_VV	1.572	n/a	<>	-999	2	[0, 0, 0]	n/a	FR1	0	R1200T
839.119	0.589	701962	REC_WORD	0.589	n/a	PET	1	2	[0, 0, 0]	n/a	FR1	0	R1200T
839.708	0.952	702551	REC_WORD	0.952	n/a	HEN	2	2	[0, 0, 0]	n/a	FR1	0	R1200T
840.66	3.7	703503	REC_WORD	3.7	n/a	RAT	3	2	[0, 0, 0]	n/a	FR1	0	R1200T
844.36	3.818	707203	REC_WORD	3.818	n/a	STORE	6	2	[0, 0, 0]	n/a	FR1	0	R1200T
848.178	2.181	711021	REC_WORD	2.181	n/a	FARM	9	2	[0, 0, 0]	n/a	FR1	0	R1200T
850.359	4.0	713202	REC_WORD	4.0	n/a	LAWN	10	2	[0, 0, 0]	n/a	FR1	0	R1200T
854.359	1.584	717201	REC_WORD_VV	1.584	n/a	<>	-999	2	[0, 0, 0]	n/a	FR1	0	R1200T
855.943	1.0	718785	REC_WORD_VV	1.0	n/a	<>	-999	2	[0, 0, 0]	n/a	FR1	0	R1200T
856.943	1.0	719785	REC_WORD_VV	1.0	n/a	<>	-999	2	[0, 0, 0]	n/a	FR1	0	R1200T
857.943	1.0	720785	REC_WORD_VV	1.0	n/a	<>	-999	2	[0, 0, 0]	n/a	FR1	0	R1200T
858.943	6.923	721785	REC_WORD_VV	6.923	n/a	<>	-999	2	[0, 0, 0]	n/a	FR1	0	R1200T
865.866	5.725	728708	REC_END	n/a	n/a	n/a	-999	2	[0, 0, 0]	n/a	FR1	0	R1200T
871.591	0.5	734432	TRIAL	n/a	n/a	n/a	-999	3	[0, 0, 0]	n/a	FR1	0	R1200T
872.091	10.428	734932	COUNTDOWN_START	n/a	n/a	n/a	-999	3	[0, 0, 0]	n/a	FR1	0	R1200T
882.519	0.008	745360	COUNTDOWN_END	n/a	n/a	n/a	-999	3	[0, 0, 0]	n/a	FR1	0	R1200T
882.527	1.617	745368	ORIENT	n/a	n/a	n/a	-999	3	[0, 0, 0]	n/a	FR1	0	R1200T
884.144	2.134	746985	ORIENT_OFF	n/a	n/a	n/a	-999	3	[0, 0, 0]	n/a	FR1	0	R1200T
886.278	1.616	749119	WORD	n/a	wordpools/wordpool_EN.txt	PEARL	1	3	[0, 0, 0]	n/a	FR1	0	R1200T
887.894	0.917	750735	WORD_OFF	n/a	n/a	PEARL	1	3	[0, 0, 0]	n/a	FR1	0	R1200T
888.811	1.616	751651	WORD	n/a	wordpools/wordpool_EN.txt	BOAT	2	3	[0, 0, 0]	n/a	FR1	0	R1200T
890.427	0.868	753267	WORD_OFF	n/a	n/a	BOAT	2	3	[0, 0, 0]	n/a	FR1	0	R1200T
891.295	1.617	754135	WORD	n/a	wordpools/wordpool_EN.txt	TOY	3	3	[0, 0, 0]	n/a	FR1	0	R1200T
892.912	0.934	755752	WORD_OFF	n/a	n/a	TOY	3	3	[0, 0, 0]	n/a	FR1	0	R1200T
893.846	1.616	756686	WORD	n/a	wordpools/wordpool_EN.txt	BOY	4	3	[0, 0, 0]	n/a	FR1	0	R1200T
895.462	0.884	758302	WORD_OFF	n/a	n/a	BOY	4	3	[0, 0, 0]	n/a	FR1	0	R1200T
896.346	1.617	759186	WORD	n/a	wordpools/wordpool_EN.txt	ARM	5	3	[0, 0, 0]	n/a	FR1	0	R1200T
897.963	0.833	760803	WORD_OFF	n/a	n/a	ARM	5	3	[0, 0, 0]	n/a	FR1	0	R1200T
898.796	1.616	761636	WORD	n/a	wordpools/wordpool_EN.txt	BOARD	6	3	[0, 0, 0]	n/a	FR1	0	R1200T
900.412	0.818	763252	WORD_OFF	n/a	n/a	BOARD	6	3	[0, 0, 0]	n/a	FR1	0	R1200T
901.23	1.617	764070	WORD	n/a	wordpools/wordpool_EN.txt	SEA	7	3	[0, 0, 0]	n/a	FR1	0	R1200T
902.847	0.8	765687	WORD_OFF	n/a	n/a	SEA	7	3	[0, 0, 0]	n/a	FR1	0	R1200T
903.647	1.617	766487	WORD	n/a	wordpools/wordpool_EN.txt	GLOVE	8	3	[0, 0, 0]	n/a	FR1	0	R1200T
905.264	1.0	768103	WORD_OFF	n/a	n/a	GLOVE	8	3	[0, 0, 0]	n/a	FR1	0	R1200T
906.264	1.617	769103	WORD	n/a	wordpools/wordpool_EN.txt	NET	9	3	[0, 0, 0]	n/a	FR1	0	R1200T
907.881	0.984	770720	WORD_OFF	n/a	n/a	NET	9	3	[0, 0, 0]	n/a	FR1	0	R1200T
908.865	1.616	771704	WORD	n/a	wordpools/wordpool_EN.txt	SPONGE	10	3	[0, 0, 0]	n/a	FR1	0	R1200T
910.481	0.983	773320	WORD_OFF	n/a	n/a	SPONGE	10	3	[0, 0, 0]	n/a	FR1	0	R1200T
911.464	1.618	774303	WORD	n/a	wordpools/wordpool_EN.txt	SHIP	11	3	[0, 0, 0]	n/a	FR1	0	R1200T
913.082	0.934	775921	WORD_OFF	n/a	n/a	SHIP	11	3	[0, 0, 0]	n/a	FR1	0	R1200T
914.016	1.617	776855	WORD	n/a	wordpools/wordpool_EN.txt	TANK	12	3	[0, 0, 0]	n/a	FR1	0	R1200T
915.633	0.0	778472	WORD_OFF	n/a	n/a	TANK	12	3	[0, 0, 0]	n/a	FR1	0	R1200T
915.633	0.0	778472	DISTRACT_START	n/a	n/a	n/a	-999	3	[0, 0, 0]	n/a	FR1	0	R1200T
915.633	0.017	778472	START	n/a	n/a	n/a	-999	3	[-999, -999, -999]	n/a	FR1	0	R1200T
915.65	6.766	778489	PROB	6.766	n/a	n/a	-999	3	[6, 2, 2]	10	FR1	0	R1200T
922.416	14.21	785254	PROB	14.21	n/a	n/a	-999	3	[3, 6, 6]	15	FR1	0	R1200T
936.626	0.011	799464	STOP	n/a	n/a	n/a	-999	3	[-999, -999, -999]	n/a	FR1	0	R1200T
936.637	0.6	799475	DISTRACT_END	n/a	n/a	n/a	-999	3	[0, 0, 0]	n/a	FR1	0	R1200T
937.237	0.517	800075	RETRIEVAL_ORIENT	n/a	n/a	n/a	-999	3	[0, 0, 0]	n/a	FR1	0	R1200T
937.754	1.4	800592	REC_START	n/a	n/a	n/a	-999	3	[0, 0, 0]	n/a	FR1	0	R1200T
939.154	1.334	801991	REC_WORD	1.334	n/a	SHIP	11	3	[0, 0, 0]	n/a	FR1	0	R1200T
940.488	0.623	803325	REC_WORD	0.623	n/a	BOAT	2	3	[0, 0, 0]	n/a	FR1	0	R1200T
941.111	0.692	803948	REC_WORD	0.692	n/a	TANK	12	3	[0, 0, 0]	n/a	FR1	0	R1200T
941.803	2.641	804640	REC_WORD	2.641	n/a	PEARL	1	3	[0, 0, 0]	n/a	FR1	0	R1200T
944.444	7.26	807281	REC_WORD	7.26	n/a	BOY	4	3	[0, 0, 0]	n/a	FR1	0	R1200T
951.704	3.332	814541	REC_WORD	3.332	n/a	SPONGE	10	3	[0, 0, 0]	n/a	FR1	0	R1200T
955.036	12.731	817873	REC_WORD	12.731	n/a	NET	9	3	[0, 0, 0]	n/a	FR1	0	R1200T
967.767	24.346	830603	REC_END	n/a	n/a	n/a	-999	3	[0, 0, 0]	n/a	FR1	0	R1200T
992.113	0.5	854947	TRIAL	n/a	n/a	n/a	-999	4	[0, 0, 0]	n/a	FR1	0	R1200T
992.613	10.428	855447	COUNTDOWN_START	n/a	n/a	n/a	-999	4	[0, 0, 0]	n/a	FR1	0	R1200T
1003.041	0.008	865875	COUNTDOWN_END	n/a	n/a	n/a	-999	4	[0, 0, 0]	n/a	FR1	0	R1200T
1003.049	1.617	865883	ORIENT	n/a	n/a	n/a	-999	4	[0, 0, 0]	n/a	FR1	0	R1200T
1004.666	1.85	867500	ORIENT_OFF	n/a	n/a	n/a	-999	4	[0, 0, 0]	n/a	FR1	0	R1200T
1006.516	1.617	869350	WORD	n/a	wordpools/wordpool_EN.txt	PARK	1	4	[0, 0, 0]	n/a	FR1	0	R1200T
1008.133	0.883	870966	WORD_OFF	n/a	n/a	PARK	1	4	[0, 0, 0]	n/a	FR1	0	R1200T
1009.016	1.617	871849	WORD	n/a	wordpools/wordpool_EN.txt	GEESE	2	4	[0, 0, 0]	n/a	FR1	0	R1200T
1010.633	1.001	873466	WORD_OFF	n/a	n/a	GEESE	2	4	[0, 0, 0]	n/a	FR1	0	R1200T
1011.634	1.617	874467	WORD	n/a	wordpools/wordpool_EN.txt	DUCK	3	4	[0, 0, 0]	n/a	FR1	0	R1200T
1013.251	0.816	876084	WORD_OFF	n/a	n/a	DUCK	3	4	[0, 0, 0]	n/a	FR1	0	R1200T
1014.067	1.617	876900	WORD	n/a	wordpools/wordpool_EN.txt	ZOO	4	4	[0, 0, 0]	n/a	FR1	0	R1200T
1015.684	0.766	878517	WORD_OFF	n/a	n/a	ZOO	4	4	[0, 0, 0]	n/a	FR1	0	R1200T
1016.45	1.618	879283	WORD	n/a	wordpools/wordpool_EN.txt	BLUSH	5	4	[0, 0, 0]	n/a	FR1	0	R1200T
1018.068	0.867	880901	WORD_OFF	n/a	n/a	BLUSH	5	4	[0, 0, 0]	n/a	FR1	0	R1200T
1018.935	1.617	881768	WORD	n/a	wordpools/wordpool_EN.txt	EAR	6	4	[0, 0, 0]	n/a	FR1	0	R1200T
1020.552	0.8	883385	WORD_OFF	n/a	n/a	EAR	6	4	[0, 0, 0]	n/a	FR1	0	R1200T
1021.352	1.617	884185	WORD	n/a	wordpools/wordpool_EN.txt	CRANE	7	4	[0, 0, 0]	n/a	FR1	0	R1200T
1022.969	0.884	885802	WORD_OFF	n/a	n/a	CRANE	7	4	[0, 0, 0]	n/a	FR1	0	R1200T
1023.853	1.615	886686	WORD	n/a	wordpools/wordpool_EN.txt	DRUM	8	4	[0, 0, 0]	n/a	FR1	0	R1200T
1025.468	0.768	888300	WORD_OFF	n/a	n/a	DRUM	8	4	[0, 0, 0]	n/a	FR1	0	R1200T
1026.236	1.617	889068	WORD	n/a	wordpools/wordpool_EN.txt	VAN	9	4	[0, 0, 0]	n/a	FR1	0	R1200T
1027.853	0.9	890685	WORD_OFF	n/a	n/a	VAN	9	4	[0, 0, 0]	n/a	FR1	0	R1200T
1028.753	1.616	891585	WORD	n/a	wordpools/wordpool_EN.txt	SNOW	10	4	[0, 0, 0]	n/a	FR1	0	R1200T
1030.369	0.952	893201	WORD_OFF	n/a	n/a	SNOW	10	4	[0, 0, 0]	n/a	FR1	0	R1200T
1031.321	1.617	894153	WORD	n/a	wordpools/wordpool_EN.txt	FLAG	11	4	[0, 0, 0]	n/a	FR1	0	R1200T
1032.938	0.866	895770	WORD_OFF	n/a	n/a	FLAG	11	4	[0, 0, 0]	n/a	FR1	0	R1200T
1033.804	1.616	896636	WORD	n/a	wordpools/wordpool_EN.txt	BADGE	12	4	[0, 0, 0]	n/a	FR1	0	R1200T
1035.42	0.0	898252	WORD_OFF	n/a	n/a	BADGE	12	4	[0, 0, 0]	n/a	FR1	0	R1200T
1035.42	0.001	898252	DISTRACT_START	n/a	n/a	n/a	-999	4	[0, 0, 0]	n/a	FR1	0	R1200T
1035.421	0.016	898253	START	n/a	n/a	n/a	-999	4	[-999, -999, -999]	n/a	FR1	0	R1200T
1035.437	4.435	898269	PROB	4.435	n/a	n/a	-999	4	[7, 3, 4]	14	FR1	0	R1200T
1039.872	3.117	902704	PROB	3.117	n/a	n/a	-999	4	[1, 6, 4]	11	FR1	0	R1200T
1042.989	9.219	905820	PROB	9.219	n/a	n/a	-999	4	[9, 2, 4]	15	FR1	0	R1200T
1052.208	3.299	915039	PROB	3.299	n/a	n/a	-999	4	[6, 2, 2]	10	FR1	0	R1200T
1055.507	0.018	918338	STOP	n/a	n/a	n/a	-999	4	[-999, -999, -999]	n/a	FR1	0	R1200T
1055.525	0.633	918356	DISTRACT_END	n/a	n/a	n/a	-999	4	[0, 0, 0]	n/a	FR1	0	R1200T
1056.158	0.518	918989	RETRIEVAL_ORIENT	n/a	n/a	n/a	-999	4	[0, 0, 0]	n/a	FR1	0	R1200T
1056.676	2.016	919507	REC_START	n/a	n/a	n/a	-999	4	[0, 0, 0]	n/a	FR1	0	R1200T
1058.692	0.98	921522	REC_WORD	0.98	n/a	PARK	1	4	[0, 0, 0]	n/a	FR1	0	R1200T
1059.672	1.745	922502	REC_WORD	1.745	n/a	GEESE	2	4	[0, 0, 0]	n/a	FR1	0	R1200T
1061.417	0.977	924247	REC_WORD	0.977	n/a	DUCK	3	4	[0, 0, 0]	n/a	FR1	0	R1200T
1062.394	24.294	925224	REC_WORD	24.294	n/a	CRANE	7	4	[0, 0, 0]	n/a	FR1	0	R1200T
1086.688	7.844	949517	REC_END	n/a	n/a	n/a	-999	4	[0, 0, 0]	n/a	FR1	0	R1200T
1094.532	0.5	957360	TRIAL	n/a	n/a	n/a	-999	5	[0, 0, 0]	n/a	FR1	0	R1200T
1095.032	10.428	957860	COUNTDOWN_START	n/a	n/a	n/a	-999	5	[0, 0, 0]	n/a	FR1	0	R1200T
1105.46	0.006	968288	COUNTDOWN_END	n/a	n/a	n/a	-999	5	[0, 0, 0]	n/a	FR1	0	R1200T
1105.466	1.618	968294	ORIENT	n/a	n/a	n/a	-999	5	[0, 0, 0]	n/a	FR1	0	R1200T
1107.084	1.867	969912	ORIENT_OFF	n/a	n/a	n/a	-999	5	[0, 0, 0]	n/a	FR1	0	R1200T
1108.951	1.617	971779	WORD	n/a	wordpools/wordpool_EN.txt	HOUSE	1	5	[0, 0, 0]	n/a	FR1	0	R1200T
1110.568	1.0	973395	WORD_OFF	n/a	n/a	HOUSE	1	5	[0, 0, 0]	n/a	FR1	0	R1200T
1111.568	1.618	974395	WORD	n/a	wordpools/wordpool_EN.txt	BARN	2	5	[0, 0, 0]	n/a	FR1	0	R1200T
1113.186	0.883	976013	WORD_OFF	n/a	n/a	BARN	2	5	[0, 0, 0]	n/a	FR1	0	R1200T
1114.069	1.617	976896	WORD	n/a	wordpools/wordpool_EN.txt	NEST	3	5	[0, 0, 0]	n/a	FR1	0	R1200T
1115.686	0.9	978513	WORD_OFF	n/a	n/a	NEST	3	5	[0, 0, 0]	n/a	FR1	0	R1200T
1116.586	1.617	979413	WORD	n/a	wordpools/wordpool_EN.txt	CLOUD	4	5	[0, 0, 0]	n/a	FR1	0	R1200T
1118.203	0.917	981030	WORD_OFF	n/a	n/a	CLOUD	4	5	[0, 0, 0]	n/a	FR1	0	R1200T
1119.12	1.617	981947	WORD	n/a	wordpools/wordpool_EN.txt	FROG	5	5	[0, 0, 0]	n/a	FR1	0	R1200T
1120.737	1.017	983564	WORD_OFF	n/a	n/a	FROG	5	5	[0, 0, 0]	n/a	FR1	0	R1200T
1121.754	1.616	984581	WORD	n/a	wordpools/wordpool_EN.txt	OWL	6	5	[0, 0, 0]	n/a	FR1	0	R1200T
1123.37	0.918	986197	WORD_OFF	n/a	n/a	OWL	6	5	[0, 0, 0]	n/a	FR1	0	R1200T
1124.288	1.616	987115	WORD	n/a	wordpools/wordpool_EN.txt	HAWK	7	5	[0, 0, 0]	n/a	FR1	0	R1200T
1125.904	0.867	988731	WORD_OFF	n/a	n/a	HAWK	7	5	[0, 0, 0]	n/a	FR1	0	R1200T
1126.771	1.616	989597	WORD	n/a	wordpools/wordpool_EN.txt	VEST	8	5	[0, 0, 0]	n/a	FR1	0	R1200T
1128.387	0.768	991213	WORD_OFF	n/a	n/a	VEST	8	5	[0, 0, 0]	n/a	FR1	0	R1200T
1129.155	1.617	991981	WORD	n/a	wordpools/wordpool_EN.txt	GOAT	9	5	[0, 0, 0]	n/a	FR1	0	R1200T
1130.772	0.767	993598	WORD_OFF	n/a	n/a	GOAT	9	5	[0, 0, 0]	n/a	FR1	0	R1200T
1131.539	1.617	994365	WORD	n/a	wordpools/wordpool_EN.txt	POND	10	5	[0, 0, 0]	n/a	FR1	0	R1200T
1133.156	0.95	995982	WORD_OFF	n/a	n/a	POND	10	5	[0, 0, 0]	n/a	FR1	0	R1200T
1134.106	1.617	996932	WORD	n/a	wordpools/wordpool_EN.txt	SKY	11	5	[0, 0, 0]	n/a	FR1	0	R1200T
1135.723	0.983	998549	WORD_OFF	n/a	n/a	SKY	11	5	[0, 0, 0]	n/a	FR1	0	R1200T
1136.706	1.617	999532	WORD	n/a	wordpools/wordpool_EN.txt	HILL	12	5	[0, 0, 0]	n/a	FR1	0	R1200T
1138.323	0.0	1001149	WORD_OFF	n/a	n/a	HILL	12	5	[0, 0, 0]	n/a	FR1	0	R1200T
1138.323	0.001	1001149	DISTRACT_START	n/a	n/a	n/a	-999	5	[0, 0, 0]	n/a	FR1	0	R1200T
1138.324	0.016	1001150	START	n/a	n/a	n/a	-999	5	[-999, -999, -999]	n/a	FR1	0	R1200T
1138.34	5.935	1001166	PROB	5.935	n/a	n/a	-999	5	[2, 4, 4]	10	FR1	0	R1200T
1144.275	4.234	1007100	PROB	4.234	n/a	n/a	-999	5	[8, 1, 6]	15	FR1	0	R1200T
1148.509	6.867	1011334	PROB	6.867	n/a	n/a	-999	5	[6, 7, 8]	21	FR1	0	R1200T
1155.376	5.281	1018201	PROB	5.281	n/a	n/a	-999	5	[3, 8, 6]	17	FR1	0	R1200T
1160.657	0.02	1023481	STOP	n/a	n/a	n/a	-999	5	[-999, -999, -999]	n/a	FR1	0	R1200T
1160.677	0.517	1023501	DISTRACT_END	n/a	n/a	n/a	-999	5	[0, 0, 0]	n/a	FR1	0	R1200T
1161.194	0.518	1024018	RETRIEVAL_ORIENT	n/a	n/a	n/a	-999	5	[0, 0, 0]	n/a	FR1	0	R1200T
1161.712	3.714	1024536	REC_START	n/a	n/a	n/a	-999	5	[0, 0, 0]	n/a	FR1	0	R1200T
1165.426	3.129	1028250	REC_WORD	3.129	n/a	HOUSE	1	5	[0, 0, 0]	n/a	FR1	0	R1200T
1168.555	2.953	1031379	REC_WORD	2.953	n/a	BARN	2	5	[0, 0, 0]	n/a	FR1	0	R1200T
1171.508	3.439	1034332	REC_WORD	3.439	n/a	NEST	3	5	[0, 0, 0]	n/a	FR1	0	R1200T
1174.947	9.056	1037771	REC_WORD	9.056	n/a	CLOUD	4	5	[0, 0, 0]	n/a	FR1	0	R1200T
1184.003	7.721	1046826	REC_WORD	7.721	n/a	CRANE	-999	5	[0, 0, 0]	n/a	FR1	0	R1200T
1191.724	3.927	1054547	REC_END	n/a	n/a	n/a	-999	5	[0, 0, 0]	n/a	FR1	0	R1200T
1195.651	0.5	1058473	TRIAL	n/a	n/a	n/a	-999	6	[0, 0, 0]	n/a	FR1	0	R1200T
1196.151	10.428	1058973	COUNTDOWN_START	n/a	n/a	n/a	-999	6	[0, 0, 0]	n/a	FR1	0	R1200T
1206.579	0.007	1069401	COUNTDOWN_END	n/a	n/a	n/a	-999	6	[0, 0, 0]	n/a	FR1	0	R1200T
1206.586	1.617	1069408	ORIENT	n/a	n/a	n/a	-999	6	[0, 0, 0]	n/a	FR1	0	R1200T
1208.203	2.166	1071025	ORIENT_OFF	n/a	n/a	n/a	-999	6	[0, 0, 0]	n/a	FR1	0	R1200T
1210.369	1.618	1073191	WORD	n/a	wordpools/wordpool_EN.txt	MILK	1	6	[0, 0, 0]	n/a	FR1	0	R1200T
1211.987	0.867	1074808	WORD_OFF	n/a	n/a	MILK	1	6	[0, 0, 0]	n/a	FR1	0	R1200T
1212.854	1.616	1075675	WORD	n/a	wordpools/wordpool_EN.txt	CORN	2	6	[0, 0, 0]	n/a	FR1	0	R1200T
1214.47	1.0	1077291	WORD_OFF	n/a	n/a	CORN	2	6	[0, 0, 0]	n/a	FR1	0	R1200T
1215.47	1.618	1078291	WORD	n/a	wordpools/wordpool_EN.txt	HOOF	3	6	[0, 0, 0]	n/a	FR1	0	R1200T
1217.088	0.933	1079909	WORD_OFF	n/a	n/a	HOOF	3	6	[0, 0, 0]	n/a	FR1	0	R1200T
1218.021	1.617	1080842	WORD	n/a	wordpools/wordpool_EN.txt	ANT	4	6	[0, 0, 0]	n/a	FR1	0	R1200T
1219.638	0.9	1082459	WORD_OFF	n/a	n/a	ANT	4	6	[0, 0, 0]	n/a	FR1	0	R1200T
1220.538	1.617	1083359	WORD	n/a	wordpools/wordpool_EN.txt	SHELL	5	6	[0, 0, 0]	n/a	FR1	0	R1200T
1222.155	0.817	1084976	WORD_OFF	n/a	n/a	SHELL	5	6	[0, 0, 0]	n/a	FR1	0	R1200T
1222.972	1.617	1085793	WORD	n/a	wordpools/wordpool_EN.txt	LEAF	6	6	[0, 0, 0]	n/a	FR1	0	R1200T
1224.589	0.916	1087410	WORD_OFF	n/a	n/a	LEAF	6	6	[0, 0, 0]	n/a	FR1	0	R1200T
1225.505	1.618	1088326	WORD	n/a	wordpools/wordpool_EN.txt	SNAIL	7	6	[0, 0, 0]	n/a	FR1	0	R1200T
1227.123	0.767	1089944	WORD_OFF	n/a	n/a	SNAIL	7	6	[0, 0, 0]	n/a	FR1	0	R1200T
1227.89	1.617	1090711	WORD	n/a	wordpools/wordpool_EN.txt	ROOT	8	6	[0, 0, 0]	n/a	FR1	0	R1200T
1229.507	0.783	1092327	WORD_OFF	n/a	n/a	ROOT	8	6	[0, 0, 0]	n/a	FR1	0	R1200T
1230.29	1.617	1093110	WORD	n/a	wordpools/wordpool_EN.txt	STAIR	9	6	[0, 0, 0]	n/a	FR1	0	R1200T
1231.907	0.934	1094727	WORD_OFF	n/a	n/a	STAIR	9	6	[0, 0, 0]	n/a	FR1	0	R1200T
1232.841	1.616	1095661	WORD	n/a	wordpools/wordpool_EN.txt	SEED	10	6	[0, 0, 0]	n/a	FR1	0	R1200T
1234.457	0.817	1097277	WORD_OFF	n/a	n/a	SEED	10	6	[0, 0, 0]	n/a	FR1	0	R1200T
1235.274	1.617	1098094	WORD	n/a	wordpools/wordpool_EN.txt	SHRIMP	11	6	[0, 0, 0]	n/a	FR1	0	R1200T
1236.891	0.951	1099711	WORD_OFF	n/a	n/a	SHRIMP	11	6	[0, 0, 0]	n/a	FR1	0	R1200T
1237.842	1.615	1100662	WORD	n/a	wordpools/wordpool_EN.txt	MAP	12	6	[0, 0, 0]	n/a	FR1	0	R1200T
1239.457	0.0	1102277	WORD_OFF	n/a	n/a	MAP	12	6	[0, 0, 0]	n/a	FR1	0	R1200T
1239.457	0.001	1102277	DISTRACT_START	n/a	n/a	n/a	-999	6	[0, 0, 0]	n/a	FR1	0	R1200T
1239.458	0.016	1102278	START	n/a	n/a	n/a	-999	6	[-999, -999, -999]	n/a	FR1	0	R1200T
1239.474	22.161	1102294	PROB	22.161	n/a	n/a	-999	6	[4, 8, 5]	17	FR1	0	R1200T
1261.635	0.011	1124454	STOP	n/a	n/a	n/a	-999	6	[-999, -999, -999]	n/a	FR1	0	R1200T
1261.646	0.517	1124465	DISTRACT_END	n/a	n/a	n/a	-999	6	[0, 0, 0]	n/a	FR1	0	R1200T
1262.163	0.517	1124981	RETRIEVAL_ORIENT	n/a	n/a	n/a	-999	6	[0, 0, 0]	n/a	FR1	0	R1200T
1262.68	30.0	1125498	REC_START	n/a	n/a	n/a	-999	6	[0, 0, 0]	n/a	FR1	0	R1200T
1292.68	0.011	1155497	REC_WORD_VV	0.011	n/a	<>	-999	6	[0, 0, 0]	n/a	FR1	0	R1200T
1292.691	4.511	1155508	REC_END	n/a	n/a	n/a	-999	6	[0, 0, 0]	n/a	FR1	0	R1200T
1297.202	0.5	1160018	TRIAL	n/a	n/a	n/a	-999	7	[0, 0, 0]	n/a	FR1	0	R1200T
1297.702	10.428	1160518	COUNTDOWN_START	n/a	n/a	n/a	-999	7	[0, 0, 0]	n/a	FR1	0	R1200T
1308.13	0.008	1170946	COUNTDOWN_END	n/a	n/a	n/a	-999	7	[0, 0, 0]	n/a	FR1	0	R1200T
1308.138	1.617	1170954	ORIENT	n/a	n/a	n/a	-999	7	[0, 0, 0]	n/a	FR1	0	R1200T
1309.755	2.1	1172571	ORIENT_OFF	n/a	n/a	n/a	-999	7	[0, 0, 0]	n/a	FR1	0	R1200T
1311.855	1.616	1174671	WORD	n/a	wordpools/wordpool_EN.txt	PANTS	1	7	[0, 0, 0]	n/a	FR1	0	R1200T
1313.471	0.885	1176286	WORD_OFF	n/a	n/a	PANTS	1	7	[0, 0, 0]	n/a	FR1	0	R1200T
1314.356	1.616	1177171	WORD	n/a	wordpools/wordpool_EN.txt	SUIT	2	7	[0, 0, 0]	n/a	FR1	0	R1200T
1315.972	0.917	1178787	WORD_OFF	n/a	n/a	SUIT	2	7	[0, 0, 0]	n/a	FR1	0	R1200T
1316.889	1.616	1179704	WORD	n/a	wordpools/wordpool_EN.txt	BENCH	3	7	[0, 0, 0]	n/a	FR1	0	R1200T
1318.505	0.917	1181320	WORD_OFF	n/a	n/a	BENCH	3	7	[0, 0, 0]	n/a	FR1	0	R1200T
1319.422	1.618	1182237	WORD	n/a	wordpools/wordpool_EN.txt	DOOR	4	7	[0, 0, 0]	n/a	FR1	0	R1200T
1321.04	0.8	1183855	WORD_OFF	n/a	n/a	DOOR	4	7	[0, 0, 0]	n/a	FR1	0	R1200T
1321.84	1.616	1184655	WORD	n/a	wordpools/wordpool_EN.txt	DRESS	5	7	[0, 0, 0]	n/a	FR1	0	R1200T
1323.456	0.785	1186271	WORD_OFF	n/a	n/a	DRESS	5	7	[0, 0, 0]	n/a	FR1	0	R1200T
1324.241	1.617	1187056	WORD	n/a	wordpools/wordpool_EN.txt	SHOE	6	7	[0, 0, 0]	n/a	FR1	0	R1200T
1325.858	0.799	1188673	WORD_OFF	n/a	n/a	SHOE	6	7	[0, 0, 0]	n/a	FR1	0	R1200T
1326.657	1.618	1189472	WORD	n/a	wordpools/wordpool_EN.txt	MAT	7	7	[0, 0, 0]	n/a	FR1	0	R1200T
1328.275	0.816	1191090	WORD_OFF	n/a	n/a	MAT	7	7	[0, 0, 0]	n/a	FR1	0	R1200T
1329.091	1.618	1191906	WORD	n/a	wordpools/wordpool_EN.txt	TRAY	8	7	[0, 0, 0]	n/a	FR1	0	R1200T
1330.709	0.9	1193523	WORD_OFF	n/a	n/a	TRAY	8	7	[0, 0, 0]	n/a	FR1	0	R1200T
1331.609	1.617	1194423	WORD	n/a	wordpools/wordpool_EN.txt	PALM	9	7	[0, 0, 0]	n/a	FR1	0	R1200T
1333.226	0.8	1196040	WORD_OFF	n/a	n/a	PALM	9	7	[0, 0, 0]	n/a	FR1	0	R1200T
1334.026	1.617	1196840	WORD	n/a	wordpools/wordpool_EN.txt	FACE	10	7	[0, 0, 0]	n/a	FR1	0	R1200T
1335.643	0.983	1198457	WORD_OFF	n/a	n/a	FACE	10	7	[0, 0, 0]	n/a	FR1	0	R1200T
1336.626	1.617	1199440	WORD	n/a	wordpools/wordpool_EN.txt	CHEEK	11	7	[0, 0, 0]	n/a	FR1	0	R1200T
1338.243	0.817	1201057	WORD_OFF	n/a	n/a	CHEEK	11	7	[0, 0, 0]	n/a	FR1	0	R1200T
1339.06	1.617	1201874	WORD	n/a	wordpools/wordpool_EN.txt	PEA	12	7	[0, 0, 0]	n/a	FR1	0	R1200T
1340.677	0.0	1203491	WORD_OFF	n/a	n/a	PEA	12	7	[0, 0, 0]	n/a	FR1	0	R1200T
1340.677	0.001	1203491	DISTRACT_START	n/a	n/a	n/a	-999	7	[0, 0, 0]	n/a	FR1	0	R1200T
1340.678	0.016	1203492	START	n/a	n/a	n/a	-999	7	[-999, -999, -999]	n/a	FR1	0	R1200T
1340.694	6.567	1203508	PROB	6.567	n/a	n/a	-999	7	[4, 2, 7]	13	FR1	0	R1200T
1347.261	3.068	1210074	PROB	3.068	n/a	n/a	-999	7	[5, 4, 1]	10	FR1	0	R1200T
1350.329	6.668	1213142	PROB	6.668	n/a	n/a	-999	7	[9, 6, 6]	21	FR1	0	R1200T
1356.997	2.967	1219810	PROB	2.967	n/a	n/a	-999	7	[8, 2, 9]	19	FR1	0	R1200T
1359.964	5.934	1222777	PROB	5.934	n/a	n/a	-999	7	[7, 4, 3]	14	FR1	0	R1200T
1365.898	0.017	1228710	STOP	n/a	n/a	n/a	-999	7	[-999, -999, -999]	n/a	FR1	0	R1200T
1365.915	0.566	1228727	DISTRACT_END	n/a	n/a	n/a	-999	7	[0, 0, 0]	n/a	FR1	0	R1200T
1366.481	0.518	1229293	RETRIEVAL_ORIENT	n/a	n/a	n/a	-999	7	[0, 0, 0]	n/a	FR1	0	R1200T
1366.999	1.277	1229811	REC_START	n/a	n/a	n/a	-999	7	[0, 0, 0]	n/a	FR1	0	R1200T
1368.276	1.738	1231088	REC_WORD	1.738	n/a	PANTS	1	7	[0, 0, 0]	n/a	FR1	0	R1200T
1370.014	2.677	1232826	REC_WORD	2.677	n/a	SUIT	2	7	[0, 0, 0]	n/a	FR1	0	R1200T
1372.691	0.786	1235503	REC_WORD	0.786	n/a	MAT	7	7	[0, 0, 0]	n/a	FR1	0	R1200T
1373.477	23.533	1236289	REC_WORD	23.533	n/a	SHOE	6	7	[0, 0, 0]	n/a	FR1	0	R1200T
1397.01	6.778	1259821	REC_END	n/a	n/a	n/a	-999	7	[0, 0, 0]	n/a	FR1	0	R1200T
1403.788	0.5	1266598	TRIAL	n/a	n/a	n/a	-999	8	[0, 0, 0]	n/a	FR1	0	R1200T
1404.288	10.428	1267098	COUNTDOWN_START	n/a	n/a	n/a	-999	8	[0, 0, 0]	n/a	FR1	0	R1200T
1414.716	0.008	1277526	COUNTDOWN_END	n/a	n/a	n/a	-999	8	[0, 0, 0]	n/a	FR1	0	R1200T
1414.724	1.617	1277534	ORIENT	n/a	n/a	n/a	-999	8	[0, 0, 0]	n/a	FR1	0	R1200T
1416.341	2.049	1279150	ORIENT_OFF	n/a	n/a	n/a	-999	8	[0, 0, 0]	n/a	FR1	0	R1200T
1418.39	1.601	1281199	WORD	n/a	wordpools/wordpool_EN.txt	DESK	1	8	[0, 0, 0]	n/a	FR1	0	R1200T
1419.991	0.9	1282800	WORD_OFF	n/a	n/a	DESK	1	8	[0, 0, 0]	n/a	FR1	0	R1200T
1420.891	1.618	1283700	WORD	n/a	wordpools/wordpool_EN.txt	STICK	2	8	[0, 0, 0]	n/a	FR1	0	R1200T
1422.509	0.833	1285318	WORD_OFF	n/a	n/a	STICK	2	8	[0, 0, 0]	n/a	FR1	0	R1200T
1423.342	1.617	1286151	WORD	n/a	wordpools/wordpool_EN.txt	LAMB	3	8	[0, 0, 0]	n/a	FR1	0	R1200T
1424.959	0.8	1287768	WORD_OFF	n/a	n/a	LAMB	3	8	[0, 0, 0]	n/a	FR1	0	R1200T
1425.759	1.616	1288568	WORD	n/a	wordpools/wordpool_EN.txt	BOWL	4	8	[0, 0, 0]	n/a	FR1	0	R1200T
1427.375	0.985	1290184	WORD_OFF	n/a	n/a	BOWL	4	8	[0, 0, 0]	n/a	FR1	0	R1200T
1428.36	1.616	1291169	WORD	n/a	wordpools/wordpool_EN.txt	BRUSH	5	8	[0, 0, 0]	n/a	FR1	0	R1200T
1429.976	0.884	1292785	WORD_OFF	n/a	n/a	BRUSH	5	8	[0, 0, 0]	n/a	FR1	0	R1200T
1430.86	1.616	1293669	WORD	n/a	wordpools/wordpool_EN.txt	OAR	6	8	[0, 0, 0]	n/a	FR1	0	R1200T
1432.476	0.917	1295284	WORD_OFF	n/a	n/a	OAR	6	8	[0, 0, 0]	n/a	FR1	0	R1200T
1433.393	1.618	1296201	WORD	n/a	wordpools/wordpool_EN.txt	STOVE	7	8	[0, 0, 0]	n/a	FR1	0	R1200T
1435.011	0.8	1297819	WORD_OFF	n/a	n/a	STOVE	7	8	[0, 0, 0]	n/a	FR1	0	R1200T
1435.811	1.616	1298619	WORD	n/a	wordpools/wordpool_EN.txt	SMILE	8	8	[0, 0, 0]	n/a	FR1	0	R1200T
1437.427	0.767	1300235	WORD_OFF	n/a	n/a	SMILE	8	8	[0, 0, 0]	n/a	FR1	0	R1200T
1438.194	1.618	1301002	WORD	n/a	wordpools/wordpool_EN.txt	TOE	9	8	[0, 0, 0]	n/a	FR1	0	R1200T
1439.812	0.8	1302620	WORD_OFF	n/a	n/a	TOE	9	8	[0, 0, 0]	n/a	FR1	0	R1200T
1440.612	1.617	1303420	WORD	n/a	wordpools/wordpool_EN.txt	FOAM	10	8	[0, 0, 0]	n/a	FR1	0	R1200T
1442.229	0.933	1305037	WORD_OFF	n/a	n/a	FOAM	10	8	[0, 0, 0]	n/a	FR1	0	R1200T
1443.162	1.617	1305970	WORD	n/a	wordpools/wordpool_EN.txt	PHONE	11	8	[0, 0, 0]	n/a	FR1	0	R1200T
1444.779	0.867	1307587	WORD_OFF	n/a	n/a	PHONE	11	8	[0, 0, 0]	n/a	FR1	0	R1200T
1445.646	1.617	1308454	WORD	n/a	wordpools/wordpool_EN.txt	INK	12	8	[0, 0, 0]	n/a	FR1	0	R1200T
1447.263	0.0	1310071	WORD_OFF	n/a	n/a	INK	12	8	[0, 0, 0]	n/a	FR1	0	R1200T
1447.263	0.0	1310071	DISTRACT_START	n/a	n/a	n/a	-999	8	[0, 0, 0]	n/a	FR1	0	R1200T
1447.263	0.017	1310071	START	n/a	n/a	n/a	-999	8	[-999, -999, -999]	n/a	FR1	0	R1200T
1447.28	6.334	1310088	PROB	6.334	n/a	n/a	-999	8	[5, 4, 7]	16	FR1	0	R1200T
1453.614	3.866	1316421	PROB	3.866	n/a	n/a	-999	8	[9, 9, 2]	20	FR1	0	R1200T
1457.48	11.193	1320287	PROB	11.193	n/a	n/a	-999	8	[7, 8, 7]	23	FR1	0	R1200T
1468.673	0.011	1331479	STOP	n/a	n/a	n/a	-999	8	[-999, -999, -999]	n/a	FR1	0	R1200T
1468.684	0.633	1331490	DISTRACT_END	n/a	n/a	n/a	-999	8	[0, 0, 0]	n/a	FR1	0	R1200T
1469.317	0.518	1332123	RETRIEVAL_ORIENT	n/a	n/a	n/a	-999	8	[0, 0, 0]	n/a	FR1	0	R1200T
1469.835	3.43	1332641	REC_START	n/a	n/a	n/a	-999	8	[0, 0, 0]	n/a	FR1	0	R1200T
1473.265	9.313	1336071	REC_WORD	9.313	n/a	OAR	6	8	[0, 0, 0]	n/a	FR1	0	R1200T
1482.578	6.827	1345384	REC_WORD	6.827	n/a	TOE	9	8	[0, 0, 0]	n/a	FR1	0	R1200T
1489.405	1.974	1352210	REC_WORD_VV	1.974	n/a	<>	-999	8	[0, 0, 0]	n/a	FR1	0	R1200T
1491.379	1.0	1354184	REC_WORD_VV	1.0	n/a	<>	-999	8	[0, 0, 0]	n/a	FR1	0	R1200T
1492.379	1.0	1355184	REC_WORD_VV	1.0	n/a	<>	-999	8	[0, 0, 0]	n/a	FR1	0	R1200T
1493.379	6.467	1356184	REC_WORD_VV	6.467	n/a	<>	-999	8	[0, 0, 0]	n/a	FR1	0	R1200T
1499.846	8.912	1362651	REC_END	n/a	n/a	n/a	-999	8	[0, 0, 0]	n/a	FR1	0	R1200T
1508.758	0.5	1371562	TRIAL	n/a	n/a	n/a	-999	9	[0, 0, 0]	n/a	FR1	0	R1200T
1509.258	10.428	1372062	COUNTDOWN_START	n/a	n/a	n/a	-999	9	[0, 0, 0]	n/a	FR1	0	R1200T
1519.686	0.007	1382489	COUNTDOWN_END	n/a	n/a	n/a	-999	9	[0, 0, 0]	n/a	FR1	0	R1200T
1519.693	1.617	1382496	ORIENT	n/a	n/a	n/a	-999	9	[0, 0, 0]	n/a	FR1	0	R1200T
1521.31	2.217	1384113	ORIENT_OFF	n/a	n/a	n/a	-999	9	[0, 0, 0]	n/a	FR1	0	R1200T
1523.527	1.617	1386330	WORD	n/a	wordpools/wordpool_EN.txt	KITE	1	9	[0, 0, 0]	n/a	FR1	0	R1200T
1525.144	0.967	1387947	WORD_OFF	n/a	n/a	KITE	1	9	[0, 0, 0]	n/a	FR1	0	R1200T
1526.111	1.617	1388914	WORD	n/a	wordpools/wordpool_EN.txt	SOCK	2	9	[0, 0, 0]	n/a	FR1	0	R1200T
1527.728	0.765	1390531	WORD_OFF	n/a	n/a	SOCK	2	9	[0, 0, 0]	n/a	FR1	0	R1200T
1528.493	1.601	1391296	WORD	n/a	wordpools/wordpool_EN.txt	SNAKE	3	9	[0, 0, 0]	n/a	FR1	0	R1200T
1530.094	0.768	1392897	WORD_OFF	n/a	n/a	SNAKE	3	9	[0, 0, 0]	n/a	FR1	0	R1200T
1530.862	1.616	1393665	WORD	n/a	wordpools/wordpool_EN.txt	COW	4	9	[0, 0, 0]	n/a	FR1	0	R1200T
1532.478	0.983	1395281	WORD_OFF	n/a	n/a	COW	4	9	[0, 0, 0]	n/a	FR1	0	R1200T
1533.461	1.618	1396264	WORD	n/a	wordpools/wordpool_EN.txt	BIRD	5	9	[0, 0, 0]	n/a	FR1	0	R1200T
1535.079	0.867	1397881	WORD_OFF	n/a	n/a	BIRD	5	9	[0, 0, 0]	n/a	FR1	0	R1200T
1535.946	1.617	1398748	WORD	n/a	wordpools/wordpool_EN.txt	PEN	6	9	[0, 0, 0]	n/a	FR1	0	R1200T
1537.563	0.899	1400365	WORD_OFF	n/a	n/a	PEN	6	9	[0, 0, 0]	n/a	FR1	0	R1200T
1538.462	1.618	1401264	WORD	n/a	wordpools/wordpool_EN.txt	FLEA	7	9	[0, 0, 0]	n/a	FR1	0	R1200T
1540.08	0.867	1402882	WORD_OFF	n/a	n/a	FLEA	7	9	[0, 0, 0]	n/a	FR1	0	R1200T
1540.947	1.617	1403749	WORD	n/a	wordpools/wordpool_EN.txt	FOX	8	9	[0, 0, 0]	n/a	FR1	0	R1200T
1542.564	0.916	1405366	WORD_OFF	n/a	n/a	FOX	8	9	[0, 0, 0]	n/a	FR1	0	R1200T
1543.48	1.618	1406282	WORD	n/a	wordpools/wordpool_EN.txt	PIG	9	9	[0, 0, 0]	n/a	FR1	0	R1200T
1545.098	0.85	1407900	WORD_OFF	n/a	n/a	PIG	9	9	[0, 0, 0]	n/a	FR1	0	R1200T
1545.948	1.617	1408750	WORD	n/a	wordpools/wordpool_EN.txt	DEER	10	9	[0, 0, 0]	n/a	FR1	0	R1200T
1547.565	0.967	1410367	WORD_OFF	n/a	n/a	DEER	10	9	[0, 0, 0]	n/a	FR1	0	R1200T
1548.532	1.616	1411334	WORD	n/a	wordpools/wordpool_EN.txt	BEAR	11	9	[0, 0, 0]	n/a	FR1	0	R1200T
1550.148	0.851	1412950	WORD_OFF	n/a	n/a	BEAR	11	9	[0, 0, 0]	n/a	FR1	0	R1200T
1550.999	1.616	1413801	WORD	n/a	wordpools/wordpool_EN.txt	HAT	12	9	[0, 0, 0]	n/a	FR1	0	R1200T
1552.615	0.0	1415416	WORD_OFF	n/a	n/a	HAT	12	9	[0, 0, 0]	n/a	FR1	0	R1200T
1552.615	0.001	1415416	DISTRACT_START	n/a	n/a	n/a	-999	9	[0, 0, 0]	n/a	FR1	0	R1200T
1552.616	0.016	1415417	START	n/a	n/a	n/a	-999	9	[-999, -999, -999]	n/a	FR1	0	R1200T
1552.632	7.784	1415433	PROB	7.784	n/a	n/a	-999	9	[1, 5, 2]	8	FR1	0	R1200T
1560.416	3.352	1423217	PROB	3.352	n/a	n/a	-999	9	[5, 4, 6]	15	FR1	0	R1200T
1563.768	3.083	1426569	PROB	3.083	n/a	n/a	-999	9	[2, 1, 9]	12	FR1	0	R1200T
1566.851	9.47	1429652	PROB	9.47	n/a	n/a	-999	9	[3, 6, 7]	15	FR1	0	R1200T
1576.321	0.016	1439121	STOP	n/a	n/a	n/a	-999	9	[-999, -999, -999]	n/a	FR1	0	R1200T
1576.337	0.583	1439137	DISTRACT_END	n/a	n/a	n/a	-999	9	[0, 0, 0]	n/a	FR1	0	R1200T
1576.92	0.516	1439720	RETRIEVAL_ORIENT	n/a	n/a	n/a	-999	9	[0, 0, 0]	n/a	FR1	0	R1200T
1577.436	2.949	1440236	REC_START	n/a	n/a	n/a	-999	9	[0, 0, 0]	n/a	FR1	0	R1200T
1580.385	0.539	1443185	REC_WORD	0.539	n/a	BEAR	11	9	[0, 0, 0]	n/a	FR1	0	R1200T
1580.924	0.517	1443724	REC_WORD	0.517	n/a	DEER	10	9	[0, 0, 0]	n/a	FR1	0	R1200T
1581.441	0.754	1444241	REC_WORD	0.754	n/a	HAT	12	9	[0, 0, 0]	n/a	FR1	0	R1200T
1582.195	1.721	1444995	REC_WORD	1.721	n/a	SOCK	2	9	[0, 0, 0]	n/a	FR1	0	R1200T
1583.916	0.622	1446716	REC_WORD	0.622	n/a	PEN	6	9	[0, 0, 0]	n/a	FR1	0	R1200T
1584.538	5.978	1447338	REC_WORD	5.978	n/a	FLEA	7	9	[0, 0, 0]	n/a	FR1	0	R1200T
1590.516	3.105	1453315	REC_WORD	3.105	n/a	FOX	8	9	[0, 0, 0]	n/a	FR1	0	R1200T
1593.621	10.901	1456420	REC_WORD	10.901	n/a	KITE	1	9	[0, 0, 0]	n/a	FR1	0	R1200T
1604.522	2.928	1467320	REC_WORD	2.928	n/a	COW	4	9	[0, 0, 0]	n/a	FR1	0	R1200T
1607.45	4.41	1470248	REC_END	n/a	n/a	n/a	-999	9	[0, 0, 0]	n/a	FR1	0	R1200T
1611.86	0.5	1474658	TRIAL	n/a	n/a	n/a	-999	10	[0, 0, 0]	n/a	FR1	0	R1200T
1612.36	10.428	1475158	COUNTDOWN_START	n/a	n/a	n/a	-999	10	[0, 0, 0]	n/a	FR1	0	R1200T
1622.788	0.007	1485585	COUNTDOWN_END	n/a	n/a	n/a	-999	10	[0, 0, 0]	n/a	FR1	0	R1200T
1622.795	1.616	1485592	ORIENT	n/a	n/a	n/a	-999	10	[0, 0, 0]	n/a	FR1	0	R1200T
1624.411	1.967	1487208	ORIENT_OFF	n/a	n/a	n/a	-999	10	[0, 0, 0]	n/a	FR1	0	R1200T
1626.378	1.601	1489175	WORD	n/a	wordpools/wordpool_EN.txt	RIB	1	10	[0, 0, 0]	n/a	FR1	0	R1200T
1627.979	0.9	1490776	WORD_OFF	n/a	n/a	RIB	1	10	[0, 0, 0]	n/a	FR1	0	R1200T
1628.879	1.616	1491676	WORD	n/a	wordpools/wordpool_EN.txt	CAVE	2	10	[0, 0, 0]	n/a	FR1	0	R1200T
1630.495	0.984	1493292	WORD_OFF	n/a	n/a	CAVE	2	10	[0, 0, 0]	n/a	FR1	0	R1200T
1631.479	1.618	1494276	WORD	n/a	wordpools/wordpool_EN.txt	CANE	3	10	[0, 0, 0]	n/a	FR1	0	R1200T
1633.097	0.95	1495894	WORD_OFF	n/a	n/a	CANE	3	10	[0, 0, 0]	n/a	FR1	0	R1200T
1634.047	1.617	1496844	WORD	n/a	wordpools/wordpool_EN.txt	BEE	4	10	[0, 0, 0]	n/a	FR1	0	R1200T
1635.664	0.9	1498461	WORD_OFF	n/a	n/a	BEE	4	10	[0, 0, 0]	n/a	FR1	0	R1200T
1636.564	1.617	1499360	WORD	n/a	wordpools/wordpool_EN.txt	ROOF	5	10	[0, 0, 0]	n/a	FR1	0	R1200T
1638.181	0.884	1500977	WORD_OFF	n/a	n/a	ROOF	5	10	[0, 0, 0]	n/a	FR1	0	R1200T
1639.065	1.617	1501861	WORD	n/a	wordpools/wordpool_EN.txt	HOLE	6	10	[0, 0, 0]	n/a	FR1	0	R1200T
1640.682	0.833	1503478	WORD_OFF	n/a	n/a	HOLE	6	10	[0, 0, 0]	n/a	FR1	0	R1200T
1641.515	1.617	1504311	WORD	n/a	wordpools/wordpool_EN.txt	GATE	7	10	[0, 0, 0]	n/a	FR1	0	R1200T
1643.132	0.867	1505928	WORD_OFF	n/a	n/a	GATE	7	10	[0, 0, 0]	n/a	FR1	0	R1200T
1643.999	1.617	1506795	WORD	n/a	wordpools/wordpool_EN.txt	SHIELD	8	10	[0, 0, 0]	n/a	FR1	0	R1200T
1645.616	0.967	1508412	WORD_OFF	n/a	n/a	SHIELD	8	10	[0, 0, 0]	n/a	FR1	0	R1200T
1646.583	1.617	1509379	WORD	n/a	wordpools/wordpool_EN.txt	FLOOR	9	10	[0, 0, 0]	n/a	FR1	0	R1200T
1648.2	0.866	1510996	WORD_OFF	n/a	n/a	FLOOR	9	10	[0, 0, 0]	n/a	FR1	0	R1200T
1649.066	1.617	1511862	WORD	n/a	wordpools/wordpool_EN.txt	MOLE	10	10	[0, 0, 0]	n/a	FR1	0	R1200T
1650.683	0.851	1513479	WORD_OFF	n/a	n/a	MOLE	10	10	[0, 0, 0]	n/a	FR1	0	R1200T
1651.534	1.616	1514330	WORD	n/a	wordpools/wordpool_EN.txt	STORM	11	10	[0, 0, 0]	n/a	FR1	0	R1200T
1653.15	0.901	1515946	WORD_OFF	n/a	n/a	STORM	11	10	[0, 0, 0]	n/a	FR1	0	R1200T
1654.051	1.617	1516846	WORD	n/a	wordpools/wordpool_EN.txt	AXE	12	10	[0, 0, 0]	n/a	FR1	0	R1200T
1655.668	0.0	1518463	DISTRACT_START	n/a	n/a	n/a	-999	10	[0, 0, 0]	n/a	FR1	0	R1200T
1655.668	0.0	1518463	WORD_OFF	n/a	n/a	AXE	12	10	[0, 0, 0]	n/a	FR1	0	R1200T
1655.668	0.016	1518463	START	n/a	n/a	n/a	-999	10	[-999, -999, -999]	n/a	FR1	0	R1200T
1655.684	5.285	1518479	PROB	5.285	n/a	n/a	-999	10	[3, 9, 6]	18	FR1	0	R1200T
1660.969	3.717	1523764	PROB	3.717	n/a	n/a	-999	10	[1, 8, 9]	18	FR1	0	R1200T
1664.686	2.934	1527481	PROB	2.934	n/a	n/a	-999	10	[6, 3, 3]	12	FR1	0	R1200T
1667.62	2.567	1530415	PROB	2.567	n/a	n/a	-999	10	[1, 7, 1]	9	FR1	0	R1200T
1670.187	9.317	1532982	PROB	9.317	n/a	n/a	-999	10	[7, 9, 7]	23	FR1	0	R1200T
1679.504	0.018	1542298	STOP	n/a	n/a	n/a	-999	10	[-999, -999, -999]	n/a	FR1	0	R1200T
1679.522	0.617	1542316	DISTRACT_END	n/a	n/a	n/a	-999	10	[0, 0, 0]	n/a	FR1	0	R1200T
1680.139	0.517	1542933	RETRIEVAL_ORIENT	n/a	n/a	n/a	-999	10	[0, 0, 0]	n/a	FR1	0	R1200T
1680.656	1.388	1543450	REC_START	n/a	n/a	n/a	-999	10	[0, 0, 0]	n/a	FR1	0	R1200T
1682.044	0.67	1544838	REC_WORD	0.67	n/a	RIB	1	10	[0, 0, 0]	n/a	FR1	0	R1200T
1682.714	0.856	1545508	REC_WORD	0.856	n/a	CANE	3	10	[0, 0, 0]	n/a	FR1	0	R1200T
1683.57	5.218	1546364	REC_WORD	5.218	n/a	STORM	11	10	[0, 0, 0]	n/a	FR1	0	R1200T
1688.788	18.473	1551581	REC_WORD	18.473	n/a	AXE	12	10	[0, 0, 0]	n/a	FR1	0	R1200T
1707.261	3.408	1570053	REC_WORD	3.408	n/a	ROOF	5	10	[0, 0, 0]	n/a	FR1	0	R1200T
1710.669	4.708	1573461	REC_END	n/a	n/a	n/a	-999	10	[0, 0, 0]	n/a	FR1	0	R1200T
1715.377	0.5	1578169	TRIAL	n/a	n/a	n/a	-999	11	[0, 0, 0]	n/a	FR1	0	R1200T
1715.877	10.428	1578669	COUNTDOWN_START	n/a	n/a	n/a	-999	11	[0, 0, 0]	n/a	FR1	0	R1200T
1726.305	0.009	1589096	COUNTDOWN_END	n/a	n/a	n/a	-999	11	[0, 0, 0]	n/a	FR1	0	R1200T
1726.314	1.617	1589105	ORIENT	n/a	n/a	n/a	-999	11	[0, 0, 0]	n/a	FR1	0	R1200T
1727.931	1.85	1590722	ORIENT_OFF	n/a	n/a	n/a	-999	11	[0, 0, 0]	n/a	FR1	0	R1200T
1729.781	1.616	1592572	WORD	n/a	wordpools/wordpool_EN.txt	MOOSE	1	11	[0, 0, 0]	n/a	FR1	0	R1200T
1731.397	0.835	1594188	WORD_OFF	n/a	n/a	MOOSE	1	11	[0, 0, 0]	n/a	FR1	0	R1200T
1732.232	1.617	1595023	WORD	n/a	wordpools/wordpool_EN.txt	STEAK	2	11	[0, 0, 0]	n/a	FR1	0	R1200T
1733.849	0.883	1596640	WORD_OFF	n/a	n/a	STEAK	2	11	[0, 0, 0]	n/a	FR1	0	R1200T
1734.732	1.617	1597523	WORD	n/a	wordpools/wordpool_EN.txt	OAK	3	11	[0, 0, 0]	n/a	FR1	0	R1200T
1736.349	0.917	1599140	WORD_OFF	n/a	n/a	OAK	3	11	[0, 0, 0]	n/a	FR1	0	R1200T
1737.266	1.617	1600057	WORD	n/a	wordpools/wordpool_EN.txt	FENCE	4	11	[0, 0, 0]	n/a	FR1	0	R1200T
1738.883	0.967	1601673	WORD_OFF	n/a	n/a	FENCE	4	11	[0, 0, 0]	n/a	FR1	0	R1200T
1739.85	1.616	1602640	WORD	n/a	wordpools/wordpool_EN.txt	HORN	5	11	[0, 0, 0]	n/a	FR1	0	R1200T
1741.466	0.9	1604256	WORD_OFF	n/a	n/a	HORN	5	11	[0, 0, 0]	n/a	FR1	0	R1200T
1742.366	1.618	1605156	WORD	n/a	wordpools/wordpool_EN.txt	GRASS	6	11	[0, 0, 0]	n/a	FR1	0	R1200T
1743.984	0.967	1606774	WORD_OFF	n/a	n/a	GRASS	6	11	[0, 0, 0]	n/a	FR1	0	R1200T
1744.951	1.616	1607741	WORD	n/a	wordpools/wordpool_EN.txt	PEACH	7	11	[0, 0, 0]	n/a	FR1	0	R1200T
1746.567	0.866	1609357	WORD_OFF	n/a	n/a	PEACH	7	11	[0, 0, 0]	n/a	FR1	0	R1200T
1747.433	1.618	1610223	WORD	n/a	wordpools/wordpool_EN.txt	PIE	8	11	[0, 0, 0]	n/a	FR1	0	R1200T
1749.051	0.85	1611841	WORD_OFF	n/a	n/a	PIE	8	11	[0, 0, 0]	n/a	FR1	0	R1200T
1749.901	1.617	1612691	WORD	n/a	wordpools/wordpool_EN.txt	WOOD	9	11	[0, 0, 0]	n/a	FR1	0	R1200T
1751.518	0.784	1614308	WORD_OFF	n/a	n/a	WOOD	9	11	[0, 0, 0]	n/a	FR1	0	R1200T
1752.302	1.617	1615092	WORD	n/a	wordpools/wordpool_EN.txt	CLOTH	10	11	[0, 0, 0]	n/a	FR1	0	R1200T
1753.919	0.767	1616709	WORD_OFF	n/a	n/a	CLOTH	10	11	[0, 0, 0]	n/a	FR1	0	R1200T
1754.686	1.617	1617476	WORD	n/a	wordpools/wordpool_EN.txt	SIGN	11	11	[0, 0, 0]	n/a	FR1	0	R1200T
1756.303	0.816	1619092	WORD_OFF	n/a	n/a	SIGN	11	11	[0, 0, 0]	n/a	FR1	0	R1200T
1757.119	1.617	1619908	WORD	n/a	wordpools/wordpool_EN.txt	BATH	12	11	[0, 0, 0]	n/a	FR1	0	R1200T
1758.736	0.0	1621525	WORD_OFF	n/a	n/a	BATH	12	11	[0, 0, 0]	n/a	FR1	0	R1200T
1758.736	0.001	1621525	DISTRACT_START	n/a	n/a	n/a	-999	11	[0, 0, 0]	n/a	FR1	0	R1200T
1758.737	0.016	1621526	START	n/a	n/a	n/a	-999	11	[-999, -999, -999]	n/a	FR1	0	R1200T
1758.753	3.817	1621542	PROB	3.817	n/a	n/a	-999	11	[2, 8, 1]	11	FR1	0	R1200T
1762.57	2.833	1625359	PROB	2.833	n/a	n/a	-999	11	[4, 1, 4]	9	FR1	0	R1200T
1765.403	7.653	1628192	PROB	7.653	n/a	n/a	-999	11	[8, 5, 8]	21	FR1	0	R1200T
1773.056	11.13	1635844	PROB	11.13	n/a	n/a	-999	11	[5, 3, 4]	12	FR1	0	R1200T
1784.186	0.022	1646974	STOP	n/a	n/a	n/a	-999	11	[-999, -999, -999]	n/a	FR1	0	R1200T
1784.208	0.516	1646996	DISTRACT_END	n/a	n/a	n/a	-999	11	[0, 0, 0]	n/a	FR1	0	R1200T
1784.724	0.518	1647512	RETRIEVAL_ORIENT	n/a	n/a	n/a	-999	11	[0, 0, 0]	n/a	FR1	0	R1200T
1785.242	12.021	1648030	REC_START	n/a	n/a	n/a	-999	11	[0, 0, 0]	n/a	FR1	0	R1200T
1797.263	1.0	1660050	REC_WORD_VV	1.0	n/a	<>	-999	11	[0, 0, 0]	n/a	FR1	0	R1200T
1798.263	1.413	1661050	REC_WORD_VV	1.413	n/a	<>	-999	11	[0, 0, 0]	n/a	FR1	0	R1200T
1799.676	2.138	1662463	REC_WORD	2.138	n/a	FITCH	-999	11	[0, 0, 0]	n/a	FR1	0	R1200T
1801.814	0.41	1664601	REC_WORD	0.41	n/a	OAK	3	11	[0, 0, 0]	n/a	FR1	0	R1200T
1802.224	10.147	1665011	REC_WORD	10.147	n/a	WOOD	9	11	[0, 0, 0]	n/a	FR1	0	R1200T
1812.371	2.882	1675157	REC_WORD_VV	2.882	n/a	<>	-999	11	[0, 0, 0]	n/a	FR1	0	R1200T
1815.253	3.878	1678039	REC_END	n/a	n/a	n/a	-999	11	[0, 0, 0]	n/a	FR1	0	R1200T
1819.131	0.5	1681917	TRIAL	n/a	n/a	n/a	-999	12	[0, 0, 0]	n/a	FR1	0	R1200T
1819.631	10.428	1682417	COUNTDOWN_START	n/a	n/a	n/a	-999	12	[0, 0, 0]	n/a	FR1	0	R1200T
1830.059	0.007	1692844	COUNTDOWN_END	n/a	n/a	n/a	-999	12	[0, 0, 0]	n/a	FR1	0	R1200T
1830.066	1.617	1692851	ORIENT	n/a	n/a	n/a	-999	12	[0, 0, 0]	n/a	FR1	0	R1200T
1831.683	2.267	1694468	ORIENT_OFF	n/a	n/a	n/a	-999	12	[0, 0, 0]	n/a	FR1	0	R1200T
1833.95	1.617	1696735	WORD	n/a	wordpools/wordpool_EN.txt	ROPE	1	12	[0, 0, 0]	n/a	FR1	0	R1200T
1835.567	0.984	1698352	WORD_OFF	n/a	n/a	ROPE	1	12	[0, 0, 0]	n/a	FR1	0	R1200T
1836.551	1.617	1699336	WORD	n/a	wordpools/wordpool_EN.txt	WOLF	2	12	[0, 0, 0]	n/a	FR1	0	R1200T
1838.168	0.933	1700953	WORD_OFF	n/a	n/a	WOLF	2	12	[0, 0, 0]	n/a	FR1	0	R1200T
1839.101	1.617	1701886	WORD	n/a	wordpools/wordpool_EN.txt	TAIL	3	12	[0, 0, 0]	n/a	FR1	0	R1200T
1840.718	0.95	1703502	WORD_OFF	n/a	n/a	TAIL	3	12	[0, 0, 0]	n/a	FR1	0	R1200T
1841.668	1.617	1704452	WORD	n/a	wordpools/wordpool_EN.txt	ROSE	4	12	[0, 0, 0]	n/a	FR1	0	R1200T
1843.285	1.0	1706069	WORD_OFF	n/a	n/a	ROSE	4	12	[0, 0, 0]	n/a	FR1	0	R1200T
1844.285	1.617	1707069	WORD	n/a	wordpools/wordpool_EN.txt	CALF	5	12	[0, 0, 0]	n/a	FR1	0	R1200T
1845.902	0.933	1708686	WORD_OFF	n/a	n/a	CALF	5	12	[0, 0, 0]	n/a	FR1	0	R1200T
1846.835	1.617	1709619	WORD	n/a	wordpools/wordpool_EN.txt	DITCH	6	12	[0, 0, 0]	n/a	FR1	0	R1200T
1848.452	0.967	1711236	WORD_OFF	n/a	n/a	DITCH	6	12	[0, 0, 0]	n/a	FR1	0	R1200T
1849.419	1.618	1712203	WORD	n/a	wordpools/wordpool_EN.txt	SPRING	7	12	[0, 0, 0]	n/a	FR1	0	R1200T
1851.037	0.833	1713821	WORD_OFF	n/a	n/a	SPRING	7	12	[0, 0, 0]	n/a	FR1	0	R1200T
1851.87	1.616	1714654	WORD	n/a	wordpools/wordpool_EN.txt	BUSH	8	12	[0, 0, 0]	n/a	FR1	0	R1200T
1853.486	0.934	1716270	WORD_OFF	n/a	n/a	BUSH	8	12	[0, 0, 0]	n/a	FR1	0	R1200T
1854.42	1.618	1717204	WORD	n/a	wordpools/wordpool_EN.txt	SWAMP	9	12	[0, 0, 0]	n/a	FR1	0	R1200T
1856.038	0.866	1718822	WORD_OFF	n/a	n/a	SWAMP	9	12	[0, 0, 0]	n/a	FR1	0	R1200T
1856.904	1.617	1719688	WORD	n/a	wordpools/wordpool_EN.txt	SKUNK	10	12	[0, 0, 0]	n/a	FR1	0	R1200T
1858.521	0.883	1721304	WORD_OFF	n/a	n/a	SKUNK	10	12	[0, 0, 0]	n/a	FR1	0	R1200T
1859.404	1.618	1722187	WORD	n/a	wordpools/wordpool_EN.txt	WAND	11	12	[0, 0, 0]	n/a	FR1	0	R1200T
1861.022	0.8	1723805	WORD_OFF	n/a	n/a	WAND	11	12	[0, 0, 0]	n/a	FR1	0	R1200T
1861.822	1.616	1724605	WORD	n/a	wordpools/wordpool_EN.txt	MULE	12	12	[0, 0, 0]	n/a	FR1	0	R1200T
1863.438	0.0	1726221	DISTRACT_START	n/a	n/a	n/a	-999	12	[0, 0, 0]	n/a	FR1	0	R1200T
1863.438	0.0	1726221	WORD_OFF	n/a	n/a	MULE	12	12	[0, 0, 0]	n/a	FR1	0	R1200T
1863.438	0.016	1726221	START	n/a	n/a	n/a	-999	12	[-999, -999, -999]	n/a	FR1	0	R1200T
1863.454	4.119	1726237	PROB	4.119	n/a	n/a	-999	12	[5, 5, 9]	19	FR1	0	R1200T
1867.573	3.401	1730356	PROB	3.401	n/a	n/a	-999	12	[7, 4, 5]	16	FR1	0	R1200T
1870.974	2.383	1733757	PROB	2.383	n/a	n/a	-999	12	[1, 2, 9]	12	FR1	0	R1200T
1873.357	6.034	1736140	PROB	6.034	n/a	n/a	-999	12	[4, 9, 2]	15	FR1	0	R1200T
1879.391	3.268	1742173	PROB	3.268	n/a	n/a	-999	12	[3, 2, 5]	10	FR1	0	R1200T
1882.659	10.646	1745441	PROB	10.646	n/a	n/a	-999	12	[8, 6, 1]	15	FR1	0	R1200T
1893.305	0.006	1756086	STOP	n/a	n/a	n/a	-999	12	[-999, -999, -999]	n/a	FR1	0	R1200T
1893.311	0.667	1756092	DISTRACT_END	n/a	n/a	n/a	-999	12	[0, 0, 0]	n/a	FR1	0	R1200T
1893.978	0.516	1756759	RETRIEVAL_ORIENT	n/a	n/a	n/a	-999	12	[0, 0, 0]	n/a	FR1	0	R1200T
1894.494	10.572	1757275	REC_START	n/a	n/a	n/a	-999	12	[0, 0, 0]	n/a	FR1	0	R1200T
1905.066	1.0	1767847	REC_WORD	1.0	n/a	SWAMP	9	12	[0, 0, 0]	n/a	FR1	0	R1200T
1906.066	18.439	1768847	REC_WORD_VV	18.439	n/a	<>	-999	12	[0, 0, 0]	n/a	FR1	0	R1200T
1924.505	8.363	1787285	REC_END	n/a	n/a	n/a	-999	12	[0, 0, 0]	n/a	FR1	0	R1200T
1932.868	0.5	1795647	TRIAL	n/a	n/a	n/a	-999	13	[0, 0, 0]	n/a	FR1	0	R1200T
1933.368	10.428	1796147	COUNTDOWN_START	n/a	n/a	n/a	-999	13	[0, 0, 0]	n/a	FR1	0	R1200T
1943.796	0.007	1806574	COUNTDOWN_END	n/a	n/a	n/a	-999	13	[0, 0, 0]	n/a	FR1	0	R1200T
1943.803	1.616	1806581	ORIENT	n/a	n/a	n/a	-999	13	[0, 0, 0]	n/a	FR1	0	R1200T
1945.419	2.168	1808197	ORIENT_OFF	n/a	n/a	n/a	-999	13	[0, 0, 0]	n/a	FR1	0	R1200T
1947.587	1.617	1810365	WORD	n/a	wordpools/wordpool_EN.txt	TOOL	1	13	[0, 0, 0]	n/a	FR1	0	R1200T
1949.204	0.867	1811982	WORD_OFF	n/a	n/a	TOOL	1	13	[0, 0, 0]	n/a	FR1	0	R1200T
1950.071	1.617	1812849	WORD	n/a	wordpools/wordpool_EN.txt	BRICK	2	13	[0, 0, 0]	n/a	FR1	0	R1200T
1951.688	0.867	1814466	WORD_OFF	n/a	n/a	BRICK	2	13	[0, 0, 0]	n/a	FR1	0	R1200T
1952.555	1.617	1815333	WORD	n/a	wordpools/wordpool_EN.txt	CLAY	3	13	[0, 0, 0]	n/a	FR1	0	R1200T
1954.172	0.967	1816950	WORD_OFF	n/a	n/a	CLAY	3	13	[0, 0, 0]	n/a	FR1	0	R1200T
1955.139	1.617	1817917	WORD	n/a	wordpools/wordpool_EN.txt	CUBE	4	13	[0, 0, 0]	n/a	FR1	0	R1200T
1956.756	0.9	1819534	WORD_OFF	n/a	n/a	CUBE	4	13	[0, 0, 0]	n/a	FR1	0	R1200T
1957.656	1.617	1820434	WORD	n/a	wordpools/wordpool_EN.txt	HOSE	5	13	[0, 0, 0]	n/a	FR1	0	R1200T
1959.273	0.917	1822051	WORD_OFF	n/a	n/a	HOSE	5	13	[0, 0, 0]	n/a	FR1	0	R1200T
1960.19	1.617	1822967	WORD	n/a	wordpools/wordpool_EN.txt	PIT	6	13	[0, 0, 0]	n/a	FR1	0	R1200T
1961.807	0.783	1824584	WORD_OFF	n/a	n/a	PIT	6	13	[0, 0, 0]	n/a	FR1	0	R1200T
1962.59	1.617	1825367	WORD	n/a	wordpools/wordpool_EN.txt	STONE	7	13	[0, 0, 0]	n/a	FR1	0	R1200T
1964.207	0.967	1826984	WORD_OFF	n/a	n/a	STONE	7	13	[0, 0, 0]	n/a	FR1	0	R1200T
1965.174	1.617	1827951	WORD	n/a	wordpools/wordpool_EN.txt	SQUARE	8	13	[0, 0, 0]	n/a	FR1	0	R1200T
1966.791	0.767	1829568	WORD_OFF	n/a	n/a	SQUARE	8	13	[0, 0, 0]	n/a	FR1	0	R1200T
1967.558	1.617	1830335	WORD	n/a	wordpools/wordpool_EN.txt	DOCK	9	13	[0, 0, 0]	n/a	FR1	0	R1200T
1969.175	0.766	1831952	WORD_OFF	n/a	n/a	DOCK	9	13	[0, 0, 0]	n/a	FR1	0	R1200T
1969.941	1.617	1832718	WORD	n/a	wordpools/wordpool_EN.txt	NAIL	10	13	[0, 0, 0]	n/a	FR1	0	R1200T
1971.558	0.784	1834335	WORD_OFF	n/a	n/a	NAIL	10	13	[0, 0, 0]	n/a	FR1	0	R1200T
1972.342	1.617	1835119	WORD	n/a	wordpools/wordpool_EN.txt	PIPE	11	13	[0, 0, 0]	n/a	FR1	0	R1200T
1973.959	0.817	1836736	WORD_OFF	n/a	n/a	PIPE	11	13	[0, 0, 0]	n/a	FR1	0	R1200T
1974.776	1.616	1837553	WORD	n/a	wordpools/wordpool_EN.txt	GUARD	12	13	[0, 0, 0]	n/a	FR1	0	R1200T
1976.392	0.0	1839169	WORD_OFF	n/a	n/a	GUARD	12	13	[0, 0, 0]	n/a	FR1	0	R1200T
1976.392	0.0	1839169	DISTRACT_START	n/a	n/a	n/a	-999	13	[0, 0, 0]	n/a	FR1	0	R1200T
1976.392	0.016	1839169	START	n/a	n/a	n/a	-999	13	[-999, -999, -999]	n/a	FR1	0	R1200T
1976.408	3.552	1839185	PROB	3.552	n/a	n/a	-999	13	[2, 3, 7]	12	FR1	0	R1200T
1979.96	5.001	1842736	PROB	5.001	n/a	n/a	-999	13	[9, 5, 5]	14	FR1	0	R1200T
1984.961	5.951	1847737	PROB	5.951	n/a	n/a	-999	13	[1, 3, 9]	13	FR1	0	R1200T
1990.912	5.969	1853688	PROB	5.969	n/a	n/a	-999	13	[9, 8, 7]	17	FR1	0	R1200T
1996.881	0.015	1859656	STOP	n/a	n/a	n/a	-999	13	[-999, -999, -999]	n/a	FR1	0	R1200T
1996.896	0.684	1859671	DISTRACT_END	n/a	n/a	n/a	-999	13	[0, 0, 0]	n/a	FR1	0	R1200T
1997.58	0.517	1860355	RETRIEVAL_ORIENT	n/a	n/a	n/a	-999	13	[0, 0, 0]	n/a	FR1	0	R1200T
1998.097	2.079	1860872	REC_START	n/a	n/a	n/a	-999	13	[0, 0, 0]	n/a	FR1	0	R1200T
2000.176	0.561	1862951	REC_WORD	0.561	n/a	TOOL	1	13	[0, 0, 0]	n/a	FR1	0	R1200T
2000.737	0.378	1863512	REC_WORD	0.378	n/a	BRICK	2	13	[0, 0, 0]	n/a	FR1	0	R1200T
2001.115	4.959	1863890	REC_WORD	4.959	n/a	STONE	7	13	[0, 0, 0]	n/a	FR1	0	R1200T
2006.074	22.034	1868849	REC_WORD	22.034	n/a	CLAY	3	13	[0, 0, 0]	n/a	FR1	0	R1200T
2028.108	14.663	1890881	REC_END	n/a	n/a	n/a	-999	13	[0, 0, 0]	n/a	FR1	0	R1200T
2042.771	0.5	1905544	TRIAL	n/a	n/a	n/a	-999	14	[0, 0, 0]	n/a	FR1	0	R1200T
2043.271	10.428	1906044	COUNTDOWN_START	n/a	n/a	n/a	-999	14	[0, 0, 0]	n/a	FR1	0	R1200T
2053.699	0.008	1916471	COUNTDOWN_END	n/a	n/a	n/a	-999	14	[0, 0, 0]	n/a	FR1	0	R1200T
2053.707	1.617	1916479	ORIENT	n/a	n/a	n/a	-999	14	[0, 0, 0]	n/a	FR1	0	R1200T
2055.324	2.233	1918096	ORIENT_OFF	n/a	n/a	n/a	-999	14	[0, 0, 0]	n/a	FR1	0	R1200T
2057.557	1.617	1920329	WORD	n/a	wordpools/wordpool_EN.txt	BREAD	1	14	[0, 0, 0]	n/a	FR1	0	R1200T
2059.174	0.801	1921946	WORD_OFF	n/a	n/a	BREAD	1	14	[0, 0, 0]	n/a	FR1	0	R1200T
2059.975	1.617	1922747	WORD	n/a	wordpools/wordpool_EN.txt	GOLD	2	14	[0, 0, 0]	n/a	FR1	0	R1200T
2061.592	0.832	1924363	WORD_OFF	n/a	n/a	GOLD	2	14	[0, 0, 0]	n/a	FR1	0	R1200T
2062.424	1.618	1925195	WORD	n/a	wordpools/wordpool_EN.txt	MOUTH	3	14	[0, 0, 0]	n/a	FR1	0	R1200T
2064.042	0.967	1926813	WORD_OFF	n/a	n/a	MOUTH	3	14	[0, 0, 0]	n/a	FR1	0	R1200T
2065.009	1.617	1927780	WORD	n/a	wordpools/wordpool_EN.txt	SLUSH	4	14	[0, 0, 0]	n/a	FR1	0	R1200T
2066.626	0.917	1929397	WORD_OFF	n/a	n/a	SLUSH	4	14	[0, 0, 0]	n/a	FR1	0	R1200T
2067.543	1.617	1930314	WORD	n/a	wordpools/wordpool_EN.txt	DOLL	5	14	[0, 0, 0]	n/a	FR1	0	R1200T
2069.16	0.866	1931931	WORD_OFF	n/a	n/a	DOLL	5	14	[0, 0, 0]	n/a	FR1	0	R1200T
2070.026	1.617	1932797	WORD	n/a	wordpools/wordpool_EN.txt	CROWN	6	14	[0, 0, 0]	n/a	FR1	0	R1200T
2071.643	0.867	1934414	WORD_OFF	n/a	n/a	CROWN	6	14	[0, 0, 0]	n/a	FR1	0	R1200T
2072.51	1.617	1935281	WORD	n/a	wordpools/wordpool_EN.txt	ROOM	7	14	[0, 0, 0]	n/a	FR1	0	R1200T
2074.127	0.917	1936898	WORD_OFF	n/a	n/a	ROOM	7	14	[0, 0, 0]	n/a	FR1	0	R1200T
2075.044	1.617	1937815	WORD	n/a	wordpools/wordpool_EN.txt	SALT	8	14	[0, 0, 0]	n/a	FR1	0	R1200T
2076.661	0.917	1939432	WORD_OFF	n/a	n/a	SALT	8	14	[0, 0, 0]	n/a	FR1	0	R1200T
2077.578	1.617	1940349	WORD	n/a	wordpools/wordpool_EN.txt	WORM	9	14	[0, 0, 0]	n/a	FR1	0	R1200T
2079.195	0.85	1941965	WORD_OFF	n/a	n/a	WORM	9	14	[0, 0, 0]	n/a	FR1	0	R1200T
2080.045	1.617	1942815	WORD	n/a	wordpools/wordpool_EN.txt	JUICE	10	14	[0, 0, 0]	n/a	FR1	0	R1200T
2081.662	0.815	1944432	WORD_OFF	n/a	n/a	JUICE	10	14	[0, 0, 0]	n/a	FR1	0	R1200T
2082.477	1.602	1945247	WORD	n/a	wordpools/wordpool_EN.txt	VASE	11	14	[0, 0, 0]	n/a	FR1	0	R1200T
2084.079	0.883	1946849	WORD_OFF	n/a	n/a	VASE	11	14	[0, 0, 0]	n/a	FR1	0	R1200T
2084.962	1.617	1947732	WORD	n/a	wordpools/wordpool_EN.txt	THREAD	12	14	[0, 0, 0]	n/a	FR1	0	R1200T
2086.579	0.0	1949349	WORD_OFF	n/a	n/a	THREAD	12	14	[0, 0, 0]	n/a	FR1	0	R1200T
2086.579	0.001	1949349	DISTRACT_START	n/a	n/a	n/a	-999	14	[0, 0, 0]	n/a	FR1	0	R1200T
2086.58	0.016	1949350	START	n/a	n/a	n/a	-999	14	[-999, -999, -999]	n/a	FR1	0	R1200T
2086.596	4.251	1949366	PROB	4.251	n/a	n/a	-999	14	[1, 1, 2]	4	FR1	0	R1200T
2090.847	3.35	1953617	PROB	3.35	n/a	n/a	-999	14	[1, 8, 9]	18	FR1	0	R1200T
2094.197	4.451	1956967	PROB	4.451	n/a	n/a	-999	14	[3, 3, 9]	15	FR1	0	R1200T
2098.648	5.8	1961417	PROB	5.8	n/a	n/a	-999	14	[7, 4, 7]	18	FR1	0	R1200T
2104.448	3.945	1967217	PROB	3.945	n/a	n/a	-999	14	[1, 7, 8]	16	FR1	0	R1200T
2108.393	0.006	1971162	STOP	n/a	n/a	n/a	-999	14	[-999, -999, -999]	n/a	FR1	0	R1200T
2108.399	0.701	1971168	DISTRACT_END	n/a	n/a	n/a	-999	14	[0, 0, 0]	n/a	FR1	0	R1200T
2109.1	0.518	1971869	RETRIEVAL_ORIENT	n/a	n/a	n/a	-999	14	[0, 0, 0]	n/a	FR1	0	R1200T
2109.618	1.461	1972387	REC_START	n/a	n/a	n/a	-999	14	[0, 0, 0]	n/a	FR1	0	R1200T
2111.079	0.904	1973848	REC_WORD	0.904	n/a	BREAD	1	14	[0, 0, 0]	n/a	FR1	0	R1200T
2111.983	1.256	1974752	REC_WORD	1.256	n/a	GOLD	2	14	[0, 0, 0]	n/a	FR1	0	R1200T
2113.239	3.772	1976007	REC_WORD	3.772	n/a	THREAD	12	14	[0, 0, 0]	n/a	FR1	0	R1200T
2117.011	6.095	1979779	REC_WORD_VV	6.095	n/a	<>	-999	14	[0, 0, 0]	n/a	FR1	0	R1200T
2123.106	14.564	1985874	REC_WORD	14.564	n/a	MOUTH	3	14	[0, 0, 0]	n/a	FR1	0	R1200T
2137.67	1.96	2000437	REC_WORD_VV	1.96	n/a	<>	-999	14	[0, 0, 0]	n/a	FR1	0	R1200T
2139.63	5.293	2002397	REC_END	n/a	n/a	n/a	-999	14	[0, 0, 0]	n/a	FR1	0	R1200T
2144.923	0.5	2007690	TRIAL	n/a	n/a	n/a	-999	15	[0, 0, 0]	n/a	FR1	0	R1200T
2145.423	10.428	2008190	COUNTDOWN_START	n/a	n/a	n/a	-999	15	[0, 0, 0]	n/a	FR1	0	R1200T
2155.851	0.008	2018617	COUNTDOWN_END	n/a	n/a	n/a	-999	15	[0, 0, 0]	n/a	FR1	0	R1200T
2155.859	1.616	2018625	ORIENT	n/a	n/a	n/a	-999	15	[0, 0, 0]	n/a	FR1	0	R1200T
2157.475	1.95	2020241	ORIENT_OFF	n/a	n/a	n/a	-999	15	[0, 0, 0]	n/a	FR1	0	R1200T
2159.425	1.601	2022191	WORD	n/a	wordpools/wordpool_EN.txt	SHARK	1	15	[0, 0, 0]	n/a	FR1	0	R1200T
2161.026	0.867	2023792	WORD_OFF	n/a	n/a	SHARK	1	15	[0, 0, 0]	n/a	FR1	0	R1200T
2161.893	1.617	2024659	WORD	n/a	wordpools/wordpool_EN.txt	PRINCE	2	15	[0, 0, 0]	n/a	FR1	0	R1200T
2163.51	0.883	2026276	WORD_OFF	n/a	n/a	PRINCE	2	15	[0, 0, 0]	n/a	FR1	0	R1200T
2164.393	1.618	2027158	WORD	n/a	wordpools/wordpool_EN.txt	TREE	3	15	[0, 0, 0]	n/a	FR1	0	R1200T
2166.011	0.766	2028776	WORD_OFF	n/a	n/a	TREE	3	15	[0, 0, 0]	n/a	FR1	0	R1200T
2166.777	1.616	2029542	WORD	n/a	wordpools/wordpool_EN.txt	CAT	4	15	[0, 0, 0]	n/a	FR1	0	R1200T
2168.393	1.0	2031158	WORD_OFF	n/a	n/a	CAT	4	15	[0, 0, 0]	n/a	FR1	0	R1200T
2169.393	1.602	2032158	WORD	n/a	wordpools/wordpool_EN.txt	WEB	5	15	[0, 0, 0]	n/a	FR1	0	R1200T
2170.995	0.85	2033760	WORD_OFF	n/a	n/a	WEB	5	15	[0, 0, 0]	n/a	FR1	0	R1200T
2171.845	1.616	2034610	WORD	n/a	wordpools/wordpool_EN.txt	MOUSE	6	15	[0, 0, 0]	n/a	FR1	0	R1200T
2173.461	0.933	2036226	WORD_OFF	n/a	n/a	MOUSE	6	15	[0, 0, 0]	n/a	FR1	0	R1200T
2174.394	1.601	2037159	WORD	n/a	wordpools/wordpool_EN.txt	HOOK	7	15	[0, 0, 0]	n/a	FR1	0	R1200T
2175.995	0.984	2038760	WORD_OFF	n/a	n/a	HOOK	7	15	[0, 0, 0]	n/a	FR1	0	R1200T
2176.979	1.617	2039744	WORD	n/a	wordpools/wordpool_EN.txt	SHEEP	8	15	[0, 0, 0]	n/a	FR1	0	R1200T
2178.596	0.934	2041361	WORD_OFF	n/a	n/a	SHEEP	8	15	[0, 0, 0]	n/a	FR1	0	R1200T
2179.53	1.617	2042295	WORD	n/a	wordpools/wordpool_EN.txt	CROW	9	15	[0, 0, 0]	n/a	FR1	0	R1200T
2181.147	0.866	2043911	WORD_OFF	n/a	n/a	CROW	9	15	[0, 0, 0]	n/a	FR1	0	R1200T
2182.013	1.617	2044777	WORD	n/a	wordpools/wordpool_EN.txt	MOTH	10	15	[0, 0, 0]	n/a	FR1	0	R1200T
2183.63	0.816	2046394	WORD_OFF	n/a	n/a	MOTH	10	15	[0, 0, 0]	n/a	FR1	0	R1200T
2184.446	1.618	2047210	WORD	n/a	wordpools/wordpool_EN.txt	CHIEF	11	15	[0, 0, 0]	n/a	FR1	0	R1200T
2186.064	0.9	2048828	WORD_OFF	n/a	n/a	CHIEF	11	15	[0, 0, 0]	n/a	FR1	0	R1200T
2186.964	1.617	2049728	WORD	n/a	wordpools/wordpool_EN.txt	BAT	12	15	[0, 0, 0]	n/a	FR1	0	R1200T
2188.581	0.0	2051345	WORD_OFF	n/a	n/a	BAT	12	15	[0, 0, 0]	n/a	FR1	0	R1200T
2188.581	0.001	2051345	DISTRACT_START	n/a	n/a	n/a	-999	15	[0, 0, 0]	n/a	FR1	0	R1200T
2188.582	0.016	2051346	START	n/a	n/a	n/a	-999	15	[-999, -999, -999]	n/a	FR1	0	R1200T
2188.598	3.951	2051362	PROB	3.951	n/a	n/a	-999	15	[6, 4, 5]	15	FR1	0	R1200T
2192.549	4.601	2055313	PROB	4.601	n/a	n/a	-999	15	[2, 2, 6]	1	FR1	0	R1200T
2197.15	14.346	2059914	PROB	14.346	n/a	n/a	-999	15	[7, 7, 2]	16	FR1	0	R1200T
2211.496	0.005	2074259	STOP	n/a	n/a	n/a	-999	15	[-999, -999, -999]	n/a	FR1	0	R1200T
2211.501	0.518	2074264	DISTRACT_END	n/a	n/a	n/a	-999	15	[0, 0, 0]	n/a	FR1	0	R1200T
2212.019	0.517	2074782	RETRIEVAL_ORIENT	n/a	n/a	n/a	-999	15	[0, 0, 0]	n/a	FR1	0	R1200T
2212.536	1.537	2075299	REC_START	n/a	n/a	n/a	-999	15	[0, 0, 0]	n/a	FR1	0	R1200T
2214.073	6.586	2076836	REC_WORD	6.586	n/a	SHARK	1	15	[0, 0, 0]	n/a	FR1	0	R1200T
2220.659	3.18	2083421	REC_WORD	3.18	n/a	MOTH	10	15	[0, 0, 0]	n/a	FR1	0	R1200T
2223.839	1.567	2086601	REC_WORD	1.567	n/a	MOUSE	6	15	[0, 0, 0]	n/a	FR1	0	R1200T
2225.406	3.85	2088168	REC_WORD	3.85	n/a	MOOSE	-999	15	[0, 0, 0]	n/a	FR1	0	R1200T
2229.256	2.486	2092018	REC_WORD	2.486	n/a	SHEEP	8	15	[0, 0, 0]	n/a	FR1	0	R1200T
2231.742	10.806	2094503	REC_WORD	10.806	n/a	BAT	12	15	[0, 0, 0]	n/a	FR1	0	R1200T
2242.548	5.394	2105309	REC_END	n/a	n/a	n/a	-999	15	[0, 0, 0]	n/a	FR1	0	R1200T
2247.942	0.5	2110703	TRIAL	n/a	n/a	n/a	-999	16	[0, 0, 0]	n/a	FR1	0	R1200T
2248.442	10.428	2111203	COUNTDOWN_START	n/a	n/a	n/a	-999	16	[0, 0, 0]	n/a	FR1	0	R1200T
2258.87	0.007	2121630	COUNTDOWN_END	n/a	n/a	n/a	-999	16	[0, 0, 0]	n/a	FR1	0	R1200T
2258.877	1.616	2121637	ORIENT	n/a	n/a	n/a	-999	16	[0, 0, 0]	n/a	FR1	0	R1200T
2260.493	2.018	2123253	ORIENT_OFF	n/a	n/a	n/a	-999	16	[0, 0, 0]	n/a	FR1	0	R1200T
2262.511	1.617	2125271	WORD	n/a	wordpools/wordpool_EN.txt	YARD	1	16	[0, 0, 0]	n/a	FR1	0	R1200T
2264.128	0.801	2126888	WORD_OFF	n/a	n/a	YARD	1	16	[0, 0, 0]	n/a	FR1	0	R1200T
2264.929	1.617	2127689	WORD	n/a	wordpools/wordpool_EN.txt	THUMB	2	16	[0, 0, 0]	n/a	FR1	0	R1200T
2266.546	0.899	2129305	WORD_OFF	n/a	n/a	THUMB	2	16	[0, 0, 0]	n/a	FR1	0	R1200T
2267.445	1.618	2130204	WORD	n/a	wordpools/wordpool_EN.txt	SLIME	3	16	[0, 0, 0]	n/a	FR1	0	R1200T
2269.063	0.783	2131822	WORD_OFF	n/a	n/a	SLIME	3	16	[0, 0, 0]	n/a	FR1	0	R1200T
2269.846	1.616	2132605	WORD	n/a	wordpools/wordpool_EN.txt	BOOT	4	16	[0, 0, 0]	n/a	FR1	0	R1200T
2271.462	0.818	2134221	WORD_OFF	n/a	n/a	BOOT	4	16	[0, 0, 0]	n/a	FR1	0	R1200T
2272.28	1.617	2135039	WORD	n/a	wordpools/wordpool_EN.txt	PASTE	5	16	[0, 0, 0]	n/a	FR1	0	R1200T
2273.897	0.9	2136656	WORD_OFF	n/a	n/a	PASTE	5	16	[0, 0, 0]	n/a	FR1	0	R1200T
2274.797	1.616	2137556	WORD	n/a	wordpools/wordpool_EN.txt	FAN	6	16	[0, 0, 0]	n/a	FR1	0	R1200T
2276.413	0.901	2139172	WORD_OFF	n/a	n/a	FAN	6	16	[0, 0, 0]	n/a	FR1	0	R1200T
2277.314	1.617	2140073	WORD	n/a	wordpools/wordpool_EN.txt	MUD	7	16	[0, 0, 0]	n/a	FR1	0	R1200T
2278.931	0.834	2141690	WORD_OFF	n/a	n/a	MUD	7	16	[0, 0, 0]	n/a	FR1	0	R1200T
2279.765	1.615	2142524	WORD	n/a	wordpools/wordpool_EN.txt	STRING	8	16	[0, 0, 0]	n/a	FR1	0	R1200T
2281.38	0.818	2144139	WORD_OFF	n/a	n/a	STRING	8	16	[0, 0, 0]	n/a	FR1	0	R1200T
2282.198	1.617	2144957	WORD	n/a	wordpools/wordpool_EN.txt	PURSE	9	16	[0, 0, 0]	n/a	FR1	0	R1200T
2283.815	0.867	2146573	WORD_OFF	n/a	n/a	PURSE	9	16	[0, 0, 0]	n/a	FR1	0	R1200T
2284.682	1.617	2147440	WORD	n/a	wordpools/wordpool_EN.txt	NOSE	10	16	[0, 0, 0]	n/a	FR1	0	R1200T
2286.299	0.85	2149057	WORD_OFF	n/a	n/a	NOSE	10	16	[0, 0, 0]	n/a	FR1	0	R1200T
2287.149	1.617	2149907	WORD	n/a	wordpools/wordpool_EN.txt	TEETH	11	16	[0, 0, 0]	n/a	FR1	0	R1200T
2288.766	0.867	2151524	WORD_OFF	n/a	n/a	TEETH	11	16	[0, 0, 0]	n/a	FR1	0	R1200T
2289.633	1.617	2152391	WORD	n/a	wordpools/wordpool_EN.txt	STRAW	12	16	[0, 0, 0]	n/a	FR1	0	R1200T
2291.25	0.0	2154008	WORD_OFF	n/a	n/a	STRAW	12	16	[0, 0, 0]	n/a	FR1	0	R1200T
2291.25	0.001	2154008	DISTRACT_START	n/a	n/a	n/a	-999	16	[0, 0, 0]	n/a	FR1	0	R1200T
2291.251	0.016	2154009	START	n/a	n/a	n/a	-999	16	[-999, -999, -999]	n/a	FR1	0	R1200T
2291.267	13.819	2154025	PROB	13.819	n/a	n/a	-999	16	[2, 9, 6]	17	FR1	0	R1200T
2305.086	3.984	2167843	PROB	3.984	n/a	n/a	-999	16	[9, 8, 2]	19	FR1	0	R1200T
2309.07	4.41	2171827	PROB	4.41	n/a	n/a	-999	16	[6, 3, 2]	11	FR1	0	R1200T
2313.48	0.006	2176237	STOP	n/a	n/a	n/a	-999	16	[-999, -999, -999]	n/a	FR1	0	R1200T
2313.486	0.652	2176243	DISTRACT_END	n/a	n/a	n/a	-999	16	[0, 0, 0]	n/a	FR1	0	R1200T
2314.138	0.517	2176895	RETRIEVAL_ORIENT	n/a	n/a	n/a	-999	16	[0, 0, 0]	n/a	FR1	0	R1200T
2314.655	2.496	2177412	REC_START	n/a	n/a	n/a	-999	16	[0, 0, 0]	n/a	FR1	0	R1200T
2317.151	8.405	2179907	REC_WORD	8.405	n/a	SLIME	3	16	[0, 0, 0]	n/a	FR1	0	R1200T
2325.556	19.109	2188312	REC_WORD	19.109	n/a	PLANT	-999	16	[0, 0, 0]	n/a	FR1	0	R1200T
2344.665	8.313	2207420	REC_END	n/a	n/a	n/a	-999	16	[0, 0, 0]	n/a	FR1	0	R1200T
2352.978	0.5	2215732	TRIAL	n/a	n/a	n/a	-999	17	[0, 0, 0]	n/a	FR1	0	R1200T
2353.478	10.428	2216232	COUNTDOWN_START	n/a	n/a	n/a	-999	17	[0, 0, 0]	n/a	FR1	0	R1200T
2363.906	0.007	2226660	COUNTDOWN_END	n/a	n/a	n/a	-999	17	[0, 0, 0]	n/a	FR1	0	R1200T
2363.913	1.617	2226667	ORIENT	n/a	n/a	n/a	-999	17	[0, 0, 0]	n/a	FR1	0	R1200T
2365.53	2.067	2228284	ORIENT_OFF	n/a	n/a	n/a	-999	17	[0, 0, 0]	n/a	FR1	0	R1200T
2367.597	1.617	2230351	WORD	n/a	wordpools/wordpool_EN.txt	CONE	1	17	[0, 0, 0]	n/a	FR1	0	R1200T
2369.214	1.017	2231967	WORD_OFF	n/a	n/a	CONE	1	17	[0, 0, 0]	n/a	FR1	0	R1200T
2370.231	1.617	2232984	WORD	n/a	wordpools/wordpool_EN.txt	ICE	2	17	[0, 0, 0]	n/a	FR1	0	R1200T
2371.848	1.0	2234601	WORD_OFF	n/a	n/a	ICE	2	17	[0, 0, 0]	n/a	FR1	0	R1200T
2372.848	1.616	2235601	WORD	n/a	wordpools/wordpool_EN.txt	FLUTE	3	17	[0, 0, 0]	n/a	FR1	0	R1200T
2374.464	0.785	2237217	WORD_OFF	n/a	n/a	FLUTE	3	17	[0, 0, 0]	n/a	FR1	0	R1200T
2375.249	1.617	2238002	WORD	n/a	wordpools/wordpool_EN.txt	DOG	4	17	[0, 0, 0]	n/a	FR1	0	R1200T
2376.866	0.8	2239619	WORD_OFF	n/a	n/a	DOG	4	17	[0, 0, 0]	n/a	FR1	0	R1200T
2377.666	1.617	2240419	WORD	n/a	wordpools/wordpool_EN.txt	TRASH	5	17	[0, 0, 0]	n/a	FR1	0	R1200T
2379.283	1.017	2242036	WORD_OFF	n/a	n/a	TRASH	5	17	[0, 0, 0]	n/a	FR1	0	R1200T
2380.3	1.616	2243053	WORD	n/a	wordpools/wordpool_EN.txt	GRAPE	6	17	[0, 0, 0]	n/a	FR1	0	R1200T
2381.916	0.834	2244669	WORD_OFF	n/a	n/a	GRAPE	6	17	[0, 0, 0]	n/a	FR1	0	R1200T
2382.75	1.617	2245503	WORD	n/a	wordpools/wordpool_EN.txt	TOAD	7	17	[0, 0, 0]	n/a	FR1	0	R1200T
2384.367	0.983	2247120	WORD_OFF	n/a	n/a	TOAD	7	17	[0, 0, 0]	n/a	FR1	0	R1200T
2385.35	1.617	2248102	WORD	n/a	wordpools/wordpool_EN.txt	RAKE	8	17	[0, 0, 0]	n/a	FR1	0	R1200T
2386.967	0.801	2249719	WORD_OFF	n/a	n/a	RAKE	8	17	[0, 0, 0]	n/a	FR1	0	R1200T
2387.768	1.616	2250520	WORD	n/a	wordpools/wordpool_EN.txt	MAZE	9	17	[0, 0, 0]	n/a	FR1	0	R1200T
2389.384	0.983	2252136	WORD_OFF	n/a	n/a	MAZE	9	17	[0, 0, 0]	n/a	FR1	0	R1200T
2390.367	1.618	2253119	WORD	n/a	wordpools/wordpool_EN.txt	PEAR	10	17	[0, 0, 0]	n/a	FR1	0	R1200T
2391.985	1.017	2254737	WORD_OFF	n/a	n/a	PEAR	10	17	[0, 0, 0]	n/a	FR1	0	R1200T
2393.002	1.617	2255754	WORD	n/a	wordpools/wordpool_EN.txt	STEM	11	17	[0, 0, 0]	n/a	FR1	0	R1200T
2394.619	0.782	2257371	WORD_OFF	n/a	n/a	STEM	11	17	[0, 0, 0]	n/a	FR1	0	R1200T
2395.401	1.618	2258153	WORD	n/a	wordpools/wordpool_EN.txt	BRANCH	12	17	[0, 0, 0]	n/a	FR1	0	R1200T
2397.019	0.0	2259771	DISTRACT_START	n/a	n/a	n/a	-999	17	[0, 0, 0]	n/a	FR1	0	R1200T
2397.019	0.001	2259771	WORD_OFF	n/a	n/a	BRANCH	12	17	[0, 0, 0]	n/a	FR1	0	R1200T
2397.02	0.016	2259772	START	n/a	n/a	n/a	-999	17	[-999, -999, -999]	n/a	FR1	0	R1200T
2397.036	12.936	2259788	PROB	12.936	n/a	n/a	-999	17	[5, 2, 6]	13	FR1	0	R1200T
2409.972	7.396	2272723	PROB	7.396	n/a	n/a	-999	17	[3, 4, 3]	10	FR1	0	R1200T
2417.368	0.021	2280119	STOP	n/a	n/a	n/a	-999	17	[-999, -999, -999]	n/a	FR1	0	R1200T
2417.389	0.634	2280140	DISTRACT_END	n/a	n/a	n/a	-999	17	[0, 0, 0]	n/a	FR1	0	R1200T
2418.023	0.517	2280774	RETRIEVAL_ORIENT	n/a	n/a	n/a	-999	17	[0, 0, 0]	n/a	FR1	0	R1200T
2418.54	2.566	2281291	REC_START	n/a	n/a	n/a	-999	17	[0, 0, 0]	n/a	FR1	0	R1200T
2421.106	0.565	2283856	REC_WORD	0.565	n/a	DOG	4	17	[0, 0, 0]	n/a	FR1	0	R1200T
2421.671	1.229	2284421	REC_WORD	1.229	n/a	CONE	1	17	[0, 0, 0]	n/a	FR1	0	R1200T
2422.9	5.686	2285650	REC_WORD	5.686	n/a	ICE	2	17	[0, 0, 0]	n/a	FR1	0	R1200T
2428.586	5.898	2291336	REC_WORD	5.898	n/a	TRASH	5	17	[0, 0, 0]	n/a	FR1	0	R1200T
2434.484	5.457	2297234	REC_WORD	5.457	n/a	PEAR	10	17	[0, 0, 0]	n/a	FR1	0	R1200T
2439.941	8.61	2302690	REC_WORD	8.61	n/a	GRAPE	6	17	[0, 0, 0]	n/a	FR1	0	R1200T
2448.551	5.495	2311300	REC_END	n/a	n/a	n/a	-999	17	[0, 0, 0]	n/a	FR1	0	R1200T
2454.046	0.5	2316794	TRIAL	n/a	n/a	n/a	-999	18	[0, 0, 0]	n/a	FR1	0	R1200T
2454.546	10.428	2317294	COUNTDOWN_START	n/a	n/a	n/a	-999	18	[0, 0, 0]	n/a	FR1	0	R1200T
2464.974	0.008	2327722	COUNTDOWN_END	n/a	n/a	n/a	-999	18	[0, 0, 0]	n/a	FR1	0	R1200T
2464.982	1.617	2327730	ORIENT	n/a	n/a	n/a	-999	18	[0, 0, 0]	n/a	FR1	0	R1200T
2466.599	2.25	2329347	ORIENT_OFF	n/a	n/a	n/a	-999	18	[0, 0, 0]	n/a	FR1	0	R1200T
2468.849	1.616	2331597	WORD	n/a	wordpools/wordpool_EN.txt	CUP	1	18	[0, 0, 0]	n/a	FR1	0	R1200T
2470.465	0.933	2333212	WORD_OFF	n/a	n/a	CUP	1	18	[0, 0, 0]	n/a	FR1	0	R1200T
2471.398	1.618	2334145	WORD	n/a	wordpools/wordpool_EN.txt	CHAIR	2	18	[0, 0, 0]	n/a	FR1	0	R1200T
2473.016	0.951	2335763	WORD_OFF	n/a	n/a	CHAIR	2	18	[0, 0, 0]	n/a	FR1	0	R1200T
2473.967	1.616	2336714	WORD	n/a	wordpools/wordpool_EN.txt	FRUIT	3	18	[0, 0, 0]	n/a	FR1	0	R1200T
2475.583	0.816	2338330	WORD_OFF	n/a	n/a	FRUIT	3	18	[0, 0, 0]	n/a	FR1	0	R1200T
2476.399	1.618	2339146	WORD	n/a	wordpools/wordpool_EN.txt	ELF	4	18	[0, 0, 0]	n/a	FR1	0	R1200T
2478.017	0.8	2340764	WORD_OFF	n/a	n/a	ELF	4	18	[0, 0, 0]	n/a	FR1	0	R1200T
2478.817	1.616	2341564	WORD	n/a	wordpools/wordpool_EN.txt	LIP	5	18	[0, 0, 0]	n/a	FR1	0	R1200T
2480.433	0.967	2343180	WORD_OFF	n/a	n/a	LIP	5	18	[0, 0, 0]	n/a	FR1	0	R1200T
2481.4	1.601	2344147	WORD	n/a	wordpools/wordpool_EN.txt	GLASS	6	18	[0, 0, 0]	n/a	FR1	0	R1200T
2483.001	0.984	2345748	WORD_OFF	n/a	n/a	GLASS	6	18	[0, 0, 0]	n/a	FR1	0	R1200T
2483.985	1.617	2346732	WORD	n/a	wordpools/wordpool_EN.txt	TOAST	7	18	[0, 0, 0]	n/a	FR1	0	R1200T
2485.602	0.95	2348349	WORD_OFF	n/a	n/a	TOAST	7	18	[0, 0, 0]	n/a	FR1	0	R1200T
2486.552	1.617	2349299	WORD	n/a	wordpools/wordpool_EN.txt	STOOL	8	18	[0, 0, 0]	n/a	FR1	0	R1200T
2488.169	0.9	2350915	WORD_OFF	n/a	n/a	STOOL	8	18	[0, 0, 0]	n/a	FR1	0	R1200T
2489.069	1.617	2351815	WORD	n/a	wordpools/wordpool_EN.txt	CHIN	9	18	[0, 0, 0]	n/a	FR1	0	R1200T
2490.686	0.934	2353432	WORD_OFF	n/a	n/a	CHIN	9	18	[0, 0, 0]	n/a	FR1	0	R1200T
2491.62	1.617	2354366	WORD	n/a	wordpools/wordpool_EN.txt	PLATE	10	18	[0, 0, 0]	n/a	FR1	0	R1200T
2493.237	0.85	2355983	WORD_OFF	n/a	n/a	PLATE	10	18	[0, 0, 0]	n/a	FR1	0	R1200T
2494.087	1.617	2356833	WORD	n/a	wordpools/wordpool_EN.txt	PIN	11	18	[0, 0, 0]	n/a	FR1	0	R1200T
2495.704	0.983	2358450	WORD_OFF	n/a	n/a	PIN	11	18	[0, 0, 0]	n/a	FR1	0	R1200T
2496.687	1.617	2359433	WORD	n/a	wordpools/wordpool_EN.txt	FOOT	12	18	[0, 0, 0]	n/a	FR1	0	R1200T
2498.304	0.0	2361050	WORD_OFF	n/a	n/a	FOOT	12	18	[0, 0, 0]	n/a	FR1	0	R1200T
2498.304	0.001	2361050	DISTRACT_START	n/a	n/a	n/a	-999	18	[0, 0, 0]	n/a	FR1	0	R1200T
2498.305	0.016	2361051	START	n/a	n/a	n/a	-999	18	[-999, -999, -999]	n/a	FR1	0	R1200T
2498.321	4.034	2361067	PROB	4.034	n/a	n/a	-999	18	[1, 4, 2]	7	FR1	0	R1200T
2502.355	4.568	2365101	PROB	4.568	n/a	n/a	-999	18	[8, 8, 4]	20	FR1	0	R1200T
2506.923	2.7	2369668	PROB	2.7	n/a	n/a	-999	18	[1, 9, 8]	18	FR1	0	R1200T
2509.623	2.484	2372368	PROB	2.484	n/a	n/a	-999	18	[7, 3, 8]	18	FR1	0	R1200T
2512.107	2.484	2374852	PROB	2.484	n/a	n/a	-999	18	[3, 7, 3]	13	FR1	0	R1200T
2514.591	2.933	2377336	PROB	2.933	n/a	n/a	-999	18	[1, 8, 9]	18	FR1	0	R1200T
2517.524	2.294	2380269	PROB	2.294	n/a	n/a	-999	18	[5, 4, 5]	14	FR1	0	R1200T
2519.818	0.007	2382563	STOP	n/a	n/a	n/a	-999	18	[-999, -999, -999]	n/a	FR1	0	R1200T
2519.825	0.7	2382570	DISTRACT_END	n/a	n/a	n/a	-999	18	[0, 0, 0]	n/a	FR1	0	R1200T
2520.525	0.517	2383270	RETRIEVAL_ORIENT	n/a	n/a	n/a	-999	18	[0, 0, 0]	n/a	FR1	0	R1200T
2521.042	2.329	2383786	REC_START	n/a	n/a	n/a	-999	18	[0, 0, 0]	n/a	FR1	0	R1200T
2523.371	0.554	2386115	REC_WORD	0.554	n/a	CHAIR	2	18	[0, 0, 0]	n/a	FR1	0	R1200T
2523.925	0.797	2386669	REC_WORD	0.797	n/a	CHIN	9	18	[0, 0, 0]	n/a	FR1	0	R1200T
2524.722	6.28	2387466	REC_WORD	6.28	n/a	ELF	4	18	[0, 0, 0]	n/a	FR1	0	R1200T
2531.002	14.509	2393746	REC_WORD	14.509	n/a	LIP	5	18	[0, 0, 0]	n/a	FR1	0	R1200T
2545.511	5.542	2408254	REC_WORD	5.542	n/a	PLATE	10	18	[0, 0, 0]	n/a	FR1	0	R1200T
2551.053	4.945	2413796	REC_END	n/a	n/a	n/a	-999	18	[0, 0, 0]	n/a	FR1	0	R1200T
2555.998	0.5	2418740	TRIAL	n/a	n/a	n/a	-999	19	[0, 0, 0]	n/a	FR1	0	R1200T
2556.498	10.428	2419240	COUNTDOWN_START	n/a	n/a	n/a	-999	19	[0, 0, 0]	n/a	FR1	0	R1200T
2566.926	0.007	2429668	COUNTDOWN_END	n/a	n/a	n/a	-999	19	[0, 0, 0]	n/a	FR1	0	R1200T
2566.933	1.617	2429675	ORIENT	n/a	n/a	n/a	-999	19	[0, 0, 0]	n/a	FR1	0	R1200T
2568.55	1.933	2431292	ORIENT_OFF	n/a	n/a	n/a	-999	19	[0, 0, 0]	n/a	FR1	0	R1200T
2570.483	1.618	2433225	WORD	n/a	wordpools/wordpool_EN.txt	SUN	1	19	[0, 0, 0]	n/a	FR1	0	R1200T
2572.101	0.984	2434842	WORD_OFF	n/a	n/a	SUN	1	19	[0, 0, 0]	n/a	FR1	0	R1200T
2573.085	1.617	2435826	WORD	n/a	wordpools/wordpool_EN.txt	MOON	2	19	[0, 0, 0]	n/a	FR1	0	R1200T
2574.702	0.782	2437443	WORD_OFF	n/a	n/a	MOON	2	19	[0, 0, 0]	n/a	FR1	0	R1200T
2575.484	1.618	2438225	WORD	n/a	wordpools/wordpool_EN.txt	BLOOM	3	19	[0, 0, 0]	n/a	FR1	0	R1200T
2577.102	1.0	2439843	WORD_OFF	n/a	n/a	BLOOM	3	19	[0, 0, 0]	n/a	FR1	0	R1200T
2578.102	1.617	2440843	WORD	n/a	wordpools/wordpool_EN.txt	WHALE	4	19	[0, 0, 0]	n/a	FR1	0	R1200T
2579.719	0.917	2442460	WORD_OFF	n/a	n/a	WHALE	4	19	[0, 0, 0]	n/a	FR1	0	R1200T
2580.636	1.617	2443377	WORD	n/a	wordpools/wordpool_EN.txt	FOOD	5	19	[0, 0, 0]	n/a	FR1	0	R1200T
2582.253	0.867	2444994	WORD_OFF	n/a	n/a	FOOD	5	19	[0, 0, 0]	n/a	FR1	0	R1200T
2583.12	1.617	2445861	WORD	n/a	wordpools/wordpool_EN.txt	RICE	6	19	[0, 0, 0]	n/a	FR1	0	R1200T
2584.737	0.933	2447478	WORD_OFF	n/a	n/a	RICE	6	19	[0, 0, 0]	n/a	FR1	0	R1200T
2585.67	1.617	2448411	WORD	n/a	wordpools/wordpool_EN.txt	SEAL	7	19	[0, 0, 0]	n/a	FR1	0	R1200T
2587.287	0.9	2450028	WORD_OFF	n/a	n/a	SEAL	7	19	[0, 0, 0]	n/a	FR1	0	R1200T
2588.187	1.617	2450928	WORD	n/a	wordpools/wordpool_EN.txt	PLANT	8	19	[0, 0, 0]	n/a	FR1	0	R1200T
2589.804	0.784	2452544	WORD_OFF	n/a	n/a	PLANT	8	19	[0, 0, 0]	n/a	FR1	0	R1200T
2590.588	1.617	2453328	WORD	n/a	wordpools/wordpool_EN.txt	STAR	9	19	[0, 0, 0]	n/a	FR1	0	R1200T
2592.205	0.816	2454945	WORD_OFF	n/a	n/a	STAR	9	19	[0, 0, 0]	n/a	FR1	0	R1200T
2593.021	1.617	2455761	WORD	n/a	wordpools/wordpool_EN.txt	BEACH	10	19	[0, 0, 0]	n/a	FR1	0	R1200T
2594.638	0.816	2457378	WORD_OFF	n/a	n/a	BEACH	10	19	[0, 0, 0]	n/a	FR1	0	R1200T
2595.454	1.618	2458194	WORD	n/a	wordpools/wordpool_EN.txt	LAND	11	19	[0, 0, 0]	n/a	FR1	0	R1200T
2597.072	0.834	2459812	WORD_OFF	n/a	n/a	LAND	11	19	[0, 0, 0]	n/a	FR1	0	R1200T
2597.906	1.617	2460646	WORD	n/a	wordpools/wordpool_EN.txt	CAPE	12	19	[0, 0, 0]	n/a	FR1	0	R1200T
2599.523	0.0	2462263	DISTRACT_START	n/a	n/a	n/a	-999	19	[0, 0, 0]	n/a	FR1	0	R1200T
2599.523	0.0	2462263	WORD_OFF	n/a	n/a	CAPE	12	19	[0, 0, 0]	n/a	FR1	0	R1200T
2599.523	0.016	2462263	START	n/a	n/a	n/a	-999	19	[-999, -999, -999]	n/a	FR1	0	R1200T
2599.539	5.085	2462279	PROB	5.085	n/a	n/a	-999	19	[2, 7, 4]	13	FR1	0	R1200T
2604.624	9.451	2467364	PROB	9.451	n/a	n/a	-999	19	[3, 2, 6]	13	FR1	0	R1200T
2614.075	4.951	2476814	PROB	4.951	n/a	n/a	-999	19	[1, 4, 2]	7	FR1	0	R1200T
2619.026	3.784	2481765	PROB	3.784	n/a	n/a	-999	19	[6, 4, 8]	18	FR1	0	R1200T
2622.81	0.017	2485549	STOP	n/a	n/a	n/a	-999	19	[-999, -999, -999]	n/a	FR1	0	R1200T
2622.827	0.566	2485566	DISTRACT_END	n/a	n/a	n/a	-999	19	[0, 0, 0]	n/a	FR1	0	R1200T
2623.393	0.518	2486131	RETRIEVAL_ORIENT	n/a	n/a	n/a	-999	19	[0, 0, 0]	n/a	FR1	0	R1200T
2623.911	0.818	2486649	REC_START	n/a	n/a	n/a	-999	19	[0, 0, 0]	n/a	FR1	0	R1200T
2624.729	0.809	2487467	REC_WORD	0.809	n/a	SUN	1	19	[0, 0, 0]	n/a	FR1	0	R1200T
2625.538	0.493	2488276	REC_WORD	0.493	n/a	MOON	2	19	[0, 0, 0]	n/a	FR1	0	R1200T
2626.031	0.802	2488769	REC_WORD	0.802	n/a	STAR	9	19	[0, 0, 0]	n/a	FR1	0	R1200T
2626.833	5.614	2489571	REC_WORD	5.614	n/a	PLANT	8	19	[0, 0, 0]	n/a	FR1	0	R1200T
2632.447	0.96	2495185	REC_WORD	0.96	n/a	WHALE	4	19	[0, 0, 0]	n/a	FR1	0	R1200T
2633.407	20.514	2496145	REC_WORD	20.514	n/a	BLOOM	3	19	[0, 0, 0]	n/a	FR1	0	R1200T
2653.921	5.662	2516658	REC_END	n/a	n/a	n/a	-999	19	[0, 0, 0]	n/a	FR1	0	R1200T
2659.583	0.5	2522319	TRIAL	n/a	n/a	n/a	-999	20	[0, 0, 0]	n/a	FR1	0	R1200T
2660.083	10.428	2522819	COUNTDOWN_START	n/a	n/a	n/a	-999	20	[0, 0, 0]	n/a	FR1	0	R1200T
2670.511	0.008	2533247	COUNTDOWN_END	n/a	n/a	n/a	-999	20	[0, 0, 0]	n/a	FR1	0	R1200T
2670.519	1.617	2533255	ORIENT	n/a	n/a	n/a	-999	20	[0, 0, 0]	n/a	FR1	0	R1200T
2672.136	1.85	2534872	ORIENT_OFF	n/a	n/a	n/a	-999	20	[0, 0, 0]	n/a	FR1	0	R1200T
2673.986	1.617	2536721	WORD	n/a	wordpools/wordpool_EN.txt	SPEAR	1	20	[0, 0, 0]	n/a	FR1	0	R1200T
2675.603	0.917	2538338	WORD_OFF	n/a	n/a	SPEAR	1	20	[0, 0, 0]	n/a	FR1	0	R1200T
2676.52	1.617	2539255	WORD	n/a	wordpools/wordpool_EN.txt	SMOKE	2	20	[0, 0, 0]	n/a	FR1	0	R1200T
2678.137	0.8	2540872	WORD_OFF	n/a	n/a	SMOKE	2	20	[0, 0, 0]	n/a	FR1	0	R1200T
2678.937	1.617	2541672	WORD	n/a	wordpools/wordpool_EN.txt	ROCK	3	20	[0, 0, 0]	n/a	FR1	0	R1200T
2680.554	0.949	2543289	WORD_OFF	n/a	n/a	ROCK	3	20	[0, 0, 0]	n/a	FR1	0	R1200T
2681.503	1.601	2544238	WORD	n/a	wordpools/wordpool_EN.txt	FUDGE	4	20	[0, 0, 0]	n/a	FR1	0	R1200T
2683.104	0.951	2545839	WORD_OFF	n/a	n/a	FUDGE	4	20	[0, 0, 0]	n/a	FR1	0	R1200T
2684.055	1.617	2546790	WORD	n/a	wordpools/wordpool_EN.txt	BRIDGE	5	20	[0, 0, 0]	n/a	FR1	0	R1200T
2685.672	0.966	2548407	WORD_OFF	n/a	n/a	BRIDGE	5	20	[0, 0, 0]	n/a	FR1	0	R1200T
2686.638	1.617	2549373	WORD	n/a	wordpools/wordpool_EN.txt	FORT	6	20	[0, 0, 0]	n/a	FR1	0	R1200T
2688.255	0.784	2550990	WORD_OFF	n/a	n/a	FORT	6	20	[0, 0, 0]	n/a	FR1	0	R1200T
2689.039	1.617	2551774	WORD	n/a	wordpools/wordpool_EN.txt	SWORD	7	20	[0, 0, 0]	n/a	FR1	0	R1200T
2690.656	0.832	2553391	WORD_OFF	n/a	n/a	SWORD	7	20	[0, 0, 0]	n/a	FR1	0	R1200T
2691.488	1.618	2554222	WORD	n/a	wordpools/wordpool_EN.txt	JUDGE	8	20	[0, 0, 0]	n/a	FR1	0	R1200T
2693.106	0.767	2555840	WORD_OFF	n/a	n/a	JUDGE	8	20	[0, 0, 0]	n/a	FR1	0	R1200T
2693.873	1.616	2556607	WORD	n/a	wordpools/wordpool_EN.txt	JAIL	9	20	[0, 0, 0]	n/a	FR1	0	R1200T
2695.489	0.9	2558223	WORD_OFF	n/a	n/a	JAIL	9	20	[0, 0, 0]	n/a	FR1	0	R1200T
2696.389	1.618	2559123	WORD	n/a	wordpools/wordpool_EN.txt	SAIL	10	20	[0, 0, 0]	n/a	FR1	0	R1200T
2698.007	0.9	2560741	WORD_OFF	n/a	n/a	SAIL	10	20	[0, 0, 0]	n/a	FR1	0	R1200T
2698.907	1.617	2561641	WORD	n/a	wordpools/wordpool_EN.txt	STEAM	11	20	[0, 0, 0]	n/a	FR1	0	R1200T
2700.524	0.866	2563258	WORD_OFF	n/a	n/a	STEAM	11	20	[0, 0, 0]	n/a	FR1	0	R1200T
2701.39	1.601	2564124	WORD	n/a	wordpools/wordpool_EN.txt	CLIFF	12	20	[0, 0, 0]	n/a	FR1	0	R1200T
2702.991	0.0	2565725	WORD_OFF	n/a	n/a	CLIFF	12	20	[0, 0, 0]	n/a	FR1	0	R1200T
2702.991	0.001	2565725	DISTRACT_START	n/a	n/a	n/a	-999	20	[0, 0, 0]	n/a	FR1	0	R1200T
2702.992	0.016	2565726	START	n/a	n/a	n/a	-999	20	[-999, -999, -999]	n/a	FR1	0	R1200T
2703.008	4.367	2565742	PROB	4.367	n/a	n/a	-999	20	[2, 8, 4]	14	FR1	0	R1200T
2707.375	2.234	2570109	PROB	2.234	n/a	n/a	-999	20	[1, 1, 9]	11	FR1	0	R1200T
2709.609	9.169	2572342	PROB	9.169	n/a	n/a	-999	20	[9, 8, 3]	21	FR1	0	R1200T
2718.778	2.483	2581511	PROB	2.483	n/a	n/a	-999	20	[4, 5, 1]	10	FR1	0	R1200T
2721.261	3.942	2583994	PROB	3.942	n/a	n/a	-999	20	[2, 2, 1]	5	FR1	0	R1200T
2725.203	0.009	2587935	STOP	n/a	n/a	n/a	-999	20	[-999, -999, -999]	n/a	FR1	0	R1200T
2725.212	0.6	2587944	DISTRACT_END	n/a	n/a	n/a	-999	20	[0, 0, 0]	n/a	FR1	0	R1200T
2725.812	0.518	2588544	RETRIEVAL_ORIENT	n/a	n/a	n/a	-999	20	[0, 0, 0]	n/a	FR1	0	R1200T
2726.33	4.712	2589062	REC_START	n/a	n/a	n/a	-999	20	[0, 0, 0]	n/a	FR1	0	R1200T
2731.042	5.317	2593774	REC_WORD	5.317	n/a	BRIDGE	5	20	[0, 0, 0]	n/a	FR1	0	R1200T
2736.359	19.982	2599091	REC_WORD	19.982	n/a	STEAM	11	20	[0, 0, 0]	n/a	FR1	0	R1200T
2756.341	4.344	2619072	REC_END	n/a	n/a	n/a	-999	20	[0, 0, 0]	n/a	FR1	0	R1200T
2760.685	0.5	2623415	TRIAL	n/a	n/a	n/a	-999	21	[0, 0, 0]	n/a	FR1	0	R1200T
2761.185	10.428	2623915	COUNTDOWN_START	n/a	n/a	n/a	-999	21	[0, 0, 0]	n/a	FR1	0	R1200T
2771.613	0.008	2634343	COUNTDOWN_END	n/a	n/a	n/a	-999	21	[0, 0, 0]	n/a	FR1	0	R1200T
2771.621	1.617	2634351	ORIENT	n/a	n/a	n/a	-999	21	[0, 0, 0]	n/a	FR1	0	R1200T
2773.238	1.967	2635968	ORIENT_OFF	n/a	n/a	n/a	-999	21	[0, 0, 0]	n/a	FR1	0	R1200T
2775.205	1.617	2637935	WORD	n/a	wordpools/wordpool_EN.txt	MUG	1	21	[0, 0, 0]	n/a	FR1	0	R1200T
2776.822	0.816	2639551	WORD_OFF	n/a	n/a	MUG	1	21	[0, 0, 0]	n/a	FR1	0	R1200T
2777.638	1.617	2640367	WORD	n/a	wordpools/wordpool_EN.txt	TEA	2	21	[0, 0, 0]	n/a	FR1	0	R1200T
2779.255	0.917	2641984	WORD_OFF	n/a	n/a	TEA	2	21	[0, 0, 0]	n/a	FR1	0	R1200T
2780.172	1.617	2642901	WORD	n/a	wordpools/wordpool_EN.txt	CAKE	3	21	[0, 0, 0]	n/a	FR1	0	R1200T
2781.789	0.8	2644518	WORD_OFF	n/a	n/a	CAKE	3	21	[0, 0, 0]	n/a	FR1	0	R1200T
2782.589	1.617	2645318	WORD	n/a	wordpools/wordpool_EN.txt	HAND	4	21	[0, 0, 0]	n/a	FR1	0	R1200T
2784.206	0.967	2646935	WORD_OFF	n/a	n/a	HAND	4	21	[0, 0, 0]	n/a	FR1	0	R1200T
2785.173	1.617	2647902	WORD	n/a	wordpools/wordpool_EN.txt	TIE	5	21	[0, 0, 0]	n/a	FR1	0	R1200T
2786.79	0.867	2649519	WORD_OFF	n/a	n/a	TIE	5	21	[0, 0, 0]	n/a	FR1	0	R1200T
2787.657	1.617	2650386	WORD	n/a	wordpools/wordpool_EN.txt	BEAK	6	21	[0, 0, 0]	n/a	FR1	0	R1200T
2789.274	0.783	2652003	WORD_OFF	n/a	n/a	BEAK	6	21	[0, 0, 0]	n/a	FR1	0	R1200T
2790.057	1.617	2652786	WORD	n/a	wordpools/wordpool_EN.txt	LEG	7	21	[0, 0, 0]	n/a	FR1	0	R1200T
2791.674	0.783	2654403	WORD_OFF	n/a	n/a	LEG	7	21	[0, 0, 0]	n/a	FR1	0	R1200T
2792.457	1.618	2655186	WORD	n/a	wordpools/wordpool_EN.txt	BAG	8	21	[0, 0, 0]	n/a	FR1	0	R1200T
2794.075	0.866	2656803	WORD_OFF	n/a	n/a	BAG	8	21	[0, 0, 0]	n/a	FR1	0	R1200T
2794.941	1.618	2657669	WORD	n/a	wordpools/wordpool_EN.txt	SINK	9	21	[0, 0, 0]	n/a	FR1	0	R1200T
2796.559	0.849	2659287	WORD_OFF	n/a	n/a	SINK	9	21	[0, 0, 0]	n/a	FR1	0	R1200T
2797.408	1.618	2660136	WORD	n/a	wordpools/wordpool_EN.txt	SLEEVE	10	21	[0, 0, 0]	n/a	FR1	0	R1200T
2799.026	0.983	2661754	WORD_OFF	n/a	n/a	SLEEVE	10	21	[0, 0, 0]	n/a	FR1	0	R1200T
2800.009	1.617	2662737	WORD	n/a	wordpools/wordpool_EN.txt	BOX	11	21	[0, 0, 0]	n/a	FR1	0	R1200T
2801.626	0.816	2664354	WORD_OFF	n/a	n/a	BOX	11	21	[0, 0, 0]	n/a	FR1	0	R1200T
2802.442	1.618	2665170	WORD	n/a	wordpools/wordpool_EN.txt	CAGE	12	21	[0, 0, 0]	n/a	FR1	0	R1200T
2804.06	0.0	2666788	WORD_OFF	n/a	n/a	CAGE	12	21	[0, 0, 0]	n/a	FR1	0	R1200T
2804.06	0.0	2666788	DISTRACT_START	n/a	n/a	n/a	-999	21	[0, 0, 0]	n/a	FR1	0	R1200T
2804.06	0.016	2666788	START	n/a	n/a	n/a	-999	21	[-999, -999, -999]	n/a	FR1	0	R1200T
2804.076	3.35	2666804	PROB	3.35	n/a	n/a	-999	21	[9, 4, 1]	14	FR1	0	R1200T
2807.426	3.268	2670154	PROB	3.268	n/a	n/a	-999	21	[4, 6, 3]	13	FR1	0	R1200T
2810.694	3.318	2673421	PROB	3.318	n/a	n/a	-999	21	[2, 7, 9]	18	FR1	0	R1200T
2814.012	1.933	2676739	PROB	1.933	n/a	n/a	-999	21	[8, 2, 2]	12	FR1	0	R1200T
2815.945	2.384	2678672	PROB	2.384	n/a	n/a	-999	21	[5, 4, 1]	10	FR1	0	R1200T
2818.329	3.166	2681056	PROB	3.166	n/a	n/a	-999	21	[6, 5, 4]	15	FR1	0	R1200T
2821.495	11.019	2684222	PROB	11.019	n/a	n/a	-999	21	[8, 9, 7]	222	FR1	0	R1200T
2832.514	0.018	2695240	STOP	n/a	n/a	n/a	-999	21	[-999, -999, -999]	n/a	FR1	0	R1200T
2832.532	0.55	2695258	DISTRACT_END	n/a	n/a	n/a	-999	21	[0, 0, 0]	n/a	FR1	0	R1200T
2833.082	0.517	2695808	RETRIEVAL_ORIENT	n/a	n/a	n/a	-999	21	[0, 0, 0]	n/a	FR1	0	R1200T
2833.599	1.802	2696325	REC_START	n/a	n/a	n/a	-999	21	[0, 0, 0]	n/a	FR1	0	R1200T
2835.401	1.0	2698127	REC_WORD_VV	1.0	n/a	<>	-999	21	[0, 0, 0]	n/a	FR1	0	R1200T
2836.401	1.0	2699127	REC_WORD_VV	1.0	n/a	<>	-999	21	[0, 0, 0]	n/a	FR1	0	R1200T
2837.401	1.0	2700127	REC_WORD_VV	1.0	n/a	<>	-999	21	[0, 0, 0]	n/a	FR1	0	R1200T
2838.401	1.0	2701127	REC_WORD_VV	1.0	n/a	<>	-999	21	[0, 0, 0]	n/a	FR1	0	R1200T
2839.401	2.711	2702127	REC_WORD_VV	2.711	n/a	<>	-999	21	[0, 0, 0]	n/a	FR1	0	R1200T
2842.112	0.868	2704838	REC_WORD	0.868	n/a	BOX	11	21	[0, 0, 0]	n/a	FR1	0	R1200T
2842.98	4.552	2705706	REC_WORD	4.552	n/a	SLEEVE	10	21	[0, 0, 0]	n/a	FR1	0	R1200T
2847.532	16.079	2710257	REC_WORD	16.079	n/a	HAND	4	21	[0, 0, 0]	n/a	FR1	0	R1200T
2863.611	4.627	2726335	REC_END	n/a	n/a	n/a	-999	21	[0, 0, 0]	n/a	FR1	0	R1200T
2868.238	0.5	2730962	TRIAL	n/a	n/a	n/a	-999	22	[0, 0, 0]	n/a	FR1	0	R1200T
2868.738	10.428	2731462	COUNTDOWN_START	n/a	n/a	n/a	-999	22	[0, 0, 0]	n/a	FR1	0	R1200T
2879.166	0.007	2741889	COUNTDOWN_END	n/a	n/a	n/a	-999	22	[0, 0, 0]	n/a	FR1	0	R1200T
2879.173	1.617	2741896	ORIENT	n/a	n/a	n/a	-999	22	[0, 0, 0]	n/a	FR1	0	R1200T
2880.79	2.067	2743513	ORIENT_OFF	n/a	n/a	n/a	-999	22	[0, 0, 0]	n/a	FR1	0	R1200T
2882.857	1.616	2745580	WORD	n/a	wordpools/wordpool_EN.txt	BOMB	1	22	[0, 0, 0]	n/a	FR1	0	R1200T
2884.473	0.917	2747196	WORD_OFF	n/a	n/a	BOMB	1	22	[0, 0, 0]	n/a	FR1	0	R1200T
2885.39	1.618	2748113	WORD	n/a	wordpools/wordpool_EN.txt	WEED	2	22	[0, 0, 0]	n/a	FR1	0	R1200T
2887.008	0.8	2749731	WORD_OFF	n/a	n/a	WEED	2	22	[0, 0, 0]	n/a	FR1	0	R1200T
2887.808	1.616	2750531	WORD	n/a	wordpools/wordpool_EN.txt	WHEEL	3	22	[0, 0, 0]	n/a	FR1	0	R1200T
2889.424	1.017	2752147	WORD_OFF	n/a	n/a	WHEEL	3	22	[0, 0, 0]	n/a	FR1	0	R1200T
2890.441	1.618	2753164	WORD	n/a	wordpools/wordpool_EN.txt	EGG	4	22	[0, 0, 0]	n/a	FR1	0	R1200T
2892.059	0.867	2754782	WORD_OFF	n/a	n/a	EGG	4	22	[0, 0, 0]	n/a	FR1	0	R1200T
2892.926	1.617	2755649	WORD	n/a	wordpools/wordpool_EN.txt	FISH	5	22	[0, 0, 0]	n/a	FR1	0	R1200T
2894.543	0.949	2757266	WORD_OFF	n/a	n/a	FISH	5	22	[0, 0, 0]	n/a	FR1	0	R1200T
2895.492	1.601	2758214	WORD	n/a	wordpools/wordpool_EN.txt	WAVE	6	22	[0, 0, 0]	n/a	FR1	0	R1200T
2897.093	0.867	2759815	WORD_OFF	n/a	n/a	WAVE	6	22	[0, 0, 0]	n/a	FR1	0	R1200T
2897.96	1.617	2760682	WORD	n/a	wordpools/wordpool_EN.txt	POLE	7	22	[0, 0, 0]	n/a	FR1	0	R1200T
2899.577	0.934	2762299	WORD_OFF	n/a	n/a	POLE	7	22	[0, 0, 0]	n/a	FR1	0	R1200T
2900.511	1.617	2763233	WORD	n/a	wordpools/wordpool_EN.txt	TOOTH	8	22	[0, 0, 0]	n/a	FR1	0	R1200T
2902.128	0.95	2764850	WORD_OFF	n/a	n/a	TOOTH	8	22	[0, 0, 0]	n/a	FR1	0	R1200T
2903.078	1.617	2765800	WORD	n/a	wordpools/wordpool_EN.txt	BALL	9	22	[0, 0, 0]	n/a	FR1	0	R1200T
2904.695	0.917	2767417	WORD_OFF	n/a	n/a	BALL	9	22	[0, 0, 0]	n/a	FR1	0	R1200T
2905.612	1.617	2768334	WORD	n/a	wordpools/wordpool_EN.txt	HEART	10	22	[0, 0, 0]	n/a	FR1	0	R1200T
2907.229	0.866	2769951	WORD_OFF	n/a	n/a	HEART	10	22	[0, 0, 0]	n/a	FR1	0	R1200T
2908.095	1.617	2770817	WORD	n/a	wordpools/wordpool_EN.txt	FILM	11	22	[0, 0, 0]	n/a	FR1	0	R1200T
2909.712	0.766	2772434	WORD_OFF	n/a	n/a	FILM	11	22	[0, 0, 0]	n/a	FR1	0	R1200T
2910.478	1.601	2773200	WORD	n/a	wordpools/wordpool_EN.txt	CORD	12	22	[0, 0, 0]	n/a	FR1	0	R1200T
2912.079	0.0	2774801	WORD_OFF	n/a	n/a	CORD	12	22	[0, 0, 0]	n/a	FR1	0	R1200T
2912.079	0.001	2774801	DISTRACT_START	n/a	n/a	n/a	-999	22	[0, 0, 0]	n/a	FR1	0	R1200T
2912.08	0.016	2774802	START	n/a	n/a	n/a	-999	22	[-999, -999, -999]	n/a	FR1	0	R1200T
2912.096	7.284	2774817	PROB	7.284	n/a	n/a	-999	22	[5, 9, 8]	22	FR1	0	R1200T
2919.38	3.034	2782101	PROB	3.034	n/a	n/a	-999	22	[1, 7, 7]	15	FR1	0	R1200T
2922.414	3.268	2785135	PROB	3.268	n/a	n/a	-999	22	[6, 5, 1]	12	FR1	0	R1200T
2925.682	4.384	2788403	PROB	4.384	n/a	n/a	-999	22	[8, 7, 7]	14	FR1	0	R1200T
2930.066	10.392	2792786	PROB	10.392	n/a	n/a	-999	22	[7, 5, 9]	24	FR1	0	R1200T
2940.458	0.009	2803178	STOP	n/a	n/a	n/a	-999	22	[-999, -999, -999]	n/a	FR1	0	R1200T
2940.467	0.618	2803187	DISTRACT_END	n/a	n/a	n/a	-999	22	[0, 0, 0]	n/a	FR1	0	R1200T
2941.085	0.517	2803805	RETRIEVAL_ORIENT	n/a	n/a	n/a	-999	22	[0, 0, 0]	n/a	FR1	0	R1200T
2941.602	3.293	2804322	REC_START	n/a	n/a	n/a	-999	22	[0, 0, 0]	n/a	FR1	0	R1200T
2944.895	6.141	2807615	REC_WORD	6.141	n/a	BOMB	1	22	[0, 0, 0]	n/a	FR1	0	R1200T
2951.036	20.576	2813755	REC_WORD	20.576	n/a	WEED	2	22	[0, 0, 0]	n/a	FR1	0	R1200T
2971.612	3.896	2834330	REC_END	n/a	n/a	n/a	-999	22	[0, 0, 0]	n/a	FR1	0	R1200T
2975.508	0.5	2838226	TRIAL	n/a	n/a	n/a	-999	23	[0, 0, 0]	n/a	FR1	0	R1200T
2976.008	10.428	2838726	COUNTDOWN_START	n/a	n/a	n/a	-999	23	[0, 0, 0]	n/a	FR1	0	R1200T
2986.436	0.006	2849153	COUNTDOWN_END	n/a	n/a	n/a	-999	23	[0, 0, 0]	n/a	FR1	0	R1200T
2986.442	1.618	2849159	ORIENT	n/a	n/a	n/a	-999	23	[0, 0, 0]	n/a	FR1	0	R1200T
2988.06	2.1	2850777	ORIENT_OFF	n/a	n/a	n/a	-999	23	[0, 0, 0]	n/a	FR1	0	R1200T
2990.16	1.617	2852877	WORD	n/a	wordpools/wordpool_EN.txt	WING	1	23	[0, 0, 0]	n/a	FR1	0	R1200T
2991.777	1.017	2854494	WORD_OFF	n/a	n/a	WING	1	23	[0, 0, 0]	n/a	FR1	0	R1200T
2992.794	1.616	2855511	WORD	n/a	wordpools/wordpool_EN.txt	EEL	2	23	[0, 0, 0]	n/a	FR1	0	R1200T
2994.41	0.951	2857127	WORD_OFF	n/a	n/a	EEL	2	23	[0, 0, 0]	n/a	FR1	0	R1200T
2995.361	1.617	2858078	WORD	n/a	wordpools/wordpool_EN.txt	KEY	3	23	[0, 0, 0]	n/a	FR1	0	R1200T
2996.978	0.95	2859695	WORD_OFF	n/a	n/a	KEY	3	23	[0, 0, 0]	n/a	FR1	0	R1200T
2997.928	1.617	2860644	WORD	n/a	wordpools/wordpool_EN.txt	MAIL	4	23	[0, 0, 0]	n/a	FR1	0	R1200T
2999.545	0.866	2862261	WORD_OFF	n/a	n/a	MAIL	4	23	[0, 0, 0]	n/a	FR1	0	R1200T
3000.411	1.601	2863127	WORD	n/a	wordpools/wordpool_EN.txt	COIN	5	23	[0, 0, 0]	n/a	FR1	0	R1200T
3002.012	0.951	2864728	WORD_OFF	n/a	n/a	COIN	5	23	[0, 0, 0]	n/a	FR1	0	R1200T
3002.963	1.617	2865679	WORD	n/a	wordpools/wordpool_EN.txt	CAR	6	23	[0, 0, 0]	n/a	FR1	0	R1200T
3004.58	0.983	2867296	WORD_OFF	n/a	n/a	CAR	6	23	[0, 0, 0]	n/a	FR1	0	R1200T
3005.563	1.617	2868279	WORD	n/a	wordpools/wordpool_EN.txt	RAIN	7	23	[0, 0, 0]	n/a	FR1	0	R1200T
3007.18	0.984	2869896	WORD_OFF	n/a	n/a	RAIN	7	23	[0, 0, 0]	n/a	FR1	0	R1200T
3008.164	1.616	2870880	WORD	n/a	wordpools/wordpool_EN.txt	SHEET	8	23	[0, 0, 0]	n/a	FR1	0	R1200T
3009.78	0.917	2872496	WORD_OFF	n/a	n/a	SHEET	8	23	[0, 0, 0]	n/a	FR1	0	R1200T
3010.697	1.617	2873413	WORD	n/a	wordpools/wordpool_EN.txt	BOOK	9	23	[0, 0, 0]	n/a	FR1	0	R1200T
3012.314	1.017	2875030	WORD_OFF	n/a	n/a	BOOK	9	23	[0, 0, 0]	n/a	FR1	0	R1200T
3013.331	1.617	2876047	WORD	n/a	wordpools/wordpool_EN.txt	BANK	10	23	[0, 0, 0]	n/a	FR1	0	R1200T
3014.948	0.834	2877663	WORD_OFF	n/a	n/a	BANK	10	23	[0, 0, 0]	n/a	FR1	0	R1200T
3015.782	1.616	2878497	WORD	n/a	wordpools/wordpool_EN.txt	CASH	11	23	[0, 0, 0]	n/a	FR1	0	R1200T
3017.398	0.801	2880113	WORD_OFF	n/a	n/a	CASH	11	23	[0, 0, 0]	n/a	FR1	0	R1200T
3018.199	1.617	2880914	WORD	n/a	wordpools/wordpool_EN.txt	PLANE	12	23	[0, 0, 0]	n/a	FR1	0	R1200T
3019.816	0.0	2882531	WORD_OFF	n/a	n/a	PLANE	12	23	[0, 0, 0]	n/a	FR1	0	R1200T
3019.816	0.0	2882531	DISTRACT_START	n/a	n/a	n/a	-999	23	[0, 0, 0]	n/a	FR1	0	R1200T
3019.816	0.016	2882531	START	n/a	n/a	n/a	-999	23	[-999, -999, -999]	n/a	FR1	0	R1200T
3019.832	4.118	2882547	PROB	4.118	n/a	n/a	-999	23	[2, 5, 8]	15	FR1	0	R1200T
3023.95	3.75	2886665	PROB	3.75	n/a	n/a	-999	23	[4, 4, 1]	9	FR1	0	R1200T
3027.7	2.301	2890415	PROB	2.301	n/a	n/a	-999	23	[2, 1, 1]	4	FR1	0	R1200T
3030.001	4.4	2892716	PROB	4.4	n/a	n/a	-999	23	[6, 5, 9]	20	FR1	0	R1200T
3034.401	2.234	2897115	PROB	2.234	n/a	n/a	-999	23	[5, 7, 3]	15	FR1	0	R1200T
3036.635	10.055	2899349	PROB	10.055	n/a	n/a	-999	23	[1, 4, 7]	12	FR1	0	R1200T
3046.69	0.014	2909404	STOP	n/a	n/a	n/a	-999	23	[-999, -999, -999]	n/a	FR1	0	R1200T
3046.704	0.633	2909418	DISTRACT_END	n/a	n/a	n/a	-999	23	[0, 0, 0]	n/a	FR1	0	R1200T
3047.337	0.518	2910051	RETRIEVAL_ORIENT	n/a	n/a	n/a	-999	23	[0, 0, 0]	n/a	FR1	0	R1200T
3047.855	1.84	2910569	REC_START	n/a	n/a	n/a	-999	23	[0, 0, 0]	n/a	FR1	0	R1200T
3049.695	0.813	2912408	REC_WORD	0.813	n/a	WING	1	23	[0, 0, 0]	n/a	FR1	0	R1200T
3050.508	0.742	2913221	REC_WORD	0.742	n/a	EEL	2	23	[0, 0, 0]	n/a	FR1	0	R1200T
3051.25	26.614	2913963	REC_WORD	26.614	n/a	KEY	3	23	[0, 0, 0]	n/a	FR1	0	R1200T
3077.864	5.913	2940576	REC_END	n/a	n/a	n/a	-999	23	[0, 0, 0]	n/a	FR1	0	R1200T
3083.777	0.5	2946488	TRIAL	n/a	n/a	n/a	-999	24	[0, 0, 0]	n/a	FR1	0	R1200T
3084.277	10.428	2946988	COUNTDOWN_START	n/a	n/a	n/a	-999	24	[0, 0, 0]	n/a	FR1	0	R1200T
3094.705	0.008	2957416	COUNTDOWN_END	n/a	n/a	n/a	-999	24	[0, 0, 0]	n/a	FR1	0	R1200T
3094.713	1.616	2957424	ORIENT	n/a	n/a	n/a	-999	24	[0, 0, 0]	n/a	FR1	0	R1200T
3096.329	1.901	2959040	ORIENT_OFF	n/a	n/a	n/a	-999	24	[0, 0, 0]	n/a	FR1	0	R1200T
3098.23	1.617	2960941	WORD	n/a	wordpools/wordpool_EN.txt	LAKE	1	24	[0, 0, 0]	n/a	FR1	0	R1200T
3099.847	0.783	2962557	WORD_OFF	n/a	n/a	LAKE	1	24	[0, 0, 0]	n/a	FR1	0	R1200T
3100.63	1.617	2963340	WORD	n/a	wordpools/wordpool_EN.txt	WORLD	2	24	[0, 0, 0]	n/a	FR1	0	R1200T
3102.247	0.8	2964957	WORD_OFF	n/a	n/a	WORLD	2	24	[0, 0, 0]	n/a	FR1	0	R1200T
3103.047	1.617	2965757	WORD	n/a	wordpools/wordpool_EN.txt	SEAT	3	24	[0, 0, 0]	n/a	FR1	0	R1200T
3104.664	0.967	2967374	WORD_OFF	n/a	n/a	SEAT	3	24	[0, 0, 0]	n/a	FR1	0	R1200T
3105.631	1.617	2968341	WORD	n/a	wordpools/wordpool_EN.txt	POOL	4	24	[0, 0, 0]	n/a	FR1	0	R1200T
3107.248	0.984	2969958	WORD_OFF	n/a	n/a	POOL	4	24	[0, 0, 0]	n/a	FR1	0	R1200T
3108.232	1.617	2970942	WORD	n/a	wordpools/wordpool_EN.txt	SKI	5	24	[0, 0, 0]	n/a	FR1	0	R1200T
3109.849	0.85	2972559	WORD_OFF	n/a	n/a	SKI	5	24	[0, 0, 0]	n/a	FR1	0	R1200T
3110.699	1.617	2973409	WORD	n/a	wordpools/wordpool_EN.txt	SPOON	6	24	[0, 0, 0]	n/a	FR1	0	R1200T
3112.316	0.9	2975026	WORD_OFF	n/a	n/a	SPOON	6	24	[0, 0, 0]	n/a	FR1	0	R1200T
3113.216	1.617	2975926	WORD	n/a	wordpools/wordpool_EN.txt	JET	7	24	[0, 0, 0]	n/a	FR1	0	R1200T
3114.833	0.767	2977543	WORD_OFF	n/a	n/a	JET	7	24	[0, 0, 0]	n/a	FR1	0	R1200T
3115.6	1.617	2978310	WORD	n/a	wordpools/wordpool_EN.txt	FUR	8	24	[0, 0, 0]	n/a	FR1	0	R1200T
3117.217	0.966	2979926	WORD_OFF	n/a	n/a	FUR	8	24	[0, 0, 0]	n/a	FR1	0	R1200T
3118.183	1.617	2980892	WORD	n/a	wordpools/wordpool_EN.txt	SPARK	9	24	[0, 0, 0]	n/a	FR1	0	R1200T
3119.8	0.884	2982509	WORD_OFF	n/a	n/a	SPARK	9	24	[0, 0, 0]	n/a	FR1	0	R1200T
3120.684	1.617	2983393	WORD	n/a	wordpools/wordpool_EN.txt	FOG	10	24	[0, 0, 0]	n/a	FR1	0	R1200T
3122.301	0.967	2985010	WORD_OFF	n/a	n/a	FOG	10	24	[0, 0, 0]	n/a	FR1	0	R1200T
3123.268	1.617	2985977	WORD	n/a	wordpools/wordpool_EN.txt	SCHOOL	11	24	[0, 0, 0]	n/a	FR1	0	R1200T
3124.885	0.933	2987594	WORD_OFF	n/a	n/a	SCHOOL	11	24	[0, 0, 0]	n/a	FR1	0	R1200T
3125.818	1.616	2988527	WORD	n/a	wordpools/wordpool_EN.txt	BED	12	24	[0, 0, 0]	n/a	FR1	0	R1200T
3127.434	0.0	2990143	WORD_OFF	n/a	n/a	BED	12	24	[0, 0, 0]	n/a	FR1	0	R1200T
3127.434	0.001	2990143	DISTRACT_START	n/a	n/a	n/a	-999	24	[0, 0, 0]	n/a	FR1	0	R1200T
3127.435	0.016	2990144	START	n/a	n/a	n/a	-999	24	[-999, -999, -999]	n/a	FR1	0	R1200T
3127.451	3.385	2990160	PROB	3.385	n/a	n/a	-999	24	[8, 2, 3]	13	FR1	0	R1200T
3130.836	5.633	2993545	PROB	5.633	n/a	n/a	-999	24	[9, 2, 6]	17	FR1	0	R1200T
3136.469	2.368	2999177	PROB	2.368	n/a	n/a	-999	24	[1, 2, 8]	11	FR1	0	R1200T
3138.837	2.817	3001545	PROB	2.817	n/a	n/a	-999	24	[1, 1, 6]	8	FR1	0	R1200T
3141.654	3.018	3004362	PROB	3.018	n/a	n/a	-999	24	[1, 3, 6]	10	FR1	0	R1200T
3144.672	3.266	3007380	PROB	3.266	n/a	n/a	-999	24	[5, 6, 1]	12	FR1	0	R1200T
3147.938	0.018	3010646	STOP	n/a	n/a	n/a	-999	24	[-999, -999, -999]	n/a	FR1	0	R1200T
3147.956	0.683	3010664	DISTRACT_END	n/a	n/a	n/a	-999	24	[0, 0, 0]	n/a	FR1	0	R1200T
3148.639	0.517	3011347	RETRIEVAL_ORIENT	n/a	n/a	n/a	-999	24	[0, 0, 0]	n/a	FR1	0	R1200T
3149.156	1.258	3011864	REC_START	n/a	n/a	n/a	-999	24	[0, 0, 0]	n/a	FR1	0	R1200T
3150.414	0.814	3013121	REC_WORD	0.814	n/a	LAKE	1	24	[0, 0, 0]	n/a	FR1	0	R1200T
3151.228	3.146	3013935	REC_WORD	3.146	n/a	FUR	8	24	[0, 0, 0]	n/a	FR1	0	R1200T
3154.374	0.741	3017081	REC_WORD	0.741	n/a	SCHOOL	11	24	[0, 0, 0]	n/a	FR1	0	R1200T
3155.115	24.052	3017822	REC_WORD	24.052	n/a	FOG	10	24	[0, 0, 0]	n/a	FR1	0	R1200T
3179.167	5.311	3041873	REC_END	n/a	n/a	n/a	-999	24	[0, 0, 0]	n/a	FR1	0	R1200T
3184.478	0.5	3047183	TRIAL	n/a	n/a	n/a	-999	25	[0, 0, 0]	n/a	FR1	0	R1200T
3184.978	10.428	3047683	COUNTDOWN_START	n/a	n/a	n/a	-999	25	[0, 0, 0]	n/a	FR1	0	R1200T
3195.406	0.007	3058111	COUNTDOWN_END	n/a	n/a	n/a	-999	25	[0, 0, 0]	n/a	FR1	0	R1200T
3195.413	1.601	3058118	ORIENT	n/a	n/a	n/a	-999	25	[0, 0, 0]	n/a	FR1	0	R1200T
3197.014	1.901	3059719	ORIENT_OFF	n/a	n/a	n/a	-999	25	[0, 0, 0]	n/a	FR1	0	R1200T
3198.915	1.617	3061620	WORD	n/a	wordpools/wordpool_EN.txt	SOAP	1	25	[0, 0, 0]	n/a	FR1	0	R1200T
3200.532	0.817	3063237	WORD_OFF	n/a	n/a	SOAP	1	25	[0, 0, 0]	n/a	FR1	0	R1200T
3201.349	1.616	3064053	WORD	n/a	wordpools/wordpool_EN.txt	FLAME	2	25	[0, 0, 0]	n/a	FR1	0	R1200T
3202.965	0.867	3065669	WORD_OFF	n/a	n/a	FLAME	2	25	[0, 0, 0]	n/a	FR1	0	R1200T
3203.832	1.616	3066536	WORD	n/a	wordpools/wordpool_EN.txt	JAR	3	25	[0, 0, 0]	n/a	FR1	0	R1200T
3205.448	1.017	3068152	WORD_OFF	n/a	n/a	JAR	3	25	[0, 0, 0]	n/a	FR1	0	R1200T
3206.465	1.618	3069169	WORD	n/a	wordpools/wordpool_EN.txt	SOUP	4	25	[0, 0, 0]	n/a	FR1	0	R1200T
3208.083	0.85	3070787	WORD_OFF	n/a	n/a	SOUP	4	25	[0, 0, 0]	n/a	FR1	0	R1200T
3208.933	1.617	3071637	WORD	n/a	wordpools/wordpool_EN.txt	RUG	5	25	[0, 0, 0]	n/a	FR1	0	R1200T
3210.55	0.849	3073254	WORD_OFF	n/a	n/a	RUG	5	25	[0, 0, 0]	n/a	FR1	0	R1200T
3211.399	1.618	3074103	WORD	n/a	wordpools/wordpool_EN.txt	VINE	6	25	[0, 0, 0]	n/a	FR1	0	R1200T
3213.017	0.884	3075721	WORD_OFF	n/a	n/a	VINE	6	25	[0, 0, 0]	n/a	FR1	0	R1200T
3213.901	1.617	3076605	WORD	n/a	wordpools/wordpool_EN.txt	BEAN	7	25	[0, 0, 0]	n/a	FR1	0	R1200T
3215.518	0.932	3078222	WORD_OFF	n/a	n/a	BEAN	7	25	[0, 0, 0]	n/a	FR1	0	R1200T
3216.45	1.601	3079154	WORD	n/a	wordpools/wordpool_EN.txt	APE	8	25	[0, 0, 0]	n/a	FR1	0	R1200T
3218.051	0.784	3080755	WORD_OFF	n/a	n/a	APE	8	25	[0, 0, 0]	n/a	FR1	0	R1200T
3218.835	1.616	3081538	WORD	n/a	wordpools/wordpool_EN.txt	LAMP	9	25	[0, 0, 0]	n/a	FR1	0	R1200T
3220.451	0.885	3083154	WORD_OFF	n/a	n/a	LAMP	9	25	[0, 0, 0]	n/a	FR1	0	R1200T
3221.336	1.617	3084039	WORD	n/a	wordpools/wordpool_EN.txt	WALL	10	25	[0, 0, 0]	n/a	FR1	0	R1200T
3222.953	0.966	3085656	WORD_OFF	n/a	n/a	WALL	10	25	[0, 0, 0]	n/a	FR1	0	R1200T
3223.919	1.617	3086622	WORD	n/a	wordpools/wordpool_EN.txt	BROOM	11	25	[0, 0, 0]	n/a	FR1	0	R1200T
3225.536	0.933	3088239	WORD_OFF	n/a	n/a	BROOM	11	25	[0, 0, 0]	n/a	FR1	0	R1200T
3226.469	1.618	3089172	WORD	n/a	wordpools/wordpool_EN.txt	TENT	12	25	[0, 0, 0]	n/a	FR1	0	R1200T
3228.087	0.0	3090790	WORD_OFF	n/a	n/a	TENT	12	25	[0, 0, 0]	n/a	FR1	0	R1200T
3228.087	0.0	3090790	DISTRACT_START	n/a	n/a	n/a	-999	25	[0, 0, 0]	n/a	FR1	0	R1200T
3228.087	0.016	3090790	START	n/a	n/a	n/a	-999	25	[-999, -999, -999]	n/a	FR1	0	R1200T
3228.103	4.451	3090806	PROB	4.451	n/a	n/a	-999	25	[4, 8, 4]	16	FR1	0	R1200T
3232.554	3.434	3095257	PROB	3.434	n/a	n/a	-999	25	[9, 2, 9]	20	FR1	0	R1200T
3235.988	7.368	3098690	PROB	7.368	n/a	n/a	-999	25	[8, 9, 6]	23	FR1	0	R1200T
3243.356	3.033	3106058	PROB	3.033	n/a	n/a	-999	25	[5, 5, 7]	17	FR1	0	R1200T
3246.389	8.108	3109091	PROB	8.108	n/a	n/a	-999	25	[9, 3, 9]	21	FR1	0	R1200T
3254.497	0.011	3117198	STOP	n/a	n/a	n/a	-999	25	[-999, -999, -999]	n/a	FR1	0	R1200T
3254.508	0.617	3117209	DISTRACT_END	n/a	n/a	n/a	-999	25	[0, 0, 0]	n/a	FR1	0	R1200T
3255.125	0.517	3117826	RETRIEVAL_ORIENT	n/a	n/a	n/a	-999	25	[0, 0, 0]	n/a	FR1	0	R1200T
3255.642	1.534	3118343	REC_START	n/a	n/a	n/a	-999	25	[0, 0, 0]	n/a	FR1	0	R1200T
3257.176	1.504	3119877	REC_WORD	1.504	n/a	SOAP	1	25	[0, 0, 0]	n/a	FR1	0	R1200T
3258.68	1.0	3121381	REC_WORD	1.0	n/a	BEAN	7	25	[0, 0, 0]	n/a	FR1	0	R1200T
3259.68	6.532	3122381	REC_WORD_VV	6.532	n/a	<>	-999	25	[0, 0, 0]	n/a	FR1	0	R1200T
3266.212	2.352	3128913	REC_WORD	2.352	n/a	APE	8	25	[0, 0, 0]	n/a	FR1	0	R1200T
3268.564	5.12	3131265	REC_WORD	5.12	n/a	FLAME	2	25	[0, 0, 0]	n/a	FR1	0	R1200T
3273.684	11.969	3136384	REC_WORD	11.969	n/a	TENT	12	25	[0, 0, 0]	n/a	FR1	0	R1200T
3285.653	0.0	3148353	REC_END	n/a	n/a	n/a	-999	25	[0, 0, 0]	n/a	FR1	0	R1200T
