onset	duration	sample	trial_type	response_time	stim_file	item_name	serialpos	list	test	answer	experiment	session	subject
0.0	191.58	2057	INSTRUCT_START	n/a	n/a	n/a	-999	-999	[0, 0, 0]	n/a	FR1	1	R1317D
191.58	42.175	193627	INSTRUCT_END	n/a	n/a	n/a	-999	-999	[0, 0, 0]	n/a	FR1	1	R1317D
233.755	11.725	235800	MIC TEST_START	n/a	n/a	n/a	-999	-999	[0, 0, 0]	n/a	FR1	1	R1317D
245.48	0.01	247524	MIC TEST_END	n/a	n/a	n/a	-999	-999	[0, 0, 0]	n/a	FR1	1	R1317D
245.49	0.0	247534	TRIAL_START	n/a	n/a	n/a	-999	-1	[0, 0, 0]	n/a	FR1	1	R1317D
245.49	0.0	247534	TRIAL	n/a	n/a	n/a	-999	-1	[0, 0, 0]	n/a	FR1	1	R1317D
245.49	8.685	247534	WAITING_START	n/a	n/a	n/a	-999	-1	[0, 0, 0]	n/a	FR1	1	R1317D
254.175	0.0	256219	COUNTDOWN_START	n/a	n/a	n/a	-999	-1	[0, 0, 0]	n/a	FR1	1	R1317D
254.175	10.428	256219	WAITING_END	n/a	n/a	n/a	-999	-1	[0, 0, 0]	n/a	FR1	1	R1317D
264.603	0.001	266646	COUNTDOWN_END	n/a	n/a	n/a	-999	-1	[0, 0, 0]	n/a	FR1	1	R1317D
264.604	1.073	266647	ORIENT_START	n/a	n/a	n/a	-999	-1	[0, 0, 0]	n/a	FR1	1	R1317D
265.677	0.0	267720	ORIENT_END	n/a	n/a	n/a	-999	-1	[0, 0, 0]	n/a	FR1	1	R1317D
265.677	0.765	267720	ENCODING_START	n/a	n/a	n/a	-999	-1	[0, 0, 0]	n/a	FR1	1	R1317D
266.442	1.635	268485	WORD	n/a	n/a	IMAGE	1	-1	[0, 0, 0]	n/a	FR1	1	R1317D
268.077	0.784	270120	WORD_OFF	n/a	n/a	IMAGE	1	-1	[0, 0, 0]	n/a	FR1	1	R1317D
268.861	1.634	270904	WORD	n/a	n/a	RHINO	2	-1	[0, 0, 0]	n/a	FR1	1	R1317D
270.495	1.091	272538	WORD_OFF	n/a	n/a	RHINO	2	-1	[0, 0, 0]	n/a	FR1	1	R1317D
271.586	1.626	273629	WORD	n/a	n/a	COTTON	3	-1	[0, 0, 0]	n/a	FR1	1	R1317D
273.212	0.794	275255	WORD_OFF	n/a	n/a	COTTON	3	-1	[0, 0, 0]	n/a	FR1	1	R1317D
274.006	1.623	276049	WORD	n/a	n/a	RING	4	-1	[0, 0, 0]	n/a	FR1	1	R1317D
275.629	0.866	277672	WORD_OFF	n/a	n/a	RING	4	-1	[0, 0, 0]	n/a	FR1	1	R1317D
276.495	1.634	278538	WORD	n/a	n/a	BEAM	5	-1	[0, 0, 0]	n/a	FR1	1	R1317D
278.129	0.845	280172	WORD_OFF	n/a	n/a	BEAM	5	-1	[0, 0, 0]	n/a	FR1	1	R1317D
278.974	1.622	281017	WORD	n/a	n/a	CAMEL	6	-1	[0, 0, 0]	n/a	FR1	1	R1317D
280.596	0.857	282639	WORD_OFF	n/a	n/a	CAMEL	6	-1	[0, 0, 0]	n/a	FR1	1	R1317D
281.453	1.627	283496	WORD	n/a	n/a	FLOOD	7	-1	[0, 0, 0]	n/a	FR1	1	R1317D
283.08	0.839	285122	WORD_OFF	n/a	n/a	FLOOD	7	-1	[0, 0, 0]	n/a	FR1	1	R1317D
283.919	1.628	285961	WORD	n/a	n/a	WATCH	8	-1	[0, 0, 0]	n/a	FR1	1	R1317D
285.547	1.041	287589	WORD_OFF	n/a	n/a	WATCH	8	-1	[0, 0, 0]	n/a	FR1	1	R1317D
286.588	1.626	288630	WORD	n/a	n/a	CHEST	9	-1	[0, 0, 0]	n/a	FR1	1	R1317D
288.214	0.952	290256	WORD_OFF	n/a	n/a	CHEST	9	-1	[0, 0, 0]	n/a	FR1	1	R1317D
289.166	1.632	291208	WORD	n/a	n/a	TONGUE	10	-1	[0, 0, 0]	n/a	FR1	1	R1317D
290.798	1.002	292840	WORD_OFF	n/a	n/a	TONGUE	10	-1	[0, 0, 0]	n/a	FR1	1	R1317D
291.8	1.632	293842	WORD	n/a	n/a	BABY	11	-1	[0, 0, 0]	n/a	FR1	1	R1317D
293.432	0.807	295474	WORD_OFF	n/a	n/a	BABY	11	-1	[0, 0, 0]	n/a	FR1	1	R1317D
294.239	1.627	296281	WORD	n/a	n/a	WAGON	12	-1	[0, 0, 0]	n/a	FR1	1	R1317D
295.866	0.0	297908	DISTRACT_START	n/a	n/a	n/a	-999	-1	[0, 0, 0]	n/a	FR1	1	R1317D
295.866	0.0	297908	WORD_OFF	n/a	n/a	WAGON	12	-1	[0, 0, 0]	n/a	FR1	1	R1317D
295.866	0.0	297908	ENCODING_END	n/a	n/a	n/a	-999	-1	[0, 0, 0]	n/a	FR1	1	R1317D
295.866	0.016	297908	START	n/a	n/a	n/a	-999	-1	[-999, -999, -999]	n/a	FR1	1	R1317D
295.882	5.251	297924	PROB	5.251	n/a	n/a	-999	-1	[4, 2, 3]	9	FR1	1	R1317D
301.133	4.734	303175	PROB	4.734	n/a	n/a	-999	-1	[9, 3, 9]	21	FR1	1	R1317D
305.867	5.685	307908	PROB	5.685	n/a	n/a	-999	-1	[9, 6, 4]	19	FR1	1	R1317D
311.552	4.534	313593	PROB	4.534	n/a	n/a	-999	-1	[5, 4, 5]	14	FR1	1	R1317D
316.086	0.017	318127	STOP	n/a	n/a	n/a	-999	-1	[-999, -999, -999]	n/a	FR1	1	R1317D
316.103	0.522	318144	DISTRACT_END	n/a	n/a	n/a	-999	-1	[0, 0, 0]	n/a	FR1	1	R1317D
316.625	1.646	318666	RETRIEVAL_ORIENT_START	n/a	n/a	n/a	-999	-1	[0, 0, 0]	n/a	FR1	1	R1317D
318.271	0.0	320312	RETRIEVAL_ORIENT_END	n/a	n/a	n/a	-999	-1	[0, 0, 0]	n/a	FR1	1	R1317D
318.271	1.894	320312	REC_START	n/a	n/a	n/a	-999	-1	[0, 0, 0]	n/a	FR1	1	R1317D
320.165	1.495	322206	REC_WORD	1.495	n/a	IMAGE	-999	-1	[0, 0, 0]	n/a	FR1	1	R1317D
321.66	1.556	323701	REC_WORD	1.556	n/a	RHINO	-999	-1	[0, 0, 0]	n/a	FR1	1	R1317D
323.216	3.155	325256	REC_WORD	3.155	n/a	COTTON	-999	-1	[0, 0, 0]	n/a	FR1	1	R1317D
326.371	6.441	328411	REC_WORD	6.441	n/a	TONGUE	-999	-1	[0, 0, 0]	n/a	FR1	1	R1317D
332.812	2.856	334852	REC_WORD_VV	2.856	n/a	<>	-999	-1	[0, 0, 0]	n/a	FR1	1	R1317D
335.668	12.617	337708	REC_WORD	12.617	n/a	BABY	-999	-1	[0, 0, 0]	n/a	FR1	1	R1317D
348.285	0.0	350324	REC_END	n/a	n/a	n/a	-999	-1	[0, 0, 0]	n/a	FR1	1	R1317D
348.285	7.977	350324	PRACTICE_POST_INSTRUCT_START	n/a	n/a	n/a	-999	-1	[0, 0, 0]	n/a	FR1	1	R1317D
356.262	0.0	358301	PRACTICE_POST_INSTRUCT_END	n/a	n/a	n/a	-999	-1	[0, 0, 0]	n/a	FR1	1	R1317D
356.262	0.017	358301	TRIAL_END	n/a	n/a	n/a	-999	-1	[0, 0, 0]	n/a	FR1	1	R1317D
356.279	0.0	358318	WAITING_START	n/a	n/a	n/a	-999	1	[0, 0, 0]	n/a	FR1	1	R1317D
356.279	0.0	358318	TRIAL	n/a	n/a	n/a	-999	1	[0, 0, 0]	n/a	FR1	1	R1317D
356.279	4.232	358318	TRIAL_START	n/a	n/a	n/a	-999	1	[0, 0, 0]	n/a	FR1	1	R1317D
360.511	0.0	362550	WAITING_END	n/a	n/a	n/a	-999	1	[0, 0, 0]	n/a	FR1	1	R1317D
360.511	10.431	362550	COUNTDOWN_START	n/a	n/a	n/a	-999	1	[0, 0, 0]	n/a	FR1	1	R1317D
370.942	0.0	372980	COUNTDOWN_END	n/a	n/a	n/a	-999	1	[0, 0, 0]	n/a	FR1	1	R1317D
370.942	1.104	372980	ORIENT_START	n/a	n/a	n/a	-999	1	[0, 0, 0]	n/a	FR1	1	R1317D
372.046	0.001	374084	ORIENT_END	n/a	n/a	n/a	-999	1	[0, 0, 0]	n/a	FR1	1	R1317D
372.047	1.028	374085	ENCODING_START	n/a	n/a	n/a	-999	1	[0, 0, 0]	n/a	FR1	1	R1317D
373.075	1.638	375113	WORD	n/a	n/a	GRASS	1	1	[0, 0, 0]	n/a	FR1	1	R1317D
374.713	1.078	376751	WORD_OFF	n/a	n/a	GRASS	1	1	[0, 0, 0]	n/a	FR1	1	R1317D
375.791	1.623	377829	WORD	n/a	n/a	PLATE	2	1	[0, 0, 0]	n/a	FR1	1	R1317D
377.414	1.024	379452	WORD_OFF	n/a	n/a	PLATE	2	1	[0, 0, 0]	n/a	FR1	1	R1317D
378.438	1.626	380476	WORD	n/a	n/a	HEN	3	1	[0, 0, 0]	n/a	FR1	1	R1317D
380.064	1.135	382102	WORD_OFF	n/a	n/a	HEN	3	1	[0, 0, 0]	n/a	FR1	1	R1317D
381.199	1.633	383236	WORD	n/a	n/a	BOAT	4	1	[0, 0, 0]	n/a	FR1	1	R1317D
382.832	1.083	384869	WORD_OFF	n/a	n/a	BOAT	4	1	[0, 0, 0]	n/a	FR1	1	R1317D
383.915	1.634	385952	WORD	n/a	n/a	PURSE	5	1	[0, 0, 0]	n/a	FR1	1	R1317D
385.549	1.015	387586	WORD_OFF	n/a	n/a	PURSE	5	1	[0, 0, 0]	n/a	FR1	1	R1317D
386.564	1.635	388601	WORD	n/a	n/a	DEER	6	1	[0, 0, 0]	n/a	FR1	1	R1317D
388.199	0.811	390236	WORD_OFF	n/a	n/a	DEER	6	1	[0, 0, 0]	n/a	FR1	1	R1317D
389.01	1.623	391047	WORD	n/a	n/a	CAR	7	1	[0, 0, 0]	n/a	FR1	1	R1317D
390.633	0.792	392670	WORD_OFF	n/a	n/a	CAR	7	1	[0, 0, 0]	n/a	FR1	1	R1317D
391.425	1.625	393462	WORD	n/a	n/a	BEAN	8	1	[0, 0, 0]	n/a	FR1	1	R1317D
393.05	0.876	395087	WORD_OFF	n/a	n/a	BEAN	8	1	[0, 0, 0]	n/a	FR1	1	R1317D
393.926	1.624	395963	WORD	n/a	n/a	WEED	9	1	[0, 0, 0]	n/a	FR1	1	R1317D
395.55	0.899	397587	WORD_OFF	n/a	n/a	WEED	9	1	[0, 0, 0]	n/a	FR1	1	R1317D
396.449	1.635	398486	WORD	n/a	n/a	FLEA	10	1	[0, 0, 0]	n/a	FR1	1	R1317D
398.084	0.758	400121	WORD_OFF	n/a	n/a	FLEA	10	1	[0, 0, 0]	n/a	FR1	1	R1317D
398.842	1.626	400879	WORD	n/a	n/a	LAND	11	1	[0, 0, 0]	n/a	FR1	1	R1317D
400.468	0.815	402504	WORD_OFF	n/a	n/a	LAND	11	1	[0, 0, 0]	n/a	FR1	1	R1317D
401.283	1.636	403319	WORD	n/a	n/a	WEB	12	1	[0, 0, 0]	n/a	FR1	1	R1317D
402.919	0.0	404955	WORD_OFF	n/a	n/a	WEB	12	1	[0, 0, 0]	n/a	FR1	1	R1317D
402.919	0.0	404955	ENCODING_END	n/a	n/a	n/a	-999	1	[0, 0, 0]	n/a	FR1	1	R1317D
402.919	0.001	404955	DISTRACT_START	n/a	n/a	n/a	-999	1	[0, 0, 0]	n/a	FR1	1	R1317D
402.92	0.015	404956	START	n/a	n/a	n/a	-999	1	[-999, -999, -999]	n/a	FR1	1	R1317D
402.935	6.768	404971	PROB	6.768	n/a	n/a	-999	1	[3, 4, 2]	9	FR1	1	R1317D
409.703	3.484	411739	PROB	3.484	n/a	n/a	-999	1	[2, 7, 5]	14	FR1	1	R1317D
413.187	4.934	415223	PROB	4.934	n/a	n/a	-999	1	[9, 4, 4]	17	FR1	1	R1317D
418.121	4.202	420157	PROB	4.202	n/a	n/a	-999	1	[4, 2, 3]	9	FR1	1	R1317D
422.323	4.037	424358	PROB	4.037	n/a	n/a	-999	1	[5, 9, 2]	16	FR1	1	R1317D
426.36	0.014	428395	STOP	n/a	n/a	n/a	-999	1	[-999, -999, -999]	n/a	FR1	1	R1317D
426.374	0.685	428409	DISTRACT_END	n/a	n/a	n/a	-999	1	[0, 0, 0]	n/a	FR1	1	R1317D
427.059	1.698	429094	RETRIEVAL_ORIENT_START	n/a	n/a	n/a	-999	1	[0, 0, 0]	n/a	FR1	1	R1317D
428.757	0.0	430792	REC_START	n/a	n/a	n/a	-999	1	[0, 0, 0]	n/a	FR1	1	R1317D
428.757	1.335	430792	RETRIEVAL_ORIENT_END	n/a	n/a	n/a	-999	1	[0, 0, 0]	n/a	FR1	1	R1317D
430.092	1.482	432127	REC_WORD	1.482	n/a	HEN	3	1	[0, 0, 0]	n/a	FR1	1	R1317D
431.574	1.925	433609	REC_WORD	1.925	n/a	BOAT	4	1	[0, 0, 0]	n/a	FR1	1	R1317D
433.499	10.102	435534	REC_WORD	10.102	n/a	WEED	9	1	[0, 0, 0]	n/a	FR1	1	R1317D
443.601	8.577	445635	REC_WORD	8.577	n/a	IMAGE	-999	1	[0, 0, 0]	n/a	FR1	1	R1317D
452.178	6.591	454212	REC_WORD	6.591	n/a	DISK	-999	1	[0, 0, 0]	n/a	FR1	1	R1317D
458.769	0.001	460802	REC_END	n/a	n/a	n/a	-999	1	[0, 0, 0]	n/a	FR1	1	R1317D
458.77	0.014	460803	TRIAL_END	n/a	n/a	n/a	-999	1	[0, 0, 0]	n/a	FR1	1	R1317D
458.784	0.0	460817	TRIAL	n/a	n/a	n/a	-999	2	[0, 0, 0]	n/a	FR1	1	R1317D
458.784	0.0	460817	WAITING_START	n/a	n/a	n/a	-999	2	[0, 0, 0]	n/a	FR1	1	R1317D
458.784	2.496	460817	TRIAL_START	n/a	n/a	n/a	-999	2	[0, 0, 0]	n/a	FR1	1	R1317D
461.28	0.0	463313	WAITING_END	n/a	n/a	n/a	-999	2	[0, 0, 0]	n/a	FR1	1	R1317D
461.28	10.43	463313	COUNTDOWN_START	n/a	n/a	n/a	-999	2	[0, 0, 0]	n/a	FR1	1	R1317D
471.71	0.0	473743	COUNTDOWN_END	n/a	n/a	n/a	-999	2	[0, 0, 0]	n/a	FR1	1	R1317D
471.71	1.038	473743	ORIENT_START	n/a	n/a	n/a	-999	2	[0, 0, 0]	n/a	FR1	1	R1317D
472.748	0.001	474781	ORIENT_END	n/a	n/a	n/a	-999	2	[0, 0, 0]	n/a	FR1	1	R1317D
472.749	1.006	474782	ENCODING_START	n/a	n/a	n/a	-999	2	[0, 0, 0]	n/a	FR1	1	R1317D
473.755	1.611	475788	WORD	n/a	n/a	STEAK	1	2	[0, 0, 0]	n/a	FR1	1	R1317D
475.366	1.078	477399	WORD_OFF	n/a	n/a	STEAK	1	2	[0, 0, 0]	n/a	FR1	1	R1317D
476.444	1.621	478477	WORD	n/a	n/a	CROWN	2	2	[0, 0, 0]	n/a	FR1	1	R1317D
478.065	1.112	480097	WORD_OFF	n/a	n/a	CROWN	2	2	[0, 0, 0]	n/a	FR1	1	R1317D
479.177	1.622	481209	WORD	n/a	n/a	TOOL	3	2	[0, 0, 0]	n/a	FR1	1	R1317D
480.799	0.817	482831	WORD_OFF	n/a	n/a	TOOL	3	2	[0, 0, 0]	n/a	FR1	1	R1317D
481.616	1.635	483648	WORD	n/a	n/a	LOCK	4	2	[0, 0, 0]	n/a	FR1	1	R1317D
483.251	1.007	485283	WORD_OFF	n/a	n/a	LOCK	4	2	[0, 0, 0]	n/a	FR1	1	R1317D
484.258	1.626	486290	WORD	n/a	n/a	SEED	5	2	[0, 0, 0]	n/a	FR1	1	R1317D
485.884	1.105	487916	WORD_OFF	n/a	n/a	SEED	5	2	[0, 0, 0]	n/a	FR1	1	R1317D
486.989	1.628	489021	WORD	n/a	n/a	OWL	6	2	[0, 0, 0]	n/a	FR1	1	R1317D
488.617	0.988	490649	WORD_OFF	n/a	n/a	OWL	6	2	[0, 0, 0]	n/a	FR1	1	R1317D
489.605	1.631	491637	WORD	n/a	n/a	CHALK	7	2	[0, 0, 0]	n/a	FR1	1	R1317D
491.236	0.953	493268	WORD_OFF	n/a	n/a	CHALK	7	2	[0, 0, 0]	n/a	FR1	1	R1317D
492.189	1.63	494221	WORD	n/a	n/a	RIB	8	2	[0, 0, 0]	n/a	FR1	1	R1317D
493.819	1.041	495851	WORD_OFF	n/a	n/a	RIB	8	2	[0, 0, 0]	n/a	FR1	1	R1317D
494.86	1.626	496892	WORD	n/a	n/a	PIE	9	2	[0, 0, 0]	n/a	FR1	1	R1317D
496.486	1.02	498518	WORD_OFF	n/a	n/a	PIE	9	2	[0, 0, 0]	n/a	FR1	1	R1317D
497.506	1.63	499537	WORD	n/a	n/a	CUP	10	2	[0, 0, 0]	n/a	FR1	1	R1317D
499.136	0.834	501167	WORD_OFF	n/a	n/a	CUP	10	2	[0, 0, 0]	n/a	FR1	1	R1317D
499.97	1.633	502001	WORD	n/a	n/a	HAT	11	2	[0, 0, 0]	n/a	FR1	1	R1317D
501.603	0.855	503634	WORD_OFF	n/a	n/a	HAT	11	2	[0, 0, 0]	n/a	FR1	1	R1317D
502.458	1.629	504489	WORD	n/a	n/a	PIPE	12	2	[0, 0, 0]	n/a	FR1	1	R1317D
504.087	0.0	506118	WORD_OFF	n/a	n/a	PIPE	12	2	[0, 0, 0]	n/a	FR1	1	R1317D
504.087	0.001	506118	ENCODING_END	n/a	n/a	n/a	-999	2	[0, 0, 0]	n/a	FR1	1	R1317D
504.088	0.0	506119	DISTRACT_START	n/a	n/a	n/a	-999	2	[0, 0, 0]	n/a	FR1	1	R1317D
504.088	0.015	506119	START	n/a	n/a	n/a	-999	2	[-999, -999, -999]	n/a	FR1	1	R1317D
504.103	5.401	506134	PROB	5.401	n/a	n/a	-999	2	[4, 7, 2]	9	FR1	1	R1317D
509.504	4.468	511535	PROB	4.468	n/a	n/a	-999	2	[2, 4, 6]	12	FR1	1	R1317D
513.972	3.601	516003	PROB	3.601	n/a	n/a	-999	2	[5, 3, 2]	10	FR1	1	R1317D
517.573	3.017	519603	PROB	3.017	n/a	n/a	-999	2	[7, 2, 2]	11	FR1	1	R1317D
520.59	5.198	522620	PROB	5.198	n/a	n/a	-999	2	[1, 4, 8]	13	FR1	1	R1317D
525.788	0.02	527818	STOP	n/a	n/a	n/a	-999	2	[-999, -999, -999]	n/a	FR1	1	R1317D
525.808	0.675	527838	DISTRACT_END	n/a	n/a	n/a	-999	2	[0, 0, 0]	n/a	FR1	1	R1317D
526.483	1.708	528513	RETRIEVAL_ORIENT_START	n/a	n/a	n/a	-999	2	[0, 0, 0]	n/a	FR1	1	R1317D
528.191	0.001	530221	RETRIEVAL_ORIENT_END	n/a	n/a	n/a	-999	2	[0, 0, 0]	n/a	FR1	1	R1317D
528.192	2.368	530222	REC_START	n/a	n/a	n/a	-999	2	[0, 0, 0]	n/a	FR1	1	R1317D
530.56	2.354	532590	REC_WORD	2.354	n/a	TOOL	3	2	[0, 0, 0]	n/a	FR1	1	R1317D
532.914	1.057	534944	REC_WORD	1.057	n/a	RIB	8	2	[0, 0, 0]	n/a	FR1	1	R1317D
533.971	2.944	536001	REC_WORD	2.944	n/a	STEAK	1	2	[0, 0, 0]	n/a	FR1	1	R1317D
536.915	21.29	538944	REC_WORD	21.29	n/a	PEN	-999	2	[0, 0, 0]	n/a	FR1	1	R1317D
558.205	0.0	560233	REC_END	n/a	n/a	n/a	-999	2	[0, 0, 0]	n/a	FR1	1	R1317D
558.205	0.016	560233	TRIAL_END	n/a	n/a	n/a	-999	2	[0, 0, 0]	n/a	FR1	1	R1317D
558.221	0.0	560249	TRIAL_START	n/a	n/a	n/a	-999	3	[0, 0, 0]	n/a	FR1	1	R1317D
558.221	0.0	560249	TRIAL	n/a	n/a	n/a	-999	3	[0, 0, 0]	n/a	FR1	1	R1317D
558.221	1.976	560249	WAITING_START	n/a	n/a	n/a	-999	3	[0, 0, 0]	n/a	FR1	1	R1317D
560.197	0.001	562225	WAITING_END	n/a	n/a	n/a	-999	3	[0, 0, 0]	n/a	FR1	1	R1317D
560.198	10.428	562226	COUNTDOWN_START	n/a	n/a	n/a	-999	3	[0, 0, 0]	n/a	FR1	1	R1317D
570.626	0.0	572654	COUNTDOWN_END	n/a	n/a	n/a	-999	3	[0, 0, 0]	n/a	FR1	1	R1317D
570.626	1.04	572654	ORIENT_START	n/a	n/a	n/a	-999	3	[0, 0, 0]	n/a	FR1	1	R1317D
571.666	0.0	573694	ORIENT_END	n/a	n/a	n/a	-999	3	[0, 0, 0]	n/a	FR1	1	R1317D
571.666	0.876	573694	ENCODING_START	n/a	n/a	n/a	-999	3	[0, 0, 0]	n/a	FR1	1	R1317D
572.542	1.624	574570	WORD	n/a	n/a	DRESS	1	3	[0, 0, 0]	n/a	FR1	1	R1317D
574.166	0.916	576194	WORD_OFF	n/a	n/a	DRESS	1	3	[0, 0, 0]	n/a	FR1	1	R1317D
575.082	1.635	577110	WORD	n/a	n/a	ROOT	2	3	[0, 0, 0]	n/a	FR1	1	R1317D
576.717	1.144	578744	WORD_OFF	n/a	n/a	ROOT	2	3	[0, 0, 0]	n/a	FR1	1	R1317D
577.861	1.623	579888	WORD	n/a	n/a	HORSE	3	3	[0, 0, 0]	n/a	FR1	1	R1317D
579.484	0.815	581511	WORD_OFF	n/a	n/a	HORSE	3	3	[0, 0, 0]	n/a	FR1	1	R1317D
580.299	1.635	582326	WORD	n/a	n/a	SPARK	4	3	[0, 0, 0]	n/a	FR1	1	R1317D
581.934	1.018	583961	WORD_OFF	n/a	n/a	SPARK	4	3	[0, 0, 0]	n/a	FR1	1	R1317D
582.952	1.633	584979	WORD	n/a	n/a	THREAD	5	3	[0, 0, 0]	n/a	FR1	1	R1317D
584.585	1.038	586612	WORD_OFF	n/a	n/a	THREAD	5	3	[0, 0, 0]	n/a	FR1	1	R1317D
585.623	1.63	587650	WORD	n/a	n/a	LEAF	6	3	[0, 0, 0]	n/a	FR1	1	R1317D
587.253	0.893	589280	WORD_OFF	n/a	n/a	LEAF	6	3	[0, 0, 0]	n/a	FR1	1	R1317D
588.146	1.623	590173	WORD	n/a	n/a	SHOE	7	3	[0, 0, 0]	n/a	FR1	1	R1317D
589.769	0.891	591796	WORD_OFF	n/a	n/a	SHOE	7	3	[0, 0, 0]	n/a	FR1	1	R1317D
590.66	1.611	592687	WORD	n/a	n/a	WOOD	8	3	[0, 0, 0]	n/a	FR1	1	R1317D
592.271	0.892	594298	WORD_OFF	n/a	n/a	WOOD	8	3	[0, 0, 0]	n/a	FR1	1	R1317D
593.163	1.624	595190	WORD	n/a	n/a	WORLD	9	3	[0, 0, 0]	n/a	FR1	1	R1317D
594.787	1.04	596814	WORD_OFF	n/a	n/a	WORLD	9	3	[0, 0, 0]	n/a	FR1	1	R1317D
595.827	1.627	597853	WORD	n/a	n/a	FLAME	10	3	[0, 0, 0]	n/a	FR1	1	R1317D
597.454	1.034	599480	WORD_OFF	n/a	n/a	FLAME	10	3	[0, 0, 0]	n/a	FR1	1	R1317D
598.488	1.633	600514	WORD	n/a	n/a	PIG	11	3	[0, 0, 0]	n/a	FR1	1	R1317D
600.121	0.758	602147	WORD_OFF	n/a	n/a	PIG	11	3	[0, 0, 0]	n/a	FR1	1	R1317D
600.879	1.626	602905	WORD	n/a	n/a	CUBE	12	3	[0, 0, 0]	n/a	FR1	1	R1317D
602.505	0.0	604531	WORD_OFF	n/a	n/a	CUBE	12	3	[0, 0, 0]	n/a	FR1	1	R1317D
602.505	0.001	604531	ENCODING_END	n/a	n/a	n/a	-999	3	[0, 0, 0]	n/a	FR1	1	R1317D
602.506	0.0	604532	DISTRACT_START	n/a	n/a	n/a	-999	3	[0, 0, 0]	n/a	FR1	1	R1317D
602.506	0.015	604532	START	n/a	n/a	n/a	-999	3	[-999, -999, -999]	n/a	FR1	1	R1317D
602.521	3.852	604547	PROB	3.852	n/a	n/a	-999	3	[7, 3, 2]	12	FR1	1	R1317D
606.373	3.75	608399	PROB	3.75	n/a	n/a	-999	3	[1, 5, 4]	10	FR1	1	R1317D
610.123	2.917	612149	PROB	2.917	n/a	n/a	-999	3	[4, 2, 8]	14	FR1	1	R1317D
613.04	3.567	615066	PROB	3.567	n/a	n/a	-999	3	[6, 2, 4]	12	FR1	1	R1317D
616.607	6.457	618632	PROB	6.457	n/a	n/a	-999	3	[8, 6, 7]	21	FR1	1	R1317D
623.064	0.011	625089	STOP	n/a	n/a	n/a	-999	3	[-999, -999, -999]	n/a	FR1	1	R1317D
623.075	0.53	625100	DISTRACT_END	n/a	n/a	n/a	-999	3	[0, 0, 0]	n/a	FR1	1	R1317D
623.605	1.722	625630	RETRIEVAL_ORIENT_START	n/a	n/a	n/a	-999	3	[0, 0, 0]	n/a	FR1	1	R1317D
625.327	0.0	627352	RETRIEVAL_ORIENT_END	n/a	n/a	n/a	-999	3	[0, 0, 0]	n/a	FR1	1	R1317D
625.327	3.701	627352	REC_START	n/a	n/a	n/a	-999	3	[0, 0, 0]	n/a	FR1	1	R1317D
629.028	1.45	631053	REC_WORD_VV	1.45	n/a	<>	-999	3	[0, 0, 0]	n/a	FR1	1	R1317D
630.478	2.244	632503	REC_WORD	2.244	n/a	DRESS	1	3	[0, 0, 0]	n/a	FR1	1	R1317D
632.722	5.567	634747	REC_WORD	5.567	n/a	HEN	-999	3	[0, 0, 0]	n/a	FR1	1	R1317D
638.289	9.084	640313	REC_WORD	9.084	n/a	ROOT	2	3	[0, 0, 0]	n/a	FR1	1	R1317D
647.373	1.18	649397	REC_WORD	1.18	n/a	CUBE	12	3	[0, 0, 0]	n/a	FR1	1	R1317D
648.553	6.787	650577	REC_WORD	6.787	n/a	CUB	-999	3	[0, 0, 0]	n/a	FR1	1	R1317D
655.34	0.0	657363	REC_END	n/a	n/a	n/a	-999	3	[0, 0, 0]	n/a	FR1	1	R1317D
655.34	0.014	657363	TRIAL_END	n/a	n/a	n/a	-999	3	[0, 0, 0]	n/a	FR1	1	R1317D
655.354	0.0	657377	TRIAL_START	n/a	n/a	n/a	-999	4	[0, 0, 0]	n/a	FR1	1	R1317D
655.354	0.0	657377	TRIAL	n/a	n/a	n/a	-999	4	[0, 0, 0]	n/a	FR1	1	R1317D
655.354	2.478	657377	WAITING_START	n/a	n/a	n/a	-999	4	[0, 0, 0]	n/a	FR1	1	R1317D
657.832	0.0	659855	COUNTDOWN_START	n/a	n/a	n/a	-999	4	[0, 0, 0]	n/a	FR1	1	R1317D
657.832	10.428	659855	WAITING_END	n/a	n/a	n/a	-999	4	[0, 0, 0]	n/a	FR1	1	R1317D
668.26	0.0	670283	COUNTDOWN_END	n/a	n/a	n/a	-999	4	[0, 0, 0]	n/a	FR1	1	R1317D
668.26	1.274	670283	ORIENT_START	n/a	n/a	n/a	-999	4	[0, 0, 0]	n/a	FR1	1	R1317D
669.534	0.0	671557	ORIENT_END	n/a	n/a	n/a	-999	4	[0, 0, 0]	n/a	FR1	1	R1317D
669.534	0.907	671557	ENCODING_START	n/a	n/a	n/a	-999	4	[0, 0, 0]	n/a	FR1	1	R1317D
670.441	1.626	672464	WORD	n/a	n/a	BREAD	1	4	[0, 0, 0]	n/a	FR1	1	R1317D
672.067	0.834	674090	WORD_OFF	n/a	n/a	BREAD	1	4	[0, 0, 0]	n/a	FR1	1	R1317D
672.901	1.617	674923	WORD	n/a	n/a	SUIT	2	4	[0, 0, 0]	n/a	FR1	1	R1317D
674.518	1.042	676540	WORD_OFF	n/a	n/a	SUIT	2	4	[0, 0, 0]	n/a	FR1	1	R1317D
675.56	1.625	677582	WORD	n/a	n/a	BARN	3	4	[0, 0, 0]	n/a	FR1	1	R1317D
677.185	0.92	679207	WORD_OFF	n/a	n/a	BARN	3	4	[0, 0, 0]	n/a	FR1	1	R1317D
678.105	1.631	680127	WORD	n/a	n/a	SHIRT	4	4	[0, 0, 0]	n/a	FR1	1	R1317D
679.736	0.84	681758	WORD_OFF	n/a	n/a	SHIRT	4	4	[0, 0, 0]	n/a	FR1	1	R1317D
680.576	1.627	682598	WORD	n/a	n/a	HOUSE	5	4	[0, 0, 0]	n/a	FR1	1	R1317D
682.203	1.013	684225	WORD_OFF	n/a	n/a	HOUSE	5	4	[0, 0, 0]	n/a	FR1	1	R1317D
683.216	1.637	685238	WORD	n/a	n/a	ANT	6	4	[0, 0, 0]	n/a	FR1	1	R1317D
684.853	0.812	686875	WORD_OFF	n/a	n/a	ANT	6	4	[0, 0, 0]	n/a	FR1	1	R1317D
685.665	1.623	687687	WORD	n/a	n/a	CHIEF	7	4	[0, 0, 0]	n/a	FR1	1	R1317D
687.288	1.082	689310	WORD_OFF	n/a	n/a	CHIEF	7	4	[0, 0, 0]	n/a	FR1	1	R1317D
688.37	1.634	690392	WORD	n/a	n/a	FILM	8	4	[0, 0, 0]	n/a	FR1	1	R1317D
690.004	0.964	692026	WORD_OFF	n/a	n/a	FILM	8	4	[0, 0, 0]	n/a	FR1	1	R1317D
690.968	1.637	692990	WORD	n/a	n/a	SMILE	9	4	[0, 0, 0]	n/a	FR1	1	R1317D
692.605	0.93	694626	WORD_OFF	n/a	n/a	SMILE	9	4	[0, 0, 0]	n/a	FR1	1	R1317D
693.535	1.637	695556	WORD	n/a	n/a	PEARL	10	4	[0, 0, 0]	n/a	FR1	1	R1317D
695.172	0.831	697193	WORD_OFF	n/a	n/a	PEARL	10	4	[0, 0, 0]	n/a	FR1	1	R1317D
696.003	1.636	698024	WORD	n/a	n/a	MULE	11	4	[0, 0, 0]	n/a	FR1	1	R1317D
697.639	1.101	699660	WORD_OFF	n/a	n/a	MULE	11	4	[0, 0, 0]	n/a	FR1	1	R1317D
698.74	1.617	700761	WORD	n/a	n/a	COUCH	12	4	[0, 0, 0]	n/a	FR1	1	R1317D
700.357	0.0	702378	WORD_OFF	n/a	n/a	COUCH	12	4	[0, 0, 0]	n/a	FR1	1	R1317D
700.357	0.001	702378	ENCODING_END	n/a	n/a	n/a	-999	4	[0, 0, 0]	n/a	FR1	1	R1317D
700.358	0.0	702379	DISTRACT_START	n/a	n/a	n/a	-999	4	[0, 0, 0]	n/a	FR1	1	R1317D
700.358	0.015	702379	START	n/a	n/a	n/a	-999	4	[-999, -999, -999]	n/a	FR1	1	R1317D
700.373	6.601	702394	PROB	6.601	n/a	n/a	-999	4	[5, 7, 2]	14	FR1	1	R1317D
706.974	3.1	708995	PROB	3.1	n/a	n/a	-999	4	[1, 7, 4]	12	FR1	1	R1317D
710.074	3.534	712095	PROB	3.534	n/a	n/a	-999	4	[5, 1, 1]	7	FR1	1	R1317D
713.608	6.268	715628	PROB	6.268	n/a	n/a	-999	4	[9, 2, 7]	18	FR1	1	R1317D
719.876	3.686	721896	PROB	3.686	n/a	n/a	-999	4	[6, 7, 2]	15	FR1	1	R1317D
723.562	0.015	725582	STOP	n/a	n/a	n/a	-999	4	[-999, -999, -999]	n/a	FR1	1	R1317D
723.577	0.672	725597	DISTRACT_END	n/a	n/a	n/a	-999	4	[0, 0, 0]	n/a	FR1	1	R1317D
724.249	1.645	726269	RETRIEVAL_ORIENT_START	n/a	n/a	n/a	-999	4	[0, 0, 0]	n/a	FR1	1	R1317D
725.894	0.0	727914	RETRIEVAL_ORIENT_END	n/a	n/a	n/a	-999	4	[0, 0, 0]	n/a	FR1	1	R1317D
725.894	2.435	727914	REC_START	n/a	n/a	n/a	-999	4	[0, 0, 0]	n/a	FR1	1	R1317D
728.329	4.879	730349	REC_WORD	4.879	n/a	SUIT	2	4	[0, 0, 0]	n/a	FR1	1	R1317D
733.208	22.699	735227	REC_WORD	22.699	n/a	CUBE	-999	4	[0, 0, 0]	n/a	FR1	1	R1317D
755.907	0.0	757925	REC_END	n/a	n/a	n/a	-999	4	[0, 0, 0]	n/a	FR1	1	R1317D
755.907	0.015	757925	TRIAL_END	n/a	n/a	n/a	-999	4	[0, 0, 0]	n/a	FR1	1	R1317D
755.922	0.0	757940	TRIAL_START	n/a	n/a	n/a	-999	5	[0, 0, 0]	n/a	FR1	1	R1317D
755.922	0.0	757940	TRIAL	n/a	n/a	n/a	-999	5	[0, 0, 0]	n/a	FR1	1	R1317D
755.922	2.661	757940	WAITING_START	n/a	n/a	n/a	-999	5	[0, 0, 0]	n/a	FR1	1	R1317D
758.583	0.001	760601	WAITING_END	n/a	n/a	n/a	-999	5	[0, 0, 0]	n/a	FR1	1	R1317D
758.584	10.428	760602	COUNTDOWN_START	n/a	n/a	n/a	-999	5	[0, 0, 0]	n/a	FR1	1	R1317D
769.012	0.0	771030	ORIENT_START	n/a	n/a	n/a	-999	5	[0, 0, 0]	n/a	FR1	1	R1317D
769.012	1.173	771030	COUNTDOWN_END	n/a	n/a	n/a	-999	5	[0, 0, 0]	n/a	FR1	1	R1317D
770.185	0.001	772203	ORIENT_END	n/a	n/a	n/a	-999	5	[0, 0, 0]	n/a	FR1	1	R1317D
770.186	0.763	772204	ENCODING_START	n/a	n/a	n/a	-999	5	[0, 0, 0]	n/a	FR1	1	R1317D
770.949	1.637	772966	WORD	n/a	n/a	BRANCH	1	5	[0, 0, 0]	n/a	FR1	1	R1317D
772.586	0.896	774603	WORD_OFF	n/a	n/a	BRANCH	1	5	[0, 0, 0]	n/a	FR1	1	R1317D
773.482	1.638	775499	WORD	n/a	n/a	SNOW	2	5	[0, 0, 0]	n/a	FR1	1	R1317D
775.12	0.859	777137	WORD_OFF	n/a	n/a	SNOW	2	5	[0, 0, 0]	n/a	FR1	1	R1317D
775.979	1.624	777996	WORD	n/a	n/a	GUARD	3	5	[0, 0, 0]	n/a	FR1	1	R1317D
777.603	1.085	779620	WORD_OFF	n/a	n/a	GUARD	3	5	[0, 0, 0]	n/a	FR1	1	R1317D
778.688	1.634	780705	WORD	n/a	n/a	MOUTH	4	5	[0, 0, 0]	n/a	FR1	1	R1317D
780.322	0.841	782339	WORD_OFF	n/a	n/a	MOUTH	4	5	[0, 0, 0]	n/a	FR1	1	R1317D
781.163	1.625	783180	WORD	n/a	n/a	MAZE	5	5	[0, 0, 0]	n/a	FR1	1	R1317D
782.788	0.828	784805	WORD_OFF	n/a	n/a	MAZE	5	5	[0, 0, 0]	n/a	FR1	1	R1317D
783.616	1.623	785633	WORD	n/a	n/a	LIP	6	5	[0, 0, 0]	n/a	FR1	1	R1317D
785.239	0.822	787256	WORD_OFF	n/a	n/a	LIP	6	5	[0, 0, 0]	n/a	FR1	1	R1317D
786.061	1.628	788078	WORD	n/a	n/a	HEART	7	5	[0, 0, 0]	n/a	FR1	1	R1317D
787.689	0.866	789706	WORD_OFF	n/a	n/a	HEART	7	5	[0, 0, 0]	n/a	FR1	1	R1317D
788.555	1.634	790572	WORD	n/a	n/a	FOG	8	5	[0, 0, 0]	n/a	FR1	1	R1317D
790.189	0.895	792205	WORD_OFF	n/a	n/a	FOG	8	5	[0, 0, 0]	n/a	FR1	1	R1317D
791.084	1.622	793100	WORD	n/a	n/a	GLASS	9	5	[0, 0, 0]	n/a	FR1	1	R1317D
792.706	1.142	794722	WORD_OFF	n/a	n/a	GLASS	9	5	[0, 0, 0]	n/a	FR1	1	R1317D
793.848	1.625	795864	WORD	n/a	n/a	TEA	10	5	[0, 0, 0]	n/a	FR1	1	R1317D
795.473	0.845	797489	WORD_OFF	n/a	n/a	TEA	10	5	[0, 0, 0]	n/a	FR1	1	R1317D
796.318	1.622	798334	WORD	n/a	n/a	TRAY	11	5	[0, 0, 0]	n/a	FR1	1	R1317D
797.94	0.857	799956	WORD_OFF	n/a	n/a	TRAY	11	5	[0, 0, 0]	n/a	FR1	1	R1317D
798.797	1.627	800813	WORD	n/a	n/a	ROAD	12	5	[0, 0, 0]	n/a	FR1	1	R1317D
800.424	0.001	802440	WORD_OFF	n/a	n/a	ROAD	12	5	[0, 0, 0]	n/a	FR1	1	R1317D
800.425	0.0	802441	DISTRACT_START	n/a	n/a	n/a	-999	5	[0, 0, 0]	n/a	FR1	1	R1317D
800.425	0.0	802441	ENCODING_END	n/a	n/a	n/a	-999	5	[0, 0, 0]	n/a	FR1	1	R1317D
800.425	0.016	802441	START	n/a	n/a	n/a	-999	5	[-999, -999, -999]	n/a	FR1	1	R1317D
800.441	4.634	802457	PROB	4.634	n/a	n/a	-999	5	[8, 1, 4]	13	FR1	1	R1317D
805.075	3.567	807091	PROB	3.567	n/a	n/a	-999	5	[6, 3, 6]	15	FR1	1	R1317D
808.642	5.652	810658	PROB	5.652	n/a	n/a	-999	5	[9, 3, 6]	18	FR1	1	R1317D
814.294	3.133	816309	PROB	3.133	n/a	n/a	-999	5	[1, 5, 9]	15	FR1	1	R1317D
817.427	6.202	819442	PROB	6.202	n/a	n/a	-999	5	[9, 8, 3]	20	FR1	1	R1317D
823.629	0.016	825644	STOP	n/a	n/a	n/a	-999	5	[-999, -999, -999]	n/a	FR1	1	R1317D
823.645	0.598	825660	DISTRACT_END	n/a	n/a	n/a	-999	5	[0, 0, 0]	n/a	FR1	1	R1317D
824.243	1.636	826258	RETRIEVAL_ORIENT_START	n/a	n/a	n/a	-999	5	[0, 0, 0]	n/a	FR1	1	R1317D
825.879	0.0	827894	RETRIEVAL_ORIENT_END	n/a	n/a	n/a	-999	5	[0, 0, 0]	n/a	FR1	1	R1317D
825.879	1.304	827894	REC_START	n/a	n/a	n/a	-999	5	[0, 0, 0]	n/a	FR1	1	R1317D
827.183	1.822	829198	REC_WORD	1.822	n/a	BRANCH	1	5	[0, 0, 0]	n/a	FR1	1	R1317D
829.005	2.676	831019	REC_WORD	2.676	n/a	SNOW	2	5	[0, 0, 0]	n/a	FR1	1	R1317D
831.681	3.098	833695	REC_WORD	3.098	n/a	TRAY	11	5	[0, 0, 0]	n/a	FR1	1	R1317D
834.779	2.3	836793	REC_WORD	2.3	n/a	LIP	6	5	[0, 0, 0]	n/a	FR1	1	R1317D
837.079	5.959	839093	REC_WORD	5.959	n/a	HEART	7	5	[0, 0, 0]	n/a	FR1	1	R1317D
843.038	6.504	845052	REC_WORD_VV	6.504	n/a	<>	-999	5	[0, 0, 0]	n/a	FR1	1	R1317D
849.542	6.349	851555	REC_WORD	6.349	n/a	STOMACH	-999	5	[0, 0, 0]	n/a	FR1	1	R1317D
855.891	0.0	857904	REC_END	n/a	n/a	n/a	-999	5	[0, 0, 0]	n/a	FR1	1	R1317D
855.891	0.016	857904	TRIAL_END	n/a	n/a	n/a	-999	5	[0, 0, 0]	n/a	FR1	1	R1317D
855.907	0.001	857920	TRIAL_START	n/a	n/a	n/a	-999	6	[0, 0, 0]	n/a	FR1	1	R1317D
855.908	0.0	857921	TRIAL	n/a	n/a	n/a	-999	6	[0, 0, 0]	n/a	FR1	1	R1317D
855.908	2.077	857921	WAITING_START	n/a	n/a	n/a	-999	6	[0, 0, 0]	n/a	FR1	1	R1317D
857.985	0.0	859998	WAITING_END	n/a	n/a	n/a	-999	6	[0, 0, 0]	n/a	FR1	1	R1317D
857.985	10.429	859998	COUNTDOWN_START	n/a	n/a	n/a	-999	6	[0, 0, 0]	n/a	FR1	1	R1317D
868.414	0.0	870426	ORIENT_START	n/a	n/a	n/a	-999	6	[0, 0, 0]	n/a	FR1	1	R1317D
868.414	1.19	870426	COUNTDOWN_END	n/a	n/a	n/a	-999	6	[0, 0, 0]	n/a	FR1	1	R1317D
869.604	0.0	871616	ORIENT_END	n/a	n/a	n/a	-999	6	[0, 0, 0]	n/a	FR1	1	R1317D
869.604	1.065	871616	ENCODING_START	n/a	n/a	n/a	-999	6	[0, 0, 0]	n/a	FR1	1	R1317D
870.669	1.636	872681	WORD	n/a	n/a	STAIR	1	6	[0, 0, 0]	n/a	FR1	1	R1317D
872.305	0.987	874317	WORD_OFF	n/a	n/a	STAIR	1	6	[0, 0, 0]	n/a	FR1	1	R1317D
873.292	1.629	875304	WORD	n/a	n/a	SLEEVE	2	6	[0, 0, 0]	n/a	FR1	1	R1317D
874.921	1.068	876933	WORD_OFF	n/a	n/a	SLEEVE	2	6	[0, 0, 0]	n/a	FR1	1	R1317D
875.989	1.633	878001	WORD	n/a	n/a	STORM	3	6	[0, 0, 0]	n/a	FR1	1	R1317D
877.622	0.863	879634	WORD_OFF	n/a	n/a	STORM	3	6	[0, 0, 0]	n/a	FR1	1	R1317D
878.485	1.62	880497	WORD	n/a	n/a	SALT	4	6	[0, 0, 0]	n/a	FR1	1	R1317D
880.105	1.023	882117	WORD_OFF	n/a	n/a	SALT	4	6	[0, 0, 0]	n/a	FR1	1	R1317D
881.128	1.628	883140	WORD	n/a	n/a	PEACH	5	6	[0, 0, 0]	n/a	FR1	1	R1317D
882.756	1.101	884768	WORD_OFF	n/a	n/a	PEACH	5	6	[0, 0, 0]	n/a	FR1	1	R1317D
883.857	1.633	885869	WORD	n/a	n/a	VASE	6	6	[0, 0, 0]	n/a	FR1	1	R1317D
885.49	1.118	887502	WORD_OFF	n/a	n/a	VASE	6	6	[0, 0, 0]	n/a	FR1	1	R1317D
886.608	1.633	888620	WORD	n/a	n/a	TREE	7	6	[0, 0, 0]	n/a	FR1	1	R1317D
888.241	1.07	890252	WORD_OFF	n/a	n/a	TREE	7	6	[0, 0, 0]	n/a	FR1	1	R1317D
889.311	1.63	891322	WORD	n/a	n/a	MAIL	8	6	[0, 0, 0]	n/a	FR1	1	R1317D
890.941	1.04	892952	WORD_OFF	n/a	n/a	MAIL	8	6	[0, 0, 0]	n/a	FR1	1	R1317D
891.981	1.627	893992	WORD	n/a	n/a	MOON	9	6	[0, 0, 0]	n/a	FR1	1	R1317D
893.608	0.946	895619	WORD_OFF	n/a	n/a	MOON	9	6	[0, 0, 0]	n/a	FR1	1	R1317D
894.554	1.621	896565	WORD	n/a	n/a	WAVE	10	6	[0, 0, 0]	n/a	FR1	1	R1317D
896.175	1.051	898186	WORD_OFF	n/a	n/a	WAVE	10	6	[0, 0, 0]	n/a	FR1	1	R1317D
897.226	1.633	899237	WORD	n/a	n/a	SAIL	11	6	[0, 0, 0]	n/a	FR1	1	R1317D
898.859	1.074	900870	WORD_OFF	n/a	n/a	SAIL	11	6	[0, 0, 0]	n/a	FR1	1	R1317D
899.933	1.626	901944	WORD	n/a	n/a	LAMP	12	6	[0, 0, 0]	n/a	FR1	1	R1317D
901.559	0.001	903570	WORD_OFF	n/a	n/a	LAMP	12	6	[0, 0, 0]	n/a	FR1	1	R1317D
901.56	0.0	903571	DISTRACT_START	n/a	n/a	n/a	-999	6	[0, 0, 0]	n/a	FR1	1	R1317D
901.56	0.0	903571	ENCODING_END	n/a	n/a	n/a	-999	6	[0, 0, 0]	n/a	FR1	1	R1317D
901.56	0.016	903571	START	n/a	n/a	n/a	-999	6	[-999, -999, -999]	n/a	FR1	1	R1317D
901.576	4.785	903587	PROB	4.785	n/a	n/a	-999	6	[5, 8, 5]	18	FR1	1	R1317D
906.361	4.866	908372	PROB	4.866	n/a	n/a	-999	6	[7, 1, 5]	13	FR1	1	R1317D
911.227	6.103	913237	PROB	6.103	n/a	n/a	-999	6	[9, 2, 6]	17	FR1	1	R1317D
917.33	4.166	919340	PROB	4.166	n/a	n/a	-999	6	[2, 6, 9]	17	FR1	1	R1317D
921.496	7.457	923506	PROB	7.457	n/a	n/a	-999	6	[4, 7, 5]	16	FR1	1	R1317D
928.953	0.011	930962	STOP	n/a	n/a	n/a	-999	6	[-999, -999, -999]	n/a	FR1	1	R1317D
928.964	0.61	930973	DISTRACT_END	n/a	n/a	n/a	-999	6	[0, 0, 0]	n/a	FR1	1	R1317D
929.574	1.607	931583	RETRIEVAL_ORIENT_START	n/a	n/a	n/a	-999	6	[0, 0, 0]	n/a	FR1	1	R1317D
931.181	0.001	933190	RETRIEVAL_ORIENT_END	n/a	n/a	n/a	-999	6	[0, 0, 0]	n/a	FR1	1	R1317D
931.182	1.454	933191	REC_START	n/a	n/a	n/a	-999	6	[0, 0, 0]	n/a	FR1	1	R1317D
932.636	1.624	934645	REC_WORD	1.624	n/a	MAIL	8	6	[0, 0, 0]	n/a	FR1	1	R1317D
934.26	2.387	936269	REC_WORD	2.387	n/a	MOON	9	6	[0, 0, 0]	n/a	FR1	1	R1317D
936.647	10.569	938656	REC_WORD	10.569	n/a	WAVE	10	6	[0, 0, 0]	n/a	FR1	1	R1317D
947.216	6.194	949224	REC_WORD	6.194	n/a	TREE	7	6	[0, 0, 0]	n/a	FR1	1	R1317D
953.41	7.783	955418	REC_WORD	7.783	n/a	BRANCH	-999	6	[0, 0, 0]	n/a	FR1	1	R1317D
961.193	0.0	963201	REC_END	n/a	n/a	n/a	-999	6	[0, 0, 0]	n/a	FR1	1	R1317D
961.193	0.014	963201	TRIAL_END	n/a	n/a	n/a	-999	6	[0, 0, 0]	n/a	FR1	1	R1317D
961.207	0.001	963215	TRIAL_START	n/a	n/a	n/a	-999	7	[0, 0, 0]	n/a	FR1	1	R1317D
961.208	0.0	963216	TRIAL	n/a	n/a	n/a	-999	7	[0, 0, 0]	n/a	FR1	1	R1317D
961.208	2.563	963216	WAITING_START	n/a	n/a	n/a	-999	7	[0, 0, 0]	n/a	FR1	1	R1317D
963.771	0.0	965779	WAITING_END	n/a	n/a	n/a	-999	7	[0, 0, 0]	n/a	FR1	1	R1317D
963.771	10.428	965779	COUNTDOWN_START	n/a	n/a	n/a	-999	7	[0, 0, 0]	n/a	FR1	1	R1317D
974.199	0.001	976206	COUNTDOWN_END	n/a	n/a	n/a	-999	7	[0, 0, 0]	n/a	FR1	1	R1317D
974.2	1.239	976207	ORIENT_START	n/a	n/a	n/a	-999	7	[0, 0, 0]	n/a	FR1	1	R1317D
975.439	0.001	977446	ORIENT_END	n/a	n/a	n/a	-999	7	[0, 0, 0]	n/a	FR1	1	R1317D
975.44	1.029	977447	ENCODING_START	n/a	n/a	n/a	-999	7	[0, 0, 0]	n/a	FR1	1	R1317D
976.469	1.621	978476	WORD	n/a	n/a	FACE	1	7	[0, 0, 0]	n/a	FR1	1	R1317D
978.09	1.061	980097	WORD_OFF	n/a	n/a	FACE	1	7	[0, 0, 0]	n/a	FR1	1	R1317D
979.151	1.623	981158	WORD	n/a	n/a	CLAY	2	7	[0, 0, 0]	n/a	FR1	1	R1317D
980.774	0.878	982781	WORD_OFF	n/a	n/a	CLAY	2	7	[0, 0, 0]	n/a	FR1	1	R1317D
981.652	1.623	983659	WORD	n/a	n/a	BEACH	3	7	[0, 0, 0]	n/a	FR1	1	R1317D
983.275	0.818	985282	WORD_OFF	n/a	n/a	BEACH	3	7	[0, 0, 0]	n/a	FR1	1	R1317D
984.093	1.632	986100	WORD	n/a	n/a	STEM	4	7	[0, 0, 0]	n/a	FR1	1	R1317D
985.725	0.752	987731	WORD_OFF	n/a	n/a	STEM	4	7	[0, 0, 0]	n/a	FR1	1	R1317D
986.477	1.631	988483	WORD	n/a	n/a	PALM	5	7	[0, 0, 0]	n/a	FR1	1	R1317D
988.108	1.046	990114	WORD_OFF	n/a	n/a	PALM	5	7	[0, 0, 0]	n/a	FR1	1	R1317D
989.154	1.622	991160	WORD	n/a	n/a	KITE	6	7	[0, 0, 0]	n/a	FR1	1	R1317D
990.776	1.121	992782	WORD_OFF	n/a	n/a	KITE	6	7	[0, 0, 0]	n/a	FR1	1	R1317D
991.897	1.629	993903	WORD	n/a	n/a	SHELL	7	7	[0, 0, 0]	n/a	FR1	1	R1317D
993.526	0.797	995532	WORD_OFF	n/a	n/a	SHELL	7	7	[0, 0, 0]	n/a	FR1	1	R1317D
994.323	1.637	996329	WORD	n/a	n/a	WALL	8	7	[0, 0, 0]	n/a	FR1	1	R1317D
995.96	1.085	997966	WORD_OFF	n/a	n/a	WALL	8	7	[0, 0, 0]	n/a	FR1	1	R1317D
997.045	1.632	999051	WORD	n/a	n/a	CLOCK	9	7	[0, 0, 0]	n/a	FR1	1	R1317D
998.677	0.968	1000683	WORD_OFF	n/a	n/a	CLOCK	9	7	[0, 0, 0]	n/a	FR1	1	R1317D
999.645	1.634	1001651	WORD	n/a	n/a	SOAP	10	7	[0, 0, 0]	n/a	FR1	1	R1317D
1001.279	1.087	1003285	WORD_OFF	n/a	n/a	SOAP	10	7	[0, 0, 0]	n/a	FR1	1	R1317D
1002.366	1.629	1004372	WORD	n/a	n/a	PLANT	11	7	[0, 0, 0]	n/a	FR1	1	R1317D
1003.995	1.137	1006001	WORD_OFF	n/a	n/a	PLANT	11	7	[0, 0, 0]	n/a	FR1	1	R1317D
1005.132	1.629	1007137	WORD	n/a	n/a	GOAT	12	7	[0, 0, 0]	n/a	FR1	1	R1317D
1006.761	0.001	1008766	WORD_OFF	n/a	n/a	GOAT	12	7	[0, 0, 0]	n/a	FR1	1	R1317D
1006.762	0.0	1008767	DISTRACT_START	n/a	n/a	n/a	-999	7	[0, 0, 0]	n/a	FR1	1	R1317D
1006.762	0.001	1008767	ENCODING_END	n/a	n/a	n/a	-999	7	[0, 0, 0]	n/a	FR1	1	R1317D
1006.763	0.015	1008768	START	n/a	n/a	n/a	-999	7	[-999, -999, -999]	n/a	FR1	1	R1317D
1006.778	3.569	1008783	PROB	3.569	n/a	n/a	-999	7	[1, 9, 3]	13	FR1	1	R1317D
1010.347	4.699	1012352	PROB	4.699	n/a	n/a	-999	7	[6, 6, 6]	18	FR1	1	R1317D
1015.046	2.551	1017051	PROB	2.551	n/a	n/a	-999	7	[1, 5, 5]	11	FR1	1	R1317D
1017.597	3.434	1019602	PROB	3.434	n/a	n/a	-999	7	[7, 2, 1]	10	FR1	1	R1317D
1021.031	4.551	1023036	PROB	4.551	n/a	n/a	-999	7	[3, 1, 7]	11	FR1	1	R1317D
1025.582	5.848	1027586	PROB	5.848	n/a	n/a	-999	7	[6, 2, 7]	15	FR1	1	R1317D
1031.43	0.02	1033434	STOP	n/a	n/a	n/a	-999	7	[-999, -999, -999]	n/a	FR1	1	R1317D
1031.45	0.631	1033454	DISTRACT_END	n/a	n/a	n/a	-999	7	[0, 0, 0]	n/a	FR1	1	R1317D
1032.081	1.536	1034085	RETRIEVAL_ORIENT_START	n/a	n/a	n/a	-999	7	[0, 0, 0]	n/a	FR1	1	R1317D
1033.617	0.0	1035621	RETRIEVAL_ORIENT_END	n/a	n/a	n/a	-999	7	[0, 0, 0]	n/a	FR1	1	R1317D
1033.617	2.081	1035621	REC_START	n/a	n/a	n/a	-999	7	[0, 0, 0]	n/a	FR1	1	R1317D
1035.698	1.536	1037702	REC_WORD	1.536	n/a	PLANT	11	7	[0, 0, 0]	n/a	FR1	1	R1317D
1037.234	2.517	1039238	REC_WORD	2.517	n/a	GOAT	12	7	[0, 0, 0]	n/a	FR1	1	R1317D
1039.751	4.125	1041755	REC_WORD	4.125	n/a	WAVE	-999	7	[0, 0, 0]	n/a	FR1	1	R1317D
1043.876	19.754	1045879	REC_WORD_VV	19.754	n/a	<>	-999	7	[0, 0, 0]	n/a	FR1	1	R1317D
1063.63	0.0	1065632	TRIAL_END	n/a	n/a	n/a	-999	7	[0, 0, 0]	n/a	FR1	1	R1317D
1063.63	0.015	1065632	REC_END	n/a	n/a	n/a	-999	7	[0, 0, 0]	n/a	FR1	1	R1317D
1063.645	0.0	1065647	TRIAL_START	n/a	n/a	n/a	-999	8	[0, 0, 0]	n/a	FR1	1	R1317D
1063.645	0.0	1065647	TRIAL	n/a	n/a	n/a	-999	8	[0, 0, 0]	n/a	FR1	1	R1317D
1063.645	1.411	1065647	WAITING_START	n/a	n/a	n/a	-999	8	[0, 0, 0]	n/a	FR1	1	R1317D
1065.056	0.0	1067058	WAITING_END	n/a	n/a	n/a	-999	8	[0, 0, 0]	n/a	FR1	1	R1317D
1065.056	10.429	1067058	COUNTDOWN_START	n/a	n/a	n/a	-999	8	[0, 0, 0]	n/a	FR1	1	R1317D
1075.485	0.0	1077487	COUNTDOWN_END	n/a	n/a	n/a	-999	8	[0, 0, 0]	n/a	FR1	1	R1317D
1075.485	1.106	1077487	ORIENT_START	n/a	n/a	n/a	-999	8	[0, 0, 0]	n/a	FR1	1	R1317D
1076.591	0.001	1078593	ORIENT_END	n/a	n/a	n/a	-999	8	[0, 0, 0]	n/a	FR1	1	R1317D
1076.592	0.845	1078594	ENCODING_START	n/a	n/a	n/a	-999	8	[0, 0, 0]	n/a	FR1	1	R1317D
1077.437	1.638	1079439	WORD	n/a	n/a	TOAD	1	8	[0, 0, 0]	n/a	FR1	1	R1317D
1079.075	1.03	1081077	WORD_OFF	n/a	n/a	TOAD	1	8	[0, 0, 0]	n/a	FR1	1	R1317D
1080.105	1.637	1082107	WORD	n/a	n/a	WAND	2	8	[0, 0, 0]	n/a	FR1	1	R1317D
1081.742	1.145	1083744	WORD_OFF	n/a	n/a	WAND	2	8	[0, 0, 0]	n/a	FR1	1	R1317D
1082.887	1.622	1084888	WORD	n/a	n/a	NET	3	8	[0, 0, 0]	n/a	FR1	1	R1317D
1084.509	0.958	1086510	WORD_OFF	n/a	n/a	NET	3	8	[0, 0, 0]	n/a	FR1	1	R1317D
1085.467	1.626	1087468	WORD	n/a	n/a	STORE	4	8	[0, 0, 0]	n/a	FR1	1	R1317D
1087.093	1.063	1089094	WORD_OFF	n/a	n/a	STORE	4	8	[0, 0, 0]	n/a	FR1	1	R1317D
1088.156	1.621	1090157	WORD	n/a	n/a	JET	5	8	[0, 0, 0]	n/a	FR1	1	R1317D
1089.777	0.82	1091778	WORD_OFF	n/a	n/a	JET	5	8	[0, 0, 0]	n/a	FR1	1	R1317D
1090.597	1.63	1092598	WORD	n/a	n/a	FUR	6	8	[0, 0, 0]	n/a	FR1	1	R1317D
1092.227	0.951	1094228	WORD_OFF	n/a	n/a	FUR	6	8	[0, 0, 0]	n/a	FR1	1	R1317D
1093.178	1.633	1095179	WORD	n/a	n/a	ROPE	7	8	[0, 0, 0]	n/a	FR1	1	R1317D
1094.811	0.823	1096812	WORD_OFF	n/a	n/a	ROPE	7	8	[0, 0, 0]	n/a	FR1	1	R1317D
1095.634	1.629	1097635	WORD	n/a	n/a	PANTS	8	8	[0, 0, 0]	n/a	FR1	1	R1317D
1097.263	0.973	1099264	WORD_OFF	n/a	n/a	PANTS	8	8	[0, 0, 0]	n/a	FR1	1	R1317D
1098.236	1.626	1100237	WORD	n/a	n/a	NAIL	9	8	[0, 0, 0]	n/a	FR1	1	R1317D
1099.862	1.128	1101863	WORD_OFF	n/a	n/a	NAIL	9	8	[0, 0, 0]	n/a	FR1	1	R1317D
1100.99	1.622	1102991	WORD	n/a	n/a	EAR	10	8	[0, 0, 0]	n/a	FR1	1	R1317D
1102.612	0.93	1104612	WORD_OFF	n/a	n/a	EAR	10	8	[0, 0, 0]	n/a	FR1	1	R1317D
1103.542	1.621	1105542	WORD	n/a	n/a	SEAT	11	8	[0, 0, 0]	n/a	FR1	1	R1317D
1105.163	1.097	1107163	WORD_OFF	n/a	n/a	SEAT	11	8	[0, 0, 0]	n/a	FR1	1	R1317D
1106.26	1.637	1108260	WORD	n/a	n/a	STOVE	12	8	[0, 0, 0]	n/a	FR1	1	R1317D
1107.897	0.0	1109897	WORD_OFF	n/a	n/a	STOVE	12	8	[0, 0, 0]	n/a	FR1	1	R1317D
1107.897	0.001	1109897	ENCODING_END	n/a	n/a	n/a	-999	8	[0, 0, 0]	n/a	FR1	1	R1317D
1107.898	0.0	1109898	DISTRACT_START	n/a	n/a	n/a	-999	8	[0, 0, 0]	n/a	FR1	1	R1317D
1107.898	0.015	1109898	START	n/a	n/a	n/a	-999	8	[-999, -999, -999]	n/a	FR1	1	R1317D
1107.913	4.751	1109913	PROB	4.751	n/a	n/a	-999	8	[5, 2, 2]	9	FR1	1	R1317D
1112.664	4.118	1114664	PROB	4.118	n/a	n/a	-999	8	[8, 2, 7]	17	FR1	1	R1317D
1116.782	3.485	1118782	PROB	3.485	n/a	n/a	-999	8	[6, 5, 2]	13	FR1	1	R1317D
1120.267	4.516	1122267	PROB	4.516	n/a	n/a	-999	8	[5, 8, 2]	15	FR1	1	R1317D
1124.783	4.325	1126782	PROB	4.325	n/a	n/a	-999	8	[1, 6, 3]	10	FR1	1	R1317D
1129.108	0.009	1131107	STOP	n/a	n/a	n/a	-999	8	[-999, -999, -999]	n/a	FR1	1	R1317D
1129.117	0.648	1131116	DISTRACT_END	n/a	n/a	n/a	-999	8	[0, 0, 0]	n/a	FR1	1	R1317D
1129.765	1.554	1131764	RETRIEVAL_ORIENT_START	n/a	n/a	n/a	-999	8	[0, 0, 0]	n/a	FR1	1	R1317D
1131.319	0.0	1133318	RETRIEVAL_ORIENT_END	n/a	n/a	n/a	-999	8	[0, 0, 0]	n/a	FR1	1	R1317D
1131.319	1.025	1133318	REC_START	n/a	n/a	n/a	-999	8	[0, 0, 0]	n/a	FR1	1	R1317D
1132.344	1.0	1134343	REC_WORD	1.0	n/a	STOVE	12	8	[0, 0, 0]	n/a	FR1	1	R1317D
1133.344	1.0	1135343	REC_WORD_VV	1.0	n/a	<>	-999	8	[0, 0, 0]	n/a	FR1	1	R1317D
1134.344	2.04	1136343	REC_WORD_VV	2.04	n/a	<>	-999	8	[0, 0, 0]	n/a	FR1	1	R1317D
1136.384	4.188	1138383	REC_WORD	4.188	n/a	PLANT	-999	8	[0, 0, 0]	n/a	FR1	1	R1317D
1140.572	12.142	1142571	REC_WORD_VV	12.142	n/a	<>	-999	8	[0, 0, 0]	n/a	FR1	1	R1317D
1152.714	0.253	1154712	REC_WORD_VV	0.253	n/a	<>	-999	8	[0, 0, 0]	n/a	FR1	1	R1317D
1152.967	8.364	1154965	REC_WORD	8.364	n/a	EAR	10	8	[0, 0, 0]	n/a	FR1	1	R1317D
1161.331	0.001	1163328	REC_END	n/a	n/a	n/a	-999	8	[0, 0, 0]	n/a	FR1	1	R1317D
1161.332	0.016	1163329	TRIAL_END	n/a	n/a	n/a	-999	8	[0, 0, 0]	n/a	FR1	1	R1317D
1161.348	0.0	1163345	TRIAL_START	n/a	n/a	n/a	-999	9	[0, 0, 0]	n/a	FR1	1	R1317D
1161.348	0.0	1163345	TRIAL	n/a	n/a	n/a	-999	9	[0, 0, 0]	n/a	FR1	1	R1317D
1161.348	2.676	1163345	WAITING_START	n/a	n/a	n/a	-999	9	[0, 0, 0]	n/a	FR1	1	R1317D
1164.024	0.0	1166021	WAITING_END	n/a	n/a	n/a	-999	9	[0, 0, 0]	n/a	FR1	1	R1317D
1164.024	10.43	1166021	COUNTDOWN_START	n/a	n/a	n/a	-999	9	[0, 0, 0]	n/a	FR1	1	R1317D
1174.454	0.0	1176451	ORIENT_START	n/a	n/a	n/a	-999	9	[0, 0, 0]	n/a	FR1	1	R1317D
1174.454	1.022	1176451	COUNTDOWN_END	n/a	n/a	n/a	-999	9	[0, 0, 0]	n/a	FR1	1	R1317D
1175.476	0.0	1177473	ORIENT_END	n/a	n/a	n/a	-999	9	[0, 0, 0]	n/a	FR1	1	R1317D
1175.476	0.881	1177473	ENCODING_START	n/a	n/a	n/a	-999	9	[0, 0, 0]	n/a	FR1	1	R1317D
1176.357	1.636	1178354	WORD	n/a	n/a	CALF	1	9	[0, 0, 0]	n/a	FR1	1	R1317D
1177.993	0.786	1179990	WORD_OFF	n/a	n/a	CALF	1	9	[0, 0, 0]	n/a	FR1	1	R1317D
1178.779	1.632	1180776	WORD	n/a	n/a	FORK	2	9	[0, 0, 0]	n/a	FR1	1	R1317D
1180.411	0.988	1182407	WORD_OFF	n/a	n/a	FORK	2	9	[0, 0, 0]	n/a	FR1	1	R1317D
1181.399	1.628	1183395	WORD	n/a	n/a	CROW	3	9	[0, 0, 0]	n/a	FR1	1	R1317D
1183.027	1.132	1185023	WORD_OFF	n/a	n/a	CROW	3	9	[0, 0, 0]	n/a	FR1	1	R1317D
1184.159	1.635	1186155	WORD	n/a	n/a	ROCK	4	9	[0, 0, 0]	n/a	FR1	1	R1317D
1185.794	1.027	1187790	WORD_OFF	n/a	n/a	ROCK	4	9	[0, 0, 0]	n/a	FR1	1	R1317D
1186.821	1.624	1188817	WORD	n/a	n/a	OAK	5	9	[0, 0, 0]	n/a	FR1	1	R1317D
1188.445	0.933	1190441	WORD_OFF	n/a	n/a	OAK	5	9	[0, 0, 0]	n/a	FR1	1	R1317D
1189.378	1.634	1191374	WORD	n/a	n/a	INK	6	9	[0, 0, 0]	n/a	FR1	1	R1317D
1191.012	1.008	1193008	WORD_OFF	n/a	n/a	INK	6	9	[0, 0, 0]	n/a	FR1	1	R1317D
1192.02	1.626	1194016	WORD	n/a	n/a	ELF	7	9	[0, 0, 0]	n/a	FR1	1	R1317D
1193.646	1.044	1195642	WORD_OFF	n/a	n/a	ELF	7	9	[0, 0, 0]	n/a	FR1	1	R1317D
1194.69	1.607	1196686	WORD	n/a	n/a	BOMB	8	9	[0, 0, 0]	n/a	FR1	1	R1317D
1196.297	1.126	1198293	WORD_OFF	n/a	n/a	BOMB	8	9	[0, 0, 0]	n/a	FR1	1	R1317D
1197.423	1.624	1199419	WORD	n/a	n/a	TEETH	9	9	[0, 0, 0]	n/a	FR1	1	R1317D
1199.047	0.892	1201043	WORD_OFF	n/a	n/a	TEETH	9	9	[0, 0, 0]	n/a	FR1	1	R1317D
1199.939	1.625	1201934	WORD	n/a	n/a	BROOM	10	9	[0, 0, 0]	n/a	FR1	1	R1317D
1201.564	1.021	1203559	WORD_OFF	n/a	n/a	BROOM	10	9	[0, 0, 0]	n/a	FR1	1	R1317D
1202.585	1.629	1204580	WORD	n/a	n/a	MOLE	11	9	[0, 0, 0]	n/a	FR1	1	R1317D
1204.214	1.013	1206209	WORD_OFF	n/a	n/a	MOLE	11	9	[0, 0, 0]	n/a	FR1	1	R1317D
1205.227	1.638	1207222	WORD	n/a	n/a	WOLF	12	9	[0, 0, 0]	n/a	FR1	1	R1317D
1206.865	0.0	1208860	ENCODING_END	n/a	n/a	n/a	-999	9	[0, 0, 0]	n/a	FR1	1	R1317D
1206.865	0.0	1208860	DISTRACT_START	n/a	n/a	n/a	-999	9	[0, 0, 0]	n/a	FR1	1	R1317D
1206.865	0.001	1208860	WORD_OFF	n/a	n/a	WOLF	12	9	[0, 0, 0]	n/a	FR1	1	R1317D
1206.866	0.015	1208861	START	n/a	n/a	n/a	-999	9	[-999, -999, -999]	n/a	FR1	1	R1317D
1206.881	4.785	1208876	PROB	4.785	n/a	n/a	-999	9	[2, 8, 5]	15	FR1	1	R1317D
1211.666	5.702	1213661	PROB	5.702	n/a	n/a	-999	9	[7, 8, 3]	18	FR1	1	R1317D
1217.368	4.249	1219363	PROB	4.249	n/a	n/a	-999	9	[8, 8, 6]	22	FR1	1	R1317D
1221.617	2.635	1223611	PROB	2.635	n/a	n/a	-999	9	[2, 6, 3]	11	FR1	1	R1317D
1224.252	7.523	1226246	PROB	7.523	n/a	n/a	-999	9	[9, 4, 3]	16	FR1	1	R1317D
1231.775	0.011	1233769	STOP	n/a	n/a	n/a	-999	9	[-999, -999, -999]	n/a	FR1	1	R1317D
1231.786	0.579	1233780	DISTRACT_END	n/a	n/a	n/a	-999	9	[0, 0, 0]	n/a	FR1	1	R1317D
1232.365	1.655	1234359	RETRIEVAL_ORIENT_START	n/a	n/a	n/a	-999	9	[0, 0, 0]	n/a	FR1	1	R1317D
1234.02	0.0	1236014	RETRIEVAL_ORIENT_END	n/a	n/a	n/a	-999	9	[0, 0, 0]	n/a	FR1	1	R1317D
1234.02	1.814	1236014	REC_START	n/a	n/a	n/a	-999	9	[0, 0, 0]	n/a	FR1	1	R1317D
1235.834	4.208	1237828	REC_WORD	4.208	n/a	CALF	1	9	[0, 0, 0]	n/a	FR1	1	R1317D
1240.042	2.956	1242035	REC_WORD	2.956	n/a	ROCK	4	9	[0, 0, 0]	n/a	FR1	1	R1317D
1242.998	10.049	1244991	REC_WORD	10.049	n/a	CROW	3	9	[0, 0, 0]	n/a	FR1	1	R1317D
1253.047	10.986	1255040	REC_WORD	10.986	n/a	CROW	3	9	[0, 0, 0]	n/a	FR1	1	R1317D
1264.033	0.0	1266025	TRIAL_END	n/a	n/a	n/a	-999	9	[0, 0, 0]	n/a	FR1	1	R1317D
1264.033	0.014	1266025	REC_END	n/a	n/a	n/a	-999	9	[0, 0, 0]	n/a	FR1	1	R1317D
1264.047	0.001	1266039	TRIAL_START	n/a	n/a	n/a	-999	10	[0, 0, 0]	n/a	FR1	1	R1317D
1264.048	0.0	1266040	TRIAL	n/a	n/a	n/a	-999	10	[0, 0, 0]	n/a	FR1	1	R1317D
1264.048	2.511	1266040	WAITING_START	n/a	n/a	n/a	-999	10	[0, 0, 0]	n/a	FR1	1	R1317D
1266.559	0.0	1268551	WAITING_END	n/a	n/a	n/a	-999	10	[0, 0, 0]	n/a	FR1	1	R1317D
1266.559	10.429	1268551	COUNTDOWN_START	n/a	n/a	n/a	-999	10	[0, 0, 0]	n/a	FR1	1	R1317D
1276.988	0.001	1278980	COUNTDOWN_END	n/a	n/a	n/a	-999	10	[0, 0, 0]	n/a	FR1	1	R1317D
1276.989	1.222	1278981	ORIENT_START	n/a	n/a	n/a	-999	10	[0, 0, 0]	n/a	FR1	1	R1317D
1278.211	0.001	1280202	ORIENT_END	n/a	n/a	n/a	-999	10	[0, 0, 0]	n/a	FR1	1	R1317D
1278.212	0.973	1280203	ENCODING_START	n/a	n/a	n/a	-999	10	[0, 0, 0]	n/a	FR1	1	R1317D
1279.185	1.627	1281176	WORD	n/a	n/a	WING	1	10	[0, 0, 0]	n/a	FR1	1	R1317D
1280.812	1.042	1282803	WORD_OFF	n/a	n/a	WING	1	10	[0, 0, 0]	n/a	FR1	1	R1317D
1281.854	1.625	1283845	WORD	n/a	n/a	BOOT	2	10	[0, 0, 0]	n/a	FR1	1	R1317D
1283.479	0.8	1285470	WORD_OFF	n/a	n/a	BOOT	2	10	[0, 0, 0]	n/a	FR1	1	R1317D
1284.279	1.634	1286270	WORD	n/a	n/a	FLUTE	3	10	[0, 0, 0]	n/a	FR1	1	R1317D
1285.913	0.786	1287904	WORD_OFF	n/a	n/a	FLUTE	3	10	[0, 0, 0]	n/a	FR1	1	R1317D
1286.699	1.632	1288690	WORD	n/a	n/a	STAR	4	10	[0, 0, 0]	n/a	FR1	1	R1317D
1288.331	0.869	1290322	WORD_OFF	n/a	n/a	STAR	4	10	[0, 0, 0]	n/a	FR1	1	R1317D
1289.2	1.63	1291191	WORD	n/a	n/a	STICK	5	10	[0, 0, 0]	n/a	FR1	1	R1317D
1290.83	0.849	1292821	WORD_OFF	n/a	n/a	STICK	5	10	[0, 0, 0]	n/a	FR1	1	R1317D
1291.679	1.636	1293670	WORD	n/a	n/a	FAN	6	10	[0, 0, 0]	n/a	FR1	1	R1317D
1293.315	1.141	1295306	WORD_OFF	n/a	n/a	FAN	6	10	[0, 0, 0]	n/a	FR1	1	R1317D
1294.456	1.625	1296447	WORD	n/a	n/a	RUG	7	10	[0, 0, 0]	n/a	FR1	1	R1317D
1296.081	0.781	1298072	WORD_OFF	n/a	n/a	RUG	7	10	[0, 0, 0]	n/a	FR1	1	R1317D
1296.862	1.636	1298852	WORD	n/a	n/a	SNAIL	8	10	[0, 0, 0]	n/a	FR1	1	R1317D
1298.498	0.961	1300488	WORD_OFF	n/a	n/a	SNAIL	8	10	[0, 0, 0]	n/a	FR1	1	R1317D
1299.459	1.623	1301449	WORD	n/a	n/a	YARD	9	10	[0, 0, 0]	n/a	FR1	1	R1317D
1301.082	1.034	1303072	WORD_OFF	n/a	n/a	YARD	9	10	[0, 0, 0]	n/a	FR1	1	R1317D
1302.116	1.633	1304106	WORD	n/a	n/a	CLOTH	10	10	[0, 0, 0]	n/a	FR1	1	R1317D
1303.749	1.093	1305739	WORD_OFF	n/a	n/a	CLOTH	10	10	[0, 0, 0]	n/a	FR1	1	R1317D
1304.842	1.624	1306832	WORD	n/a	n/a	SEAL	11	10	[0, 0, 0]	n/a	FR1	1	R1317D
1306.466	0.787	1308456	WORD_OFF	n/a	n/a	SEAL	11	10	[0, 0, 0]	n/a	FR1	1	R1317D
1307.253	1.631	1309243	WORD	n/a	n/a	BRIDGE	12	10	[0, 0, 0]	n/a	FR1	1	R1317D
1308.884	0.0	1310874	WORD_OFF	n/a	n/a	BRIDGE	12	10	[0, 0, 0]	n/a	FR1	1	R1317D
1308.884	0.0	1310874	ENCODING_END	n/a	n/a	n/a	-999	10	[0, 0, 0]	n/a	FR1	1	R1317D
1308.884	0.001	1310874	DISTRACT_START	n/a	n/a	n/a	-999	10	[0, 0, 0]	n/a	FR1	1	R1317D
1308.885	0.015	1310875	START	n/a	n/a	n/a	-999	10	[-999, -999, -999]	n/a	FR1	1	R1317D
1308.9	5.217	1310890	PROB	5.217	n/a	n/a	-999	10	[4, 5, 8]	17	FR1	1	R1317D
1314.117	6.068	1316107	PROB	6.068	n/a	n/a	-999	10	[5, 9, 7]	21	FR1	1	R1317D
1320.185	5.968	1322174	PROB	5.968	n/a	n/a	-999	10	[9, 7, 8]	24	FR1	1	R1317D
1326.153	3.91	1328142	PROB	3.91	n/a	n/a	-999	10	[6, 3, 1]	10	FR1	1	R1317D
1330.063	0.008	1332052	STOP	n/a	n/a	n/a	-999	10	[-999, -999, -999]	n/a	FR1	1	R1317D
1330.071	0.579	1332060	DISTRACT_END	n/a	n/a	n/a	-999	10	[0, 0, 0]	n/a	FR1	1	R1317D
1330.65	1.589	1332639	RETRIEVAL_ORIENT_START	n/a	n/a	n/a	-999	10	[0, 0, 0]	n/a	FR1	1	R1317D
1332.239	0.0	1334228	RETRIEVAL_ORIENT_END	n/a	n/a	n/a	-999	10	[0, 0, 0]	n/a	FR1	1	R1317D
1332.239	1.18	1334228	REC_START	n/a	n/a	n/a	-999	10	[0, 0, 0]	n/a	FR1	1	R1317D
1333.419	1.201	1335408	REC_WORD	1.201	n/a	BOOT	2	10	[0, 0, 0]	n/a	FR1	1	R1317D
1334.62	2.722	1336609	REC_WORD	2.722	n/a	FLUTE	3	10	[0, 0, 0]	n/a	FR1	1	R1317D
1337.342	2.397	1339330	REC_WORD	2.397	n/a	STAR	4	10	[0, 0, 0]	n/a	FR1	1	R1317D
1339.739	2.063	1341727	REC_WORD	2.063	n/a	RUG	7	10	[0, 0, 0]	n/a	FR1	1	R1317D
1341.802	16.9	1343790	REC_WORD	16.9	n/a	SNAIL	8	10	[0, 0, 0]	n/a	FR1	1	R1317D
1358.702	3.55	1360689	REC_WORD_VV	3.55	n/a	<>	-999	10	[0, 0, 0]	n/a	FR1	1	R1317D
1362.252	0.0	1364239	TRIAL_END	n/a	n/a	n/a	-999	10	[0, 0, 0]	n/a	FR1	1	R1317D
1362.252	0.015	1364239	REC_END	n/a	n/a	n/a	-999	10	[0, 0, 0]	n/a	FR1	1	R1317D
1362.267	0.001	1364254	TRIAL_START	n/a	n/a	n/a	-999	11	[0, 0, 0]	n/a	FR1	1	R1317D
1362.268	0.0	1364255	TRIAL	n/a	n/a	n/a	-999	11	[0, 0, 0]	n/a	FR1	1	R1317D
1362.268	23.963	1364255	WAITING_START	n/a	n/a	n/a	-999	11	[0, 0, 0]	n/a	FR1	1	R1317D
1386.231	0.001	1388217	WAITING_END	n/a	n/a	n/a	-999	11	[0, 0, 0]	n/a	FR1	1	R1317D
1386.232	10.428	1388218	COUNTDOWN_START	n/a	n/a	n/a	-999	11	[0, 0, 0]	n/a	FR1	1	R1317D
1396.66	0.001	1398645	COUNTDOWN_END	n/a	n/a	n/a	-999	11	[0, 0, 0]	n/a	FR1	1	R1317D
1396.661	1.256	1398646	ORIENT_START	n/a	n/a	n/a	-999	11	[0, 0, 0]	n/a	FR1	1	R1317D
1397.917	0.0	1399902	ENCODING_START	n/a	n/a	n/a	-999	11	[0, 0, 0]	n/a	FR1	1	R1317D
1397.917	1.131	1399902	ORIENT_END	n/a	n/a	n/a	-999	11	[0, 0, 0]	n/a	FR1	1	R1317D
1399.048	1.635	1401033	WORD	n/a	n/a	VEST	1	11	[0, 0, 0]	n/a	FR1	1	R1317D
1400.683	1.097	1402668	WORD_OFF	n/a	n/a	VEST	1	11	[0, 0, 0]	n/a	FR1	1	R1317D
1401.78	1.637	1403765	WORD	n/a	n/a	ROOF	2	11	[0, 0, 0]	n/a	FR1	1	R1317D
1403.417	0.836	1405402	WORD_OFF	n/a	n/a	ROOF	2	11	[0, 0, 0]	n/a	FR1	1	R1317D
1404.253	1.631	1406238	WORD	n/a	n/a	CAVE	3	11	[0, 0, 0]	n/a	FR1	1	R1317D
1405.884	0.972	1407869	WORD_OFF	n/a	n/a	CAVE	3	11	[0, 0, 0]	n/a	FR1	1	R1317D
1406.856	1.629	1408841	WORD	n/a	n/a	CONE	4	11	[0, 0, 0]	n/a	FR1	1	R1317D
1408.485	1.012	1410470	WORD_OFF	n/a	n/a	CONE	4	11	[0, 0, 0]	n/a	FR1	1	R1317D
1409.497	1.638	1411482	WORD	n/a	n/a	BOARD	5	11	[0, 0, 0]	n/a	FR1	1	R1317D
1411.135	1.026	1413120	WORD_OFF	n/a	n/a	BOARD	5	11	[0, 0, 0]	n/a	FR1	1	R1317D
1412.161	1.625	1414146	WORD	n/a	n/a	WHALE	6	11	[0, 0, 0]	n/a	FR1	1	R1317D
1413.786	0.858	1415770	WORD_OFF	n/a	n/a	WHALE	6	11	[0, 0, 0]	n/a	FR1	1	R1317D
1414.644	1.61	1416628	WORD	n/a	n/a	DART	7	11	[0, 0, 0]	n/a	FR1	1	R1317D
1416.254	1.051	1418238	WORD_OFF	n/a	n/a	DART	7	11	[0, 0, 0]	n/a	FR1	1	R1317D
1417.305	1.632	1419289	WORD	n/a	n/a	FRUIT	8	11	[0, 0, 0]	n/a	FR1	1	R1317D
1418.937	1.102	1420921	WORD_OFF	n/a	n/a	FRUIT	8	11	[0, 0, 0]	n/a	FR1	1	R1317D
1420.039	1.632	1422023	WORD	n/a	n/a	SHRIMP	9	11	[0, 0, 0]	n/a	FR1	1	R1317D
1421.671	1.12	1423655	WORD_OFF	n/a	n/a	SHRIMP	9	11	[0, 0, 0]	n/a	FR1	1	R1317D
1422.791	1.63	1424775	WORD	n/a	n/a	JAIL	10	11	[0, 0, 0]	n/a	FR1	1	R1317D
1424.421	0.956	1426405	WORD_OFF	n/a	n/a	JAIL	10	11	[0, 0, 0]	n/a	FR1	1	R1317D
1425.377	1.628	1427361	WORD	n/a	n/a	DITCH	11	11	[0, 0, 0]	n/a	FR1	1	R1317D
1427.005	0.779	1428989	WORD_OFF	n/a	n/a	DITCH	11	11	[0, 0, 0]	n/a	FR1	1	R1317D
1427.784	1.622	1429768	WORD	n/a	n/a	POND	12	11	[0, 0, 0]	n/a	FR1	1	R1317D
1429.406	0.001	1431390	WORD_OFF	n/a	n/a	POND	12	11	[0, 0, 0]	n/a	FR1	1	R1317D
1429.407	0.0	1431391	ENCODING_END	n/a	n/a	n/a	-999	11	[0, 0, 0]	n/a	FR1	1	R1317D
1429.407	0.0	1431391	DISTRACT_START	n/a	n/a	n/a	-999	11	[0, 0, 0]	n/a	FR1	1	R1317D
1429.407	0.015	1431391	START	n/a	n/a	n/a	-999	11	[-999, -999, -999]	n/a	FR1	1	R1317D
1429.422	4.584	1431406	PROB	4.584	n/a	n/a	-999	11	[1, 8, 7]	16	FR1	1	R1317D
1434.006	3.984	1435989	PROB	3.984	n/a	n/a	-999	11	[8, 5, 6]	19	FR1	1	R1317D
1437.99	4.034	1439973	PROB	4.034	n/a	n/a	-999	11	[5, 3, 1]	9	FR1	1	R1317D
1442.024	5.319	1444007	PROB	5.319	n/a	n/a	-999	11	[3, 7, 8]	18	FR1	1	R1317D
1447.343	3.786	1449326	PROB	3.786	n/a	n/a	-999	11	[4, 5, 1]	10	FR1	1	R1317D
1451.129	0.014	1453112	STOP	n/a	n/a	n/a	-999	11	[-999, -999, -999]	n/a	FR1	1	R1317D
1451.143	0.652	1453126	DISTRACT_END	n/a	n/a	n/a	-999	11	[0, 0, 0]	n/a	FR1	1	R1317D
1451.795	1.549	1453778	RETRIEVAL_ORIENT_START	n/a	n/a	n/a	-999	11	[0, 0, 0]	n/a	FR1	1	R1317D
1453.344	0.001	1455326	RETRIEVAL_ORIENT_END	n/a	n/a	n/a	-999	11	[0, 0, 0]	n/a	FR1	1	R1317D
1453.345	0.882	1455327	REC_START	n/a	n/a	n/a	-999	11	[0, 0, 0]	n/a	FR1	1	R1317D
1454.227	1.323	1456209	REC_WORD	1.323	n/a	VEST	1	11	[0, 0, 0]	n/a	FR1	1	R1317D
1455.55	2.184	1457532	REC_WORD	2.184	n/a	WHALE	6	11	[0, 0, 0]	n/a	FR1	1	R1317D
1457.734	2.794	1459716	REC_WORD	2.794	n/a	DITCH	11	11	[0, 0, 0]	n/a	FR1	1	R1317D
1460.528	3.873	1462510	REC_WORD	3.873	n/a	CONE	4	11	[0, 0, 0]	n/a	FR1	1	R1317D
1464.401	18.955	1466383	REC_WORD	18.955	n/a	DART	7	11	[0, 0, 0]	n/a	FR1	1	R1317D
1483.356	0.0	1485337	TRIAL_END	n/a	n/a	n/a	-999	11	[0, 0, 0]	n/a	FR1	1	R1317D
1483.356	0.017	1485337	REC_END	n/a	n/a	n/a	-999	11	[0, 0, 0]	n/a	FR1	1	R1317D
1483.373	0.001	1485354	TRIAL_START	n/a	n/a	n/a	-999	12	[0, 0, 0]	n/a	FR1	1	R1317D
1483.374	0.0	1485355	TRIAL	n/a	n/a	n/a	-999	12	[0, 0, 0]	n/a	FR1	1	R1317D
1483.374	1.758	1485355	WAITING_START	n/a	n/a	n/a	-999	12	[0, 0, 0]	n/a	FR1	1	R1317D
1485.132	0.001	1487113	WAITING_END	n/a	n/a	n/a	-999	12	[0, 0, 0]	n/a	FR1	1	R1317D
1485.133	10.428	1487114	COUNTDOWN_START	n/a	n/a	n/a	-999	12	[0, 0, 0]	n/a	FR1	1	R1317D
1495.561	0.001	1497541	COUNTDOWN_END	n/a	n/a	n/a	-999	12	[0, 0, 0]	n/a	FR1	1	R1317D
1495.562	1.256	1497542	ORIENT_START	n/a	n/a	n/a	-999	12	[0, 0, 0]	n/a	FR1	1	R1317D
1496.818	0.0	1498798	ORIENT_END	n/a	n/a	n/a	-999	12	[0, 0, 0]	n/a	FR1	1	R1317D
1496.818	0.991	1498798	ENCODING_START	n/a	n/a	n/a	-999	12	[0, 0, 0]	n/a	FR1	1	R1317D
1497.809	1.626	1499789	WORD	n/a	n/a	SINK	1	12	[0, 0, 0]	n/a	FR1	1	R1317D
1499.435	0.966	1501415	WORD_OFF	n/a	n/a	SINK	1	12	[0, 0, 0]	n/a	FR1	1	R1317D
1500.401	1.634	1502381	WORD	n/a	n/a	SKY	2	12	[0, 0, 0]	n/a	FR1	1	R1317D
1502.035	0.823	1504015	WORD_OFF	n/a	n/a	SKY	2	12	[0, 0, 0]	n/a	FR1	1	R1317D
1502.858	1.628	1504838	WORD	n/a	n/a	STOOL	3	12	[0, 0, 0]	n/a	FR1	1	R1317D
1504.486	1.099	1506466	WORD_OFF	n/a	n/a	STOOL	3	12	[0, 0, 0]	n/a	FR1	1	R1317D
1505.585	1.635	1507565	WORD	n/a	n/a	BOX	4	12	[0, 0, 0]	n/a	FR1	1	R1317D
1507.22	1.139	1509200	WORD_OFF	n/a	n/a	BOX	4	12	[0, 0, 0]	n/a	FR1	1	R1317D
1508.359	1.628	1510339	WORD	n/a	n/a	PIT	5	12	[0, 0, 0]	n/a	FR1	1	R1317D
1509.987	0.945	1511967	WORD_OFF	n/a	n/a	PIT	5	12	[0, 0, 0]	n/a	FR1	1	R1317D
1510.932	1.622	1512912	WORD	n/a	n/a	CRANE	6	12	[0, 0, 0]	n/a	FR1	1	R1317D
1512.554	1.0	1514533	WORD_OFF	n/a	n/a	CRANE	6	12	[0, 0, 0]	n/a	FR1	1	R1317D
1513.554	1.634	1515533	WORD	n/a	n/a	TOY	7	12	[0, 0, 0]	n/a	FR1	1	R1317D
1515.188	0.844	1517167	WORD_OFF	n/a	n/a	TOY	7	12	[0, 0, 0]	n/a	FR1	1	R1317D
1516.032	1.623	1518011	WORD	n/a	n/a	NOSE	8	12	[0, 0, 0]	n/a	FR1	1	R1317D
1517.655	0.936	1519634	WORD_OFF	n/a	n/a	NOSE	8	12	[0, 0, 0]	n/a	FR1	1	R1317D
1518.591	1.631	1520570	WORD	n/a	n/a	TOAST	9	12	[0, 0, 0]	n/a	FR1	1	R1317D
1520.222	1.028	1522201	WORD_OFF	n/a	n/a	TOAST	9	12	[0, 0, 0]	n/a	FR1	1	R1317D
1521.25	1.623	1523229	WORD	n/a	n/a	HOOK	10	12	[0, 0, 0]	n/a	FR1	1	R1317D
1522.873	1.089	1524852	WORD_OFF	n/a	n/a	HOOK	10	12	[0, 0, 0]	n/a	FR1	1	R1317D
1523.962	1.628	1525941	WORD	n/a	n/a	AXE	11	12	[0, 0, 0]	n/a	FR1	1	R1317D
1525.59	0.962	1527569	WORD_OFF	n/a	n/a	AXE	11	12	[0, 0, 0]	n/a	FR1	1	R1317D
1526.552	1.621	1528531	WORD	n/a	n/a	BENCH	12	12	[0, 0, 0]	n/a	FR1	1	R1317D
1528.173	0.001	1530152	WORD_OFF	n/a	n/a	BENCH	12	12	[0, 0, 0]	n/a	FR1	1	R1317D
1528.174	0.0	1530153	DISTRACT_START	n/a	n/a	n/a	-999	12	[0, 0, 0]	n/a	FR1	1	R1317D
1528.174	0.0	1530153	ENCODING_END	n/a	n/a	n/a	-999	12	[0, 0, 0]	n/a	FR1	1	R1317D
1528.174	0.016	1530153	START	n/a	n/a	n/a	-999	12	[-999, -999, -999]	n/a	FR1	1	R1317D
1528.19	4.068	1530169	PROB	4.068	n/a	n/a	-999	12	[2, 2, 9]	13	FR1	1	R1317D
1532.258	5.317	1534236	PROB	5.317	n/a	n/a	-999	12	[2, 3, 1]	6	FR1	1	R1317D
1537.575	3.617	1539553	PROB	3.617	n/a	n/a	-999	12	[2, 9, 6]	17	FR1	1	R1317D
1541.192	3.584	1543170	PROB	3.584	n/a	n/a	-999	12	[5, 1, 4]	10	FR1	1	R1317D
1544.776	3.351	1546754	PROB	3.351	n/a	n/a	-999	12	[4, 6, 1]	11	FR1	1	R1317D
1548.127	6.362	1550105	PROB	6.362	n/a	n/a	-999	12	[8, 9, 9]	26	FR1	1	R1317D
1554.489	0.023	1556466	STOP	n/a	n/a	n/a	-999	12	[-999, -999, -999]	n/a	FR1	1	R1317D
1554.512	0.531	1556489	DISTRACT_END	n/a	n/a	n/a	-999	12	[0, 0, 0]	n/a	FR1	1	R1317D
1555.043	1.652	1557020	RETRIEVAL_ORIENT_START	n/a	n/a	n/a	-999	12	[0, 0, 0]	n/a	FR1	1	R1317D
1556.695	0.001	1558672	RETRIEVAL_ORIENT_END	n/a	n/a	n/a	-999	12	[0, 0, 0]	n/a	FR1	1	R1317D
1556.696	1.659	1558673	REC_START	n/a	n/a	n/a	-999	12	[0, 0, 0]	n/a	FR1	1	R1317D
1558.355	2.972	1560332	REC_WORD	2.972	n/a	STOOL	3	12	[0, 0, 0]	n/a	FR1	1	R1317D
1561.327	2.229	1563304	REC_WORD	2.229	n/a	BOX	4	12	[0, 0, 0]	n/a	FR1	1	R1317D
1563.556	2.099	1565533	REC_WORD	2.099	n/a	PIT	5	12	[0, 0, 0]	n/a	FR1	1	R1317D
1565.655	16.443	1567632	REC_WORD	16.443	n/a	CRANE	6	12	[0, 0, 0]	n/a	FR1	1	R1317D
1582.098	1.0	1584074	REC_WORD	1.0	n/a	STOOL	3	12	[0, 0, 0]	n/a	FR1	1	R1317D
1583.098	3.609	1585074	REC_WORD_VV	3.609	n/a	<>	-999	12	[0, 0, 0]	n/a	FR1	1	R1317D
1586.707	0.001	1588683	REC_END	n/a	n/a	n/a	-999	12	[0, 0, 0]	n/a	FR1	1	R1317D
1586.708	0.014	1588684	TRIAL_END	n/a	n/a	n/a	-999	12	[0, 0, 0]	n/a	FR1	1	R1317D
1586.722	0.0	1588698	TRIAL_START	n/a	n/a	n/a	-999	13	[0, 0, 0]	n/a	FR1	1	R1317D
1586.722	0.0	1588698	TRIAL	n/a	n/a	n/a	-999	13	[0, 0, 0]	n/a	FR1	1	R1317D
1586.722	1.813	1588698	WAITING_START	n/a	n/a	n/a	-999	13	[0, 0, 0]	n/a	FR1	1	R1317D
1588.535	0.0	1590511	WAITING_END	n/a	n/a	n/a	-999	13	[0, 0, 0]	n/a	FR1	1	R1317D
1588.535	10.429	1590511	COUNTDOWN_START	n/a	n/a	n/a	-999	13	[0, 0, 0]	n/a	FR1	1	R1317D
1598.964	0.0	1600939	COUNTDOWN_END	n/a	n/a	n/a	-999	13	[0, 0, 0]	n/a	FR1	1	R1317D
1598.964	1.274	1600939	ORIENT_START	n/a	n/a	n/a	-999	13	[0, 0, 0]	n/a	FR1	1	R1317D
1600.238	0.0	1602213	ENCODING_START	n/a	n/a	n/a	-999	13	[0, 0, 0]	n/a	FR1	1	R1317D
1600.238	1.107	1602213	ORIENT_END	n/a	n/a	n/a	-999	13	[0, 0, 0]	n/a	FR1	1	R1317D
1601.345	1.625	1603320	WORD	n/a	n/a	CHIN	1	13	[0, 0, 0]	n/a	FR1	1	R1317D
1602.97	1.082	1604945	WORD_OFF	n/a	n/a	CHIN	1	13	[0, 0, 0]	n/a	FR1	1	R1317D
1604.052	1.636	1606027	WORD	n/a	n/a	LAMB	2	13	[0, 0, 0]	n/a	FR1	1	R1317D
1605.688	0.802	1607663	WORD_OFF	n/a	n/a	LAMB	2	13	[0, 0, 0]	n/a	FR1	1	R1317D
1606.49	1.631	1608465	WORD	n/a	n/a	GLOVE	3	13	[0, 0, 0]	n/a	FR1	1	R1317D
1608.121	1.09	1610096	WORD_OFF	n/a	n/a	GLOVE	3	13	[0, 0, 0]	n/a	FR1	1	R1317D
1609.211	1.611	1611185	WORD	n/a	n/a	ROOM	4	13	[0, 0, 0]	n/a	FR1	1	R1317D
1610.822	0.908	1612796	WORD_OFF	n/a	n/a	ROOM	4	13	[0, 0, 0]	n/a	FR1	1	R1317D
1611.73	1.61	1613704	WORD	n/a	n/a	TIE	5	13	[0, 0, 0]	n/a	FR1	1	R1317D
1613.34	0.964	1615314	WORD_OFF	n/a	n/a	TIE	5	13	[0, 0, 0]	n/a	FR1	1	R1317D
1614.304	1.635	1616278	WORD	n/a	n/a	MOOSE	6	13	[0, 0, 0]	n/a	FR1	1	R1317D
1615.939	0.752	1617913	WORD_OFF	n/a	n/a	MOOSE	6	13	[0, 0, 0]	n/a	FR1	1	R1317D
1616.691	1.617	1618665	WORD	n/a	n/a	BED	7	13	[0, 0, 0]	n/a	FR1	1	R1317D
1618.308	1.036	1620282	WORD_OFF	n/a	n/a	BED	7	13	[0, 0, 0]	n/a	FR1	1	R1317D
1619.344	1.63	1621318	WORD	n/a	n/a	PEA	8	13	[0, 0, 0]	n/a	FR1	1	R1317D
1620.974	0.866	1622948	WORD_OFF	n/a	n/a	PEA	8	13	[0, 0, 0]	n/a	FR1	1	R1317D
1621.84	1.634	1623814	WORD	n/a	n/a	DOOR	9	13	[0, 0, 0]	n/a	FR1	1	R1317D
1623.474	0.873	1625448	WORD_OFF	n/a	n/a	DOOR	9	13	[0, 0, 0]	n/a	FR1	1	R1317D
1624.347	1.628	1626321	WORD	n/a	n/a	MILK	10	13	[0, 0, 0]	n/a	FR1	1	R1317D
1625.975	0.919	1627949	WORD_OFF	n/a	n/a	MILK	10	13	[0, 0, 0]	n/a	FR1	1	R1317D
1626.894	1.631	1628868	WORD	n/a	n/a	GATE	11	13	[0, 0, 0]	n/a	FR1	1	R1317D
1628.525	0.862	1630498	WORD_OFF	n/a	n/a	GATE	11	13	[0, 0, 0]	n/a	FR1	1	R1317D
1629.387	1.622	1631360	WORD	n/a	n/a	HOOF	12	13	[0, 0, 0]	n/a	FR1	1	R1317D
1631.009	0.0	1632982	WORD_OFF	n/a	n/a	HOOF	12	13	[0, 0, 0]	n/a	FR1	1	R1317D
1631.009	0.001	1632982	ENCODING_END	n/a	n/a	n/a	-999	13	[0, 0, 0]	n/a	FR1	1	R1317D
1631.01	0.0	1632983	DISTRACT_START	n/a	n/a	n/a	-999	13	[0, 0, 0]	n/a	FR1	1	R1317D
1631.01	0.015	1632983	START	n/a	n/a	n/a	-999	13	[-999, -999, -999]	n/a	FR1	1	R1317D
1631.025	6.518	1632998	PROB	6.518	n/a	n/a	-999	13	[5, 7, 3]	15	FR1	1	R1317D
1637.543	4.318	1639516	PROB	4.318	n/a	n/a	-999	13	[9, 3, 2]	14	FR1	1	R1317D
1641.861	3.501	1643834	PROB	3.501	n/a	n/a	-999	13	[4, 1, 6]	11	FR1	1	R1317D
1645.362	8.937	1647335	PROB	8.937	n/a	n/a	-999	13	[2, 7, 8]	18	FR1	1	R1317D
1654.299	0.015	1656271	STOP	n/a	n/a	n/a	-999	13	[-999, -999, -999]	n/a	FR1	1	R1317D
1654.314	0.532	1656286	DISTRACT_END	n/a	n/a	n/a	-999	13	[0, 0, 0]	n/a	FR1	1	R1317D
1654.846	1.701	1656818	RETRIEVAL_ORIENT_START	n/a	n/a	n/a	-999	13	[0, 0, 0]	n/a	FR1	1	R1317D
1656.547	0.0	1658519	RETRIEVAL_ORIENT_END	n/a	n/a	n/a	-999	13	[0, 0, 0]	n/a	FR1	1	R1317D
1656.547	5.23	1658519	REC_START	n/a	n/a	n/a	-999	13	[0, 0, 0]	n/a	FR1	1	R1317D
1661.777	2.24	1663749	REC_WORD_VV	2.24	n/a	<>	-999	13	[0, 0, 0]	n/a	FR1	1	R1317D
1664.017	5.471	1665989	REC_WORD	5.471	n/a	ROOM	4	13	[0, 0, 0]	n/a	FR1	1	R1317D
1669.488	6.766	1671459	REC_WORD	6.766	n/a	BED	7	13	[0, 0, 0]	n/a	FR1	1	R1317D
1676.254	3.84	1678225	REC_WORD_VV	3.84	n/a	<>	-999	13	[0, 0, 0]	n/a	FR1	1	R1317D
1680.094	6.465	1682065	REC_WORD	6.465	n/a	CRANE	-999	13	[0, 0, 0]	n/a	FR1	1	R1317D
1686.559	0.0	1688530	TRIAL_END	n/a	n/a	n/a	-999	13	[0, 0, 0]	n/a	FR1	1	R1317D
1686.559	0.017	1688530	REC_END	n/a	n/a	n/a	-999	13	[0, 0, 0]	n/a	FR1	1	R1317D
1686.576	0.0	1688547	TRIAL_START	n/a	n/a	n/a	-999	14	[0, 0, 0]	n/a	FR1	1	R1317D
1686.576	0.001	1688547	TRIAL	n/a	n/a	n/a	-999	14	[0, 0, 0]	n/a	FR1	1	R1317D
1686.577	2.009	1688548	WAITING_START	n/a	n/a	n/a	-999	14	[0, 0, 0]	n/a	FR1	1	R1317D
1688.586	0.0	1690556	WAITING_END	n/a	n/a	n/a	-999	14	[0, 0, 0]	n/a	FR1	1	R1317D
1688.586	10.429	1690556	COUNTDOWN_START	n/a	n/a	n/a	-999	14	[0, 0, 0]	n/a	FR1	1	R1317D
1699.015	0.0	1700985	COUNTDOWN_END	n/a	n/a	n/a	-999	14	[0, 0, 0]	n/a	FR1	1	R1317D
1699.015	1.09	1700985	ORIENT_START	n/a	n/a	n/a	-999	14	[0, 0, 0]	n/a	FR1	1	R1317D
1700.105	0.0	1702075	ENCODING_START	n/a	n/a	n/a	-999	14	[0, 0, 0]	n/a	FR1	1	R1317D
1700.105	1.148	1702075	ORIENT_END	n/a	n/a	n/a	-999	14	[0, 0, 0]	n/a	FR1	1	R1317D
1701.253	1.636	1703223	WORD	n/a	n/a	DESK	1	14	[0, 0, 0]	n/a	FR1	1	R1317D
1702.889	1.125	1704859	WORD_OFF	n/a	n/a	DESK	1	14	[0, 0, 0]	n/a	FR1	1	R1317D
1704.014	1.625	1705984	WORD	n/a	n/a	SOUP	2	14	[0, 0, 0]	n/a	FR1	1	R1317D
1705.639	1.058	1707609	WORD_OFF	n/a	n/a	SOUP	2	14	[0, 0, 0]	n/a	FR1	1	R1317D
1706.697	1.627	1708666	WORD	n/a	n/a	PEAR	3	14	[0, 0, 0]	n/a	FR1	1	R1317D
1708.324	0.86	1710293	WORD_OFF	n/a	n/a	PEAR	3	14	[0, 0, 0]	n/a	FR1	1	R1317D
1709.184	1.623	1711153	WORD	n/a	n/a	SCHOOL	4	14	[0, 0, 0]	n/a	FR1	1	R1317D
1710.807	0.991	1712776	WORD_OFF	n/a	n/a	SCHOOL	4	14	[0, 0, 0]	n/a	FR1	1	R1317D
1711.798	1.626	1713767	WORD	n/a	n/a	TANK	5	14	[0, 0, 0]	n/a	FR1	1	R1317D
1713.424	0.927	1715393	WORD_OFF	n/a	n/a	TANK	5	14	[0, 0, 0]	n/a	FR1	1	R1317D
1714.351	1.623	1716320	WORD	n/a	n/a	ROSE	6	14	[0, 0, 0]	n/a	FR1	1	R1317D
1715.974	0.783	1717943	WORD_OFF	n/a	n/a	ROSE	6	14	[0, 0, 0]	n/a	FR1	1	R1317D
1716.757	1.619	1718726	WORD	n/a	n/a	WHEEL	7	14	[0, 0, 0]	n/a	FR1	1	R1317D
1718.376	0.83	1720345	WORD_OFF	n/a	n/a	WHEEL	7	14	[0, 0, 0]	n/a	FR1	1	R1317D
1719.206	1.636	1721175	WORD	n/a	n/a	DOCK	8	14	[0, 0, 0]	n/a	FR1	1	R1317D
1720.842	1.069	1722811	WORD_OFF	n/a	n/a	DOCK	8	14	[0, 0, 0]	n/a	FR1	1	R1317D
1721.911	1.631	1723880	WORD	n/a	n/a	HOSE	9	14	[0, 0, 0]	n/a	FR1	1	R1317D
1723.542	0.891	1725511	WORD_OFF	n/a	n/a	HOSE	9	14	[0, 0, 0]	n/a	FR1	1	R1317D
1724.433	1.627	1726402	WORD	n/a	n/a	MAT	10	14	[0, 0, 0]	n/a	FR1	1	R1317D
1726.06	0.786	1728028	WORD_OFF	n/a	n/a	MAT	10	14	[0, 0, 0]	n/a	FR1	1	R1317D
1726.846	1.631	1728814	WORD	n/a	n/a	TAIL	11	14	[0, 0, 0]	n/a	FR1	1	R1317D
1728.477	1.036	1730445	WORD_OFF	n/a	n/a	TAIL	11	14	[0, 0, 0]	n/a	FR1	1	R1317D
1729.513	1.631	1731481	WORD	n/a	n/a	BAND	12	14	[0, 0, 0]	n/a	FR1	1	R1317D
1731.144	0.0	1733112	WORD_OFF	n/a	n/a	BAND	12	14	[0, 0, 0]	n/a	FR1	1	R1317D
1731.144	0.0	1733112	ENCODING_END	n/a	n/a	n/a	-999	14	[0, 0, 0]	n/a	FR1	1	R1317D
1731.144	0.001	1733112	DISTRACT_START	n/a	n/a	n/a	-999	14	[0, 0, 0]	n/a	FR1	1	R1317D
1731.145	0.015	1733113	START	n/a	n/a	n/a	-999	14	[-999, -999, -999]	n/a	FR1	1	R1317D
1731.16	6.152	1733128	PROB	6.152	n/a	n/a	-999	14	[7, 4, 5]	16	FR1	1	R1317D
1737.312	5.134	1739280	PROB	5.134	n/a	n/a	-999	14	[9, 6, 7]	22	FR1	1	R1317D
1742.446	3.65	1744414	PROB	3.65	n/a	n/a	-999	14	[3, 2, 4]	9	FR1	1	R1317D
1746.096	5.691	1748063	PROB	5.691	n/a	n/a	-999	14	[4, 7, 3]	14	FR1	1	R1317D
1751.787	0.011	1753754	STOP	n/a	n/a	n/a	-999	14	[-999, -999, -999]	n/a	FR1	1	R1317D
1751.798	0.686	1753765	DISTRACT_END	n/a	n/a	n/a	-999	14	[0, 0, 0]	n/a	FR1	1	R1317D
1752.484	1.547	1754451	RETRIEVAL_ORIENT_START	n/a	n/a	n/a	-999	14	[0, 0, 0]	n/a	FR1	1	R1317D
1754.031	0.001	1755998	RETRIEVAL_ORIENT_END	n/a	n/a	n/a	-999	14	[0, 0, 0]	n/a	FR1	1	R1317D
1754.032	2.1	1755999	REC_START	n/a	n/a	n/a	-999	14	[0, 0, 0]	n/a	FR1	1	R1317D
1756.132	2.8	1758099	REC_WORD	2.8	n/a	DESK	1	14	[0, 0, 0]	n/a	FR1	1	R1317D
1758.932	4.053	1760899	REC_WORD	4.053	n/a	BAND	12	14	[0, 0, 0]	n/a	FR1	1	R1317D
1762.985	21.059	1764952	REC_WORD	21.059	n/a	HOOK	-999	14	[0, 0, 0]	n/a	FR1	1	R1317D
1784.044	0.0	1786010	REC_END	n/a	n/a	n/a	-999	14	[0, 0, 0]	n/a	FR1	1	R1317D
1784.044	0.017	1786010	TRIAL_END	n/a	n/a	n/a	-999	14	[0, 0, 0]	n/a	FR1	1	R1317D
1784.061	0.0	1786027	WAITING_START	n/a	n/a	n/a	-999	15	[0, 0, 0]	n/a	FR1	1	R1317D
1784.061	0.0	1786027	TRIAL_START	n/a	n/a	n/a	-999	15	[0, 0, 0]	n/a	FR1	1	R1317D
1784.061	2.093	1786027	TRIAL	n/a	n/a	n/a	-999	15	[0, 0, 0]	n/a	FR1	1	R1317D
1786.154	0.001	1788119	WAITING_END	n/a	n/a	n/a	-999	15	[0, 0, 0]	n/a	FR1	1	R1317D
1786.155	10.428	1788120	COUNTDOWN_START	n/a	n/a	n/a	-999	15	[0, 0, 0]	n/a	FR1	1	R1317D
1796.583	0.0	1798548	COUNTDOWN_END	n/a	n/a	n/a	-999	15	[0, 0, 0]	n/a	FR1	1	R1317D
1796.583	1.19	1798548	ORIENT_START	n/a	n/a	n/a	-999	15	[0, 0, 0]	n/a	FR1	1	R1317D
1797.773	0.0	1799738	ENCODING_START	n/a	n/a	n/a	-999	15	[0, 0, 0]	n/a	FR1	1	R1317D
1797.773	1.022	1799738	ORIENT_END	n/a	n/a	n/a	-999	15	[0, 0, 0]	n/a	FR1	1	R1317D
1798.795	1.628	1800760	WORD	n/a	n/a	STONE	1	15	[0, 0, 0]	n/a	FR1	1	R1317D
1800.423	1.069	1802388	WORD_OFF	n/a	n/a	STONE	1	15	[0, 0, 0]	n/a	FR1	1	R1317D
1801.492	1.632	1803457	WORD	n/a	n/a	CHEEK	2	15	[0, 0, 0]	n/a	FR1	1	R1317D
1803.124	0.951	1805089	WORD_OFF	n/a	n/a	CHEEK	2	15	[0, 0, 0]	n/a	FR1	1	R1317D
1804.075	1.633	1806039	WORD	n/a	n/a	STRAW	3	15	[0, 0, 0]	n/a	FR1	1	R1317D
1805.708	0.857	1807672	WORD_OFF	n/a	n/a	STRAW	3	15	[0, 0, 0]	n/a	FR1	1	R1317D
1806.565	1.626	1808529	WORD	n/a	n/a	JUDGE	4	15	[0, 0, 0]	n/a	FR1	1	R1317D
1808.191	0.853	1810155	WORD_OFF	n/a	n/a	JUDGE	4	15	[0, 0, 0]	n/a	FR1	1	R1317D
1809.044	1.631	1811008	WORD	n/a	n/a	BLUSH	5	15	[0, 0, 0]	n/a	FR1	1	R1317D
1810.675	0.883	1812639	WORD_OFF	n/a	n/a	BLUSH	5	15	[0, 0, 0]	n/a	FR1	1	R1317D
1811.558	1.634	1813522	WORD	n/a	n/a	BATH	6	15	[0, 0, 0]	n/a	FR1	1	R1317D
1813.192	0.911	1815156	WORD_OFF	n/a	n/a	BATH	6	15	[0, 0, 0]	n/a	FR1	1	R1317D
1814.103	1.623	1816067	WORD	n/a	n/a	GOLD	7	15	[0, 0, 0]	n/a	FR1	1	R1317D
1815.726	0.94	1817690	WORD_OFF	n/a	n/a	GOLD	7	15	[0, 0, 0]	n/a	FR1	1	R1317D
1816.666	1.628	1818630	WORD	n/a	n/a	STRING	8	15	[0, 0, 0]	n/a	FR1	1	R1317D
1818.294	0.834	1820258	WORD_OFF	n/a	n/a	STRING	8	15	[0, 0, 0]	n/a	FR1	1	R1317D
1819.128	1.632	1821092	WORD	n/a	n/a	CAKE	9	15	[0, 0, 0]	n/a	FR1	1	R1317D
1820.76	1.016	1822724	WORD_OFF	n/a	n/a	CAKE	9	15	[0, 0, 0]	n/a	FR1	1	R1317D
1821.776	1.619	1823740	WORD	n/a	n/a	CAGE	10	15	[0, 0, 0]	n/a	FR1	1	R1317D
1823.395	0.814	1825358	WORD_OFF	n/a	n/a	CAGE	10	15	[0, 0, 0]	n/a	FR1	1	R1317D
1824.209	1.635	1826172	WORD	n/a	n/a	THUMB	11	15	[0, 0, 0]	n/a	FR1	1	R1317D
1825.844	0.999	1827807	WORD_OFF	n/a	n/a	THUMB	11	15	[0, 0, 0]	n/a	FR1	1	R1317D
1826.843	1.635	1828806	WORD	n/a	n/a	HOLE	12	15	[0, 0, 0]	n/a	FR1	1	R1317D
1828.478	0.001	1830441	WORD_OFF	n/a	n/a	HOLE	12	15	[0, 0, 0]	n/a	FR1	1	R1317D
1828.479	0.0	1830442	ENCODING_END	n/a	n/a	n/a	-999	15	[0, 0, 0]	n/a	FR1	1	R1317D
1828.479	0.0	1830442	DISTRACT_START	n/a	n/a	n/a	-999	15	[0, 0, 0]	n/a	FR1	1	R1317D
1828.479	0.016	1830442	START	n/a	n/a	n/a	-999	15	[-999, -999, -999]	n/a	FR1	1	R1317D
1828.495	5.785	1830458	PROB	5.785	n/a	n/a	-999	15	[3, 7, 8]	18	FR1	1	R1317D
1834.28	2.933	1836243	PROB	2.933	n/a	n/a	-999	15	[4, 3, 4]	11	FR1	1	R1317D
1837.213	10.552	1839176	PROB	10.552	n/a	n/a	-999	15	[6, 8, 9]	23	FR1	1	R1317D
1847.765	6.12	1849727	PROB	6.12	n/a	n/a	-999	15	[5, 4, 9]	18	FR1	1	R1317D
1853.885	0.015	1855847	STOP	n/a	n/a	n/a	-999	15	[-999, -999, -999]	n/a	FR1	1	R1317D
1853.9	0.677	1855862	DISTRACT_END	n/a	n/a	n/a	-999	15	[0, 0, 0]	n/a	FR1	1	R1317D
1854.577	1.707	1856539	RETRIEVAL_ORIENT_START	n/a	n/a	n/a	-999	15	[0, 0, 0]	n/a	FR1	1	R1317D
1856.284	0.001	1858246	RETRIEVAL_ORIENT_END	n/a	n/a	n/a	-999	15	[0, 0, 0]	n/a	FR1	1	R1317D
1856.285	1.572	1858247	REC_START	n/a	n/a	n/a	-999	15	[0, 0, 0]	n/a	FR1	1	R1317D
1857.857	2.888	1859819	REC_WORD	2.888	n/a	STONE	1	15	[0, 0, 0]	n/a	FR1	1	R1317D
1860.745	9.437	1862707	REC_WORD	9.437	n/a	JUDGE	4	15	[0, 0, 0]	n/a	FR1	1	R1317D
1870.182	16.115	1872143	REC_WORD	16.115	n/a	LEAF	-999	15	[0, 0, 0]	n/a	FR1	1	R1317D
1886.297	0.0	1888257	REC_END	n/a	n/a	n/a	-999	15	[0, 0, 0]	n/a	FR1	1	R1317D
1886.297	0.015	1888257	TRIAL_END	n/a	n/a	n/a	-999	15	[0, 0, 0]	n/a	FR1	1	R1317D
1886.312	0.0	1888272	TRIAL_START	n/a	n/a	n/a	-999	16	[0, 0, 0]	n/a	FR1	1	R1317D
1886.312	0.0	1888272	TRIAL	n/a	n/a	n/a	-999	16	[0, 0, 0]	n/a	FR1	1	R1317D
1886.312	1.594	1888272	WAITING_START	n/a	n/a	n/a	-999	16	[0, 0, 0]	n/a	FR1	1	R1317D
1887.906	0.0	1889866	COUNTDOWN_START	n/a	n/a	n/a	-999	16	[0, 0, 0]	n/a	FR1	1	R1317D
1887.906	10.429	1889866	WAITING_END	n/a	n/a	n/a	-999	16	[0, 0, 0]	n/a	FR1	1	R1317D
1898.335	0.0	1900295	COUNTDOWN_END	n/a	n/a	n/a	-999	16	[0, 0, 0]	n/a	FR1	1	R1317D
1898.335	1.057	1900295	ORIENT_START	n/a	n/a	n/a	-999	16	[0, 0, 0]	n/a	FR1	1	R1317D
1899.392	0.001	1901352	ORIENT_END	n/a	n/a	n/a	-999	16	[0, 0, 0]	n/a	FR1	1	R1317D
1899.393	0.843	1901353	ENCODING_START	n/a	n/a	n/a	-999	16	[0, 0, 0]	n/a	FR1	1	R1317D
1900.236	1.622	1902196	WORD	n/a	n/a	PARK	1	16	[0, 0, 0]	n/a	FR1	1	R1317D
1901.858	0.951	1903817	WORD_OFF	n/a	n/a	PARK	1	16	[0, 0, 0]	n/a	FR1	1	R1317D
1902.809	1.633	1904768	WORD	n/a	n/a	TOE	2	16	[0, 0, 0]	n/a	FR1	1	R1317D
1904.442	0.964	1906401	WORD_OFF	n/a	n/a	TOE	2	16	[0, 0, 0]	n/a	FR1	1	R1317D
1905.406	1.636	1907365	WORD	n/a	n/a	CART	3	16	[0, 0, 0]	n/a	FR1	1	R1317D
1907.042	0.972	1909001	WORD_OFF	n/a	n/a	CART	3	16	[0, 0, 0]	n/a	FR1	1	R1317D
1908.014	1.629	1909973	WORD	n/a	n/a	SLIME	4	16	[0, 0, 0]	n/a	FR1	1	R1317D
1909.643	1.039	1911602	WORD_OFF	n/a	n/a	SLIME	4	16	[0, 0, 0]	n/a	FR1	1	R1317D
1910.682	1.629	1912641	WORD	n/a	n/a	DOLL	5	16	[0, 0, 0]	n/a	FR1	1	R1317D
1912.311	1.028	1914270	WORD_OFF	n/a	n/a	DOLL	5	16	[0, 0, 0]	n/a	FR1	1	R1317D
1913.339	1.622	1915298	WORD	n/a	n/a	SLUSH	6	16	[0, 0, 0]	n/a	FR1	1	R1317D
1914.961	0.959	1916920	WORD_OFF	n/a	n/a	SLUSH	6	16	[0, 0, 0]	n/a	FR1	1	R1317D
1915.92	1.625	1917879	WORD	n/a	n/a	CORD	7	16	[0, 0, 0]	n/a	FR1	1	R1317D
1917.545	0.908	1919504	WORD_OFF	n/a	n/a	CORD	7	16	[0, 0, 0]	n/a	FR1	1	R1317D
1918.453	1.625	1920412	WORD	n/a	n/a	BAT	8	16	[0, 0, 0]	n/a	FR1	1	R1317D
1920.078	0.981	1922037	WORD_OFF	n/a	n/a	BAT	8	16	[0, 0, 0]	n/a	FR1	1	R1317D
1921.059	1.637	1923017	WORD	n/a	n/a	TENT	9	16	[0, 0, 0]	n/a	FR1	1	R1317D
1922.696	0.851	1924654	WORD_OFF	n/a	n/a	TENT	9	16	[0, 0, 0]	n/a	FR1	1	R1317D
1923.547	1.632	1925505	WORD	n/a	n/a	FOOD	10	16	[0, 0, 0]	n/a	FR1	1	R1317D
1925.179	1.079	1927137	WORD_OFF	n/a	n/a	FOOD	10	16	[0, 0, 0]	n/a	FR1	1	R1317D
1926.258	1.622	1928216	WORD	n/a	n/a	FOX	11	16	[0, 0, 0]	n/a	FR1	1	R1317D
1927.88	1.093	1929838	WORD_OFF	n/a	n/a	FOX	11	16	[0, 0, 0]	n/a	FR1	1	R1317D
1928.973	1.624	1930931	WORD	n/a	n/a	OAR	12	16	[0, 0, 0]	n/a	FR1	1	R1317D
1930.597	0.0	1932555	WORD_OFF	n/a	n/a	OAR	12	16	[0, 0, 0]	n/a	FR1	1	R1317D
1930.597	0.0	1932555	ENCODING_END	n/a	n/a	n/a	-999	16	[0, 0, 0]	n/a	FR1	1	R1317D
1930.597	0.001	1932555	DISTRACT_START	n/a	n/a	n/a	-999	16	[0, 0, 0]	n/a	FR1	1	R1317D
1930.598	0.015	1932556	START	n/a	n/a	n/a	-999	16	[-999, -999, -999]	n/a	FR1	1	R1317D
1930.613	5.151	1932571	PROB	5.151	n/a	n/a	-999	16	[6, 9, 4]	19	FR1	1	R1317D
1935.764	4.034	1937722	PROB	4.034	n/a	n/a	-999	16	[9, 8, 4]	21	FR1	1	R1317D
1939.798	6.135	1941756	PROB	6.135	n/a	n/a	-999	16	[4, 8, 5]	17	FR1	1	R1317D
1945.933	4.352	1947890	PROB	4.352	n/a	n/a	-999	16	[3, 5, 9]	17	FR1	1	R1317D
1950.285	3.905	1952242	PROB	3.905	n/a	n/a	-999	16	[5, 3, 2]	10	FR1	1	R1317D
1954.19	0.011	1956147	STOP	n/a	n/a	n/a	-999	16	[-999, -999, -999]	n/a	FR1	1	R1317D
1954.201	0.571	1956158	DISTRACT_END	n/a	n/a	n/a	-999	16	[0, 0, 0]	n/a	FR1	1	R1317D
1954.772	1.631	1956729	RETRIEVAL_ORIENT_START	n/a	n/a	n/a	-999	16	[0, 0, 0]	n/a	FR1	1	R1317D
1956.403	0.0	1958360	RETRIEVAL_ORIENT_END	n/a	n/a	n/a	-999	16	[0, 0, 0]	n/a	FR1	1	R1317D
1956.403	2.021	1958360	REC_START	n/a	n/a	n/a	-999	16	[0, 0, 0]	n/a	FR1	1	R1317D
1958.424	1.958	1960381	REC_WORD	1.958	n/a	PARK	1	16	[0, 0, 0]	n/a	FR1	1	R1317D
1960.382	2.978	1962338	REC_WORD	2.978	n/a	SLIME	4	16	[0, 0, 0]	n/a	FR1	1	R1317D
1963.36	2.848	1965316	REC_WORD	2.848	n/a	TOE	2	16	[0, 0, 0]	n/a	FR1	1	R1317D
1966.208	3.255	1968164	REC_WORD	3.255	n/a	TENT	9	16	[0, 0, 0]	n/a	FR1	1	R1317D
1969.463	16.951	1971419	REC_WORD	16.951	n/a	OAR	12	16	[0, 0, 0]	n/a	FR1	1	R1317D
1986.414	0.001	1988369	REC_END	n/a	n/a	n/a	-999	16	[0, 0, 0]	n/a	FR1	1	R1317D
1986.415	0.017	1988370	TRIAL_END	n/a	n/a	n/a	-999	16	[0, 0, 0]	n/a	FR1	1	R1317D
1986.432	0.0	1988387	TRIAL_START	n/a	n/a	n/a	-999	17	[0, 0, 0]	n/a	FR1	1	R1317D
1986.432	0.0	1988387	TRIAL	n/a	n/a	n/a	-999	17	[0, 0, 0]	n/a	FR1	1	R1317D
1986.432	2.259	1988387	WAITING_START	n/a	n/a	n/a	-999	17	[0, 0, 0]	n/a	FR1	1	R1317D
1988.691	0.0	1990646	COUNTDOWN_START	n/a	n/a	n/a	-999	17	[0, 0, 0]	n/a	FR1	1	R1317D
1988.691	10.43	1990646	WAITING_END	n/a	n/a	n/a	-999	17	[0, 0, 0]	n/a	FR1	1	R1317D
1999.121	0.0	2001075	COUNTDOWN_END	n/a	n/a	n/a	-999	17	[0, 0, 0]	n/a	FR1	1	R1317D
1999.121	1.088	2001075	ORIENT_START	n/a	n/a	n/a	-999	17	[0, 0, 0]	n/a	FR1	1	R1317D
2000.209	0.001	2002163	ORIENT_END	n/a	n/a	n/a	-999	17	[0, 0, 0]	n/a	FR1	1	R1317D
2000.21	0.779	2002164	ENCODING_START	n/a	n/a	n/a	-999	17	[0, 0, 0]	n/a	FR1	1	R1317D
2000.989	1.638	2002943	WORD	n/a	n/a	JAR	1	17	[0, 0, 0]	n/a	FR1	1	R1317D
2002.627	0.885	2004581	WORD_OFF	n/a	n/a	JAR	1	17	[0, 0, 0]	n/a	FR1	1	R1317D
2003.512	1.632	2005466	WORD	n/a	n/a	COW	2	17	[0, 0, 0]	n/a	FR1	1	R1317D
2005.144	0.828	2007098	WORD_OFF	n/a	n/a	COW	2	17	[0, 0, 0]	n/a	FR1	1	R1317D
2005.972	1.622	2007926	WORD	n/a	n/a	DRUM	3	17	[0, 0, 0]	n/a	FR1	1	R1317D
2007.594	0.854	2009548	WORD_OFF	n/a	n/a	DRUM	3	17	[0, 0, 0]	n/a	FR1	1	R1317D
2008.448	1.63	2010402	WORD	n/a	n/a	SHIP	4	17	[0, 0, 0]	n/a	FR1	1	R1317D
2010.078	0.921	2012032	WORD_OFF	n/a	n/a	SHIP	4	17	[0, 0, 0]	n/a	FR1	1	R1317D
2010.999	1.629	2012953	WORD	n/a	n/a	SHIELD	5	17	[0, 0, 0]	n/a	FR1	1	R1317D
2012.628	0.762	2014582	WORD_OFF	n/a	n/a	SHIELD	5	17	[0, 0, 0]	n/a	FR1	1	R1317D
2013.39	1.622	2015344	WORD	n/a	n/a	SPONGE	6	17	[0, 0, 0]	n/a	FR1	1	R1317D
2015.012	0.94	2016966	WORD_OFF	n/a	n/a	SPONGE	6	17	[0, 0, 0]	n/a	FR1	1	R1317D
2015.952	1.627	2017906	WORD	n/a	n/a	SMOKE	7	17	[0, 0, 0]	n/a	FR1	1	R1317D
2017.579	0.96	2019533	WORD_OFF	n/a	n/a	SMOKE	7	17	[0, 0, 0]	n/a	FR1	1	R1317D
2018.539	1.624	2020492	WORD	n/a	n/a	RAIN	8	17	[0, 0, 0]	n/a	FR1	1	R1317D
2020.163	0.764	2022116	WORD_OFF	n/a	n/a	RAIN	8	17	[0, 0, 0]	n/a	FR1	1	R1317D
2020.927	1.637	2022880	WORD	n/a	n/a	SIGN	9	17	[0, 0, 0]	n/a	FR1	1	R1317D
2022.564	1.094	2024517	WORD_OFF	n/a	n/a	SIGN	9	17	[0, 0, 0]	n/a	FR1	1	R1317D
2023.658	1.624	2025611	WORD	n/a	n/a	FUDGE	10	17	[0, 0, 0]	n/a	FR1	1	R1317D
2025.282	1.147	2027235	WORD_OFF	n/a	n/a	FUDGE	10	17	[0, 0, 0]	n/a	FR1	1	R1317D
2026.429	1.636	2028382	WORD	n/a	n/a	VAN	11	17	[0, 0, 0]	n/a	FR1	1	R1317D
2028.065	0.812	2030018	WORD_OFF	n/a	n/a	VAN	11	17	[0, 0, 0]	n/a	FR1	1	R1317D
2028.877	1.638	2030830	WORD	n/a	n/a	BRUSH	12	17	[0, 0, 0]	n/a	FR1	1	R1317D
2030.515	0.001	2032468	WORD_OFF	n/a	n/a	BRUSH	12	17	[0, 0, 0]	n/a	FR1	1	R1317D
2030.516	0.0	2032469	ENCODING_END	n/a	n/a	n/a	-999	17	[0, 0, 0]	n/a	FR1	1	R1317D
2030.516	0.0	2032469	DISTRACT_START	n/a	n/a	n/a	-999	17	[0, 0, 0]	n/a	FR1	1	R1317D
2030.516	0.016	2032469	START	n/a	n/a	n/a	-999	17	[-999, -999, -999]	n/a	FR1	1	R1317D
2030.532	3.617	2032485	PROB	3.617	n/a	n/a	-999	17	[4, 5, 1]	10	FR1	1	R1317D
2034.149	6.501	2036102	PROB	6.501	n/a	n/a	-999	17	[4, 5, 8]	17	FR1	1	R1317D
2040.65	5.084	2042602	PROB	5.084	n/a	n/a	-999	17	[6, 7, 1]	14	FR1	1	R1317D
2045.734	3.884	2047686	PROB	3.884	n/a	n/a	-999	17	[4, 8, 9]	21	FR1	1	R1317D
2049.618	3.289	2051570	PROB	3.289	n/a	n/a	-999	17	[4, 1, 2]	7	FR1	1	R1317D
2052.907	0.012	2054859	STOP	n/a	n/a	n/a	-999	17	[-999, -999, -999]	n/a	FR1	1	R1317D
2052.919	0.631	2054871	DISTRACT_END	n/a	n/a	n/a	-999	17	[0, 0, 0]	n/a	FR1	1	R1317D
2053.55	1.687	2055502	RETRIEVAL_ORIENT_START	n/a	n/a	n/a	-999	17	[0, 0, 0]	n/a	FR1	1	R1317D
2055.237	0.001	2057189	RETRIEVAL_ORIENT_END	n/a	n/a	n/a	-999	17	[0, 0, 0]	n/a	FR1	1	R1317D
2055.238	4.476	2057190	REC_START	n/a	n/a	n/a	-999	17	[0, 0, 0]	n/a	FR1	1	R1317D
2059.714	2.906	2061665	REC_WORD	2.906	n/a	SMOKE	7	17	[0, 0, 0]	n/a	FR1	1	R1317D
2062.62	3.643	2064571	REC_WORD	3.643	n/a	DRUM	3	17	[0, 0, 0]	n/a	FR1	1	R1317D
2066.263	18.986	2068214	REC_WORD	18.986	n/a	SIGN	9	17	[0, 0, 0]	n/a	FR1	1	R1317D
2085.249	0.0	2087199	REC_END	n/a	n/a	n/a	-999	17	[0, 0, 0]	n/a	FR1	1	R1317D
2085.249	0.015	2087199	TRIAL_END	n/a	n/a	n/a	-999	17	[0, 0, 0]	n/a	FR1	1	R1317D
2085.264	0.0	2087214	TRIAL_START	n/a	n/a	n/a	-999	18	[0, 0, 0]	n/a	FR1	1	R1317D
2085.264	0.001	2087214	TRIAL	n/a	n/a	n/a	-999	18	[0, 0, 0]	n/a	FR1	1	R1317D
2085.265	2.361	2087215	WAITING_START	n/a	n/a	n/a	-999	18	[0, 0, 0]	n/a	FR1	1	R1317D
2087.626	0.0	2089576	WAITING_END	n/a	n/a	n/a	-999	18	[0, 0, 0]	n/a	FR1	1	R1317D
2087.626	10.428	2089576	COUNTDOWN_START	n/a	n/a	n/a	-999	18	[0, 0, 0]	n/a	FR1	1	R1317D
2098.054	0.0	2100003	ORIENT_START	n/a	n/a	n/a	-999	18	[0, 0, 0]	n/a	FR1	1	R1317D
2098.054	1.024	2100003	COUNTDOWN_END	n/a	n/a	n/a	-999	18	[0, 0, 0]	n/a	FR1	1	R1317D
2099.078	0.0	2101027	ORIENT_END	n/a	n/a	n/a	-999	18	[0, 0, 0]	n/a	FR1	1	R1317D
2099.078	0.926	2101027	ENCODING_START	n/a	n/a	n/a	-999	18	[0, 0, 0]	n/a	FR1	1	R1317D
2100.004	1.624	2101953	WORD	n/a	n/a	BOOK	1	18	[0, 0, 0]	n/a	FR1	1	R1317D
2101.628	1.071	2103577	WORD_OFF	n/a	n/a	BOOK	1	18	[0, 0, 0]	n/a	FR1	1	R1317D
2102.699	1.614	2104648	WORD	n/a	n/a	MUG	2	18	[0, 0, 0]	n/a	FR1	1	R1317D
2104.313	0.813	2106262	WORD_OFF	n/a	n/a	MUG	2	18	[0, 0, 0]	n/a	FR1	1	R1317D
2105.126	1.636	2107075	WORD	n/a	n/a	SHARK	3	18	[0, 0, 0]	n/a	FR1	1	R1317D
2106.762	1.102	2108711	WORD_OFF	n/a	n/a	SHARK	3	18	[0, 0, 0]	n/a	FR1	1	R1317D
2107.864	1.632	2109813	WORD	n/a	n/a	FORT	4	18	[0, 0, 0]	n/a	FR1	1	R1317D
2109.496	0.864	2111445	WORD_OFF	n/a	n/a	FORT	4	18	[0, 0, 0]	n/a	FR1	1	R1317D
2110.36	1.62	2112309	WORD	n/a	n/a	HILL	5	18	[0, 0, 0]	n/a	FR1	1	R1317D
2111.98	0.897	2113929	WORD_OFF	n/a	n/a	HILL	5	18	[0, 0, 0]	n/a	FR1	1	R1317D
2112.877	1.637	2114826	WORD	n/a	n/a	PET	6	18	[0, 0, 0]	n/a	FR1	1	R1317D
2114.514	1.125	2116463	WORD_OFF	n/a	n/a	PET	6	18	[0, 0, 0]	n/a	FR1	1	R1317D
2115.639	1.626	2117587	WORD	n/a	n/a	BOY	7	18	[0, 0, 0]	n/a	FR1	1	R1317D
2117.265	1.065	2119213	WORD_OFF	n/a	n/a	BOY	7	18	[0, 0, 0]	n/a	FR1	1	R1317D
2118.33	1.635	2120278	WORD	n/a	n/a	FLAG	8	18	[0, 0, 0]	n/a	FR1	1	R1317D
2119.965	0.794	2121913	WORD_OFF	n/a	n/a	FLAG	8	18	[0, 0, 0]	n/a	FR1	1	R1317D
2120.759	1.624	2122707	WORD	n/a	n/a	PHONE	9	18	[0, 0, 0]	n/a	FR1	1	R1317D
2122.383	0.977	2124331	WORD_OFF	n/a	n/a	PHONE	9	18	[0, 0, 0]	n/a	FR1	1	R1317D
2123.36	1.622	2125308	WORD	n/a	n/a	ARK	10	18	[0, 0, 0]	n/a	FR1	1	R1317D
2124.982	0.763	2126930	WORD_OFF	n/a	n/a	ARK	10	18	[0, 0, 0]	n/a	FR1	1	R1317D
2125.745	1.622	2127693	WORD	n/a	n/a	FENCE	11	18	[0, 0, 0]	n/a	FR1	1	R1317D
2127.367	0.949	2129315	WORD_OFF	n/a	n/a	FENCE	11	18	[0, 0, 0]	n/a	FR1	1	R1317D
2128.316	1.634	2130264	WORD	n/a	n/a	BLOOM	12	18	[0, 0, 0]	n/a	FR1	1	R1317D
2129.95	0.001	2131898	WORD_OFF	n/a	n/a	BLOOM	12	18	[0, 0, 0]	n/a	FR1	1	R1317D
2129.951	0.0	2131899	DISTRACT_START	n/a	n/a	n/a	-999	18	[0, 0, 0]	n/a	FR1	1	R1317D
2129.951	0.0	2131899	ENCODING_END	n/a	n/a	n/a	-999	18	[0, 0, 0]	n/a	FR1	1	R1317D
2129.951	0.015	2131899	START	n/a	n/a	n/a	-999	18	[-999, -999, -999]	n/a	FR1	1	R1317D
2129.966	3.402	2131914	PROB	3.402	n/a	n/a	-999	18	[3, 7, 1]	11	FR1	1	R1317D
2133.368	4.466	2135316	PROB	4.466	n/a	n/a	-999	18	[3, 8, 4]	15	FR1	1	R1317D
2137.834	4.868	2139781	PROB	4.868	n/a	n/a	-999	18	[4, 2, 9]	15	FR1	1	R1317D
2142.702	3.101	2144649	PROB	3.101	n/a	n/a	-999	18	[2, 7, 4]	13	FR1	1	R1317D
2145.803	3.134	2147750	PROB	3.134	n/a	n/a	-999	18	[6, 4, 1]	11	FR1	1	R1317D
2148.937	4.255	2150884	PROB	4.255	n/a	n/a	-999	18	[3, 9, 3]	15	FR1	1	R1317D
2153.192	0.012	2155139	STOP	n/a	n/a	n/a	-999	18	[-999, -999, -999]	n/a	FR1	1	R1317D
2153.204	0.63	2155151	DISTRACT_END	n/a	n/a	n/a	-999	18	[0, 0, 0]	n/a	FR1	1	R1317D
2153.834	1.522	2155781	RETRIEVAL_ORIENT_START	n/a	n/a	n/a	-999	18	[0, 0, 0]	n/a	FR1	1	R1317D
2155.356	0.0	2157302	RETRIEVAL_ORIENT_END	n/a	n/a	n/a	-999	18	[0, 0, 0]	n/a	FR1	1	R1317D
2155.356	4.244	2157302	REC_START	n/a	n/a	n/a	-999	18	[0, 0, 0]	n/a	FR1	1	R1317D
2159.6	1.362	2161546	REC_WORD	1.362	n/a	HILL	5	18	[0, 0, 0]	n/a	FR1	1	R1317D
2160.962	3.83	2162908	REC_WORD	3.83	n/a	PET	6	18	[0, 0, 0]	n/a	FR1	1	R1317D
2164.792	9.617	2166738	REC_WORD	9.617	n/a	FARM	-999	18	[0, 0, 0]	n/a	FR1	1	R1317D
2174.409	10.958	2176354	REC_WORD	10.958	n/a	PHONE	9	18	[0, 0, 0]	n/a	FR1	1	R1317D
2185.367	0.0	2187312	REC_END	n/a	n/a	n/a	-999	18	[0, 0, 0]	n/a	FR1	1	R1317D
2185.367	0.014	2187312	TRIAL_END	n/a	n/a	n/a	-999	18	[0, 0, 0]	n/a	FR1	1	R1317D
2185.381	0.001	2187326	TRIAL_START	n/a	n/a	n/a	-999	19	[0, 0, 0]	n/a	FR1	1	R1317D
2185.382	0.0	2187327	TRIAL	n/a	n/a	n/a	-999	19	[0, 0, 0]	n/a	FR1	1	R1317D
2185.382	2.162	2187327	WAITING_START	n/a	n/a	n/a	-999	19	[0, 0, 0]	n/a	FR1	1	R1317D
2187.544	0.0	2189489	WAITING_END	n/a	n/a	n/a	-999	19	[0, 0, 0]	n/a	FR1	1	R1317D
2187.544	10.429	2189489	COUNTDOWN_START	n/a	n/a	n/a	-999	19	[0, 0, 0]	n/a	FR1	1	R1317D
2197.973	0.001	2199917	COUNTDOWN_END	n/a	n/a	n/a	-999	19	[0, 0, 0]	n/a	FR1	1	R1317D
2197.974	1.122	2199918	ORIENT_START	n/a	n/a	n/a	-999	19	[0, 0, 0]	n/a	FR1	1	R1317D
2199.096	0.0	2201040	ORIENT_END	n/a	n/a	n/a	-999	19	[0, 0, 0]	n/a	FR1	1	R1317D
2199.096	1.046	2201040	ENCODING_START	n/a	n/a	n/a	-999	19	[0, 0, 0]	n/a	FR1	1	R1317D
2200.142	1.621	2202086	WORD	n/a	n/a	BAG	1	19	[0, 0, 0]	n/a	FR1	1	R1317D
2201.763	1.09	2203707	WORD_OFF	n/a	n/a	BAG	1	19	[0, 0, 0]	n/a	FR1	1	R1317D
2202.853	1.627	2204797	WORD	n/a	n/a	HAND	2	19	[0, 0, 0]	n/a	FR1	1	R1317D
2204.48	0.82	2206424	WORD_OFF	n/a	n/a	HAND	2	19	[0, 0, 0]	n/a	FR1	1	R1317D
2205.3	1.631	2207244	WORD	n/a	n/a	GEESE	3	19	[0, 0, 0]	n/a	FR1	1	R1317D
2206.931	0.804	2208875	WORD_OFF	n/a	n/a	GEESE	3	19	[0, 0, 0]	n/a	FR1	1	R1317D
2207.735	1.63	2209679	WORD	n/a	n/a	CORN	4	19	[0, 0, 0]	n/a	FR1	1	R1317D
2209.365	0.93	2211309	WORD_OFF	n/a	n/a	CORN	4	19	[0, 0, 0]	n/a	FR1	1	R1317D
2210.295	1.62	2212239	WORD	n/a	n/a	BEE	5	19	[0, 0, 0]	n/a	FR1	1	R1317D
2211.915	0.884	2213859	WORD_OFF	n/a	n/a	BEE	5	19	[0, 0, 0]	n/a	FR1	1	R1317D
2212.799	1.633	2214743	WORD	n/a	n/a	LAKE	6	19	[0, 0, 0]	n/a	FR1	1	R1317D
2214.432	0.883	2216375	WORD_OFF	n/a	n/a	LAKE	6	19	[0, 0, 0]	n/a	FR1	1	R1317D
2215.315	1.634	2217258	WORD	n/a	n/a	STREET	7	19	[0, 0, 0]	n/a	FR1	1	R1317D
2216.949	1.033	2218892	WORD_OFF	n/a	n/a	STREET	7	19	[0, 0, 0]	n/a	FR1	1	R1317D
2217.982	1.634	2219925	WORD	n/a	n/a	SKI	8	19	[0, 0, 0]	n/a	FR1	1	R1317D
2219.616	0.844	2221559	WORD_OFF	n/a	n/a	SKI	8	19	[0, 0, 0]	n/a	FR1	1	R1317D
2220.46	1.623	2222403	WORD	n/a	n/a	CLOWN	9	19	[0, 0, 0]	n/a	FR1	1	R1317D
2222.083	1.135	2224026	WORD_OFF	n/a	n/a	CLOWN	9	19	[0, 0, 0]	n/a	FR1	1	R1317D
2223.218	1.633	2225161	WORD	n/a	n/a	EEL	10	19	[0, 0, 0]	n/a	FR1	1	R1317D
2224.851	0.765	2226794	WORD_OFF	n/a	n/a	EEL	10	19	[0, 0, 0]	n/a	FR1	1	R1317D
2225.616	1.636	2227559	WORD	n/a	n/a	BOWL	11	19	[0, 0, 0]	n/a	FR1	1	R1317D
2227.252	1.046	2229195	WORD_OFF	n/a	n/a	BOWL	11	19	[0, 0, 0]	n/a	FR1	1	R1317D
2228.298	1.637	2230241	WORD	n/a	n/a	SPEAR	12	19	[0, 0, 0]	n/a	FR1	1	R1317D
2229.935	0.0	2231878	WORD_OFF	n/a	n/a	SPEAR	12	19	[0, 0, 0]	n/a	FR1	1	R1317D
2229.935	0.0	2231878	ENCODING_END	n/a	n/a	n/a	-999	19	[0, 0, 0]	n/a	FR1	1	R1317D
2229.935	0.001	2231878	DISTRACT_START	n/a	n/a	n/a	-999	19	[0, 0, 0]	n/a	FR1	1	R1317D
2229.936	0.015	2231879	START	n/a	n/a	n/a	-999	19	[-999, -999, -999]	n/a	FR1	1	R1317D
2229.951	7.118	2231894	PROB	7.118	n/a	n/a	-999	19	[7, 3, 9]	19	FR1	1	R1317D
2237.069	4.968	2239011	PROB	4.968	n/a	n/a	-999	19	[7, 8, 2]	17	FR1	1	R1317D
2242.037	4.917	2243979	PROB	4.917	n/a	n/a	-999	19	[4, 3, 3]	10	FR1	1	R1317D
2246.954	6.485	2248896	PROB	6.485	n/a	n/a	-999	19	[3, 8, 6]	17	FR1	1	R1317D
2253.439	0.017	2255380	STOP	n/a	n/a	n/a	-999	19	[-999, -999, -999]	n/a	FR1	1	R1317D
2253.456	0.693	2255397	DISTRACT_END	n/a	n/a	n/a	-999	19	[0, 0, 0]	n/a	FR1	1	R1317D
2254.149	1.557	2256090	RETRIEVAL_ORIENT_START	n/a	n/a	n/a	-999	19	[0, 0, 0]	n/a	FR1	1	R1317D
2255.706	0.001	2257647	RETRIEVAL_ORIENT_END	n/a	n/a	n/a	-999	19	[0, 0, 0]	n/a	FR1	1	R1317D
2255.707	3.222	2257648	REC_START	n/a	n/a	n/a	-999	19	[0, 0, 0]	n/a	FR1	1	R1317D
2258.929	1.999	2260870	REC_WORD	1.999	n/a	CORN	4	19	[0, 0, 0]	n/a	FR1	1	R1317D
2260.928	1.075	2262869	REC_WORD	1.075	n/a	BAG	1	19	[0, 0, 0]	n/a	FR1	1	R1317D
2262.003	2.419	2263944	REC_WORD	2.419	n/a	HAND	2	19	[0, 0, 0]	n/a	FR1	1	R1317D
2264.422	21.297	2266363	REC_WORD	21.297	n/a	GEESE	3	19	[0, 0, 0]	n/a	FR1	1	R1317D
2285.719	0.0	2287659	REC_END	n/a	n/a	n/a	-999	19	[0, 0, 0]	n/a	FR1	1	R1317D
2285.719	0.018	2287659	TRIAL_END	n/a	n/a	n/a	-999	19	[0, 0, 0]	n/a	FR1	1	R1317D
2285.737	0.0	2287677	TRIAL	n/a	n/a	n/a	-999	20	[0, 0, 0]	n/a	FR1	1	R1317D
2285.737	0.001	2287677	TRIAL_START	n/a	n/a	n/a	-999	20	[0, 0, 0]	n/a	FR1	1	R1317D
2285.738	1.874	2287678	WAITING_START	n/a	n/a	n/a	-999	20	[0, 0, 0]	n/a	FR1	1	R1317D
2287.612	0.0	2289552	WAITING_END	n/a	n/a	n/a	-999	20	[0, 0, 0]	n/a	FR1	1	R1317D
2287.612	10.43	2289552	COUNTDOWN_START	n/a	n/a	n/a	-999	20	[0, 0, 0]	n/a	FR1	1	R1317D
2298.042	0.0	2299981	COUNTDOWN_END	n/a	n/a	n/a	-999	20	[0, 0, 0]	n/a	FR1	1	R1317D
2298.042	1.189	2299981	ORIENT_START	n/a	n/a	n/a	-999	20	[0, 0, 0]	n/a	FR1	1	R1317D
2299.231	0.001	2301170	ORIENT_END	n/a	n/a	n/a	-999	20	[0, 0, 0]	n/a	FR1	1	R1317D
2299.232	0.915	2301171	ENCODING_START	n/a	n/a	n/a	-999	20	[0, 0, 0]	n/a	FR1	1	R1317D
2300.147	1.634	2302086	WORD	n/a	n/a	CASH	1	20	[0, 0, 0]	n/a	FR1	1	R1317D
2301.781	0.864	2303720	WORD_OFF	n/a	n/a	CASH	1	20	[0, 0, 0]	n/a	FR1	1	R1317D
2302.645	1.621	2304584	WORD	n/a	n/a	PRINCE	2	20	[0, 0, 0]	n/a	FR1	1	R1317D
2304.266	0.983	2306205	WORD_OFF	n/a	n/a	PRINCE	2	20	[0, 0, 0]	n/a	FR1	1	R1317D
2305.249	1.633	2307188	WORD	n/a	n/a	WORM	3	20	[0, 0, 0]	n/a	FR1	1	R1317D
2306.882	1.133	2308821	WORD_OFF	n/a	n/a	WORM	3	20	[0, 0, 0]	n/a	FR1	1	R1317D
2308.015	1.634	2309954	WORD	n/a	n/a	MAP	4	20	[0, 0, 0]	n/a	FR1	1	R1317D
2309.649	0.841	2311588	WORD_OFF	n/a	n/a	MAP	4	20	[0, 0, 0]	n/a	FR1	1	R1317D
2310.49	1.627	2312429	WORD	n/a	n/a	VINE	5	20	[0, 0, 0]	n/a	FR1	1	R1317D
2312.117	1.014	2314055	WORD_OFF	n/a	n/a	VINE	5	20	[0, 0, 0]	n/a	FR1	1	R1317D
2313.131	1.636	2315069	WORD	n/a	n/a	DUCK	6	20	[0, 0, 0]	n/a	FR1	1	R1317D
2314.767	1.05	2316705	WORD_OFF	n/a	n/a	DUCK	6	20	[0, 0, 0]	n/a	FR1	1	R1317D
2315.817	1.634	2317755	WORD	n/a	n/a	CAT	7	20	[0, 0, 0]	n/a	FR1	1	R1317D
2317.451	0.822	2319389	WORD_OFF	n/a	n/a	CAT	7	20	[0, 0, 0]	n/a	FR1	1	R1317D
2318.273	1.628	2320211	WORD	n/a	n/a	COIN	8	20	[0, 0, 0]	n/a	FR1	1	R1317D
2319.901	0.921	2321839	WORD_OFF	n/a	n/a	COIN	8	20	[0, 0, 0]	n/a	FR1	1	R1317D
2320.822	1.63	2322760	WORD	n/a	n/a	KEY	9	20	[0, 0, 0]	n/a	FR1	1	R1317D
2322.452	0.781	2324390	WORD_OFF	n/a	n/a	KEY	9	20	[0, 0, 0]	n/a	FR1	1	R1317D
2323.233	1.636	2325171	WORD	n/a	n/a	BANK	10	20	[0, 0, 0]	n/a	FR1	1	R1317D
2324.869	1.013	2326807	WORD_OFF	n/a	n/a	BANK	10	20	[0, 0, 0]	n/a	FR1	1	R1317D
2325.882	1.621	2327820	WORD	n/a	n/a	APE	11	20	[0, 0, 0]	n/a	FR1	1	R1317D
2327.503	1.09	2329441	WORD_OFF	n/a	n/a	APE	11	20	[0, 0, 0]	n/a	FR1	1	R1317D
2328.593	1.627	2330531	WORD	n/a	n/a	MUD	12	20	[0, 0, 0]	n/a	FR1	1	R1317D
2330.22	0.0	2332157	WORD_OFF	n/a	n/a	MUD	12	20	[0, 0, 0]	n/a	FR1	1	R1317D
2330.22	0.001	2332157	ENCODING_END	n/a	n/a	n/a	-999	20	[0, 0, 0]	n/a	FR1	1	R1317D
2330.221	0.0	2332158	DISTRACT_START	n/a	n/a	n/a	-999	20	[0, 0, 0]	n/a	FR1	1	R1317D
2330.221	0.016	2332158	START	n/a	n/a	n/a	-999	20	[-999, -999, -999]	n/a	FR1	1	R1317D
2330.237	15.669	2332174	PROB	15.669	n/a	n/a	-999	20	[6, 9, 8]	23	FR1	1	R1317D
2345.906	3.684	2347843	PROB	3.684	n/a	n/a	-999	20	[1, 2, 3]	6	FR1	1	R1317D
2349.59	4.756	2351526	PROB	4.756	n/a	n/a	-999	20	[6, 1, 3]	10	FR1	1	R1317D
2354.346	0.013	2356282	STOP	n/a	n/a	n/a	-999	20	[-999, -999, -999]	n/a	FR1	1	R1317D
2354.359	0.556	2356295	DISTRACT_END	n/a	n/a	n/a	-999	20	[0, 0, 0]	n/a	FR1	1	R1317D
2354.915	1.626	2356851	RETRIEVAL_ORIENT_START	n/a	n/a	n/a	-999	20	[0, 0, 0]	n/a	FR1	1	R1317D
2356.541	0.001	2358477	RETRIEVAL_ORIENT_END	n/a	n/a	n/a	-999	20	[0, 0, 0]	n/a	FR1	1	R1317D
2356.542	2.766	2358478	REC_START	n/a	n/a	n/a	-999	20	[0, 0, 0]	n/a	FR1	1	R1317D
2359.308	1.286	2361244	REC_WORD	1.286	n/a	COIN	8	20	[0, 0, 0]	n/a	FR1	1	R1317D
2360.594	1.825	2362530	REC_WORD	1.825	n/a	CASH	1	20	[0, 0, 0]	n/a	FR1	1	R1317D
2362.419	5.186	2364355	REC_WORD	5.186	n/a	PRINCE	2	20	[0, 0, 0]	n/a	FR1	1	R1317D
2367.605	18.949	2369541	REC_WORD_VV	18.949	n/a	<>	-999	20	[0, 0, 0]	n/a	FR1	1	R1317D
2386.554	0.0	2388489	REC_END	n/a	n/a	n/a	-999	20	[0, 0, 0]	n/a	FR1	1	R1317D
2386.554	0.016	2388489	TRIAL_END	n/a	n/a	n/a	-999	20	[0, 0, 0]	n/a	FR1	1	R1317D
2386.57	0.0	2388505	TRIAL	n/a	n/a	n/a	-999	21	[0, 0, 0]	n/a	FR1	1	R1317D
2386.57	0.0	2388505	WAITING_START	n/a	n/a	n/a	-999	21	[0, 0, 0]	n/a	FR1	1	R1317D
2386.57	2.795	2388505	TRIAL_START	n/a	n/a	n/a	-999	21	[0, 0, 0]	n/a	FR1	1	R1317D
2389.365	0.0	2391299	WAITING_END	n/a	n/a	n/a	-999	21	[0, 0, 0]	n/a	FR1	1	R1317D
2389.365	10.429	2391299	COUNTDOWN_START	n/a	n/a	n/a	-999	21	[0, 0, 0]	n/a	FR1	1	R1317D
2399.794	0.0	2401728	COUNTDOWN_END	n/a	n/a	n/a	-999	21	[0, 0, 0]	n/a	FR1	1	R1317D
2399.794	1.122	2401728	ORIENT_START	n/a	n/a	n/a	-999	21	[0, 0, 0]	n/a	FR1	1	R1317D
2400.916	0.0	2402850	ORIENT_END	n/a	n/a	n/a	-999	21	[0, 0, 0]	n/a	FR1	1	R1317D
2400.916	1.006	2402850	ENCODING_START	n/a	n/a	n/a	-999	21	[0, 0, 0]	n/a	FR1	1	R1317D
2401.922	1.628	2403856	WORD	n/a	n/a	MOTH	1	21	[0, 0, 0]	n/a	FR1	1	R1317D
2403.55	1.102	2405484	WORD_OFF	n/a	n/a	MOTH	1	21	[0, 0, 0]	n/a	FR1	1	R1317D
2404.652	1.633	2406586	WORD	n/a	n/a	SQUARE	2	21	[0, 0, 0]	n/a	FR1	1	R1317D
2406.285	0.778	2408219	WORD_OFF	n/a	n/a	SQUARE	2	21	[0, 0, 0]	n/a	FR1	1	R1317D
2407.063	1.621	2408997	WORD	n/a	n/a	CLIFF	3	21	[0, 0, 0]	n/a	FR1	1	R1317D
2408.684	0.974	2410617	WORD_OFF	n/a	n/a	CLIFF	3	21	[0, 0, 0]	n/a	FR1	1	R1317D
2409.658	1.627	2411591	WORD	n/a	n/a	SEA	4	21	[0, 0, 0]	n/a	FR1	1	R1317D
2411.285	0.854	2413218	WORD_OFF	n/a	n/a	SEA	4	21	[0, 0, 0]	n/a	FR1	1	R1317D
2412.139	1.629	2414072	WORD	n/a	n/a	GRAPE	5	21	[0, 0, 0]	n/a	FR1	1	R1317D
2413.768	1.072	2415701	WORD_OFF	n/a	n/a	GRAPE	5	21	[0, 0, 0]	n/a	FR1	1	R1317D
2414.84	1.629	2416773	WORD	n/a	n/a	ARM	6	21	[0, 0, 0]	n/a	FR1	1	R1317D
2416.469	0.843	2418402	WORD_OFF	n/a	n/a	ARM	6	21	[0, 0, 0]	n/a	FR1	1	R1317D
2417.312	1.624	2419245	WORD	n/a	n/a	TRUCK	7	21	[0, 0, 0]	n/a	FR1	1	R1317D
2418.936	0.858	2420869	WORD_OFF	n/a	n/a	TRUCK	7	21	[0, 0, 0]	n/a	FR1	1	R1317D
2419.794	1.626	2421727	WORD	n/a	n/a	BEAR	8	21	[0, 0, 0]	n/a	FR1	1	R1317D
2421.42	0.773	2423353	WORD_OFF	n/a	n/a	BEAR	8	21	[0, 0, 0]	n/a	FR1	1	R1317D
2422.193	1.627	2424126	WORD	n/a	n/a	FOOT	9	21	[0, 0, 0]	n/a	FR1	1	R1317D
2423.82	0.971	2425753	WORD_OFF	n/a	n/a	FOOT	9	21	[0, 0, 0]	n/a	FR1	1	R1317D
2424.791	1.63	2426724	WORD	n/a	n/a	STEAM	10	21	[0, 0, 0]	n/a	FR1	1	R1317D
2426.421	1.082	2428354	WORD_OFF	n/a	n/a	STEAM	10	21	[0, 0, 0]	n/a	FR1	1	R1317D
2427.503	1.635	2429435	WORD	n/a	n/a	BALL	11	21	[0, 0, 0]	n/a	FR1	1	R1317D
2429.138	1.071	2431070	WORD_OFF	n/a	n/a	BALL	11	21	[0, 0, 0]	n/a	FR1	1	R1317D
2430.209	1.629	2432141	WORD	n/a	n/a	LAWN	12	21	[0, 0, 0]	n/a	FR1	1	R1317D
2431.838	0.001	2433770	WORD_OFF	n/a	n/a	LAWN	12	21	[0, 0, 0]	n/a	FR1	1	R1317D
2431.839	0.0	2433771	ENCODING_END	n/a	n/a	n/a	-999	21	[0, 0, 0]	n/a	FR1	1	R1317D
2431.839	0.0	2433771	DISTRACT_START	n/a	n/a	n/a	-999	21	[0, 0, 0]	n/a	FR1	1	R1317D
2431.839	0.016	2433771	START	n/a	n/a	n/a	-999	21	[-999, -999, -999]	n/a	FR1	1	R1317D
2431.855	3.767	2433787	PROB	3.767	n/a	n/a	-999	21	[5, 8, 5]	18	FR1	1	R1317D
2435.622	4.118	2437554	PROB	4.118	n/a	n/a	-999	21	[5, 5, 3]	13	FR1	1	R1317D
2439.74	3.184	2441672	PROB	3.184	n/a	n/a	-999	21	[2, 4, 4]	10	FR1	1	R1317D
2442.924	3.583	2444856	PROB	3.583	n/a	n/a	-999	21	[6, 8, 1]	15	FR1	1	R1317D
2446.507	3.334	2448439	PROB	3.334	n/a	n/a	-999	21	[2, 5, 4]	11	FR1	1	R1317D
2449.841	3.279	2451772	PROB	3.279	n/a	n/a	-999	21	[2, 4, 6]	12	FR1	1	R1317D
2453.12	0.022	2455051	STOP	n/a	n/a	n/a	-999	21	[-999, -999, -999]	n/a	FR1	1	R1317D
2453.142	0.549	2455073	DISTRACT_END	n/a	n/a	n/a	-999	21	[0, 0, 0]	n/a	FR1	1	R1317D
2453.691	1.553	2455622	RETRIEVAL_ORIENT_START	n/a	n/a	n/a	-999	21	[0, 0, 0]	n/a	FR1	1	R1317D
2455.244	0.0	2457175	RETRIEVAL_ORIENT_END	n/a	n/a	n/a	-999	21	[0, 0, 0]	n/a	FR1	1	R1317D
2455.244	1.401	2457175	REC_START	n/a	n/a	n/a	-999	21	[0, 0, 0]	n/a	FR1	1	R1317D
2456.645	1.402	2458576	REC_WORD	1.402	n/a	LAWN	12	21	[0, 0, 0]	n/a	FR1	1	R1317D
2458.047	2.206	2459978	REC_WORD	2.206	n/a	CLIFF	3	21	[0, 0, 0]	n/a	FR1	1	R1317D
2460.253	2.663	2462184	REC_WORD	2.663	n/a	FOOT	9	21	[0, 0, 0]	n/a	FR1	1	R1317D
2462.916	1.639	2464847	REC_WORD	1.639	n/a	BREAK	-999	21	[0, 0, 0]	n/a	FR1	1	R1317D
2464.555	20.699	2466486	REC_WORD	20.699	n/a	BEAR	8	21	[0, 0, 0]	n/a	FR1	1	R1317D
2485.254	0.0	2487184	REC_END	n/a	n/a	n/a	-999	21	[0, 0, 0]	n/a	FR1	1	R1317D
2485.254	0.015	2487184	TRIAL_END	n/a	n/a	n/a	-999	21	[0, 0, 0]	n/a	FR1	1	R1317D
2485.269	0.0	2487199	TRIAL	n/a	n/a	n/a	-999	22	[0, 0, 0]	n/a	FR1	1	R1317D
2485.269	0.0	2487199	WAITING_START	n/a	n/a	n/a	-999	22	[0, 0, 0]	n/a	FR1	1	R1317D
2485.269	1.663	2487199	TRIAL_START	n/a	n/a	n/a	-999	22	[0, 0, 0]	n/a	FR1	1	R1317D
2486.932	0.0	2488861	WAITING_END	n/a	n/a	n/a	-999	22	[0, 0, 0]	n/a	FR1	1	R1317D
2486.932	10.429	2488861	COUNTDOWN_START	n/a	n/a	n/a	-999	22	[0, 0, 0]	n/a	FR1	1	R1317D
2497.361	0.001	2499290	COUNTDOWN_END	n/a	n/a	n/a	-999	22	[0, 0, 0]	n/a	FR1	1	R1317D
2497.362	1.205	2499291	ORIENT_START	n/a	n/a	n/a	-999	22	[0, 0, 0]	n/a	FR1	1	R1317D
2498.567	0.001	2500496	ORIENT_END	n/a	n/a	n/a	-999	22	[0, 0, 0]	n/a	FR1	1	R1317D
2498.568	0.97	2500497	ENCODING_START	n/a	n/a	n/a	-999	22	[0, 0, 0]	n/a	FR1	1	R1317D
2499.538	1.63	2501467	WORD	n/a	n/a	DOG	1	22	[0, 0, 0]	n/a	FR1	1	R1317D
2501.168	0.854	2503097	WORD_OFF	n/a	n/a	DOG	1	22	[0, 0, 0]	n/a	FR1	1	R1317D
2502.022	1.63	2503951	WORD	n/a	n/a	SNAKE	2	22	[0, 0, 0]	n/a	FR1	1	R1317D
2503.652	0.807	2505581	WORD_OFF	n/a	n/a	SNAKE	2	22	[0, 0, 0]	n/a	FR1	1	R1317D
2504.459	1.626	2506388	WORD	n/a	n/a	PIN	3	22	[0, 0, 0]	n/a	FR1	1	R1317D
2506.085	0.847	2508013	WORD_OFF	n/a	n/a	PIN	3	22	[0, 0, 0]	n/a	FR1	1	R1317D
2506.932	1.637	2508860	WORD	n/a	n/a	FLOOR	4	22	[0, 0, 0]	n/a	FR1	1	R1317D
2508.569	0.812	2510497	WORD_OFF	n/a	n/a	FLOOR	4	22	[0, 0, 0]	n/a	FR1	1	R1317D
2509.381	1.622	2511309	WORD	n/a	n/a	BUSH	5	22	[0, 0, 0]	n/a	FR1	1	R1317D
2511.003	0.784	2512931	WORD_OFF	n/a	n/a	BUSH	5	22	[0, 0, 0]	n/a	FR1	1	R1317D
2511.787	1.633	2513715	WORD	n/a	n/a	SHEET	6	22	[0, 0, 0]	n/a	FR1	1	R1317D
2513.42	1.056	2515348	WORD_OFF	n/a	n/a	SHEET	6	22	[0, 0, 0]	n/a	FR1	1	R1317D
2514.476	1.628	2516404	WORD	n/a	n/a	POOL	7	22	[0, 0, 0]	n/a	FR1	1	R1317D
2516.104	1.105	2518032	WORD_OFF	n/a	n/a	POOL	7	22	[0, 0, 0]	n/a	FR1	1	R1317D
2517.209	1.629	2519137	WORD	n/a	n/a	NEST	8	22	[0, 0, 0]	n/a	FR1	1	R1317D
2518.838	0.782	2520766	WORD_OFF	n/a	n/a	NEST	8	22	[0, 0, 0]	n/a	FR1	1	R1317D
2519.62	1.636	2521548	WORD	n/a	n/a	JEEP	9	22	[0, 0, 0]	n/a	FR1	1	R1317D
2521.256	0.932	2523184	WORD_OFF	n/a	n/a	JEEP	9	22	[0, 0, 0]	n/a	FR1	1	R1317D
2522.188	1.634	2524116	WORD	n/a	n/a	MOUSE	10	22	[0, 0, 0]	n/a	FR1	1	R1317D
2523.822	0.899	2525750	WORD_OFF	n/a	n/a	MOUSE	10	22	[0, 0, 0]	n/a	FR1	1	R1317D
2524.721	1.619	2526649	WORD	n/a	n/a	LEG	11	22	[0, 0, 0]	n/a	FR1	1	R1317D
2526.34	0.952	2528267	WORD_OFF	n/a	n/a	LEG	11	22	[0, 0, 0]	n/a	FR1	1	R1317D
2527.292	1.631	2529219	WORD	n/a	n/a	SHEEP	12	22	[0, 0, 0]	n/a	FR1	1	R1317D
2528.923	0.0	2530850	WORD_OFF	n/a	n/a	SHEEP	12	22	[0, 0, 0]	n/a	FR1	1	R1317D
2528.923	0.0	2530850	ENCODING_END	n/a	n/a	n/a	-999	22	[0, 0, 0]	n/a	FR1	1	R1317D
2528.923	0.0	2530850	DISTRACT_START	n/a	n/a	n/a	-999	22	[0, 0, 0]	n/a	FR1	1	R1317D
2528.923	0.016	2530850	START	n/a	n/a	n/a	-999	22	[-999, -999, -999]	n/a	FR1	1	R1317D
2528.939	11.387	2530866	PROB	11.387	n/a	n/a	-999	22	[8, 9, 8]	25	FR1	1	R1317D
2540.326	5.149	2542253	PROB	5.149	n/a	n/a	-999	22	[8, 6, 2]	16	FR1	1	R1317D
2545.475	4.435	2547401	PROB	4.435	n/a	n/a	-999	22	[6, 3, 1]	10	FR1	1	R1317D
2549.91	0.017	2551836	STOP	n/a	n/a	n/a	-999	22	[-999, -999, -999]	n/a	FR1	1	R1317D
2549.927	0.666	2551853	DISTRACT_END	n/a	n/a	n/a	-999	22	[0, 0, 0]	n/a	FR1	1	R1317D
2550.593	1.551	2552519	RETRIEVAL_ORIENT_START	n/a	n/a	n/a	-999	22	[0, 0, 0]	n/a	FR1	1	R1317D
2552.144	0.0	2554070	RETRIEVAL_ORIENT_END	n/a	n/a	n/a	-999	22	[0, 0, 0]	n/a	FR1	1	R1317D
2552.144	1.002	2554070	REC_START	n/a	n/a	n/a	-999	22	[0, 0, 0]	n/a	FR1	1	R1317D
2553.146	2.268	2555072	REC_WORD	2.268	n/a	JEEP	9	22	[0, 0, 0]	n/a	FR1	1	R1317D
2555.414	1.716	2557340	REC_WORD	1.716	n/a	PIN	3	22	[0, 0, 0]	n/a	FR1	1	R1317D
2557.13	3.134	2559056	REC_WORD	3.134	n/a	LAWN	-999	22	[0, 0, 0]	n/a	FR1	1	R1317D
2560.264	21.891	2562190	REC_WORD	21.891	n/a	LAKE	-999	22	[0, 0, 0]	n/a	FR1	1	R1317D
2582.155	0.0	2584080	REC_END	n/a	n/a	n/a	-999	22	[0, 0, 0]	n/a	FR1	1	R1317D
2582.155	0.014	2584080	TRIAL_END	n/a	n/a	n/a	-999	22	[0, 0, 0]	n/a	FR1	1	R1317D
2582.169	0.001	2584094	TRIAL_START	n/a	n/a	n/a	-999	23	[0, 0, 0]	n/a	FR1	1	R1317D
2582.17	0.0	2584095	TRIAL	n/a	n/a	n/a	-999	23	[0, 0, 0]	n/a	FR1	1	R1317D
2582.17	2.114	2584095	WAITING_START	n/a	n/a	n/a	-999	23	[0, 0, 0]	n/a	FR1	1	R1317D
2584.284	0.0	2586208	COUNTDOWN_START	n/a	n/a	n/a	-999	23	[0, 0, 0]	n/a	FR1	1	R1317D
2584.284	10.429	2586208	WAITING_END	n/a	n/a	n/a	-999	23	[0, 0, 0]	n/a	FR1	1	R1317D
2594.713	0.0	2596637	COUNTDOWN_END	n/a	n/a	n/a	-999	23	[0, 0, 0]	n/a	FR1	1	R1317D
2594.713	1.172	2596637	ORIENT_START	n/a	n/a	n/a	-999	23	[0, 0, 0]	n/a	FR1	1	R1317D
2595.885	0.001	2597809	ORIENT_END	n/a	n/a	n/a	-999	23	[0, 0, 0]	n/a	FR1	1	R1317D
2595.886	0.863	2597810	ENCODING_START	n/a	n/a	n/a	-999	23	[0, 0, 0]	n/a	FR1	1	R1317D
2596.749	1.62	2598673	WORD	n/a	n/a	BADGE	1	23	[0, 0, 0]	n/a	FR1	1	R1317D
2598.369	0.887	2600293	WORD_OFF	n/a	n/a	BADGE	1	23	[0, 0, 0]	n/a	FR1	1	R1317D
2599.256	1.63	2601180	WORD	n/a	n/a	DIME	2	23	[0, 0, 0]	n/a	FR1	1	R1317D
2600.886	1.066	2602810	WORD_OFF	n/a	n/a	DIME	2	23	[0, 0, 0]	n/a	FR1	1	R1317D
2601.952	1.634	2603876	WORD	n/a	n/a	TRAIN	3	23	[0, 0, 0]	n/a	FR1	1	R1317D
2603.586	1.053	2605509	WORD_OFF	n/a	n/a	TRAIN	3	23	[0, 0, 0]	n/a	FR1	1	R1317D
2604.639	1.632	2606562	WORD	n/a	n/a	SWORD	4	23	[0, 0, 0]	n/a	FR1	1	R1317D
2606.271	0.907	2608194	WORD_OFF	n/a	n/a	SWORD	4	23	[0, 0, 0]	n/a	FR1	1	R1317D
2607.178	1.626	2609101	WORD	n/a	n/a	BEAK	5	23	[0, 0, 0]	n/a	FR1	1	R1317D
2608.804	1.132	2610727	WORD_OFF	n/a	n/a	BEAK	5	23	[0, 0, 0]	n/a	FR1	1	R1317D
2609.936	1.635	2611859	WORD	n/a	n/a	EGG	6	23	[0, 0, 0]	n/a	FR1	1	R1317D
2611.571	0.843	2613494	WORD_OFF	n/a	n/a	EGG	6	23	[0, 0, 0]	n/a	FR1	1	R1317D
2612.414	1.624	2614337	WORD	n/a	n/a	HAWK	7	23	[0, 0, 0]	n/a	FR1	1	R1317D
2614.038	0.893	2615961	WORD_OFF	n/a	n/a	HAWK	7	23	[0, 0, 0]	n/a	FR1	1	R1317D
2614.931	1.624	2616854	WORD	n/a	n/a	CAPE	8	23	[0, 0, 0]	n/a	FR1	1	R1317D
2616.555	1.095	2618478	WORD_OFF	n/a	n/a	CAPE	8	23	[0, 0, 0]	n/a	FR1	1	R1317D
2617.65	1.624	2619573	WORD	n/a	n/a	CHAIR	9	23	[0, 0, 0]	n/a	FR1	1	R1317D
2619.274	1.014	2621197	WORD_OFF	n/a	n/a	CHAIR	9	23	[0, 0, 0]	n/a	FR1	1	R1317D
2620.288	1.635	2622211	WORD	n/a	n/a	SKUNK	10	23	[0, 0, 0]	n/a	FR1	1	R1317D
2621.923	0.925	2623846	WORD_OFF	n/a	n/a	SKUNK	10	23	[0, 0, 0]	n/a	FR1	1	R1317D
2622.848	1.626	2624770	WORD	n/a	n/a	SWAMP	11	23	[0, 0, 0]	n/a	FR1	1	R1317D
2624.474	0.968	2626396	WORD_OFF	n/a	n/a	SWAMP	11	23	[0, 0, 0]	n/a	FR1	1	R1317D
2625.442	1.632	2627364	WORD	n/a	n/a	TRASH	12	23	[0, 0, 0]	n/a	FR1	1	R1317D
2627.074	0.0	2628996	ENCODING_END	n/a	n/a	n/a	-999	23	[0, 0, 0]	n/a	FR1	1	R1317D
2627.074	0.001	2628996	WORD_OFF	n/a	n/a	TRASH	12	23	[0, 0, 0]	n/a	FR1	1	R1317D
2627.075	0.0	2628997	DISTRACT_START	n/a	n/a	n/a	-999	23	[0, 0, 0]	n/a	FR1	1	R1317D
2627.075	0.015	2628997	START	n/a	n/a	n/a	-999	23	[-999, -999, -999]	n/a	FR1	1	R1317D
2627.09	7.652	2629012	PROB	7.652	n/a	n/a	-999	23	[3, 4, 2]	9	FR1	1	R1317D
2634.742	4.618	2636664	PROB	4.618	n/a	n/a	-999	23	[1, 3, 8]	12	FR1	1	R1317D
2639.36	2.017	2641282	PROB	2.017	n/a	n/a	-999	23	[1, 2, 8]	11	FR1	1	R1317D
2641.377	4.784	2643299	PROB	4.784	n/a	n/a	-999	23	[2, 1, 3]	6	FR1	1	R1317D
2646.161	3.066	2648082	PROB	3.066	n/a	n/a	-999	23	[3, 9, 9]	21	FR1	1	R1317D
2649.227	0.019	2651148	STOP	n/a	n/a	n/a	-999	23	[-999, -999, -999]	n/a	FR1	1	R1317D
2649.246	0.699	2651167	DISTRACT_END	n/a	n/a	n/a	-999	23	[0, 0, 0]	n/a	FR1	1	R1317D
2649.945	1.716	2651866	RETRIEVAL_ORIENT_START	n/a	n/a	n/a	-999	23	[0, 0, 0]	n/a	FR1	1	R1317D
2651.661	0.001	2653582	RETRIEVAL_ORIENT_END	n/a	n/a	n/a	-999	23	[0, 0, 0]	n/a	FR1	1	R1317D
2651.662	1.476	2653583	REC_START	n/a	n/a	n/a	-999	23	[0, 0, 0]	n/a	FR1	1	R1317D
2653.138	1.985	2655059	REC_WORD	1.985	n/a	CAPE	8	23	[0, 0, 0]	n/a	FR1	1	R1317D
2655.123	1.656	2657044	REC_WORD	1.656	n/a	BEAK	5	23	[0, 0, 0]	n/a	FR1	1	R1317D
2656.779	9.527	2658700	REC_WORD	9.527	n/a	EGG	6	23	[0, 0, 0]	n/a	FR1	1	R1317D
2666.306	15.367	2668226	REC_WORD	15.367	n/a	HAWK	7	23	[0, 0, 0]	n/a	FR1	1	R1317D
2681.673	0.001	2683592	REC_END	n/a	n/a	n/a	-999	23	[0, 0, 0]	n/a	FR1	1	R1317D
2681.674	0.014	2683593	TRIAL_END	n/a	n/a	n/a	-999	23	[0, 0, 0]	n/a	FR1	1	R1317D
2681.688	0.0	2683607	TRIAL_START	n/a	n/a	n/a	-999	24	[0, 0, 0]	n/a	FR1	1	R1317D
2681.688	0.001	2683607	TRIAL	n/a	n/a	n/a	-999	24	[0, 0, 0]	n/a	FR1	1	R1317D
2681.689	2.112	2683608	WAITING_START	n/a	n/a	n/a	-999	24	[0, 0, 0]	n/a	FR1	1	R1317D
2683.801	0.001	2685720	WAITING_END	n/a	n/a	n/a	-999	24	[0, 0, 0]	n/a	FR1	1	R1317D
2683.802	10.43	2685721	COUNTDOWN_START	n/a	n/a	n/a	-999	24	[0, 0, 0]	n/a	FR1	1	R1317D
2694.232	0.0	2696151	ORIENT_START	n/a	n/a	n/a	-999	24	[0, 0, 0]	n/a	FR1	1	R1317D
2694.232	1.204	2696151	COUNTDOWN_END	n/a	n/a	n/a	-999	24	[0, 0, 0]	n/a	FR1	1	R1317D
2695.436	0.001	2697355	ORIENT_END	n/a	n/a	n/a	-999	24	[0, 0, 0]	n/a	FR1	1	R1317D
2695.437	0.805	2697356	ENCODING_START	n/a	n/a	n/a	-999	24	[0, 0, 0]	n/a	FR1	1	R1317D
2696.242	1.628	2698161	WORD	n/a	n/a	POLE	1	24	[0, 0, 0]	n/a	FR1	1	R1317D
2697.87	0.98	2699789	WORD_OFF	n/a	n/a	POLE	1	24	[0, 0, 0]	n/a	FR1	1	R1317D
2698.85	1.637	2700769	WORD	n/a	n/a	PEN	2	24	[0, 0, 0]	n/a	FR1	1	R1317D
2700.487	1.084	2702405	WORD_OFF	n/a	n/a	PEN	2	24	[0, 0, 0]	n/a	FR1	1	R1317D
2701.571	1.634	2703489	WORD	n/a	n/a	ICE	3	24	[0, 0, 0]	n/a	FR1	1	R1317D
2703.205	0.925	2705123	WORD_OFF	n/a	n/a	ICE	3	24	[0, 0, 0]	n/a	FR1	1	R1317D
2704.13	1.625	2706048	WORD	n/a	n/a	SUN	4	24	[0, 0, 0]	n/a	FR1	1	R1317D
2705.755	1.136	2707673	WORD_OFF	n/a	n/a	SUN	4	24	[0, 0, 0]	n/a	FR1	1	R1317D
2706.891	1.631	2708809	WORD	n/a	n/a	RICE	5	24	[0, 0, 0]	n/a	FR1	1	R1317D
2708.522	1.083	2710440	WORD_OFF	n/a	n/a	RICE	5	24	[0, 0, 0]	n/a	FR1	1	R1317D
2709.605	1.635	2711523	WORD	n/a	n/a	CANE	6	24	[0, 0, 0]	n/a	FR1	1	R1317D
2711.24	0.88	2713158	WORD_OFF	n/a	n/a	CANE	6	24	[0, 0, 0]	n/a	FR1	1	R1317D
2712.12	1.636	2714038	WORD	n/a	n/a	ZOO	7	24	[0, 0, 0]	n/a	FR1	1	R1317D
2713.756	0.997	2715674	WORD_OFF	n/a	n/a	ZOO	7	24	[0, 0, 0]	n/a	FR1	1	R1317D
2714.753	1.605	2716671	WORD	n/a	n/a	FARM	8	24	[0, 0, 0]	n/a	FR1	1	R1317D
2716.358	0.917	2718276	WORD_OFF	n/a	n/a	FARM	8	24	[0, 0, 0]	n/a	FR1	1	R1317D
2717.275	1.632	2719193	WORD	n/a	n/a	FROG	9	24	[0, 0, 0]	n/a	FR1	1	R1317D
