onset	duration	sample	trial_type	response_time	stim_file	item_name	serialpos	list	test	answer	experiment	session	subject
0.0	12.492	255064	SESS_START	n/a	n/a	n/a	-999	-999	[0, 0, 0]	n/a	FR1	0	R1093J
12.492	10.428	267555	COUNTDOWN_START	n/a	n/a	n/a	-999	-999	[0, 0, 0]	n/a	FR1	0	R1093J
22.92	3.624	277983	COUNTDOWN_END	n/a	n/a	n/a	-999	-999	[0, 0, 0]	n/a	FR1	0	R1093J
26.544	2.482	281607	PRACTICE_WORD	n/a	n/a	CHEST	1	-1	[0, 0, 0]	n/a	FR1	0	R1093J
29.026	2.502	284089	PRACTICE_WORD	n/a	n/a	CAMEL	2	-1	[0, 0, 0]	n/a	FR1	0	R1093J
31.528	2.499	286591	PRACTICE_WORD	n/a	n/a	IRON	3	-1	[0, 0, 0]	n/a	FR1	0	R1093J
34.027	2.585	289090	PRACTICE_WORD	n/a	n/a	WATCH	4	-1	[0, 0, 0]	n/a	FR1	0	R1093J
36.612	2.599	291675	PRACTICE_WORD	n/a	n/a	RING	5	-1	[0, 0, 0]	n/a	FR1	0	R1093J
39.211	2.368	294274	PRACTICE_WORD	n/a	n/a	TONGUE	6	-1	[0, 0, 0]	n/a	FR1	0	R1093J
41.579	2.433	296642	PRACTICE_WORD	n/a	n/a	BEAM	7	-1	[0, 0, 0]	n/a	FR1	0	R1093J
44.012	2.568	299075	PRACTICE_WORD	n/a	n/a	RHINO	8	-1	[0, 0, 0]	n/a	FR1	0	R1093J
46.58	2.616	301643	PRACTICE_WORD	n/a	n/a	FLOOD	9	-1	[0, 0, 0]	n/a	FR1	0	R1093J
49.196	2.468	304259	PRACTICE_WORD	n/a	n/a	COTTON	10	-1	[0, 0, 0]	n/a	FR1	0	R1093J
51.664	2.516	306727	PRACTICE_WORD	n/a	n/a	ATTIC	11	-1	[0, 0, 0]	n/a	FR1	0	R1093J
54.18	1.601	309243	PRACTICE_WORD	n/a	n/a	WAGON	12	-1	[0, 0, 0]	n/a	FR1	0	R1093J
55.781	0.001	310844	PRACTICE_DISTRACT_START	n/a	n/a	n/a	-999	-1	[0, 0, 0]	n/a	FR1	0	R1093J
55.782	0.016	310845	START	n/a	n/a	n/a	-999	-1	[-999, -999, -999]	n/a	FR1	0	R1093J
55.798	38.192	310861	PROB	38.192	n/a	n/a	-999	-1	[6, 8, 7]	21	FR1	0	R1093J
93.99	0.012	349052	STOP	n/a	n/a	n/a	-999	-1	[-999, -999, -999]	n/a	FR1	0	R1093J
94.002	0.67	349064	PRACTICE_DISTRACT_END	n/a	n/a	n/a	-999	-1	[0, 0, 0]	n/a	FR1	0	R1093J
94.672	30.514	349734	PRACTICE_REC_START	n/a	n/a	n/a	-999	-1	[0, 0, 0]	n/a	FR1	0	R1093J
125.186	25.325	380248	PRACTICE_REC_END	n/a	n/a	n/a	-999	-1	[0, 0, 0]	n/a	FR1	0	R1093J
150.511	0.0	405572	COUNTDOWN_START	n/a	n/a	n/a	-999	1	[0, 0, 0]	n/a	FR1	0	R1093J
150.511	10.428	405572	TRIAL	n/a	n/a	n/a	-999	1	[0, 0, 0]	n/a	FR1	0	R1093J
160.939	0.006	416000	COUNTDOWN_END	n/a	n/a	n/a	-999	1	[0, 0, 0]	n/a	FR1	0	R1093J
160.945	2.584	416006	ORIENT	n/a	n/a	n/a	-999	1	[0, 0, 0]	n/a	FR1	0	R1093J
163.529	2.567	418590	WORD	n/a	wordpools/wordpool_EN.txt	CORN	1	1	[0, 0, 0]	n/a	FR1	0	R1093J
166.096	2.634	421157	WORD	n/a	wordpools/wordpool_EN.txt	STRAW	2	1	[0, 0, 0]	n/a	FR1	0	R1093J
168.73	2.566	423791	WORD	n/a	wordpools/wordpool_EN.txt	STEAK	3	1	[0, 0, 0]	n/a	FR1	0	R1093J
171.296	2.468	426357	WORD	n/a	wordpools/wordpool_EN.txt	STOVE	4	1	[0, 0, 0]	n/a	FR1	0	R1093J
173.764	2.483	428825	WORD	n/a	wordpools/wordpool_EN.txt	COW	5	1	[0, 0, 0]	n/a	FR1	0	R1093J
176.247	2.601	431308	WORD	n/a	wordpools/wordpool_EN.txt	PANTS	6	1	[0, 0, 0]	n/a	FR1	0	R1093J
178.848	2.517	433909	WORD	n/a	wordpools/wordpool_EN.txt	BARN	7	1	[0, 0, 0]	n/a	FR1	0	R1093J
181.365	2.583	436426	WORD	n/a	wordpools/wordpool_EN.txt	PURSE	8	1	[0, 0, 0]	n/a	FR1	0	R1093J
183.948	2.601	439009	WORD	n/a	wordpools/wordpool_EN.txt	SEAT	9	1	[0, 0, 0]	n/a	FR1	0	R1093J
186.549	2.616	441610	WORD	n/a	wordpools/wordpool_EN.txt	GUARD	10	1	[0, 0, 0]	n/a	FR1	0	R1093J
189.165	2.568	444226	WORD	n/a	wordpools/wordpool_EN.txt	PEN	11	1	[0, 0, 0]	n/a	FR1	0	R1093J
191.733	1.617	446793	WORD	n/a	wordpools/wordpool_EN.txt	RIB	12	1	[0, 0, 0]	n/a	FR1	0	R1093J
193.35	0.001	448410	DISTRACT_START	n/a	n/a	n/a	-999	1	[0, 0, 0]	n/a	FR1	0	R1093J
193.351	0.016	448411	START	n/a	n/a	n/a	-999	1	[-999, -999, -999]	n/a	FR1	0	R1093J
193.367	13.584	448427	PROB	13.584	n/a	n/a	-999	1	[8, 5, 4]	17	FR1	0	R1093J
206.951	11.916	462011	PROB	11.916	n/a	n/a	-999	1	[9, 2, 6]	17	FR1	0	R1093J
218.867	0.02	473927	STOP	n/a	n/a	n/a	-999	1	[-999, -999, -999]	n/a	FR1	0	R1093J
218.887	1.119	473947	DISTRACT_END	n/a	n/a	n/a	-999	1	[0, 0, 0]	n/a	FR1	0	R1093J
220.006	2.498	475066	REC_START	n/a	n/a	n/a	-999	1	[0, 0, 0]	n/a	FR1	0	R1093J
222.504	1.901	477564	REC_WORD	1.901	n/a	CORN	-999	1	[0, 0, 0]	n/a	FR1	0	R1093J
224.405	2.946	479465	REC_WORD	2.946	n/a	STEAK	-999	1	[0, 0, 0]	n/a	FR1	0	R1093J
227.351	2.656	482411	REC_WORD_VV	2.656	n/a	<>	-999	1	[0, 0, 0]	n/a	FR1	0	R1093J
230.007	4.666	485067	REC_WORD_VV	4.666	n/a	<>	-999	1	[0, 0, 0]	n/a	FR1	0	R1093J
234.673	3.801	489733	REC_WORD_VV	3.801	n/a	<>	-999	1	[0, 0, 0]	n/a	FR1	0	R1093J
238.474	0.444	493534	REC_WORD	0.444	n/a	CORN	-999	1	[0, 0, 0]	n/a	FR1	0	R1093J
238.918	11.096	493978	REC_WORD	11.096	n/a	STEAK	-999	1	[0, 0, 0]	n/a	FR1	0	R1093J
250.014	8.528	505074	REC_END	n/a	n/a	n/a	-999	1	[0, 0, 0]	n/a	FR1	0	R1093J
258.542	0.001	513601	COUNTDOWN_START	n/a	n/a	n/a	-999	2	[0, 0, 0]	n/a	FR1	0	R1093J
258.543	10.427	513602	TRIAL	n/a	n/a	n/a	-999	2	[0, 0, 0]	n/a	FR1	0	R1093J
268.97	0.006	524029	COUNTDOWN_END	n/a	n/a	n/a	-999	2	[0, 0, 0]	n/a	FR1	0	R1093J
268.976	2.535	524035	ORIENT	n/a	n/a	n/a	-999	2	[0, 0, 0]	n/a	FR1	0	R1093J
271.511	2.566	526570	WORD	n/a	wordpools/wordpool_EN.txt	KEY	1	2	[0, 0, 0]	n/a	FR1	0	R1093J
274.077	2.468	529136	WORD	n/a	wordpools/wordpool_EN.txt	SHIELD	2	2	[0, 0, 0]	n/a	FR1	0	R1093J
276.545	2.449	531604	WORD	n/a	wordpools/wordpool_EN.txt	HOUSE	3	2	[0, 0, 0]	n/a	FR1	0	R1093J
278.994	2.385	534053	WORD	n/a	wordpools/wordpool_EN.txt	CHALK	4	2	[0, 0, 0]	n/a	FR1	0	R1093J
281.379	2.5	536438	WORD	n/a	wordpools/wordpool_EN.txt	WING	5	2	[0, 0, 0]	n/a	FR1	0	R1093J
283.879	2.567	538938	WORD	n/a	wordpools/wordpool_EN.txt	STREET	6	2	[0, 0, 0]	n/a	FR1	0	R1093J
286.446	2.467	541505	WORD	n/a	wordpools/wordpool_EN.txt	FORT	7	2	[0, 0, 0]	n/a	FR1	0	R1093J
288.913	2.584	543972	WORD	n/a	wordpools/wordpool_EN.txt	DOLL	8	2	[0, 0, 0]	n/a	FR1	0	R1093J
291.497	2.516	546556	WORD	n/a	wordpools/wordpool_EN.txt	DOCK	9	2	[0, 0, 0]	n/a	FR1	0	R1093J
294.013	2.401	549072	WORD	n/a	wordpools/wordpool_EN.txt	MAP	10	2	[0, 0, 0]	n/a	FR1	0	R1093J
296.414	2.417	551473	WORD	n/a	wordpools/wordpool_EN.txt	ELF	11	2	[0, 0, 0]	n/a	FR1	0	R1093J
298.831	1.617	553890	WORD	n/a	wordpools/wordpool_EN.txt	SHOE	12	2	[0, 0, 0]	n/a	FR1	0	R1093J
300.448	0.001	555507	DISTRACT_START	n/a	n/a	n/a	-999	2	[0, 0, 0]	n/a	FR1	0	R1093J
300.449	0.016	555508	START	n/a	n/a	n/a	-999	2	[-999, -999, -999]	n/a	FR1	0	R1093J
300.465	5.683	555524	PROB	5.683	n/a	n/a	-999	2	[2, 4, 1]	7	FR1	0	R1093J
306.148	3.552	561207	PROB	3.552	n/a	n/a	-999	2	[6, 1, 1]	8	FR1	0	R1093J
309.7	6.4	564759	PROB	6.4	n/a	n/a	-999	2	[9, 8, 2]	19	FR1	0	R1093J
316.1	4.301	571159	PROB	4.301	n/a	n/a	-999	2	[1, 4, 1]	6	FR1	0	R1093J
320.401	9.006	575459	PROB	9.006	n/a	n/a	-999	2	[7, 9, 6]	22	FR1	0	R1093J
329.407	0.012	584465	STOP	n/a	n/a	n/a	-999	2	[-999, -999, -999]	n/a	FR1	0	R1093J
329.419	1.217	584477	DISTRACT_END	n/a	n/a	n/a	-999	2	[0, 0, 0]	n/a	FR1	0	R1093J
330.636	1.535	585694	REC_START	n/a	n/a	n/a	-999	2	[0, 0, 0]	n/a	FR1	0	R1093J
332.171	0.824	587229	REC_WORD_VV	0.824	n/a	<>	-999	2	[0, 0, 0]	n/a	FR1	0	R1093J
332.995	2.198	588053	REC_WORD	2.198	n/a	HOUSE	-999	2	[0, 0, 0]	n/a	FR1	0	R1093J
335.193	2.678	590251	REC_WORD	2.678	n/a	KEY	-999	2	[0, 0, 0]	n/a	FR1	0	R1093J
337.871	3.503	592929	REC_WORD	3.503	n/a	WING	-999	2	[0, 0, 0]	n/a	FR1	0	R1093J
341.374	9.116	596432	REC_WORD_VV	9.116	n/a	<>	-999	2	[0, 0, 0]	n/a	FR1	0	R1093J
350.49	0.275	605548	REC_WORD_VV	0.275	n/a	<>	-999	2	[0, 0, 0]	n/a	FR1	0	R1093J
350.765	3.704	605823	REC_WORD	3.704	n/a	LOFT	-999	2	[0, 0, 0]	n/a	FR1	0	R1093J
354.469	6.18	609527	REC_WORD_VV	6.18	n/a	<>	-999	2	[0, 0, 0]	n/a	FR1	0	R1093J
360.649	3.742	615707	REC_END	n/a	n/a	n/a	-999	2	[0, 0, 0]	n/a	FR1	0	R1093J
364.391	0.0	619449	COUNTDOWN_START	n/a	n/a	n/a	-999	3	[0, 0, 0]	n/a	FR1	0	R1093J
364.391	10.428	619449	TRIAL	n/a	n/a	n/a	-999	3	[0, 0, 0]	n/a	FR1	0	R1093J
374.819	0.006	629877	COUNTDOWN_END	n/a	n/a	n/a	-999	3	[0, 0, 0]	n/a	FR1	0	R1093J
374.825	2.5	629883	ORIENT	n/a	n/a	n/a	-999	3	[0, 0, 0]	n/a	FR1	0	R1093J
377.325	2.551	632383	WORD	n/a	wordpools/wordpool_EN.txt	SMOKE	1	3	[0, 0, 0]	n/a	FR1	0	R1093J
379.876	2.5	634934	WORD	n/a	wordpools/wordpool_EN.txt	SIGN	2	3	[0, 0, 0]	n/a	FR1	0	R1093J
382.376	2.451	637434	WORD	n/a	wordpools/wordpool_EN.txt	JAIL	3	3	[0, 0, 0]	n/a	FR1	0	R1093J
384.827	2.382	639884	WORD	n/a	wordpools/wordpool_EN.txt	JUDGE	4	3	[0, 0, 0]	n/a	FR1	0	R1093J
387.209	2.568	642266	WORD	n/a	wordpools/wordpool_EN.txt	TOAST	5	3	[0, 0, 0]	n/a	FR1	0	R1093J
389.777	2.534	644834	WORD	n/a	wordpools/wordpool_EN.txt	SOUP	6	3	[0, 0, 0]	n/a	FR1	0	R1093J
392.311	2.384	647368	WORD	n/a	wordpools/wordpool_EN.txt	DESK	7	3	[0, 0, 0]	n/a	FR1	0	R1093J
394.695	2.616	649752	WORD	n/a	wordpools/wordpool_EN.txt	SLEEVE	8	3	[0, 0, 0]	n/a	FR1	0	R1093J
397.311	2.417	652368	WORD	n/a	wordpools/wordpool_EN.txt	FACE	9	3	[0, 0, 0]	n/a	FR1	0	R1093J
399.728	2.383	654785	WORD	n/a	wordpools/wordpool_EN.txt	PIN	10	3	[0, 0, 0]	n/a	FR1	0	R1093J
402.111	2.601	657168	WORD	n/a	wordpools/wordpool_EN.txt	SMILE	11	3	[0, 0, 0]	n/a	FR1	0	R1093J
404.712	1.617	659769	WORD	n/a	wordpools/wordpool_EN.txt	ARK	12	3	[0, 0, 0]	n/a	FR1	0	R1093J
406.329	0.001	661386	DISTRACT_START	n/a	n/a	n/a	-999	3	[0, 0, 0]	n/a	FR1	0	R1093J
406.33	0.016	661387	START	n/a	n/a	n/a	-999	3	[-999, -999, -999]	n/a	FR1	0	R1093J
406.346	3.716	661403	PROB	3.716	n/a	n/a	-999	3	[1, 1, 1]	3	FR1	0	R1093J
410.062	6.968	665119	PROB	6.968	n/a	n/a	-999	3	[6, 5, 4]	15	FR1	0	R1093J
417.03	6.502	672087	PROB	6.502	n/a	n/a	-999	3	[9, 8, 8]	25	FR1	0	R1093J
423.532	4.297	678589	PROB	4.297	n/a	n/a	-999	3	[3, 9, 7]	19	FR1	0	R1093J
427.829	0.003	682886	STOP	n/a	n/a	n/a	-999	3	[-999, -999, -999]	n/a	FR1	0	R1093J
427.832	1.051	682889	DISTRACT_END	n/a	n/a	n/a	-999	3	[0, 0, 0]	n/a	FR1	0	R1093J
428.883	2.682	683940	REC_START	n/a	n/a	n/a	-999	3	[0, 0, 0]	n/a	FR1	0	R1093J
431.565	2.227	686622	REC_WORD	2.227	n/a	SMOKE	-999	3	[0, 0, 0]	n/a	FR1	0	R1093J
433.792	0.511	688849	REC_WORD_VV	0.511	n/a	<>	-999	3	[0, 0, 0]	n/a	FR1	0	R1093J
434.303	3.973	689360	REC_WORD	3.973	n/a	SKY	-999	3	[0, 0, 0]	n/a	FR1	0	R1093J
438.276	4.579	693333	REC_WORD_VV	4.579	n/a	<>	-999	3	[0, 0, 0]	n/a	FR1	0	R1093J
442.855	16.037	697912	REC_WORD	16.037	n/a	PIN	-999	3	[0, 0, 0]	n/a	FR1	0	R1093J
458.892	3.478	713948	REC_END	n/a	n/a	n/a	-999	3	[0, 0, 0]	n/a	FR1	0	R1093J
462.37	0.001	717426	COUNTDOWN_START	n/a	n/a	n/a	-999	4	[0, 0, 0]	n/a	FR1	0	R1093J
462.371	10.427	717427	TRIAL	n/a	n/a	n/a	-999	4	[0, 0, 0]	n/a	FR1	0	R1093J
472.798	0.007	727854	COUNTDOWN_END	n/a	n/a	n/a	-999	4	[0, 0, 0]	n/a	FR1	0	R1093J
472.805	2.634	727861	ORIENT	n/a	n/a	n/a	-999	4	[0, 0, 0]	n/a	FR1	0	R1093J
475.439	2.633	730495	WORD	n/a	wordpools/wordpool_EN.txt	HOOK	1	4	[0, 0, 0]	n/a	FR1	0	R1093J
478.072	2.534	733128	WORD	n/a	wordpools/wordpool_EN.txt	SEAL	2	4	[0, 0, 0]	n/a	FR1	0	R1093J
480.606	2.466	735662	WORD	n/a	wordpools/wordpool_EN.txt	SHRIMP	3	4	[0, 0, 0]	n/a	FR1	0	R1093J
483.072	2.452	738128	WORD	n/a	wordpools/wordpool_EN.txt	CHAIR	4	4	[0, 0, 0]	n/a	FR1	0	R1093J
485.524	2.449	740580	WORD	n/a	wordpools/wordpool_EN.txt	GLOVE	5	4	[0, 0, 0]	n/a	FR1	0	R1093J
487.973	2.385	743029	WORD	n/a	wordpools/wordpool_EN.txt	GATE	6	4	[0, 0, 0]	n/a	FR1	0	R1093J
490.358	2.533	745414	WORD	n/a	wordpools/wordpool_EN.txt	PALM	7	4	[0, 0, 0]	n/a	FR1	0	R1093J
492.891	2.484	747947	WORD	n/a	wordpools/wordpool_EN.txt	HAT	8	4	[0, 0, 0]	n/a	FR1	0	R1093J
495.375	2.55	750431	WORD	n/a	wordpools/wordpool_EN.txt	MOUTH	9	4	[0, 0, 0]	n/a	FR1	0	R1093J
497.925	2.567	752981	WORD	n/a	wordpools/wordpool_EN.txt	THUMB	10	4	[0, 0, 0]	n/a	FR1	0	R1093J
500.492	2.384	755548	WORD	n/a	wordpools/wordpool_EN.txt	BATH	11	4	[0, 0, 0]	n/a	FR1	0	R1093J
502.876	1.617	757932	WORD	n/a	wordpools/wordpool_EN.txt	WORLD	12	4	[0, 0, 0]	n/a	FR1	0	R1093J
504.493	0.001	759549	DISTRACT_START	n/a	n/a	n/a	-999	4	[0, 0, 0]	n/a	FR1	0	R1093J
504.494	0.016	759550	START	n/a	n/a	n/a	-999	4	[-999, -999, -999]	n/a	FR1	0	R1093J
504.51	21.907	759566	PROB	21.907	n/a	n/a	-999	4	[8, 5, 9]	22	FR1	0	R1093J
526.417	0.012	781472	STOP	n/a	n/a	n/a	-999	4	[-999, -999, -999]	n/a	FR1	0	R1093J
526.429	1.051	781484	DISTRACT_END	n/a	n/a	n/a	-999	4	[0, 0, 0]	n/a	FR1	0	R1093J
527.48	2.217	782535	REC_START	n/a	n/a	n/a	-999	4	[0, 0, 0]	n/a	FR1	0	R1093J
529.697	2.193	784752	REC_WORD	2.193	n/a	SEAL	-999	4	[0, 0, 0]	n/a	FR1	0	R1093J
531.89	3.074	786945	REC_WORD	3.074	n/a	SHRIMP	-999	4	[0, 0, 0]	n/a	FR1	0	R1093J
534.964	9.135	790019	REC_WORD	9.135	n/a	WORLD	-999	4	[0, 0, 0]	n/a	FR1	0	R1093J
544.099	3.249	799154	REC_WORD	3.249	n/a	PIN	-999	4	[0, 0, 0]	n/a	FR1	0	R1093J
547.348	1.819	802403	REC_WORD	1.819	n/a	THUMB	-999	4	[0, 0, 0]	n/a	FR1	0	R1093J
549.167	8.322	804222	REC_WORD_VV	8.322	n/a	<>	-999	4	[0, 0, 0]	n/a	FR1	0	R1093J
557.489	3.928	812544	REC_END	n/a	n/a	n/a	-999	4	[0, 0, 0]	n/a	FR1	0	R1093J
561.417	0.0	816472	TRIAL	n/a	n/a	n/a	-999	5	[0, 0, 0]	n/a	FR1	0	R1093J
561.417	10.428	816472	COUNTDOWN_START	n/a	n/a	n/a	-999	5	[0, 0, 0]	n/a	FR1	0	R1093J
571.845	0.007	826900	COUNTDOWN_END	n/a	n/a	n/a	-999	5	[0, 0, 0]	n/a	FR1	0	R1093J
571.852	2.534	826907	ORIENT	n/a	n/a	n/a	-999	5	[0, 0, 0]	n/a	FR1	0	R1093J
574.386	2.416	829440	WORD	n/a	wordpools/wordpool_EN.txt	BOOK	1	5	[0, 0, 0]	n/a	FR1	0	R1093J
576.802	2.517	831856	WORD	n/a	wordpools/wordpool_EN.txt	WHEEL	2	5	[0, 0, 0]	n/a	FR1	0	R1093J
579.319	2.434	834373	WORD	n/a	wordpools/wordpool_EN.txt	CLOCK	3	5	[0, 0, 0]	n/a	FR1	0	R1093J
581.753	2.45	836807	WORD	n/a	wordpools/wordpool_EN.txt	TOOL	4	5	[0, 0, 0]	n/a	FR1	0	R1093J
584.203	2.517	839257	WORD	n/a	wordpools/wordpool_EN.txt	MOLE	5	5	[0, 0, 0]	n/a	FR1	0	R1093J
586.72	2.383	841774	WORD	n/a	wordpools/wordpool_EN.txt	RAT	6	5	[0, 0, 0]	n/a	FR1	0	R1093J
589.103	2.401	844157	WORD	n/a	wordpools/wordpool_EN.txt	FUDGE	7	5	[0, 0, 0]	n/a	FR1	0	R1093J
591.504	2.517	846558	WORD	n/a	wordpools/wordpool_EN.txt	GLASS	8	5	[0, 0, 0]	n/a	FR1	0	R1093J
594.021	2.518	849075	WORD	n/a	wordpools/wordpool_EN.txt	CLOWN	9	5	[0, 0, 0]	n/a	FR1	0	R1093J
596.539	2.499	851593	WORD	n/a	wordpools/wordpool_EN.txt	LAMP	10	5	[0, 0, 0]	n/a	FR1	0	R1093J
599.038	2.535	854092	WORD	n/a	wordpools/wordpool_EN.txt	JEEP	11	5	[0, 0, 0]	n/a	FR1	0	R1093J
601.573	1.616	856627	WORD	n/a	wordpools/wordpool_EN.txt	TRAY	12	5	[0, 0, 0]	n/a	FR1	0	R1093J
603.189	0.0	858243	DISTRACT_START	n/a	n/a	n/a	-999	5	[0, 0, 0]	n/a	FR1	0	R1093J
603.189	0.016	858243	START	n/a	n/a	n/a	-999	5	[-999, -999, -999]	n/a	FR1	0	R1093J
603.205	6.686	858259	PROB	6.686	n/a	n/a	-999	5	[6, 7, 4]	17	FR1	0	R1093J
609.891	3.634	864945	PROB	3.634	n/a	n/a	-999	5	[5, 2, 2]	9	FR1	0	R1093J
613.525	3.95	868579	PROB	3.95	n/a	n/a	-999	5	[2, 6, 4]	12	FR1	0	R1093J
617.475	6.187	872529	PROB	6.187	n/a	n/a	-999	5	[7, 1, 6]	14	FR1	0	R1093J
623.662	0.014	878716	STOP	n/a	n/a	n/a	-999	5	[-999, -999, -999]	n/a	FR1	0	R1093J
623.676	1.217	878730	DISTRACT_END	n/a	n/a	n/a	-999	5	[0, 0, 0]	n/a	FR1	0	R1093J
624.893	3.052	879947	REC_START	n/a	n/a	n/a	-999	5	[0, 0, 0]	n/a	FR1	0	R1093J
627.945	2.223	882999	REC_WORD	2.223	n/a	BOOK	-999	5	[0, 0, 0]	n/a	FR1	0	R1093J
630.168	3.946	885222	REC_WORD	3.946	n/a	CLOCK	-999	5	[0, 0, 0]	n/a	FR1	0	R1093J
634.114	5.393	889168	REC_WORD	5.393	n/a	MOLE	-999	5	[0, 0, 0]	n/a	FR1	0	R1093J
639.507	15.4	894560	REC_WORD	15.4	n/a	JEEP	-999	5	[0, 0, 0]	n/a	FR1	0	R1093J
654.907	5.59	909960	REC_END	n/a	n/a	n/a	-999	5	[0, 0, 0]	n/a	FR1	0	R1093J
660.497	0.0	915550	COUNTDOWN_START	n/a	n/a	n/a	-999	6	[0, 0, 0]	n/a	FR1	0	R1093J
660.497	10.428	915550	TRIAL	n/a	n/a	n/a	-999	6	[0, 0, 0]	n/a	FR1	0	R1093J
670.925	0.007	925978	COUNTDOWN_END	n/a	n/a	n/a	-999	6	[0, 0, 0]	n/a	FR1	0	R1093J
670.932	2.417	925985	ORIENT	n/a	n/a	n/a	-999	6	[0, 0, 0]	n/a	FR1	0	R1093J
673.349	2.45	928402	WORD	n/a	wordpools/wordpool_EN.txt	GOLD	1	6	[0, 0, 0]	n/a	FR1	0	R1093J
675.799	2.6	930852	WORD	n/a	wordpools/wordpool_EN.txt	SHEEP	2	6	[0, 0, 0]	n/a	FR1	0	R1093J
678.399	2.451	933452	WORD	n/a	wordpools/wordpool_EN.txt	CAPE	3	6	[0, 0, 0]	n/a	FR1	0	R1093J
680.85	2.617	935903	WORD	n/a	wordpools/wordpool_EN.txt	MOOSE	4	6	[0, 0, 0]	n/a	FR1	0	R1093J
683.467	2.633	938520	WORD	n/a	wordpools/wordpool_EN.txt	TOOTH	5	6	[0, 0, 0]	n/a	FR1	0	R1093J
686.1	2.617	941153	WORD	n/a	wordpools/wordpool_EN.txt	TEETH	6	6	[0, 0, 0]	n/a	FR1	0	R1093J
688.717	2.45	943770	WORD	n/a	wordpools/wordpool_EN.txt	SAIL	7	6	[0, 0, 0]	n/a	FR1	0	R1093J
691.167	2.435	946220	WORD	n/a	wordpools/wordpool_EN.txt	FOX	8	6	[0, 0, 0]	n/a	FR1	0	R1093J
693.602	2.599	948655	WORD	n/a	wordpools/wordpool_EN.txt	LEAF	9	6	[0, 0, 0]	n/a	FR1	0	R1093J
696.201	2.568	951254	WORD	n/a	wordpools/wordpool_EN.txt	ANT	10	6	[0, 0, 0]	n/a	FR1	0	R1093J
698.769	2.399	953822	WORD	n/a	wordpools/wordpool_EN.txt	STEM	11	6	[0, 0, 0]	n/a	FR1	0	R1093J
701.168	1.601	956221	WORD	n/a	wordpools/wordpool_EN.txt	MOUSE	12	6	[0, 0, 0]	n/a	FR1	0	R1093J
702.769	0.001	957821	DISTRACT_START	n/a	n/a	n/a	-999	6	[0, 0, 0]	n/a	FR1	0	R1093J
702.77	0.016	957822	START	n/a	n/a	n/a	-999	6	[-999, -999, -999]	n/a	FR1	0	R1093J
702.786	9.751	957838	PROB	9.751	n/a	n/a	-999	6	[9, 6, 1]	16	FR1	0	R1093J
712.537	5.035	967589	PROB	5.035	n/a	n/a	-999	6	[6, 4, 8]	18	FR1	0	R1093J
717.572	4.334	972624	PROB	4.334	n/a	n/a	-999	6	[4, 1, 9]	14	FR1	0	R1093J
721.906	4.159	976958	PROB	4.159	n/a	n/a	-999	6	[8, 1, 1]	10	FR1	0	R1093J
726.065	0.007	981117	STOP	n/a	n/a	n/a	-999	6	[-999, -999, -999]	n/a	FR1	0	R1093J
726.072	1.167	981124	DISTRACT_END	n/a	n/a	n/a	-999	6	[0, 0, 0]	n/a	FR1	0	R1093J
727.239	2.448	982291	REC_START	n/a	n/a	n/a	-999	6	[0, 0, 0]	n/a	FR1	0	R1093J
729.687	1.786	984739	REC_WORD	1.786	n/a	GOLD	-999	6	[0, 0, 0]	n/a	FR1	0	R1093J
731.473	2.701	986525	REC_WORD	2.701	n/a	TOOTH	-999	6	[0, 0, 0]	n/a	FR1	0	R1093J
734.174	13.421	989226	REC_WORD	13.421	n/a	MOUSE	-999	6	[0, 0, 0]	n/a	FR1	0	R1093J
747.595	0.457	1002647	REC_WORD_VV	0.457	n/a	<>	-999	6	[0, 0, 0]	n/a	FR1	0	R1093J
748.052	2.239	1003104	REC_WORD	2.239	n/a	FOX	-999	6	[0, 0, 0]	n/a	FR1	0	R1093J
750.291	0.346	1005343	REC_WORD_VV	0.346	n/a	<>	-999	6	[0, 0, 0]	n/a	FR1	0	R1093J
750.637	6.614	1005689	REC_WORD	6.614	n/a	MOOSE	-999	6	[0, 0, 0]	n/a	FR1	0	R1093J
757.251	4.126	1012303	REC_END	n/a	n/a	n/a	-999	6	[0, 0, 0]	n/a	FR1	0	R1093J
761.377	0.001	1016429	COUNTDOWN_START	n/a	n/a	n/a	-999	7	[0, 0, 0]	n/a	FR1	0	R1093J
761.378	10.427	1016430	TRIAL	n/a	n/a	n/a	-999	7	[0, 0, 0]	n/a	FR1	0	R1093J
771.805	0.007	1026856	COUNTDOWN_END	n/a	n/a	n/a	-999	7	[0, 0, 0]	n/a	FR1	0	R1093J
771.812	2.617	1026863	ORIENT	n/a	n/a	n/a	-999	7	[0, 0, 0]	n/a	FR1	0	R1093J
774.429	2.533	1029480	WORD	n/a	wordpools/wordpool_EN.txt	NOSE	1	7	[0, 0, 0]	n/a	FR1	0	R1093J
776.962	2.518	1032013	WORD	n/a	wordpools/wordpool_EN.txt	MAZE	2	7	[0, 0, 0]	n/a	FR1	0	R1093J
779.48	2.533	1034531	WORD	n/a	wordpools/wordpool_EN.txt	BUSH	3	7	[0, 0, 0]	n/a	FR1	0	R1093J
782.013	2.568	1037064	WORD	n/a	wordpools/wordpool_EN.txt	WEED	4	7	[0, 0, 0]	n/a	FR1	0	R1093J
784.581	2.566	1039632	WORD	n/a	wordpools/wordpool_EN.txt	SWORD	5	7	[0, 0, 0]	n/a	FR1	0	R1093J
787.147	2.467	1042198	WORD	n/a	wordpools/wordpool_EN.txt	SQUARE	6	7	[0, 0, 0]	n/a	FR1	0	R1093J
789.614	2.4	1044665	WORD	n/a	wordpools/wordpool_EN.txt	LAND	7	7	[0, 0, 0]	n/a	FR1	0	R1093J
792.014	2.585	1047065	WORD	n/a	wordpools/wordpool_EN.txt	HILL	8	7	[0, 0, 0]	n/a	FR1	0	R1093J
794.599	2.582	1049650	WORD	n/a	wordpools/wordpool_EN.txt	CLIFF	9	7	[0, 0, 0]	n/a	FR1	0	R1093J
797.181	2.552	1052232	WORD	n/a	wordpools/wordpool_EN.txt	BOY	10	7	[0, 0, 0]	n/a	FR1	0	R1093J
799.733	2.6	1054784	WORD	n/a	wordpools/wordpool_EN.txt	LAKE	11	7	[0, 0, 0]	n/a	FR1	0	R1093J
802.333	1.616	1057384	WORD	n/a	wordpools/wordpool_EN.txt	ROCK	12	7	[0, 0, 0]	n/a	FR1	0	R1093J
803.949	0.001	1059000	DISTRACT_START	n/a	n/a	n/a	-999	7	[0, 0, 0]	n/a	FR1	0	R1093J
803.95	0.016	1059001	START	n/a	n/a	n/a	-999	7	[-999, -999, -999]	n/a	FR1	0	R1093J
803.966	16.168	1059017	PROB	16.168	n/a	n/a	-999	7	[9, 4, 3]	16	FR1	0	R1093J
820.134	4.273	1075185	PROB	4.273	n/a	n/a	-999	7	[2, 4, 3]	9	FR1	0	R1093J
824.407	0.012	1079458	STOP	n/a	n/a	n/a	-999	7	[-999, -999, -999]	n/a	FR1	0	R1093J
824.419	1.035	1079470	DISTRACT_END	n/a	n/a	n/a	-999	7	[0, 0, 0]	n/a	FR1	0	R1093J
825.454	2.496	1080505	REC_START	n/a	n/a	n/a	-999	7	[0, 0, 0]	n/a	FR1	0	R1093J
827.95	2.118	1083001	REC_WORD	2.118	n/a	NOSE	-999	7	[0, 0, 0]	n/a	FR1	0	R1093J
830.068	2.214	1085118	REC_WORD	2.214	n/a	BUSH	-999	7	[0, 0, 0]	n/a	FR1	0	R1093J
832.282	23.18	1087332	REC_WORD	23.18	n/a	WEED	-999	7	[0, 0, 0]	n/a	FR1	0	R1093J
855.462	3.229	1110512	REC_END	n/a	n/a	n/a	-999	7	[0, 0, 0]	n/a	FR1	0	R1093J
858.691	0.0	1113741	TRIAL	n/a	n/a	n/a	-999	8	[0, 0, 0]	n/a	FR1	0	R1093J
858.691	10.428	1113741	COUNTDOWN_START	n/a	n/a	n/a	-999	8	[0, 0, 0]	n/a	FR1	0	R1093J
869.119	0.005	1124169	COUNTDOWN_END	n/a	n/a	n/a	-999	8	[0, 0, 0]	n/a	FR1	0	R1093J
869.124	2.452	1124174	ORIENT	n/a	n/a	n/a	-999	8	[0, 0, 0]	n/a	FR1	0	R1093J
871.576	2.566	1126626	WORD	n/a	wordpools/wordpool_EN.txt	POLE	1	8	[0, 0, 0]	n/a	FR1	0	R1093J
874.142	2.568	1129192	WORD	n/a	wordpools/wordpool_EN.txt	CHEEK	2	8	[0, 0, 0]	n/a	FR1	0	R1093J
876.71	2.466	1131760	WORD	n/a	wordpools/wordpool_EN.txt	PHONE	3	8	[0, 0, 0]	n/a	FR1	0	R1093J
879.176	2.601	1134226	WORD	n/a	wordpools/wordpool_EN.txt	DIME	4	8	[0, 0, 0]	n/a	FR1	0	R1093J
881.777	2.416	1136827	WORD	n/a	wordpools/wordpool_EN.txt	COIN	5	8	[0, 0, 0]	n/a	FR1	0	R1093J
884.193	2.601	1139243	WORD	n/a	wordpools/wordpool_EN.txt	SPEAR	6	8	[0, 0, 0]	n/a	FR1	0	R1093J
886.794	2.45	1141844	WORD	n/a	wordpools/wordpool_EN.txt	CONE	7	8	[0, 0, 0]	n/a	FR1	0	R1093J
889.244	2.568	1144294	WORD	n/a	wordpools/wordpool_EN.txt	ARM	8	8	[0, 0, 0]	n/a	FR1	0	R1093J
891.812	2.5	1146862	WORD	n/a	wordpools/wordpool_EN.txt	DRUM	9	8	[0, 0, 0]	n/a	FR1	0	R1093J
894.312	2.501	1149361	WORD	n/a	wordpools/wordpool_EN.txt	GRAPE	10	8	[0, 0, 0]	n/a	FR1	0	R1093J
896.813	2.466	1151862	WORD	n/a	wordpools/wordpool_EN.txt	HOSE	11	8	[0, 0, 0]	n/a	FR1	0	R1093J
899.279	1.618	1154328	WORD	n/a	wordpools/wordpool_EN.txt	FROG	12	8	[0, 0, 0]	n/a	FR1	0	R1093J
900.897	0.001	1155946	DISTRACT_START	n/a	n/a	n/a	-999	8	[0, 0, 0]	n/a	FR1	0	R1093J
900.898	0.015	1155947	START	n/a	n/a	n/a	-999	8	[-999, -999, -999]	n/a	FR1	0	R1093J
900.913	8.384	1155962	PROB	8.384	n/a	n/a	-999	8	[2, 9, 6]	17	FR1	0	R1093J
909.297	5.701	1164346	PROB	5.701	n/a	n/a	-999	8	[6, 2, 6]	14	FR1	0	R1093J
914.998	4.468	1170047	PROB	4.468	n/a	n/a	-999	8	[1, 5, 4]	10	FR1	0	R1093J
919.466	5.978	1174515	PROB	5.978	n/a	n/a	-999	8	[2, 7, 7]	16	FR1	0	R1093J
925.444	0.006	1180493	STOP	n/a	n/a	n/a	-999	8	[-999, -999, -999]	n/a	FR1	0	R1093J
925.45	1.217	1180499	DISTRACT_END	n/a	n/a	n/a	-999	8	[0, 0, 0]	n/a	FR1	0	R1093J
926.667	2.39	1181716	REC_START	n/a	n/a	n/a	-999	8	[0, 0, 0]	n/a	FR1	0	R1093J
929.057	2.348	1184106	REC_WORD	2.348	n/a	PHONE	-999	8	[0, 0, 0]	n/a	FR1	0	R1093J
931.405	25.276	1186454	REC_WORD	25.276	n/a	CONE	-999	8	[0, 0, 0]	n/a	FR1	0	R1093J
956.681	10.407	1211729	REC_END	n/a	n/a	n/a	-999	8	[0, 0, 0]	n/a	FR1	0	R1093J
967.088	0.0	1222136	TRIAL	n/a	n/a	n/a	-999	9	[0, 0, 0]	n/a	FR1	0	R1093J
967.088	10.428	1222136	COUNTDOWN_START	n/a	n/a	n/a	-999	9	[0, 0, 0]	n/a	FR1	0	R1093J
977.516	0.008	1232564	COUNTDOWN_END	n/a	n/a	n/a	-999	9	[0, 0, 0]	n/a	FR1	0	R1093J
977.524	2.616	1232572	ORIENT	n/a	n/a	n/a	-999	9	[0, 0, 0]	n/a	FR1	0	R1093J
980.14	2.601	1235188	WORD	n/a	wordpools/wordpool_EN.txt	SWAMP	1	9	[0, 0, 0]	n/a	FR1	0	R1093J
982.741	2.433	1237789	WORD	n/a	wordpools/wordpool_EN.txt	TRASH	2	9	[0, 0, 0]	n/a	FR1	0	R1093J
985.174	2.584	1240222	WORD	n/a	wordpools/wordpool_EN.txt	JAR	3	9	[0, 0, 0]	n/a	FR1	0	R1093J
987.758	2.466	1242806	WORD	n/a	wordpools/wordpool_EN.txt	DITCH	4	9	[0, 0, 0]	n/a	FR1	0	R1093J
990.224	2.568	1245272	WORD	n/a	wordpools/wordpool_EN.txt	ROSE	5	9	[0, 0, 0]	n/a	FR1	0	R1093J
992.792	2.4	1247840	WORD	n/a	wordpools/wordpool_EN.txt	PIT	6	9	[0, 0, 0]	n/a	FR1	0	R1093J
995.192	2.567	1250240	WORD	n/a	wordpools/wordpool_EN.txt	PARK	7	9	[0, 0, 0]	n/a	FR1	0	R1093J
997.759	2.417	1252807	WORD	n/a	wordpools/wordpool_EN.txt	FLUTE	8	9	[0, 0, 0]	n/a	FR1	0	R1093J
1000.176	2.618	1255224	WORD	n/a	wordpools/wordpool_EN.txt	BREAD	9	9	[0, 0, 0]	n/a	FR1	0	R1093J
1002.794	2.517	1257842	WORD	n/a	wordpools/wordpool_EN.txt	PIE	10	9	[0, 0, 0]	n/a	FR1	0	R1093J
1005.311	2.533	1260359	WORD	n/a	wordpools/wordpool_EN.txt	CAKE	11	9	[0, 0, 0]	n/a	FR1	0	R1093J
1007.844	1.617	1262892	WORD	n/a	wordpools/wordpool_EN.txt	FENCE	12	9	[0, 0, 0]	n/a	FR1	0	R1093J
1009.461	0.001	1264509	DISTRACT_START	n/a	n/a	n/a	-999	9	[0, 0, 0]	n/a	FR1	0	R1093J
1009.462	0.016	1264510	START	n/a	n/a	n/a	-999	9	[-999, -999, -999]	n/a	FR1	0	R1093J
1009.478	9.101	1264526	PROB	9.101	n/a	n/a	-999	9	[7, 2, 1]	10	FR1	0	R1093J
1018.579	4.4	1273627	PROB	4.4	n/a	n/a	-999	9	[8, 9, 1]	18	FR1	0	R1093J
1022.979	8.813	1278026	PROB	8.813	n/a	n/a	-999	9	[3, 6, 6]	15	FR1	0	R1093J
1031.792	0.006	1286839	STOP	n/a	n/a	n/a	-999	9	[-999, -999, -999]	n/a	FR1	0	R1093J
1031.798	1.217	1286845	DISTRACT_END	n/a	n/a	n/a	-999	9	[0, 0, 0]	n/a	FR1	0	R1093J
1033.015	2.578	1288062	REC_START	n/a	n/a	n/a	-999	9	[0, 0, 0]	n/a	FR1	0	R1093J
1035.593	1.291	1290640	REC_WORD	1.291	n/a	PIT	-999	9	[0, 0, 0]	n/a	FR1	0	R1093J
1036.884	1.923	1291931	REC_WORD	1.923	n/a	PARK	-999	9	[0, 0, 0]	n/a	FR1	0	R1093J
1038.807	1.903	1293854	REC_WORD	1.903	n/a	PIE	-999	9	[0, 0, 0]	n/a	FR1	0	R1093J
1040.71	0.487	1295757	REC_WORD_VV	0.487	n/a	<>	-999	9	[0, 0, 0]	n/a	FR1	0	R1093J
1041.197	21.826	1296244	REC_WORD	21.826	n/a	FENCE	-999	9	[0, 0, 0]	n/a	FR1	0	R1093J
1063.023	1.746	1318070	REC_END	n/a	n/a	n/a	-999	9	[0, 0, 0]	n/a	FR1	0	R1093J
1064.769	0.0	1319816	TRIAL	n/a	n/a	n/a	-999	10	[0, 0, 0]	n/a	FR1	0	R1093J
1064.769	10.428	1319816	COUNTDOWN_START	n/a	n/a	n/a	-999	10	[0, 0, 0]	n/a	FR1	0	R1093J
1075.197	0.006	1330244	COUNTDOWN_END	n/a	n/a	n/a	-999	10	[0, 0, 0]	n/a	FR1	0	R1093J
1075.203	2.401	1330250	ORIENT	n/a	n/a	n/a	-999	10	[0, 0, 0]	n/a	FR1	0	R1093J
1077.604	2.6	1332651	WORD	n/a	wordpools/wordpool_EN.txt	ROAD	1	10	[0, 0, 0]	n/a	FR1	0	R1093J
1080.204	2.568	1335251	WORD	n/a	wordpools/wordpool_EN.txt	DOG	2	10	[0, 0, 0]	n/a	FR1	0	R1093J
1082.772	2.416	1337819	WORD	n/a	wordpools/wordpool_EN.txt	SKUNK	3	10	[0, 0, 0]	n/a	FR1	0	R1093J
1085.188	2.551	1340234	WORD	n/a	wordpools/wordpool_EN.txt	FOG	4	10	[0, 0, 0]	n/a	FR1	0	R1093J
1087.739	2.567	1342785	WORD	n/a	wordpools/wordpool_EN.txt	HEN	5	10	[0, 0, 0]	n/a	FR1	0	R1093J
1090.306	2.6	1345352	WORD	n/a	wordpools/wordpool_EN.txt	LAMB	6	10	[0, 0, 0]	n/a	FR1	0	R1093J
1092.906	2.501	1347952	WORD	n/a	wordpools/wordpool_EN.txt	FARM	7	10	[0, 0, 0]	n/a	FR1	0	R1093J
1095.407	2.416	1350453	WORD	n/a	wordpools/wordpool_EN.txt	EEL	8	10	[0, 0, 0]	n/a	FR1	0	R1093J
1097.823	2.618	1352869	WORD	n/a	wordpools/wordpool_EN.txt	CALF	9	10	[0, 0, 0]	n/a	FR1	0	R1093J
1100.441	2.582	1355487	WORD	n/a	wordpools/wordpool_EN.txt	TRUCK	10	10	[0, 0, 0]	n/a	FR1	0	R1093J
1103.023	2.418	1358069	WORD	n/a	wordpools/wordpool_EN.txt	VAN	11	10	[0, 0, 0]	n/a	FR1	0	R1093J
1105.441	1.616	1360487	WORD	n/a	wordpools/wordpool_EN.txt	BRIDGE	12	10	[0, 0, 0]	n/a	FR1	0	R1093J
1107.057	0.001	1362103	DISTRACT_START	n/a	n/a	n/a	-999	10	[0, 0, 0]	n/a	FR1	0	R1093J
1107.058	0.016	1362104	START	n/a	n/a	n/a	-999	10	[-999, -999, -999]	n/a	FR1	0	R1093J
1107.074	13.035	1362120	PROB	13.035	n/a	n/a	-999	10	[9, 8, 9]	26	FR1	0	R1093J
1120.109	5.835	1375155	PROB	5.835	n/a	n/a	-999	10	[4, 9, 6]	19	FR1	0	R1093J
1125.944	4.861	1380990	PROB	4.861	n/a	n/a	-999	10	[8, 3, 5]	16	FR1	0	R1093J
1130.805	0.006	1385851	STOP	n/a	n/a	n/a	-999	10	[-999, -999, -999]	n/a	FR1	0	R1093J
1130.811	1.034	1385857	DISTRACT_END	n/a	n/a	n/a	-999	10	[0, 0, 0]	n/a	FR1	0	R1093J
1131.845	6.353	1386891	REC_START	n/a	n/a	n/a	-999	10	[0, 0, 0]	n/a	FR1	0	R1093J
1138.198	0.591	1393244	REC_WORD_VV	0.591	n/a	<>	-999	10	[0, 0, 0]	n/a	FR1	0	R1093J
1138.789	23.067	1393835	REC_WORD_VV	23.067	n/a	<>	-999	10	[0, 0, 0]	n/a	FR1	0	R1093J
1161.856	0.003	1416901	REC_WORD_VV	0.003	n/a	<>	-999	10	[0, 0, 0]	n/a	FR1	0	R1093J
1161.859	15.858	1416904	REC_END	n/a	n/a	n/a	-999	10	[0, 0, 0]	n/a	FR1	0	R1093J
1177.717	0.001	1432762	COUNTDOWN_START	n/a	n/a	n/a	-999	11	[0, 0, 0]	n/a	FR1	0	R1093J
1177.718	10.427	1432763	TRIAL	n/a	n/a	n/a	-999	11	[0, 0, 0]	n/a	FR1	0	R1093J
1188.145	0.006	1443190	COUNTDOWN_END	n/a	n/a	n/a	-999	11	[0, 0, 0]	n/a	FR1	0	R1093J
1188.151	2.468	1443196	ORIENT	n/a	n/a	n/a	-999	11	[0, 0, 0]	n/a	FR1	0	R1093J
1190.619	2.4	1445664	WORD	n/a	wordpools/wordpool_EN.txt	SKI	1	11	[0, 0, 0]	n/a	FR1	0	R1093J
1193.019	2.451	1448064	WORD	n/a	wordpools/wordpool_EN.txt	CRANE	2	11	[0, 0, 0]	n/a	FR1	0	R1093J
1195.47	2.5	1450515	WORD	n/a	wordpools/wordpool_EN.txt	OWL	3	11	[0, 0, 0]	n/a	FR1	0	R1093J
1197.97	2.568	1453015	WORD	n/a	wordpools/wordpool_EN.txt	WALL	4	11	[0, 0, 0]	n/a	FR1	0	R1093J
1200.538	2.582	1455583	WORD	n/a	wordpools/wordpool_EN.txt	BOOT	5	11	[0, 0, 0]	n/a	FR1	0	R1093J
1203.12	2.402	1458165	WORD	n/a	wordpools/wordpool_EN.txt	SNOW	6	11	[0, 0, 0]	n/a	FR1	0	R1093J
1205.522	2.549	1460567	WORD	n/a	wordpools/wordpool_EN.txt	THREAD	7	11	[0, 0, 0]	n/a	FR1	0	R1093J
1208.071	2.401	1463116	WORD	n/a	wordpools/wordpool_EN.txt	HOOF	8	11	[0, 0, 0]	n/a	FR1	0	R1093J
1210.472	2.467	1465517	WORD	n/a	wordpools/wordpool_EN.txt	TOE	9	11	[0, 0, 0]	n/a	FR1	0	R1093J
1212.939	2.551	1467983	WORD	n/a	wordpools/wordpool_EN.txt	DOOR	10	11	[0, 0, 0]	n/a	FR1	0	R1093J
1215.49	2.482	1470534	WORD	n/a	wordpools/wordpool_EN.txt	RUG	11	11	[0, 0, 0]	n/a	FR1	0	R1093J
1217.972	1.618	1473016	WORD	n/a	wordpools/wordpool_EN.txt	SPRING	12	11	[0, 0, 0]	n/a	FR1	0	R1093J
1219.59	0.001	1474634	DISTRACT_START	n/a	n/a	n/a	-999	11	[0, 0, 0]	n/a	FR1	0	R1093J
1219.591	0.016	1474635	START	n/a	n/a	n/a	-999	11	[-999, -999, -999]	n/a	FR1	0	R1093J
1219.607	131.147	1474651	PROB	131.147	n/a	n/a	-999	11	[1, 6, 1]	8	FR1	0	R1093J
1350.754	22.124	1605796	SESS_START	n/a	n/a	n/a	-999	11	[0, 0, 0]	n/a	FR1	0	R1093J
1372.878	0.0	1627920	TRIAL	n/a	n/a	n/a	-999	11	[0, 0, 0]	n/a	FR1	0	R1093J
1372.878	10.428	1627920	COUNTDOWN_START	n/a	n/a	n/a	-999	11	[0, 0, 0]	n/a	FR1	0	R1093J
1383.306	0.007	1638348	COUNTDOWN_END	n/a	n/a	n/a	-999	11	[0, 0, 0]	n/a	FR1	0	R1093J
1383.313	2.4	1638355	ORIENT	n/a	n/a	n/a	-999	11	[0, 0, 0]	n/a	FR1	0	R1093J
1385.713	2.634	1640755	WORD	n/a	wordpools/wordpool_EN.txt	SKI	1	11	[0, 0, 0]	n/a	FR1	0	R1093J
1388.347	2.467	1643389	WORD	n/a	wordpools/wordpool_EN.txt	CRANE	2	11	[0, 0, 0]	n/a	FR1	0	R1093J
1390.814	2.6	1645856	WORD	n/a	wordpools/wordpool_EN.txt	OWL	3	11	[0, 0, 0]	n/a	FR1	0	R1093J
1393.414	2.451	1648456	WORD	n/a	wordpools/wordpool_EN.txt	WALL	4	11	[0, 0, 0]	n/a	FR1	0	R1093J
1395.865	2.382	1650907	WORD	n/a	wordpools/wordpool_EN.txt	BOOT	5	11	[0, 0, 0]	n/a	FR1	0	R1093J
1398.247	2.451	1653289	WORD	n/a	wordpools/wordpool_EN.txt	SNOW	6	11	[0, 0, 0]	n/a	FR1	0	R1093J
1400.698	2.55	1655740	WORD	n/a	wordpools/wordpool_EN.txt	THREAD	7	11	[0, 0, 0]	n/a	FR1	0	R1093J
1403.248	2.601	1658289	WORD	n/a	wordpools/wordpool_EN.txt	HOOF	8	11	[0, 0, 0]	n/a	FR1	0	R1093J
1405.849	2.617	1660890	WORD	n/a	wordpools/wordpool_EN.txt	TOE	9	11	[0, 0, 0]	n/a	FR1	0	R1093J
1408.466	2.567	1663507	WORD	n/a	wordpools/wordpool_EN.txt	DOOR	10	11	[0, 0, 0]	n/a	FR1	0	R1093J
1411.033	2.433	1666074	WORD	n/a	wordpools/wordpool_EN.txt	RUG	11	11	[0, 0, 0]	n/a	FR1	0	R1093J
1413.466	1.617	1668507	WORD	n/a	wordpools/wordpool_EN.txt	SPRING	12	11	[0, 0, 0]	n/a	FR1	0	R1093J
1415.083	0.001	1670124	DISTRACT_START	n/a	n/a	n/a	-999	11	[0, 0, 0]	n/a	FR1	0	R1093J
1415.084	0.016	1670125	START	n/a	n/a	n/a	-999	12	[-999, -999, -999]	n/a	FR1	0	R1093J
1415.1	13.935	1670141	PROB	13.935	n/a	n/a	-999	12	[6, 4, 1]	11	FR1	0	R1093J
1429.035	6.498	1684076	PROB	6.498	n/a	n/a	-999	12	[2, 4, 4]	10	FR1	0	R1093J
1435.533	0.02	1690574	STOP	n/a	n/a	n/a	-999	12	[-999, -999, -999]	n/a	FR1	0	R1093J
1435.553	1.201	1690594	DISTRACT_END	n/a	n/a	n/a	-999	11	[0, 0, 0]	n/a	FR1	0	R1093J
1436.754	1.384	1691795	REC_START	n/a	n/a	n/a	-999	11	[0, 0, 0]	n/a	FR1	0	R1093J
1438.138	1.158	1693179	REC_WORD_VV	1.158	n/a	<>	-999	11	[0, 0, 0]	n/a	FR1	0	R1093J
1439.296	2.303	1694337	REC_WORD	2.303	n/a	SCREEN	-999	11	[0, 0, 0]	n/a	FR1	0	R1093J
1441.599	3.219	1696640	REC_WORD	3.219	n/a	OWL	-999	11	[0, 0, 0]	n/a	FR1	0	R1093J
1444.818	3.588	1699859	REC_WORD	3.588	n/a	TOE	-999	11	[0, 0, 0]	n/a	FR1	0	R1093J
1448.406	12.56	1703447	REC_WORD	12.56	n/a	DOOR	-999	11	[0, 0, 0]	n/a	FR1	0	R1093J
1460.966	5.798	1716007	REC_WORD_VV	5.798	n/a	<>	-999	11	[0, 0, 0]	n/a	FR1	0	R1093J
1466.764	5.661	1721804	REC_END	n/a	n/a	n/a	-999	11	[0, 0, 0]	n/a	FR1	0	R1093J
1472.425	0.0	1727465	COUNTDOWN_START	n/a	n/a	n/a	-999	12	[0, 0, 0]	n/a	FR1	0	R1093J
1472.425	10.428	1727465	TRIAL	n/a	n/a	n/a	-999	12	[0, 0, 0]	n/a	FR1	0	R1093J
1482.853	0.006	1737893	COUNTDOWN_END	n/a	n/a	n/a	-999	12	[0, 0, 0]	n/a	FR1	0	R1093J
1482.859	2.433	1737899	ORIENT	n/a	n/a	n/a	-999	12	[0, 0, 0]	n/a	FR1	0	R1093J
1485.292	2.585	1740332	WORD	n/a	wordpools/wordpool_EN.txt	BOWL	1	12	[0, 0, 0]	n/a	FR1	0	R1093J
1487.877	2.55	1742917	WORD	n/a	wordpools/wordpool_EN.txt	CART	2	12	[0, 0, 0]	n/a	FR1	0	R1093J
1490.427	2.434	1745467	WORD	n/a	wordpools/wordpool_EN.txt	LOCK	3	12	[0, 0, 0]	n/a	FR1	0	R1093J
1492.861	2.5	1747901	WORD	n/a	wordpools/wordpool_EN.txt	PEA	4	12	[0, 0, 0]	n/a	FR1	0	R1093J
1495.361	2.534	1750401	WORD	n/a	wordpools/wordpool_EN.txt	BROOM	5	12	[0, 0, 0]	n/a	FR1	0	R1093J
1497.895	2.534	1752935	WORD	n/a	wordpools/wordpool_EN.txt	FLOOR	6	12	[0, 0, 0]	n/a	FR1	0	R1093J
1500.429	2.467	1755469	WORD	n/a	wordpools/wordpool_EN.txt	BENCH	7	12	[0, 0, 0]	n/a	FR1	0	R1093J
1502.896	2.634	1757936	WORD	n/a	wordpools/wordpool_EN.txt	CHIN	8	12	[0, 0, 0]	n/a	FR1	0	R1093J
1505.53	2.566	1760570	WORD	n/a	wordpools/wordpool_EN.txt	TEA	9	12	[0, 0, 0]	n/a	FR1	0	R1093J
1508.096	2.534	1763136	WORD	n/a	wordpools/wordpool_EN.txt	SUIT	10	12	[0, 0, 0]	n/a	FR1	0	R1093J
1510.63	2.5	1765670	WORD	n/a	wordpools/wordpool_EN.txt	BED	11	12	[0, 0, 0]	n/a	FR1	0	R1093J
1513.13	1.617	1768170	WORD	n/a	wordpools/wordpool_EN.txt	POOL	12	12	[0, 0, 0]	n/a	FR1	0	R1093J
1514.747	0.001	1769787	DISTRACT_START	n/a	n/a	n/a	-999	12	[0, 0, 0]	n/a	FR1	0	R1093J
1514.748	0.016	1769788	START	n/a	n/a	n/a	-999	13	[-999, -999, -999]	n/a	FR1	0	R1093J
1514.764	7.784	1769804	PROB	7.784	n/a	n/a	-999	13	[6, 1, 6]	13	FR1	0	R1093J
1522.548	15.446	1777588	PROB	15.446	n/a	n/a	-999	13	[6, 7, 5]	18	FR1	0	R1093J
1537.994	0.006	1793033	STOP	n/a	n/a	n/a	-999	13	[-999, -999, -999]	n/a	FR1	0	R1093J
1538.0	1.034	1793039	DISTRACT_END	n/a	n/a	n/a	-999	12	[0, 0, 0]	n/a	FR1	0	R1093J
1539.034	2.482	1794073	REC_START	n/a	n/a	n/a	-999	12	[0, 0, 0]	n/a	FR1	0	R1093J
1541.516	1.555	1796555	REC_WORD_VV	1.555	n/a	<>	-999	12	[0, 0, 0]	n/a	FR1	0	R1093J
1543.071	1.645	1798110	REC_WORD	1.645	n/a	CART	-999	12	[0, 0, 0]	n/a	FR1	0	R1093J
1544.716	2.657	1799755	REC_WORD	2.657	n/a	LOCK	-999	12	[0, 0, 0]	n/a	FR1	0	R1093J
1547.373	4.339	1802412	REC_WORD	4.339	n/a	PEA	-999	12	[0, 0, 0]	n/a	FR1	0	R1093J
1551.712	2.332	1806751	REC_WORD	2.332	n/a	TEA	-999	12	[0, 0, 0]	n/a	FR1	0	R1093J
1554.044	1.462	1809083	REC_WORD	1.462	n/a	CHIN	-999	12	[0, 0, 0]	n/a	FR1	0	R1093J
1555.506	3.288	1810545	REC_WORD_VV	3.288	n/a	<>	-999	12	[0, 0, 0]	n/a	FR1	0	R1093J
1558.794	0.368	1813833	REC_WORD_VV	0.368	n/a	<>	-999	12	[0, 0, 0]	n/a	FR1	0	R1093J
1559.162	0.394	1814201	REC_WORD	0.394	n/a	BED	-999	12	[0, 0, 0]	n/a	FR1	0	R1093J
1559.556	6.668	1814595	REC_WORD_VV	6.668	n/a	<>	-999	12	[0, 0, 0]	n/a	FR1	0	R1093J
1566.224	0.26	1821263	REC_WORD_VV	0.26	n/a	<>	-999	12	[0, 0, 0]	n/a	FR1	0	R1093J
1566.484	2.565	1821523	REC_WORD	2.565	n/a	DOOR	-999	12	[0, 0, 0]	n/a	FR1	0	R1093J
1569.049	46.346	1824088	REC_END	n/a	n/a	n/a	-999	12	[0, 0, 0]	n/a	FR1	0	R1093J
1615.395	0.016	1870433	START	n/a	n/a	n/a	-999	14	[-999, -999, -999]	n/a	FR1	0	R1093J
1615.411	15.352	1870449	PROB	15.352	n/a	n/a	-999	14	[6, 8, 9]	23	FR1	0	R1093J
1630.763	8.964	1885801	PROB	8.964	n/a	n/a	-999	14	[3, 9, 5]	17	FR1	0	R1093J
1639.727	80.766	1894765	STOP	n/a	n/a	n/a	-999	14	[-999, -999, -999]	n/a	FR1	0	R1093J
1720.493	0.015	1975530	START	n/a	n/a	n/a	-999	15	[-999, -999, -999]	n/a	FR1	0	R1093J
1720.508	13.168	1975545	PROB	13.168	n/a	n/a	-999	15	[9, 6, 7]	22	FR1	0	R1093J
1733.676	3.268	1988712	PROB	3.268	n/a	n/a	-999	15	[7, 1, 1]	9	FR1	0	R1093J
1736.944	7.067	1991980	PROB	7.067	n/a	n/a	-999	15	[5, 6, 8]	19	FR1	0	R1093J
1744.011	77.194	1999047	STOP	n/a	n/a	n/a	-999	15	[-999, -999, -999]	n/a	FR1	0	R1093J
1821.205	0.016	2076240	START	n/a	n/a	n/a	-999	16	[-999, -999, -999]	n/a	FR1	0	R1093J
1821.221	22.306	2076256	PROB	22.306	n/a	n/a	-999	16	[6, 5, 8]	19	FR1	0	R1093J
1843.527	78.01	2098562	STOP	n/a	n/a	n/a	-999	16	[-999, -999, -999]	n/a	FR1	0	R1093J
1921.537	0.015	2176570	START	n/a	n/a	n/a	-999	17	[-999, -999, -999]	n/a	FR1	0	R1093J
1921.552	10.968	2176585	PROB	10.968	n/a	n/a	-999	17	[3, 8, 5]	16	FR1	0	R1093J
1932.52	5.101	2187553	PROB	5.101	n/a	n/a	-999	17	[7, 2, 7]	16	FR1	0	R1093J
1937.621	6.167	2192654	PROB	6.167	n/a	n/a	-999	17	[1, 6, 3]	10	FR1	0	R1093J
1943.788	77.946	2198821	STOP	n/a	n/a	n/a	-999	17	[-999, -999, -999]	n/a	FR1	0	R1093J
2021.734	0.015	2276766	START	n/a	n/a	n/a	-999	18	[-999, -999, -999]	n/a	FR1	0	R1093J
2021.749	13.269	2276781	PROB	13.269	n/a	n/a	-999	18	[5, 1, 7]	13	FR1	0	R1093J
2035.018	4.067	2290050	PROB	4.067	n/a	n/a	-999	18	[3, 2, 8]	13	FR1	0	R1093J
2039.085	6.484	2294117	PROB	6.484	n/a	n/a	-999	18	[8, 4, 7]	19	FR1	0	R1093J
2045.569	76.694	2300600	STOP	n/a	n/a	n/a	-999	18	[-999, -999, -999]	n/a	FR1	0	R1093J
2122.263	0.016	2377293	START	n/a	n/a	n/a	-999	19	[-999, -999, -999]	n/a	FR1	0	R1093J
2122.279	12.319	2377309	PROB	12.319	n/a	n/a	-999	19	[5, 9, 3]	17	FR1	0	R1093J
2134.598	9.935	2389628	PROB	9.935	n/a	n/a	-999	19	[9, 7, 9]	25	FR1	0	R1093J
2144.533	80.495	2399563	STOP	n/a	n/a	n/a	-999	19	[-999, -999, -999]	n/a	FR1	0	R1093J
2225.028	0.016	2480057	START	n/a	n/a	n/a	-999	20	[-999, -999, -999]	n/a	FR1	0	R1093J
2225.044	16.302	2480073	PROB	16.302	n/a	n/a	-999	20	[8, 3, 7]	18	FR1	0	R1093J
2241.346	11.104	2496374	PROB	11.104	n/a	n/a	-999	20	[4, 4, 9]	17	FR1	0	R1093J
2252.45	77.159	2507478	STOP	n/a	n/a	n/a	-999	20	[-999, -999, -999]	n/a	FR1	0	R1093J
2329.609	0.015	2584636	START	n/a	n/a	n/a	-999	21	[-999, -999, -999]	n/a	FR1	0	R1093J
2329.624	17.303	2584651	PROB	17.303	n/a	n/a	-999	21	[7, 9, 2]	18	FR1	0	R1093J
2346.927	5.032	2601954	PROB	5.032	n/a	n/a	-999	21	[7, 6, 3]	16	FR1	0	R1093J
2351.959	80.897	2606986	STOP	n/a	n/a	n/a	-999	21	[-999, -999, -999]	n/a	FR1	0	R1093J
2432.856	0.016	2687881	START	n/a	n/a	n/a	-999	22	[-999, -999, -999]	n/a	FR1	0	R1093J
2432.872	8.333	2687897	PROB	8.333	n/a	n/a	-999	22	[8, 9, 1]	18	FR1	0	R1093J
2441.205	4.319	2696230	PROB	4.319	n/a	n/a	-999	22	[4, 5, 1]	10	FR1	0	R1093J
2445.524	3.917	2700549	PROB	3.917	n/a	n/a	-999	22	[2, 3, 7]	12	FR1	0	R1093J
2449.441	9.475	2704466	PROB	9.475	n/a	n/a	-999	22	[6, 8, 8]	22	FR1	0	R1093J
2458.916	91.69	2713941	STOP	n/a	n/a	n/a	-999	22	[-999, -999, -999]	n/a	FR1	0	R1093J
2550.606	0.015	2805629	START	n/a	n/a	n/a	-999	23	[-999, -999, -999]	n/a	FR1	0	R1093J
2550.621	13.919	2805644	PROB	13.919	n/a	n/a	-999	23	[1, 3, 8]	12	FR1	0	R1093J
2564.54	6.674	2819563	PROB	6.674	n/a	n/a	-999	23	[5, 3, 8]	16	FR1	0	R1093J
2571.214	86.006	2826237	STOP	n/a	n/a	n/a	-999	23	[-999, -999, -999]	n/a	FR1	0	R1093J
2657.22	0.015	2912242	START	n/a	n/a	n/a	-999	24	[-999, -999, -999]	n/a	FR1	0	R1093J
2657.235	11.035	2912257	PROB	11.035	n/a	n/a	-999	24	[4, 4, 6]	14	FR1	0	R1093J
2668.27	6.418	2923292	PROB	6.418	n/a	n/a	-999	24	[3, 3, 5]	11	FR1	0	R1093J
2674.688	4.332	2929710	PROB	4.332	n/a	n/a	-999	24	[5, 3, 1]	9	FR1	0	R1093J
2679.02	79.213	2934041	STOP	n/a	n/a	n/a	-999	24	[-999, -999, -999]	n/a	FR1	0	R1093J
2758.233	0.016	3013253	START	n/a	n/a	n/a	-999	25	[-999, -999, -999]	n/a	FR1	0	R1093J
2758.249	27.92	3013269	PROB	27.92	n/a	n/a	-999	25	[6, 7, 2]	15	FR1	0	R1093J
2786.169	80.813	3041189	STOP	n/a	n/a	n/a	-999	25	[-999, -999, -999]	n/a	FR1	0	R1093J
2866.982	0.016	3122001	START	n/a	n/a	n/a	-999	26	[-999, -999, -999]	n/a	FR1	0	R1093J
2866.998	7.751	3122017	PROB	7.751	n/a	n/a	-999	26	[7, 3, 4]	14	FR1	0	R1093J
2874.749	5.967	3129767	PROB	5.967	n/a	n/a	-999	26	[6, 5, 4]	15	FR1	0	R1093J
2880.716	8.793	3135734	PROB	8.793	n/a	n/a	-999	26	[9, 6, 6]	21	FR1	0	R1093J
2889.509	76.669	3144527	STOP	n/a	n/a	n/a	-999	26	[-999, -999, -999]	n/a	FR1	0	R1093J
2966.178	0.0	3221195	SESS_END	n/a	n/a	n/a	-999	12	[0, 0, 0]	n/a	FR1	0	R1093J
