onset	duration	sample	trial_type	response_time	stim_file	item_name	serialpos	list	test	answer	experiment	session	subject
0.0	56.909	84806	SESS_START	n/a	n/a	n/a	-999	-999	[0, 0, 0]	n/a	FR1	0	R1026D
56.909	10.428	175856	COUNTDOWN_START	n/a	n/a	n/a	-999	-999	[0, 0, 0]	n/a	FR1	0	R1026D
67.337	3.924	192540	COUNTDOWN_END	n/a	n/a	n/a	-999	-999	[0, 0, 0]	n/a	FR1	0	R1026D
71.261	2.518	198818	PRACTICE_WORD	n/a	n/a	BEAM	1	-1	[0, 0, 0]	n/a	FR1	0	R1026D
73.779	2.45	202847	PRACTICE_WORD	n/a	n/a	RHINO	2	-1	[0, 0, 0]	n/a	FR1	0	R1026D
76.229	2.518	206766	PRACTICE_WORD	n/a	n/a	WAGON	3	-1	[0, 0, 0]	n/a	FR1	0	R1026D
78.747	2.384	210795	PRACTICE_WORD	n/a	n/a	CHEST	4	-1	[0, 0, 0]	n/a	FR1	0	R1026D
81.131	2.45	214609	PRACTICE_WORD	n/a	n/a	FLOOD	5	-1	[0, 0, 0]	n/a	FR1	0	R1026D
83.581	2.517	218529	PRACTICE_WORD	n/a	n/a	TONGUE	6	-1	[0, 0, 0]	n/a	FR1	0	R1026D
86.098	2.401	222556	PRACTICE_WORD	n/a	n/a	CAMEL	7	-1	[0, 0, 0]	n/a	FR1	0	R1026D
88.499	2.583	226397	PRACTICE_WORD	n/a	n/a	IRON	8	-1	[0, 0, 0]	n/a	FR1	0	R1026D
91.082	2.501	230530	PRACTICE_WORD	n/a	n/a	ATTIC	9	-1	[0, 0, 0]	n/a	FR1	0	R1026D
93.583	2.55	234531	PRACTICE_WORD	n/a	n/a	WATCH	10	-1	[0, 0, 0]	n/a	FR1	0	R1026D
96.133	2.584	238611	PRACTICE_WORD	n/a	n/a	COTTON	11	-1	[0, 0, 0]	n/a	FR1	0	R1026D
98.717	1.616	242745	PRACTICE_WORD	n/a	n/a	RING	12	-1	[0, 0, 0]	n/a	FR1	0	R1026D
100.333	0.0	245331	PRACTICE_DISTRACT_START	n/a	n/a	n/a	-999	-1	[0, 0, 0]	n/a	FR1	0	R1026D
100.333	0.017	245331	START	n/a	n/a	n/a	-999	-1	[-999, -999, -999]	n/a	FR1	0	R1026D
100.35	6.302	245358	PROB	6.302	n/a	n/a	-999	-1	[1, 6, 1]	8	FR1	0	R1026D
106.652	3.683	255441	PROB	3.683	n/a	n/a	-999	-1	[8, 3, 1]	12	FR1	0	R1026D
110.335	4.917	261333	PROB	4.917	n/a	n/a	-999	-1	[5, 9, 2]	16	FR1	0	R1026D
115.252	11.523	269200	PROB	11.523	n/a	n/a	-999	-1	[7, 2, 8]	17	FR1	0	R1026D
126.775	0.014	287636	STOP	n/a	n/a	n/a	-999	-1	[-999, -999, -999]	n/a	FR1	0	R1026D
126.789	0.618	287658	PRACTICE_DISTRACT_END	n/a	n/a	n/a	-999	-1	[0, 0, 0]	n/a	FR1	0	R1026D
127.407	30.515	288647	PRACTICE_REC_START	n/a	n/a	n/a	-999	-1	[0, 0, 0]	n/a	FR1	0	R1026D
157.922	47.165	337469	PRACTICE_REC_END	n/a	n/a	n/a	-999	-1	[0, 0, 0]	n/a	FR1	0	R1026D
205.087	0.0	412929	TRIAL	n/a	n/a	n/a	-999	1	[0, 0, 0]	n/a	FR1	0	R1026D
205.087	10.428	412929	COUNTDOWN_START	n/a	n/a	n/a	-999	1	[0, 0, 0]	n/a	FR1	0	R1026D
215.515	0.007	429613	COUNTDOWN_END	n/a	n/a	n/a	-999	1	[0, 0, 0]	n/a	FR1	0	R1026D
215.522	2.383	429624	ORIENT	n/a	n/a	n/a	-999	1	[0, 0, 0]	n/a	FR1	0	R1026D
217.905	2.483	433437	WORD	n/a	wordpools/wordpool_EN.txt	GOLD	1	1	[0, 0, 0]	n/a	FR1	0	R1026D
220.388	2.518	437409	WORD	n/a	wordpools/wordpool_EN.txt	LAMP	2	1	[0, 0, 0]	n/a	FR1	0	R1026D
222.906	2.601	441438	WORD	n/a	wordpools/wordpool_EN.txt	MOLE	3	1	[0, 0, 0]	n/a	FR1	0	R1026D
225.507	2.534	445599	WORD	n/a	wordpools/wordpool_EN.txt	CROWN	4	1	[0, 0, 0]	n/a	FR1	0	R1026D
228.041	2.467	449653	WORD	n/a	wordpools/wordpool_EN.txt	SHIP	5	1	[0, 0, 0]	n/a	FR1	0	R1026D
230.508	2.55	453600	WORD	n/a	wordpools/wordpool_EN.txt	MOTH	6	1	[0, 0, 0]	n/a	FR1	0	R1026D
233.058	2.584	457680	WORD	n/a	wordpools/wordpool_EN.txt	NEST	7	1	[0, 0, 0]	n/a	FR1	0	R1026D
235.642	2.517	461814	WORD	n/a	wordpools/wordpool_EN.txt	BEE	8	1	[0, 0, 0]	n/a	FR1	0	R1026D
238.159	2.551	465841	WORD	n/a	wordpools/wordpool_EN.txt	EGG	9	1	[0, 0, 0]	n/a	FR1	0	R1026D
240.71	2.599	469923	WORD	n/a	wordpools/wordpool_EN.txt	TOAD	10	1	[0, 0, 0]	n/a	FR1	0	R1026D
243.309	2.435	474081	WORD	n/a	wordpools/wordpool_EN.txt	SHELL	11	1	[0, 0, 0]	n/a	FR1	0	R1026D
245.744	1.616	477977	WORD	n/a	wordpools/wordpool_EN.txt	HOOF	12	1	[0, 0, 0]	n/a	FR1	0	R1026D
247.36	0.001	480562	DISTRACT_START	n/a	n/a	n/a	-999	1	[0, 0, 0]	n/a	FR1	0	R1026D
247.361	0.016	480564	START	n/a	n/a	n/a	-999	1	[-999, -999, -999]	n/a	FR1	0	R1026D
247.377	4.301	480589	PROB	4.301	n/a	n/a	-999	1	[1, 7, 7]	15	FR1	0	R1026D
251.678	3.001	487471	PROB	3.001	n/a	n/a	-999	1	[4, 1, 9]	14	FR1	0	R1026D
254.679	6.368	492272	PROB	6.368	n/a	n/a	-999	1	[9, 2, 6]	17	FR1	0	R1026D
261.047	4.15	502460	PROB	4.15	n/a	n/a	-999	1	[4, 7, 1]	12	FR1	0	R1026D
265.197	2.378	509100	PROB	2.378	n/a	n/a	-999	1	[5, 5, 6]	16	FR1	0	R1026D
267.575	0.006	512905	STOP	n/a	n/a	n/a	-999	1	[-999, -999, -999]	n/a	FR1	0	R1026D
267.581	1.052	512914	DISTRACT_END	n/a	n/a	n/a	-999	1	[0, 0, 0]	n/a	FR1	0	R1026D
268.633	1.54	514597	REC_START	n/a	n/a	n/a	-999	1	[0, 0, 0]	n/a	FR1	0	R1026D
270.173	1.108	517061	REC_WORD	1.108	n/a	GOLD	-999	1	[0, 0, 0]	n/a	FR1	0	R1026D
271.281	4.428	518834	REC_WORD	4.428	n/a	LAMP	-999	1	[0, 0, 0]	n/a	FR1	0	R1026D
275.709	1.331	525918	REC_WORD	1.331	n/a	SHIP	-999	1	[0, 0, 0]	n/a	FR1	0	R1026D
277.04	2.006	528048	REC_WORD	2.006	n/a	MOTH	-999	1	[0, 0, 0]	n/a	FR1	0	R1026D
279.046	19.597	531257	REC_WORD	19.597	n/a	CROWN	-999	1	[0, 0, 0]	n/a	FR1	0	R1026D
298.643	2.693	562611	REC_END	n/a	n/a	n/a	-999	1	[0, 0, 0]	n/a	FR1	0	R1026D
301.336	0.001	566919	COUNTDOWN_START	n/a	n/a	n/a	-999	2	[0, 0, 0]	n/a	FR1	0	R1026D
301.337	10.427	566921	TRIAL	n/a	n/a	n/a	-999	2	[0, 0, 0]	n/a	FR1	0	R1026D
311.764	0.009	583603	COUNTDOWN_END	n/a	n/a	n/a	-999	2	[0, 0, 0]	n/a	FR1	0	R1026D
311.773	2.499	583618	ORIENT	n/a	n/a	n/a	-999	2	[0, 0, 0]	n/a	FR1	0	R1026D
314.272	2.468	587616	WORD	n/a	wordpools/wordpool_EN.txt	SEAT	1	2	[0, 0, 0]	n/a	FR1	0	R1026D
316.74	2.401	591565	WORD	n/a	wordpools/wordpool_EN.txt	MULE	2	2	[0, 0, 0]	n/a	FR1	0	R1026D
319.141	2.517	595406	WORD	n/a	wordpools/wordpool_EN.txt	TOOTH	3	2	[0, 0, 0]	n/a	FR1	0	R1026D
321.658	2.616	599433	WORD	n/a	wordpools/wordpool_EN.txt	PASTE	4	2	[0, 0, 0]	n/a	FR1	0	R1026D
324.274	2.535	603618	WORD	n/a	wordpools/wordpool_EN.txt	TRAY	5	2	[0, 0, 0]	n/a	FR1	0	R1026D
326.809	2.532	607674	WORD	n/a	wordpools/wordpool_EN.txt	TEETH	6	2	[0, 0, 0]	n/a	FR1	0	R1026D
329.341	2.502	611725	WORD	n/a	wordpools/wordpool_EN.txt	BEAK	7	2	[0, 0, 0]	n/a	FR1	0	R1026D
331.843	2.617	615728	WORD	n/a	wordpools/wordpool_EN.txt	BRIDGE	8	2	[0, 0, 0]	n/a	FR1	0	R1026D
334.46	2.484	619915	WORD	n/a	wordpools/wordpool_EN.txt	SALT	9	2	[0, 0, 0]	n/a	FR1	0	R1026D
336.944	2.517	623889	WORD	n/a	wordpools/wordpool_EN.txt	PIPE	10	2	[0, 0, 0]	n/a	FR1	0	R1026D
339.461	2.484	627916	WORD	n/a	wordpools/wordpool_EN.txt	SOAP	11	2	[0, 0, 0]	n/a	FR1	0	R1026D
341.945	1.617	631891	WORD	n/a	wordpools/wordpool_EN.txt	TOAST	12	2	[0, 0, 0]	n/a	FR1	0	R1026D
343.562	0.001	634478	DISTRACT_START	n/a	n/a	n/a	-999	2	[0, 0, 0]	n/a	FR1	0	R1026D
343.563	0.015	634479	START	n/a	n/a	n/a	-999	2	[-999, -999, -999]	n/a	FR1	0	R1026D
343.578	2.951	634503	PROB	2.951	n/a	n/a	-999	2	[3, 7, 3]	13	FR1	0	R1026D
346.529	3.367	639225	PROB	3.367	n/a	n/a	-999	2	[2, 3, 4]	9	FR1	0	R1026D
349.896	5.618	644612	PROB	5.618	n/a	n/a	-999	2	[3, 8, 5]	16	FR1	0	R1026D
355.514	3.301	653600	PROB	3.301	n/a	n/a	-999	2	[1, 5, 1]	7	FR1	0	R1026D
358.815	2.85	658881	PROB	2.85	n/a	n/a	-999	2	[1, 3, 9]	13	FR1	0	R1026D
361.665	3.51	663441	PROB	3.51	n/a	n/a	-999	2	[1, 5, 9]	14	FR1	0	R1026D
365.175	0.007	669057	STOP	n/a	n/a	n/a	-999	2	[-999, -999, -999]	n/a	FR1	0	R1026D
365.182	1.15	669068	DISTRACT_END	n/a	n/a	n/a	-999	2	[0, 0, 0]	n/a	FR1	0	R1026D
366.332	6.676	670908	REC_START	n/a	n/a	n/a	-999	2	[0, 0, 0]	n/a	FR1	0	R1026D
373.008	1.004	681589	REC_WORD	1.004	n/a	TOOTH	-999	2	[0, 0, 0]	n/a	FR1	0	R1026D
374.012	7.8	683195	REC_WORD	7.8	n/a	PASTE	-999	2	[0, 0, 0]	n/a	FR1	0	R1026D
381.812	3.073	695675	REC_WORD	3.073	n/a	PIPE	-999	2	[0, 0, 0]	n/a	FR1	0	R1026D
384.885	1.877	700591	REC_WORD	1.877	n/a	BRIDGE	-999	2	[0, 0, 0]	n/a	FR1	0	R1026D
386.762	9.581	703594	REC_WORD	9.581	n/a	CROWN	-999	2	[0, 0, 0]	n/a	FR1	0	R1026D
396.343	2.562	718923	REC_END	n/a	n/a	n/a	-999	2	[0, 0, 0]	n/a	FR1	0	R1026D
398.905	0.001	723022	COUNTDOWN_START	n/a	n/a	n/a	-999	3	[0, 0, 0]	n/a	FR1	0	R1026D
398.906	10.427	723024	TRIAL	n/a	n/a	n/a	-999	3	[0, 0, 0]	n/a	FR1	0	R1026D
409.333	0.006	739706	COUNTDOWN_END	n/a	n/a	n/a	-999	3	[0, 0, 0]	n/a	FR1	0	R1026D
409.339	2.569	739716	ORIENT	n/a	n/a	n/a	-999	3	[0, 0, 0]	n/a	FR1	0	R1026D
411.908	2.399	743826	WORD	n/a	wordpools/wordpool_EN.txt	LAKE	1	3	[0, 0, 0]	n/a	FR1	0	R1026D
414.307	2.635	747664	WORD	n/a	wordpools/wordpool_EN.txt	MOUTH	2	3	[0, 0, 0]	n/a	FR1	0	R1026D
416.942	2.567	751880	WORD	n/a	wordpools/wordpool_EN.txt	PEACH	3	3	[0, 0, 0]	n/a	FR1	0	R1026D
419.509	2.467	755987	WORD	n/a	wordpools/wordpool_EN.txt	SQUARE	4	3	[0, 0, 0]	n/a	FR1	0	R1026D
421.976	2.416	759934	WORD	n/a	wordpools/wordpool_EN.txt	BLOOM	5	3	[0, 0, 0]	n/a	FR1	0	R1026D
424.392	2.602	763799	WORD	n/a	wordpools/wordpool_EN.txt	BIRD	6	3	[0, 0, 0]	n/a	FR1	0	R1026D
426.994	2.583	767962	WORD	n/a	wordpools/wordpool_EN.txt	TAIL	7	3	[0, 0, 0]	n/a	FR1	0	R1026D
429.577	2.551	772095	WORD	n/a	wordpools/wordpool_EN.txt	LAND	8	3	[0, 0, 0]	n/a	FR1	0	R1026D
432.128	2.434	776176	WORD	n/a	wordpools/wordpool_EN.txt	FACE	9	3	[0, 0, 0]	n/a	FR1	0	R1026D
434.562	2.5	780070	WORD	n/a	wordpools/wordpool_EN.txt	HAWK	10	3	[0, 0, 0]	n/a	FR1	0	R1026D
437.062	2.401	784070	WORD	n/a	wordpools/wordpool_EN.txt	EEL	11	3	[0, 0, 0]	n/a	FR1	0	R1026D
439.463	1.617	787912	WORD	n/a	wordpools/wordpool_EN.txt	SIGN	12	3	[0, 0, 0]	n/a	FR1	0	R1026D
441.08	0.0	790499	DISTRACT_START	n/a	n/a	n/a	-999	3	[0, 0, 0]	n/a	FR1	0	R1026D
441.08	0.016	790499	START	n/a	n/a	n/a	-999	3	[-999, -999, -999]	n/a	FR1	0	R1026D
441.096	5.385	790524	PROB	5.385	n/a	n/a	-999	3	[1, 7, 5]	13	FR1	0	R1026D
446.481	3.167	799140	PROB	3.167	n/a	n/a	-999	3	[3, 4, 2]	9	FR1	0	R1026D
449.648	2.467	804207	PROB	2.467	n/a	n/a	-999	3	[2, 8, 1]	11	FR1	0	R1026D
452.115	3.384	808154	PROB	3.384	n/a	n/a	-999	3	[5, 2, 9]	16	FR1	0	R1026D
455.499	3.1	813568	PROB	3.1	n/a	n/a	-999	3	[4, 3, 2]	9	FR1	0	R1026D
458.599	2.968	818528	PROB	2.968	n/a	n/a	-999	3	[2, 8, 3]	13	FR1	0	R1026D
461.567	0.016	823276	STOP	n/a	n/a	n/a	-999	3	[-999, -999, -999]	n/a	FR1	0	R1026D
461.583	1.151	823302	DISTRACT_END	n/a	n/a	n/a	-999	3	[0, 0, 0]	n/a	FR1	0	R1026D
462.734	3.159	825143	REC_START	n/a	n/a	n/a	-999	3	[0, 0, 0]	n/a	FR1	0	R1026D
465.893	1.249	830197	REC_WORD	1.249	n/a	LAKE	-999	3	[0, 0, 0]	n/a	FR1	0	R1026D
467.142	4.091	832196	REC_WORD	4.091	n/a	MOUTH	-999	3	[0, 0, 0]	n/a	FR1	0	R1026D
471.233	1.554	838741	REC_WORD	1.554	n/a	BIRD	-999	3	[0, 0, 0]	n/a	FR1	0	R1026D
472.787	19.961	841227	REC_WORD	19.961	n/a	TAIL	-999	3	[0, 0, 0]	n/a	FR1	0	R1026D
492.748	2.775	873163	REC_END	n/a	n/a	n/a	-999	3	[0, 0, 0]	n/a	FR1	0	R1026D
495.523	0.0	877603	COUNTDOWN_START	n/a	n/a	n/a	-999	4	[0, 0, 0]	n/a	FR1	0	R1026D
495.523	10.428	877603	TRIAL	n/a	n/a	n/a	-999	4	[0, 0, 0]	n/a	FR1	0	R1026D
505.951	0.007	894287	COUNTDOWN_END	n/a	n/a	n/a	-999	4	[0, 0, 0]	n/a	FR1	0	R1026D
505.958	2.601	894298	ORIENT	n/a	n/a	n/a	-999	4	[0, 0, 0]	n/a	FR1	0	R1026D
508.559	2.567	898460	WORD	n/a	wordpools/wordpool_EN.txt	CUP	1	4	[0, 0, 0]	n/a	FR1	0	R1026D
511.126	2.55	902567	WORD	n/a	wordpools/wordpool_EN.txt	SOUP	2	4	[0, 0, 0]	n/a	FR1	0	R1026D
513.676	2.434	906646	WORD	n/a	wordpools/wordpool_EN.txt	SLUSH	3	4	[0, 0, 0]	n/a	FR1	0	R1026D
516.11	2.484	910541	WORD	n/a	wordpools/wordpool_EN.txt	BRUSH	4	4	[0, 0, 0]	n/a	FR1	0	R1026D
518.594	2.467	914515	WORD	n/a	wordpools/wordpool_EN.txt	FRUIT	5	4	[0, 0, 0]	n/a	FR1	0	R1026D
521.061	2.484	918462	WORD	n/a	wordpools/wordpool_EN.txt	THUMB	6	4	[0, 0, 0]	n/a	FR1	0	R1026D
523.545	2.467	922436	WORD	n/a	wordpools/wordpool_EN.txt	SUIT	7	4	[0, 0, 0]	n/a	FR1	0	R1026D
526.012	2.467	926383	WORD	n/a	wordpools/wordpool_EN.txt	PLATE	8	4	[0, 0, 0]	n/a	FR1	0	R1026D
528.479	2.467	930330	WORD	n/a	wordpools/wordpool_EN.txt	GRAPE	9	4	[0, 0, 0]	n/a	FR1	0	R1026D
530.946	2.4	934277	WORD	n/a	wordpools/wordpool_EN.txt	CHEEK	10	4	[0, 0, 0]	n/a	FR1	0	R1026D
533.346	2.468	938117	WORD	n/a	wordpools/wordpool_EN.txt	VASE	11	4	[0, 0, 0]	n/a	FR1	0	R1026D
535.814	1.616	942065	WORD	n/a	wordpools/wordpool_EN.txt	NOSE	12	4	[0, 0, 0]	n/a	FR1	0	R1026D
537.43	0.0	944651	DISTRACT_START	n/a	n/a	n/a	-999	4	[0, 0, 0]	n/a	FR1	0	R1026D
537.43	0.016	944651	START	n/a	n/a	n/a	-999	4	[-999, -999, -999]	n/a	FR1	0	R1026D
537.446	3.669	944676	PROB	3.669	n/a	n/a	-999	4	[4, 5, 5]	14	FR1	0	R1026D
541.115	4.65	950547	PROB	4.65	n/a	n/a	-999	4	[7, 9, 7]	23	FR1	0	R1026D
545.765	2.533	957986	PROB	2.533	n/a	n/a	-999	4	[4, 1, 9]	14	FR1	0	R1026D
548.298	4.535	962039	PROB	4.535	n/a	n/a	-999	4	[9, 5, 3]	17	FR1	0	R1026D
552.833	3.084	969294	PROB	3.084	n/a	n/a	-999	4	[4, 6, 4]	14	FR1	0	R1026D
555.917	4.77	974229	PROB	4.77	n/a	n/a	-999	4	[6, 3, 3]	12	FR1	0	R1026D
560.687	0.014	981860	STOP	n/a	n/a	n/a	-999	4	[-999, -999, -999]	n/a	FR1	0	R1026D
560.701	1.068	981883	DISTRACT_END	n/a	n/a	n/a	-999	4	[0, 0, 0]	n/a	FR1	0	R1026D
561.769	30.0	983591	REC_START	n/a	n/a	n/a	-999	4	[0, 0, 0]	n/a	FR1	0	R1026D
591.769	0.01	1031589	REC_WORD_VV	0.01	n/a	<>	-999	4	[0, 0, 0]	n/a	FR1	0	R1026D
591.779	3.628	1031605	REC_END	n/a	n/a	n/a	-999	4	[0, 0, 0]	n/a	FR1	0	R1026D
595.407	0.0	1037409	TRIAL	n/a	n/a	n/a	-999	5	[0, 0, 0]	n/a	FR1	0	R1026D
595.407	10.428	1037409	COUNTDOWN_START	n/a	n/a	n/a	-999	5	[0, 0, 0]	n/a	FR1	0	R1026D
605.835	0.008	1054093	COUNTDOWN_END	n/a	n/a	n/a	-999	5	[0, 0, 0]	n/a	FR1	0	R1026D
605.843	2.466	1054106	ORIENT	n/a	n/a	n/a	-999	5	[0, 0, 0]	n/a	FR1	0	R1026D
608.309	2.568	1058052	WORD	n/a	wordpools/wordpool_EN.txt	STONE	1	5	[0, 0, 0]	n/a	FR1	0	R1026D
610.877	2.567	1062160	WORD	n/a	wordpools/wordpool_EN.txt	HORN	2	5	[0, 0, 0]	n/a	FR1	0	R1026D
613.444	2.434	1066267	WORD	n/a	wordpools/wordpool_EN.txt	SPEAR	3	5	[0, 0, 0]	n/a	FR1	0	R1026D
615.878	2.483	1070161	WORD	n/a	wordpools/wordpool_EN.txt	BUSH	4	5	[0, 0, 0]	n/a	FR1	0	R1026D
618.361	2.518	1074134	WORD	n/a	wordpools/wordpool_EN.txt	DRUM	5	5	[0, 0, 0]	n/a	FR1	0	R1026D
620.879	2.601	1078163	WORD	n/a	wordpools/wordpool_EN.txt	PEAR	6	5	[0, 0, 0]	n/a	FR1	0	R1026D
623.48	2.6	1082324	WORD	n/a	wordpools/wordpool_EN.txt	SWAMP	7	5	[0, 0, 0]	n/a	FR1	0	R1026D
626.08	2.384	1086484	WORD	n/a	wordpools/wordpool_EN.txt	FOX	8	5	[0, 0, 0]	n/a	FR1	0	R1026D
628.464	2.5	1090298	WORD	n/a	wordpools/wordpool_EN.txt	LEAF	9	5	[0, 0, 0]	n/a	FR1	0	R1026D
630.964	2.45	1094298	WORD	n/a	wordpools/wordpool_EN.txt	CHIEF	10	5	[0, 0, 0]	n/a	FR1	0	R1026D
633.414	2.501	1098218	WORD	n/a	wordpools/wordpool_EN.txt	FLUTE	11	5	[0, 0, 0]	n/a	FR1	0	R1026D
635.915	1.617	1102219	WORD	n/a	wordpools/wordpool_EN.txt	PLANT	12	5	[0, 0, 0]	n/a	FR1	0	R1026D
637.532	0.001	1104806	DISTRACT_START	n/a	n/a	n/a	-999	5	[0, 0, 0]	n/a	FR1	0	R1026D
637.533	0.016	1104808	START	n/a	n/a	n/a	-999	5	[-999, -999, -999]	n/a	FR1	0	R1026D
637.549	5.134	1104833	PROB	5.134	n/a	n/a	-999	5	[9, 9, 4]	22	FR1	0	R1026D
642.683	3.884	1113047	PROB	3.884	n/a	n/a	-999	5	[7, 7, 4]	18	FR1	0	R1026D
646.567	4.984	1119261	PROB	4.984	n/a	n/a	-999	5	[3, 8, 9]	20	FR1	0	R1026D
651.551	4.7	1127235	PROB	4.7	n/a	n/a	-999	5	[7, 1, 9]	17	FR1	0	R1026D
656.251	3.003	1134755	PROB	3.003	n/a	n/a	-999	5	[9, 3, 7]	17	FR1	0	R1026D
659.254	0.014	1139559	STOP	n/a	n/a	n/a	-999	5	[-999, -999, -999]	n/a	FR1	0	R1026D
659.268	1.154	1139582	DISTRACT_END	n/a	n/a	n/a	-999	5	[0, 0, 0]	n/a	FR1	0	R1026D
660.422	2.067	1141428	REC_START	n/a	n/a	n/a	-999	5	[0, 0, 0]	n/a	FR1	0	R1026D
662.489	1.885	1144735	REC_WORD	1.885	n/a	STONE	-999	5	[0, 0, 0]	n/a	FR1	0	R1026D
664.374	2.664	1147751	REC_WORD	2.664	n/a	WINE	-999	5	[0, 0, 0]	n/a	FR1	0	R1026D
667.038	4.982	1152013	REC_WORD	4.982	n/a	SPEAR	-999	5	[0, 0, 0]	n/a	FR1	0	R1026D
672.02	2.019	1159984	REC_WORD	2.019	n/a	CHIEF	-999	5	[0, 0, 0]	n/a	FR1	0	R1026D
674.039	2.339	1163214	REC_WORD	2.339	n/a	BUSH	-999	5	[0, 0, 0]	n/a	FR1	0	R1026D
676.378	14.052	1166956	REC_WORD	14.052	n/a	FOX	-999	5	[0, 0, 0]	n/a	FR1	0	R1026D
690.43	3.862	1189439	REC_END	n/a	n/a	n/a	-999	5	[0, 0, 0]	n/a	FR1	0	R1026D
694.292	0.0	1195617	COUNTDOWN_START	n/a	n/a	n/a	-999	6	[0, 0, 0]	n/a	FR1	0	R1026D
694.292	10.428	1195617	TRIAL	n/a	n/a	n/a	-999	6	[0, 0, 0]	n/a	FR1	0	R1026D
704.72	0.008	1212301	COUNTDOWN_END	n/a	n/a	n/a	-999	6	[0, 0, 0]	n/a	FR1	0	R1026D
704.728	2.549	1212314	ORIENT	n/a	n/a	n/a	-999	6	[0, 0, 0]	n/a	FR1	0	R1026D
707.277	2.402	1216392	WORD	n/a	wordpools/wordpool_EN.txt	STREET	1	6	[0, 0, 0]	n/a	FR1	0	R1026D
709.679	2.549	1220235	WORD	n/a	wordpools/wordpool_EN.txt	CAGE	2	6	[0, 0, 0]	n/a	FR1	0	R1026D
712.228	2.551	1224314	WORD	n/a	wordpools/wordpool_EN.txt	DIME	3	6	[0, 0, 0]	n/a	FR1	0	R1026D
714.779	2.55	1228395	WORD	n/a	wordpools/wordpool_EN.txt	SLIME	4	6	[0, 0, 0]	n/a	FR1	0	R1026D
717.329	2.518	1232475	WORD	n/a	wordpools/wordpool_EN.txt	PANTS	5	6	[0, 0, 0]	n/a	FR1	0	R1026D
719.847	2.6	1236503	WORD	n/a	wordpools/wordpool_EN.txt	SINK	6	6	[0, 0, 0]	n/a	FR1	0	R1026D
722.447	2.401	1240663	WORD	n/a	wordpools/wordpool_EN.txt	FUR	7	6	[0, 0, 0]	n/a	FR1	0	R1026D
724.848	2.45	1244505	WORD	n/a	wordpools/wordpool_EN.txt	AXE	8	6	[0, 0, 0]	n/a	FR1	0	R1026D
727.298	2.618	1248424	WORD	n/a	wordpools/wordpool_EN.txt	TRAIN	9	6	[0, 0, 0]	n/a	FR1	0	R1026D
729.916	2.499	1252613	WORD	n/a	wordpools/wordpool_EN.txt	SLEEVE	10	6	[0, 0, 0]	n/a	FR1	0	R1026D
732.415	2.418	1256611	WORD	n/a	wordpools/wordpool_EN.txt	TIE	11	6	[0, 0, 0]	n/a	FR1	0	R1026D
734.833	1.616	1260480	WORD	n/a	wordpools/wordpool_EN.txt	HAND	12	6	[0, 0, 0]	n/a	FR1	0	R1026D
736.449	0.001	1263065	DISTRACT_START	n/a	n/a	n/a	-999	6	[0, 0, 0]	n/a	FR1	0	R1026D
736.45	0.017	1263067	START	n/a	n/a	n/a	-999	6	[-999, -999, -999]	n/a	FR1	0	R1026D
736.467	3.384	1263094	PROB	3.384	n/a	n/a	-999	6	[2, 4, 7]	13	FR1	0	R1026D
739.851	2.984	1268508	PROB	2.984	n/a	n/a	-999	6	[6, 1, 9]	16	FR1	0	R1026D
742.835	2.65	1273282	PROB	2.65	n/a	n/a	-999	6	[9, 1, 4]	14	FR1	0	R1026D
745.485	3.518	1277522	PROB	3.518	n/a	n/a	-999	6	[2, 8, 1]	11	FR1	0	R1026D
749.003	3.349	1283151	PROB	3.349	n/a	n/a	-999	6	[3, 6, 9]	18	FR1	0	R1026D
752.352	5.614	1288509	PROB	5.614	n/a	n/a	-999	6	[6, 8, 8]	22	FR1	0	R1026D
757.966	0.005	1297491	STOP	n/a	n/a	n/a	-999	6	[-999, -999, -999]	n/a	FR1	0	R1026D
757.971	1.167	1297499	DISTRACT_END	n/a	n/a	n/a	-999	6	[0, 0, 0]	n/a	FR1	0	R1026D
759.138	19.007	1299366	REC_START	n/a	n/a	n/a	-999	6	[0, 0, 0]	n/a	FR1	0	R1026D
778.145	11.007	1329775	REC_WORD	11.007	n/a	HAIR	-999	6	[0, 0, 0]	n/a	FR1	0	R1026D
789.152	5.992	1347386	REC_END	n/a	n/a	n/a	-999	6	[0, 0, 0]	n/a	FR1	0	R1026D
795.144	0.001	1356973	COUNTDOWN_START	n/a	n/a	n/a	-999	7	[0, 0, 0]	n/a	FR1	0	R1026D
795.145	10.427	1356974	TRIAL	n/a	n/a	n/a	-999	7	[0, 0, 0]	n/a	FR1	0	R1026D
805.572	0.008	1373656	COUNTDOWN_END	n/a	n/a	n/a	-999	7	[0, 0, 0]	n/a	FR1	0	R1026D
805.58	2.55	1373669	ORIENT	n/a	n/a	n/a	-999	7	[0, 0, 0]	n/a	FR1	0	R1026D
808.13	2.434	1377749	WORD	n/a	wordpools/wordpool_EN.txt	CRANE	1	7	[0, 0, 0]	n/a	FR1	0	R1026D
810.564	2.45	1381643	WORD	n/a	wordpools/wordpool_EN.txt	SEAL	2	7	[0, 0, 0]	n/a	FR1	0	R1026D
813.014	2.416	1385563	WORD	n/a	wordpools/wordpool_EN.txt	FUDGE	3	7	[0, 0, 0]	n/a	FR1	0	R1026D
815.43	2.502	1389428	WORD	n/a	wordpools/wordpool_EN.txt	PEN	4	7	[0, 0, 0]	n/a	FR1	0	R1026D
817.932	2.466	1393431	WORD	n/a	wordpools/wordpool_EN.txt	INK	5	7	[0, 0, 0]	n/a	FR1	0	R1026D
820.398	2.501	1397377	WORD	n/a	wordpools/wordpool_EN.txt	BANK	6	7	[0, 0, 0]	n/a	FR1	0	R1026D
822.899	2.618	1401378	WORD	n/a	wordpools/wordpool_EN.txt	SHEET	7	7	[0, 0, 0]	n/a	FR1	0	R1026D
825.517	2.6	1405567	WORD	n/a	wordpools/wordpool_EN.txt	BOOK	8	7	[0, 0, 0]	n/a	FR1	0	R1026D
828.117	2.45	1409727	WORD	n/a	wordpools/wordpool_EN.txt	DESK	9	7	[0, 0, 0]	n/a	FR1	0	R1026D
830.567	2.518	1413646	WORD	n/a	wordpools/wordpool_EN.txt	WALL	10	7	[0, 0, 0]	n/a	FR1	0	R1026D
833.085	2.533	1417675	WORD	n/a	wordpools/wordpool_EN.txt	DITCH	11	7	[0, 0, 0]	n/a	FR1	0	R1026D
835.618	1.616	1421728	WORD	n/a	wordpools/wordpool_EN.txt	COIN	12	7	[0, 0, 0]	n/a	FR1	0	R1026D
837.234	0.001	1424313	DISTRACT_START	n/a	n/a	n/a	-999	7	[0, 0, 0]	n/a	FR1	0	R1026D
837.235	0.016	1424315	START	n/a	n/a	n/a	-999	7	[-999, -999, -999]	n/a	FR1	0	R1026D
837.251	5.585	1424340	PROB	5.585	n/a	n/a	-999	7	[7, 7, 3]	17	FR1	0	R1026D
842.836	2.784	1433276	PROB	2.784	n/a	n/a	-999	7	[3, 1, 3]	7	FR1	0	R1026D
845.62	2.851	1437730	PROB	2.851	n/a	n/a	-999	7	[1, 1, 6]	8	FR1	0	R1026D
848.471	2.033	1442291	PROB	2.033	n/a	n/a	-999	7	[4, 4, 1]	9	FR1	0	R1026D
850.504	3.867	1445544	PROB	3.867	n/a	n/a	-999	7	[3, 9, 6]	18	FR1	0	R1026D
854.371	4.348	1451731	PROB	4.348	n/a	n/a	-999	7	[5, 4, 8]	17	FR1	0	R1026D
858.719	0.004	1458687	STOP	n/a	n/a	n/a	-999	7	[-999, -999, -999]	n/a	FR1	0	R1026D
858.723	1.167	1458694	DISTRACT_END	n/a	n/a	n/a	-999	7	[0, 0, 0]	n/a	FR1	0	R1026D
859.89	7.074	1460561	REC_START	n/a	n/a	n/a	-999	7	[0, 0, 0]	n/a	FR1	0	R1026D
866.964	1.963	1471879	REC_WORD	1.963	n/a	DITCH	-999	7	[0, 0, 0]	n/a	FR1	0	R1026D
868.927	9.495	1475019	REC_WORD	9.495	n/a	SIGN	-999	7	[0, 0, 0]	n/a	FR1	0	R1026D
878.422	11.479	1490211	REC_WORD	11.479	n/a	PANTS	-999	7	[0, 0, 0]	n/a	FR1	0	R1026D
889.901	2.493	1508576	REC_END	n/a	n/a	n/a	-999	7	[0, 0, 0]	n/a	FR1	0	R1026D
892.394	0.001	1512565	COUNTDOWN_START	n/a	n/a	n/a	-999	8	[0, 0, 0]	n/a	FR1	0	R1026D
892.395	10.427	1512566	TRIAL	n/a	n/a	n/a	-999	8	[0, 0, 0]	n/a	FR1	0	R1026D
902.822	0.009	1529249	COUNTDOWN_END	n/a	n/a	n/a	-999	8	[0, 0, 0]	n/a	FR1	0	R1026D
902.831	2.416	1529263	ORIENT	n/a	n/a	n/a	-999	8	[0, 0, 0]	n/a	FR1	0	R1026D
905.247	2.568	1533128	WORD	n/a	wordpools/wordpool_EN.txt	GLASS	1	8	[0, 0, 0]	n/a	FR1	0	R1026D
907.815	2.416	1537237	WORD	n/a	wordpools/wordpool_EN.txt	MUG	2	8	[0, 0, 0]	n/a	FR1	0	R1026D
910.231	2.502	1541102	WORD	n/a	wordpools/wordpool_EN.txt	SOCK	3	8	[0, 0, 0]	n/a	FR1	0	R1026D
912.733	2.482	1545105	WORD	n/a	wordpools/wordpool_EN.txt	FLOOR	4	8	[0, 0, 0]	n/a	FR1	0	R1026D
915.215	2.568	1549076	WORD	n/a	wordpools/wordpool_EN.txt	SHOE	5	8	[0, 0, 0]	n/a	FR1	0	R1026D
917.783	2.483	1553185	WORD	n/a	wordpools/wordpool_EN.txt	JAR	6	8	[0, 0, 0]	n/a	FR1	0	R1026D
920.266	2.435	1557158	WORD	n/a	wordpools/wordpool_EN.txt	ELF	7	8	[0, 0, 0]	n/a	FR1	0	R1026D
922.701	2.533	1561053	WORD	n/a	wordpools/wordpool_EN.txt	TANK	8	8	[0, 0, 0]	n/a	FR1	0	R1026D
925.234	2.435	1565106	WORD	n/a	wordpools/wordpool_EN.txt	POOL	9	8	[0, 0, 0]	n/a	FR1	0	R1026D
927.669	2.4	1569002	WORD	n/a	wordpools/wordpool_EN.txt	ROOM	10	8	[0, 0, 0]	n/a	FR1	0	R1026D
930.069	2.517	1572842	WORD	n/a	wordpools/wordpool_EN.txt	CANE	11	8	[0, 0, 0]	n/a	FR1	0	R1026D
932.586	1.616	1576869	WORD	n/a	wordpools/wordpool_EN.txt	RUG	12	8	[0, 0, 0]	n/a	FR1	0	R1026D
934.202	0.001	1579454	DISTRACT_START	n/a	n/a	n/a	-999	8	[0, 0, 0]	n/a	FR1	0	R1026D
934.203	0.016	1579456	START	n/a	n/a	n/a	-999	8	[-999, -999, -999]	n/a	FR1	0	R1026D
934.219	8.952	1579481	PROB	8.952	n/a	n/a	-999	8	[1, 5, 4]	10	FR1	0	R1026D
943.171	3.518	1593804	PROB	3.518	n/a	n/a	-999	8	[4, 8, 4]	16	FR1	0	R1026D
946.689	3.633	1599432	PROB	3.633	n/a	n/a	-999	8	[2, 8, 5]	15	FR1	0	R1026D
950.322	2.635	1605245	PROB	2.635	n/a	n/a	-999	8	[5, 5, 3]	13	FR1	0	R1026D
952.957	3.321	1609461	PROB	3.321	n/a	n/a	-999	8	[1, 5, 7]	13	FR1	0	R1026D
956.278	0.011	1614774	STOP	n/a	n/a	n/a	-999	8	[-999, -999, -999]	n/a	FR1	0	R1026D
956.289	1.219	1614792	DISTRACT_END	n/a	n/a	n/a	-999	8	[0, 0, 0]	n/a	FR1	0	R1026D
957.508	2.359	1616742	REC_START	n/a	n/a	n/a	-999	8	[0, 0, 0]	n/a	FR1	0	R1026D
959.867	1.257	1620516	REC_WORD	1.257	n/a	GLASS	-999	8	[0, 0, 0]	n/a	FR1	0	R1026D
961.124	2.569	1622527	REC_WORD	2.569	n/a	MUG	-999	8	[0, 0, 0]	n/a	FR1	0	R1026D
963.693	2.064	1626637	REC_WORD	2.064	n/a	SHOE	-999	8	[0, 0, 0]	n/a	FR1	0	R1026D
965.757	1.378	1629940	REC_WORD	1.378	n/a	SOCK	-999	8	[0, 0, 0]	n/a	FR1	0	R1026D
967.135	2.449	1632144	REC_WORD	2.449	n/a	FLOOR	-999	8	[0, 0, 0]	n/a	FR1	0	R1026D
969.584	17.934	1636062	REC_WORD	17.934	n/a	ROOM	-999	8	[0, 0, 0]	n/a	FR1	0	R1026D
987.518	37.901	1664755	REC_END	n/a	n/a	n/a	-999	8	[0, 0, 0]	n/a	FR1	0	R1026D
1025.419	0.0	1725394	TRIAL	n/a	n/a	n/a	-999	9	[0, 0, 0]	n/a	FR1	0	R1026D
1025.419	10.428	1725394	COUNTDOWN_START	n/a	n/a	n/a	-999	9	[0, 0, 0]	n/a	FR1	0	R1026D
1035.847	0.008	1742078	COUNTDOWN_END	n/a	n/a	n/a	-999	9	[0, 0, 0]	n/a	FR1	0	R1026D
1035.855	2.383	1742091	ORIENT	n/a	n/a	n/a	-999	9	[0, 0, 0]	n/a	FR1	0	R1026D
1038.238	2.485	1745903	WORD	n/a	wordpools/wordpool_EN.txt	CHIN	1	9	[0, 0, 0]	n/a	FR1	0	R1026D
1040.723	2.433	1749879	WORD	n/a	wordpools/wordpool_EN.txt	STRAW	2	9	[0, 0, 0]	n/a	FR1	0	R1026D
1043.156	2.401	1753772	WORD	n/a	wordpools/wordpool_EN.txt	APE	3	9	[0, 0, 0]	n/a	FR1	0	R1026D
1045.557	2.617	1757613	WORD	n/a	wordpools/wordpool_EN.txt	CART	4	9	[0, 0, 0]	n/a	FR1	0	R1026D
1048.174	2.534	1761800	WORD	n/a	wordpools/wordpool_EN.txt	STEAK	5	9	[0, 0, 0]	n/a	FR1	0	R1026D
1050.708	2.616	1765854	WORD	n/a	wordpools/wordpool_EN.txt	VEST	6	9	[0, 0, 0]	n/a	FR1	0	R1026D
1053.324	2.368	1770040	WORD	n/a	wordpools/wordpool_EN.txt	DRESS	7	9	[0, 0, 0]	n/a	FR1	0	R1026D
1055.692	2.533	1773828	WORD	n/a	wordpools/wordpool_EN.txt	BOWL	8	9	[0, 0, 0]	n/a	FR1	0	R1026D
1058.225	2.485	1777881	WORD	n/a	wordpools/wordpool_EN.txt	BENCH	9	9	[0, 0, 0]	n/a	FR1	0	R1026D
1060.71	2.466	1781857	WORD	n/a	wordpools/wordpool_EN.txt	SWORD	10	9	[0, 0, 0]	n/a	FR1	0	R1026D
1063.176	2.468	1785802	WORD	n/a	wordpools/wordpool_EN.txt	GLOVE	11	9	[0, 0, 0]	n/a	FR1	0	R1026D
1065.644	1.616	1789751	WORD	n/a	wordpools/wordpool_EN.txt	GUARD	12	9	[0, 0, 0]	n/a	FR1	0	R1026D
1067.26	0.001	1792336	DISTRACT_START	n/a	n/a	n/a	-999	9	[0, 0, 0]	n/a	FR1	0	R1026D
1067.261	0.015	1792338	START	n/a	n/a	n/a	-999	9	[-999, -999, -999]	n/a	FR1	0	R1026D
1067.276	5.869	1792362	PROB	5.869	n/a	n/a	-999	9	[7, 5, 1]	13	FR1	0	R1026D
1073.145	3.701	1801752	PROB	3.701	n/a	n/a	-999	9	[7, 2, 1]	10	FR1	0	R1026D
1076.846	6.918	1807673	PROB	6.918	n/a	n/a	-999	9	[5, 7, 6]	24	FR1	0	R1026D
1083.764	15.403	1818741	PROB	15.403	n/a	n/a	-999	9	[5, 3, 9]	17	FR1	0	R1026D
1099.167	0.016	1843385	STOP	n/a	n/a	n/a	-999	9	[-999, -999, -999]	n/a	FR1	0	R1026D
1099.183	1.05	1843410	DISTRACT_END	n/a	n/a	n/a	-999	9	[0, 0, 0]	n/a	FR1	0	R1026D
1100.233	30.0	1845090	REC_START	n/a	n/a	n/a	-999	9	[0, 0, 0]	n/a	FR1	0	R1026D
1130.233	0.008	1893088	REC_WORD_VV	0.008	n/a	<>	-999	9	[0, 0, 0]	n/a	FR1	0	R1026D
1130.241	17.117	1893101	REC_END	n/a	n/a	n/a	-999	9	[0, 0, 0]	n/a	FR1	0	R1026D
1147.358	0.0	1920487	TRIAL	n/a	n/a	n/a	-999	10	[0, 0, 0]	n/a	FR1	0	R1026D
1147.358	10.428	1920487	COUNTDOWN_START	n/a	n/a	n/a	-999	10	[0, 0, 0]	n/a	FR1	0	R1026D
1157.786	0.008	1937171	COUNTDOWN_END	n/a	n/a	n/a	-999	10	[0, 0, 0]	n/a	FR1	0	R1026D
1157.794	2.466	1937183	ORIENT	n/a	n/a	n/a	-999	10	[0, 0, 0]	n/a	FR1	0	R1026D
1160.26	2.602	1941129	WORD	n/a	wordpools/wordpool_EN.txt	JUDGE	1	10	[0, 0, 0]	n/a	FR1	0	R1026D
1162.862	2.382	1945292	WORD	n/a	wordpools/wordpool_EN.txt	BOMB	2	10	[0, 0, 0]	n/a	FR1	0	R1026D
1165.244	2.485	1949103	WORD	n/a	wordpools/wordpool_EN.txt	EAR	3	10	[0, 0, 0]	n/a	FR1	0	R1026D
1167.729	2.483	1953079	WORD	n/a	wordpools/wordpool_EN.txt	TRASH	4	10	[0, 0, 0]	n/a	FR1	0	R1026D
1170.212	2.568	1957051	WORD	n/a	wordpools/wordpool_EN.txt	MILK	5	10	[0, 0, 0]	n/a	FR1	0	R1026D
1172.78	2.483	1961160	WORD	n/a	wordpools/wordpool_EN.txt	STAR	6	10	[0, 0, 0]	n/a	FR1	0	R1026D
1175.263	2.451	1965132	WORD	n/a	wordpools/wordpool_EN.txt	DOG	7	10	[0, 0, 0]	n/a	FR1	0	R1026D
1177.714	2.434	1969054	WORD	n/a	wordpools/wordpool_EN.txt	FILM	8	10	[0, 0, 0]	n/a	FR1	0	R1026D
1180.148	2.567	1972948	WORD	n/a	wordpools/wordpool_EN.txt	WAVE	9	10	[0, 0, 0]	n/a	FR1	0	R1026D
1182.715	2.566	1977055	WORD	n/a	wordpools/wordpool_EN.txt	ZOO	10	10	[0, 0, 0]	n/a	FR1	0	R1026D
1185.281	2.552	1981160	WORD	n/a	wordpools/wordpool_EN.txt	POLE	11	10	[0, 0, 0]	n/a	FR1	0	R1026D
1187.833	1.616	1985243	WORD	n/a	wordpools/wordpool_EN.txt	ARK	12	10	[0, 0, 0]	n/a	FR1	0	R1026D
1189.449	0.001	1987829	DISTRACT_START	n/a	n/a	n/a	-999	10	[0, 0, 0]	n/a	FR1	0	R1026D
1189.45	0.016	1987830	START	n/a	n/a	n/a	-999	10	[-999, -999, -999]	n/a	FR1	0	R1026D
1189.466	5.418	1987856	PROB	5.418	n/a	n/a	-999	10	[8, 3, 8]	19	FR1	0	R1026D
1194.884	2.834	1996524	PROB	2.834	n/a	n/a	-999	10	[5, 5, 5]	15	FR1	0	R1026D
1197.718	3.917	2001059	PROB	3.917	n/a	n/a	-999	10	[9, 9, 3]	21	FR1	0	R1026D
1201.635	3.401	2007325	PROB	3.401	n/a	n/a	-999	10	[8, 8, 8]	24	FR1	0	R1026D
1205.036	4.25	2012767	PROB	4.25	n/a	n/a	-999	10	[4, 7, 8]	19	FR1	0	R1026D
1209.286	4.201	2019566	PROB	4.201	n/a	n/a	-999	10	[6, 3, 6]	15	FR1	0	R1026D
1213.487	0.017	2026288	STOP	n/a	n/a	n/a	-999	10	[-999, -999, -999]	n/a	FR1	0	R1026D
1213.504	1.101	2026315	DISTRACT_END	n/a	n/a	n/a	-999	10	[0, 0, 0]	n/a	FR1	0	R1026D
1214.605	3.661	2028076	REC_START	n/a	n/a	n/a	-999	10	[0, 0, 0]	n/a	FR1	0	R1026D
1218.266	2.0	2033934	REC_WORD	2.0	n/a	POLE	-999	10	[0, 0, 0]	n/a	FR1	0	R1026D
1220.266	2.953	2037133	REC_WORD	2.953	n/a	ZOO	-999	10	[0, 0, 0]	n/a	FR1	0	R1026D
1223.219	21.396	2041858	REC_WORD	21.396	n/a	ARK	-999	10	[0, 0, 0]	n/a	FR1	0	R1026D
1244.615	2.879	2076090	REC_END	n/a	n/a	n/a	-999	10	[0, 0, 0]	n/a	FR1	0	R1026D
1247.494	0.0	2080696	TRIAL	n/a	n/a	n/a	-999	11	[0, 0, 0]	n/a	FR1	0	R1026D
1247.494	10.428	2080696	COUNTDOWN_START	n/a	n/a	n/a	-999	11	[0, 0, 0]	n/a	FR1	0	R1026D
1257.922	0.007	2097380	COUNTDOWN_END	n/a	n/a	n/a	-999	11	[0, 0, 0]	n/a	FR1	0	R1026D
1257.929	2.499	2097391	ORIENT	n/a	n/a	n/a	-999	11	[0, 0, 0]	n/a	FR1	0	R1026D
1260.428	2.419	2101389	WORD	n/a	wordpools/wordpool_EN.txt	ROOF	1	11	[0, 0, 0]	n/a	FR1	0	R1026D
1262.847	2.617	2105260	WORD	n/a	wordpools/wordpool_EN.txt	GATE	2	11	[0, 0, 0]	n/a	FR1	0	R1026D
1265.464	2.633	2109447	WORD	n/a	wordpools/wordpool_EN.txt	ROCK	3	11	[0, 0, 0]	n/a	FR1	0	R1026D
1268.097	2.468	2113659	WORD	n/a	wordpools/wordpool_EN.txt	FLAME	4	11	[0, 0, 0]	n/a	FR1	0	R1026D
1270.565	2.4	2117608	WORD	n/a	wordpools/wordpool_EN.txt	CLAY	5	11	[0, 0, 0]	n/a	FR1	0	R1026D
1272.965	2.4	2121448	WORD	n/a	wordpools/wordpool_EN.txt	BOX	6	11	[0, 0, 0]	n/a	FR1	0	R1026D
1275.365	2.501	2125287	WORD	n/a	wordpools/wordpool_EN.txt	HOLE	7	11	[0, 0, 0]	n/a	FR1	0	R1026D
1277.866	2.383	2129289	WORD	n/a	wordpools/wordpool_EN.txt	WHALE	8	11	[0, 0, 0]	n/a	FR1	0	R1026D
1280.249	2.584	2133101	WORD	n/a	wordpools/wordpool_EN.txt	BEAN	9	11	[0, 0, 0]	n/a	FR1	0	R1026D
1282.833	2.533	2137236	WORD	n/a	wordpools/wordpool_EN.txt	THREAD	10	11	[0, 0, 0]	n/a	FR1	0	R1026D
1285.366	2.385	2141288	WORD	n/a	wordpools/wordpool_EN.txt	FOAM	11	11	[0, 0, 0]	n/a	FR1	0	R1026D
1287.751	1.616	2145104	WORD	n/a	wordpools/wordpool_EN.txt	SMOKE	12	11	[0, 0, 0]	n/a	FR1	0	R1026D
1289.367	0.001	2147690	DISTRACT_START	n/a	n/a	n/a	-999	11	[0, 0, 0]	n/a	FR1	0	R1026D
1289.368	0.016	2147691	START	n/a	n/a	n/a	-999	11	[-999, -999, -999]	n/a	FR1	0	R1026D
1289.384	2.785	2147717	PROB	2.785	n/a	n/a	-999	11	[7, 1, 1]	9	FR1	0	R1026D
1292.169	2.533	2152172	PROB	2.533	n/a	n/a	-999	11	[6, 6, 1]	13	FR1	0	R1026D
1294.702	4.801	2156225	PROB	4.801	n/a	n/a	-999	11	[7, 4, 2]	13	FR1	0	R1026D
1299.503	4.584	2163906	PROB	4.584	n/a	n/a	-999	11	[4, 1, 5]	10	FR1	0	R1026D
1304.087	4.434	2171240	PROB	4.434	n/a	n/a	-999	11	[9, 2, 4]	15	FR1	0	R1026D
1308.521	5.046	2178334	PROB	5.046	n/a	n/a	-999	11	[6, 7, 5]	18	FR1	0	R1026D
1313.567	0.006	2186408	STOP	n/a	n/a	n/a	-999	11	[-999, -999, -999]	n/a	FR1	0	R1026D
1313.573	1.134	2186417	DISTRACT_END	n/a	n/a	n/a	-999	11	[0, 0, 0]	n/a	FR1	0	R1026D
1314.707	30.0	2188231	REC_START	n/a	n/a	n/a	-999	11	[0, 0, 0]	n/a	FR1	0	R1026D
1344.707	0.011	2236229	REC_WORD_VV	0.011	n/a	<>	-999	11	[0, 0, 0]	n/a	FR1	0	R1026D
1344.718	3.493	2236247	REC_END	n/a	n/a	n/a	-999	11	[0, 0, 0]	n/a	FR1	0	R1026D
1348.211	0.0	2241835	TRIAL	n/a	n/a	n/a	-999	12	[0, 0, 0]	n/a	FR1	0	R1026D
1348.211	10.428	2241835	COUNTDOWN_START	n/a	n/a	n/a	-999	12	[0, 0, 0]	n/a	FR1	0	R1026D
1358.639	0.008	2258519	COUNTDOWN_END	n/a	n/a	n/a	-999	12	[0, 0, 0]	n/a	FR1	0	R1026D
1358.647	2.501	2258532	ORIENT	n/a	n/a	n/a	-999	12	[0, 0, 0]	n/a	FR1	0	R1026D
1361.148	2.617	2262533	WORD	n/a	wordpools/wordpool_EN.txt	CROW	1	12	[0, 0, 0]	n/a	FR1	0	R1026D
1363.765	2.4	2266720	WORD	n/a	wordpools/wordpool_EN.txt	CLOWN	2	12	[0, 0, 0]	n/a	FR1	0	R1026D
1366.165	2.418	2270560	WORD	n/a	wordpools/wordpool_EN.txt	SCHOOL	3	12	[0, 0, 0]	n/a	FR1	0	R1026D
1368.583	2.433	2274429	WORD	n/a	wordpools/wordpool_EN.txt	PRINCE	4	12	[0, 0, 0]	n/a	FR1	0	R1026D
1371.016	2.467	2278321	WORD	n/a	wordpools/wordpool_EN.txt	JUICE	5	12	[0, 0, 0]	n/a	FR1	0	R1026D
1373.483	2.584	2282268	WORD	n/a	wordpools/wordpool_EN.txt	BOARD	6	12	[0, 0, 0]	n/a	FR1	0	R1026D
1376.067	2.45	2286403	WORD	n/a	wordpools/wordpool_EN.txt	WING	7	12	[0, 0, 0]	n/a	FR1	0	R1026D
1378.517	2.384	2290322	WORD	n/a	wordpools/wordpool_EN.txt	DOLL	8	12	[0, 0, 0]	n/a	FR1	0	R1026D
1380.901	2.45	2294137	WORD	n/a	wordpools/wordpool_EN.txt	BRANCH	9	12	[0, 0, 0]	n/a	FR1	0	R1026D
1383.351	2.418	2298056	WORD	n/a	wordpools/wordpool_EN.txt	HORSE	10	12	[0, 0, 0]	n/a	FR1	0	R1026D
1385.769	2.4	2301925	WORD	n/a	wordpools/wordpool_EN.txt	BEAR	11	12	[0, 0, 0]	n/a	FR1	0	R1026D
1388.169	1.617	2305765	WORD	n/a	wordpools/wordpool_EN.txt	KITE	12	12	[0, 0, 0]	n/a	FR1	0	R1026D
1389.786	0.001	2308352	DISTRACT_START	n/a	n/a	n/a	-999	12	[0, 0, 0]	n/a	FR1	0	R1026D
1389.787	0.016	2308353	START	n/a	n/a	n/a	-999	12	[-999, -999, -999]	n/a	FR1	0	R1026D
1389.803	4.818	2308379	PROB	4.818	n/a	n/a	-999	12	[6, 7, 2]	14	FR1	0	R1026D
1394.621	2.716	2316087	PROB	2.716	n/a	n/a	-999	12	[3, 1, 1]	5	FR1	0	R1026D
1397.337	4.252	2320433	PROB	4.252	n/a	n/a	-999	12	[8, 4, 5]	17	FR1	0	R1026D
1401.589	9.53	2327236	PROB	9.53	n/a	n/a	-999	12	[8, 9, 7]	24	FR1	0	R1026D
1411.119	0.005	2342483	STOP	n/a	n/a	n/a	-999	12	[-999, -999, -999]	n/a	FR1	0	R1026D
1411.124	1.152	2342491	DISTRACT_END	n/a	n/a	n/a	-999	12	[0, 0, 0]	n/a	FR1	0	R1026D
1412.276	4.227	2344334	REC_START	n/a	n/a	n/a	-999	12	[0, 0, 0]	n/a	FR1	0	R1026D
1416.503	25.78	2351097	REC_WORD	25.78	n/a	SCHOOL	-999	12	[0, 0, 0]	n/a	FR1	0	R1026D
1442.283	9.881	2392343	REC_END	n/a	n/a	n/a	-999	12	[0, 0, 0]	n/a	FR1	0	R1026D
1452.164	0.001	2408152	COUNTDOWN_START	n/a	n/a	n/a	-999	13	[0, 0, 0]	n/a	FR1	0	R1026D
1452.165	10.427	2408153	TRIAL	n/a	n/a	n/a	-999	13	[0, 0, 0]	n/a	FR1	0	R1026D
1462.592	0.008	2424836	COUNTDOWN_END	n/a	n/a	n/a	-999	13	[0, 0, 0]	n/a	FR1	0	R1026D
1462.6	2.567	2424848	ORIENT	n/a	n/a	n/a	-999	13	[0, 0, 0]	n/a	FR1	0	R1026D
1465.167	2.384	2428955	WORD	n/a	wordpools/wordpool_EN.txt	BRICK	1	13	[0, 0, 0]	n/a	FR1	0	R1026D
1467.551	2.467	2432770	WORD	n/a	wordpools/wordpool_EN.txt	SEED	2	13	[0, 0, 0]	n/a	FR1	0	R1026D
1470.018	2.45	2436717	WORD	n/a	wordpools/wordpool_EN.txt	CORN	3	13	[0, 0, 0]	n/a	FR1	0	R1026D
1472.468	2.451	2440636	WORD	n/a	wordpools/wordpool_EN.txt	NET	4	13	[0, 0, 0]	n/a	FR1	0	R1026D
1474.919	2.633	2444558	WORD	n/a	wordpools/wordpool_EN.txt	STEM	5	13	[0, 0, 0]	n/a	FR1	0	R1026D
1477.552	2.401	2448770	WORD	n/a	wordpools/wordpool_EN.txt	HEART	6	13	[0, 0, 0]	n/a	FR1	0	R1026D
1479.953	2.449	2452612	WORD	n/a	wordpools/wordpool_EN.txt	TOY	7	13	[0, 0, 0]	n/a	FR1	0	R1026D
1482.402	2.435	2456530	WORD	n/a	wordpools/wordpool_EN.txt	CORD	8	13	[0, 0, 0]	n/a	FR1	0	R1026D
1484.837	2.533	2460426	WORD	n/a	wordpools/wordpool_EN.txt	SHRIMP	9	13	[0, 0, 0]	n/a	FR1	0	R1026D
1487.37	2.535	2464478	WORD	n/a	wordpools/wordpool_EN.txt	WOOD	10	13	[0, 0, 0]	n/a	FR1	0	R1026D
1489.905	2.499	2468534	WORD	n/a	wordpools/wordpool_EN.txt	BALL	11	13	[0, 0, 0]	n/a	FR1	0	R1026D
1492.404	1.618	2472532	WORD	n/a	wordpools/wordpool_EN.txt	ROOT	12	13	[0, 0, 0]	n/a	FR1	0	R1026D
1494.022	0.001	2475121	DISTRACT_START	n/a	n/a	n/a	-999	13	[0, 0, 0]	n/a	FR1	0	R1026D
1494.023	0.016	2475123	START	n/a	n/a	n/a	-999	13	[-999, -999, -999]	n/a	FR1	0	R1026D
1494.039	4.117	2475148	PROB	4.117	n/a	n/a	-999	13	[4, 2, 8]	14	FR1	0	R1026D
1498.156	5.818	2481735	PROB	5.818	n/a	n/a	-999	13	[8, 9, 5]	23	FR1	0	R1026D
1503.974	2.817	2491043	PROB	2.817	n/a	n/a	-999	13	[1, 4, 6]	11	FR1	0	R1026D
1506.791	3.533	2495550	PROB	3.533	n/a	n/a	-999	13	[3, 6, 7]	16	FR1	0	R1026D
1510.324	3.866	2501203	PROB	3.866	n/a	n/a	-999	13	[4, 8, 5]	17	FR1	0	R1026D
1514.19	0.018	2507388	STOP	n/a	n/a	n/a	-999	13	[-999, -999, -999]	n/a	FR1	0	R1026D
1514.208	1.134	2507417	DISTRACT_END	n/a	n/a	n/a	-999	13	[0, 0, 0]	n/a	FR1	0	R1026D
1515.342	4.485	2509231	REC_START	n/a	n/a	n/a	-999	13	[0, 0, 0]	n/a	FR1	0	R1026D
1519.827	11.622	2516407	REC_WORD	11.622	n/a	BOARD	-999	13	[0, 0, 0]	n/a	FR1	0	R1026D
1531.449	1.547	2535001	REC_WORD	1.547	n/a	WOOD	-999	13	[0, 0, 0]	n/a	FR1	0	R1026D
1532.996	12.36	2537476	REC_WORD	12.36	n/a	BALL	-999	13	[0, 0, 0]	n/a	FR1	0	R1026D
1545.356	4.959	2557251	REC_END	n/a	n/a	n/a	-999	13	[0, 0, 0]	n/a	FR1	0	R1026D
1550.315	0.0	2565185	COUNTDOWN_START	n/a	n/a	n/a	-999	14	[0, 0, 0]	n/a	FR1	0	R1026D
1550.315	10.428	2565185	TRIAL	n/a	n/a	n/a	-999	14	[0, 0, 0]	n/a	FR1	0	R1026D
1560.743	0.008	2581869	COUNTDOWN_END	n/a	n/a	n/a	-999	14	[0, 0, 0]	n/a	FR1	0	R1026D
1560.751	2.55	2581882	ORIENT	n/a	n/a	n/a	-999	14	[0, 0, 0]	n/a	FR1	0	R1026D
1563.301	2.518	2585962	WORD	n/a	wordpools/wordpool_EN.txt	LEG	1	14	[0, 0, 0]	n/a	FR1	0	R1026D
1565.819	2.582	2589990	WORD	n/a	wordpools/wordpool_EN.txt	PIG	2	14	[0, 0, 0]	n/a	FR1	0	R1026D
1568.401	2.419	2594121	WORD	n/a	wordpools/wordpool_EN.txt	RAT	3	14	[0, 0, 0]	n/a	FR1	0	R1026D
1570.82	2.432	2597992	WORD	n/a	wordpools/wordpool_EN.txt	CUBE	4	14	[0, 0, 0]	n/a	FR1	0	R1026D
1573.252	2.435	2601883	WORD	n/a	wordpools/wordpool_EN.txt	HILL	5	14	[0, 0, 0]	n/a	FR1	0	R1026D
1575.687	2.55	2605778	WORD	n/a	wordpools/wordpool_EN.txt	LAMB	6	14	[0, 0, 0]	n/a	FR1	0	R1026D
1578.237	2.584	2609858	WORD	n/a	wordpools/wordpool_EN.txt	ROAD	7	14	[0, 0, 0]	n/a	FR1	0	R1026D
1580.821	2.433	2613992	WORD	n/a	wordpools/wordpool_EN.txt	FENCE	8	14	[0, 0, 0]	n/a	FR1	0	R1026D
1583.254	2.402	2617885	WORD	n/a	wordpools/wordpool_EN.txt	COW	9	14	[0, 0, 0]	n/a	FR1	0	R1026D
1585.656	2.532	2621728	WORD	n/a	wordpools/wordpool_EN.txt	PET	10	14	[0, 0, 0]	n/a	FR1	0	R1026D
1588.188	2.469	2625779	WORD	n/a	wordpools/wordpool_EN.txt	CAT	11	14	[0, 0, 0]	n/a	FR1	0	R1026D
1590.657	1.615	2629729	WORD	n/a	wordpools/wordpool_EN.txt	CALF	12	14	[0, 0, 0]	n/a	FR1	0	R1026D
1592.272	0.001	2632313	DISTRACT_START	n/a	n/a	n/a	-999	14	[0, 0, 0]	n/a	FR1	0	R1026D
1592.273	0.016	2632315	START	n/a	n/a	n/a	-999	14	[-999, -999, -999]	n/a	FR1	0	R1026D
1592.289	3.435	2632340	PROB	3.435	n/a	n/a	-999	14	[1, 6, 7]	14	FR1	0	R1026D
1595.724	4.167	2637836	PROB	4.167	n/a	n/a	-999	14	[2, 3, 3]	8	FR1	0	R1026D
1599.891	4.618	2644503	PROB	4.618	n/a	n/a	-999	14	[2, 2, 9]	13	FR1	0	R1026D
1604.509	3.134	2651891	PROB	3.134	n/a	n/a	-999	14	[3, 5, 1]	9	FR1	0	R1026D
1607.643	5.004	2656905	PROB	5.004	n/a	n/a	-999	14	[5, 7, 8]	20	FR1	0	R1026D
1612.647	0.014	2664911	STOP	n/a	n/a	n/a	-999	14	[-999, -999, -999]	n/a	FR1	0	R1026D
1612.661	1.184	2664934	DISTRACT_END	n/a	n/a	n/a	-999	14	[0, 0, 0]	n/a	FR1	0	R1026D
1613.845	5.589	2666828	REC_START	n/a	n/a	n/a	-999	14	[0, 0, 0]	n/a	FR1	0	R1026D
1619.434	1.745	2675770	REC_WORD	1.745	n/a	PET	-999	14	[0, 0, 0]	n/a	FR1	0	R1026D
1621.179	1.831	2678562	REC_WORD	1.831	n/a	CAT	-999	14	[0, 0, 0]	n/a	FR1	0	R1026D
1623.01	2.425	2681491	REC_WORD	2.425	n/a	COW	-999	14	[0, 0, 0]	n/a	FR1	0	R1026D
1625.435	18.42	2685371	REC_WORD	18.42	n/a	CALF	-999	14	[0, 0, 0]	n/a	FR1	0	R1026D
1643.855	5.179	2714842	REC_END	n/a	n/a	n/a	-999	14	[0, 0, 0]	n/a	FR1	0	R1026D
1649.034	0.0	2723128	TRIAL	n/a	n/a	n/a	-999	15	[0, 0, 0]	n/a	FR1	0	R1026D
1649.034	10.428	2723128	COUNTDOWN_START	n/a	n/a	n/a	-999	15	[0, 0, 0]	n/a	FR1	0	R1026D
1659.462	0.007	2739812	COUNTDOWN_END	n/a	n/a	n/a	-999	15	[0, 0, 0]	n/a	FR1	0	R1026D
1659.469	2.484	2739823	ORIENT	n/a	n/a	n/a	-999	15	[0, 0, 0]	n/a	FR1	0	R1026D
1661.953	2.449	2743797	WORD	n/a	wordpools/wordpool_EN.txt	ROSE	1	15	[0, 0, 0]	n/a	FR1	0	R1026D
1664.402	2.368	2747715	WORD	n/a	wordpools/wordpool_EN.txt	FLAG	2	15	[0, 0, 0]	n/a	FR1	0	R1026D
1666.77	2.401	2751504	WORD	n/a	wordpools/wordpool_EN.txt	WHEEL	3	15	[0, 0, 0]	n/a	FR1	0	R1026D
1669.171	2.434	2755345	WORD	n/a	wordpools/wordpool_EN.txt	WORLD	4	15	[0, 0, 0]	n/a	FR1	0	R1026D
1671.605	2.517	2759240	WORD	n/a	wordpools/wordpool_EN.txt	SPOON	5	15	[0, 0, 0]	n/a	FR1	0	R1026D
1674.122	2.517	2763267	WORD	n/a	wordpools/wordpool_EN.txt	CAKE	6	15	[0, 0, 0]	n/a	FR1	0	R1026D
1676.639	2.467	2767294	WORD	n/a	wordpools/wordpool_EN.txt	YARD	7	15	[0, 0, 0]	n/a	FR1	0	R1026D
1679.106	2.417	2771241	WORD	n/a	wordpools/wordpool_EN.txt	DOCK	8	15	[0, 0, 0]	n/a	FR1	0	R1026D
1681.523	2.551	2775108	WORD	n/a	wordpools/wordpool_EN.txt	KEY	9	15	[0, 0, 0]	n/a	FR1	0	R1026D
1684.074	2.45	2779189	WORD	n/a	wordpools/wordpool_EN.txt	TOOL	10	15	[0, 0, 0]	n/a	FR1	0	R1026D
1686.524	2.467	2783109	WORD	n/a	wordpools/wordpool_EN.txt	STRING	11	15	[0, 0, 0]	n/a	FR1	0	R1026D
1688.991	1.617	2787056	WORD	n/a	wordpools/wordpool_EN.txt	HOSE	12	15	[0, 0, 0]	n/a	FR1	0	R1026D
1690.608	0.001	2789643	DISTRACT_START	n/a	n/a	n/a	-999	15	[0, 0, 0]	n/a	FR1	0	R1026D
1690.609	0.016	2789644	START	n/a	n/a	n/a	-999	15	[-999, -999, -999]	n/a	FR1	0	R1026D
1690.625	4.534	2789670	PROB	4.534	n/a	n/a	-999	15	[4, 9, 4]	17	FR1	0	R1026D
1695.159	3.334	2796924	PROB	3.334	n/a	n/a	-999	15	[2, 1, 5]	8	FR1	0	R1026D
1698.493	2.699	2802258	PROB	2.699	n/a	n/a	-999	15	[5, 5, 7]	17	FR1	0	R1026D
1701.192	3.118	2806576	PROB	3.118	n/a	n/a	-999	15	[6, 4, 4]	14	FR1	0	R1026D
1704.31	3.651	2811565	PROB	3.651	n/a	n/a	-999	15	[5, 2, 3]	10	FR1	0	R1026D
1707.961	4.814	2817406	PROB	4.814	n/a	n/a	-999	15	[6, 9, 2]	17	FR1	0	R1026D
1712.775	0.004	2825108	STOP	n/a	n/a	n/a	-999	15	[-999, -999, -999]	n/a	FR1	0	R1026D
1712.779	1.201	2825115	DISTRACT_END	n/a	n/a	n/a	-999	15	[0, 0, 0]	n/a	FR1	0	R1026D
1713.98	2.004	2827036	REC_START	n/a	n/a	n/a	-999	15	[0, 0, 0]	n/a	FR1	0	R1026D
1715.984	3.105	2830242	REC_WORD	3.105	n/a	ROSE	-999	15	[0, 0, 0]	n/a	FR1	0	R1026D
1719.089	3.616	2835210	REC_WORD	3.616	n/a	MUD	-999	15	[0, 0, 0]	n/a	FR1	0	R1026D
1722.705	2.333	2840995	REC_WORD	2.333	n/a	WHEEL	-999	15	[0, 0, 0]	n/a	FR1	0	R1026D
1725.038	2.676	2844728	REC_WORD	2.676	n/a	WORLD	-999	15	[0, 0, 0]	n/a	FR1	0	R1026D
1727.714	16.276	2849009	REC_WORD	16.276	n/a	FLAG	-999	15	[0, 0, 0]	n/a	FR1	0	R1026D
1743.99	10.445	2875050	REC_END	n/a	n/a	n/a	-999	15	[0, 0, 0]	n/a	FR1	0	R1026D
1754.435	0.001	2891761	COUNTDOWN_START	n/a	n/a	n/a	-999	16	[0, 0, 0]	n/a	FR1	0	R1026D
1754.436	10.427	2891762	TRIAL	n/a	n/a	n/a	-999	16	[0, 0, 0]	n/a	FR1	0	R1026D
1764.863	0.009	2908445	COUNTDOWN_END	n/a	n/a	n/a	-999	16	[0, 0, 0]	n/a	FR1	0	R1026D
1764.872	2.466	2908459	ORIENT	n/a	n/a	n/a	-999	16	[0, 0, 0]	n/a	FR1	0	R1026D
1767.338	2.501	2912405	WORD	n/a	wordpools/wordpool_EN.txt	FOOT	1	16	[0, 0, 0]	n/a	FR1	0	R1026D
1769.839	2.5	2916406	WORD	n/a	wordpools/wordpool_EN.txt	MOON	2	16	[0, 0, 0]	n/a	FR1	0	R1026D
1772.339	2.485	2920406	WORD	n/a	wordpools/wordpool_EN.txt	PALM	3	16	[0, 0, 0]	n/a	FR1	0	R1026D
1774.824	2.416	2924382	WORD	n/a	wordpools/wordpool_EN.txt	STORM	4	16	[0, 0, 0]	n/a	FR1	0	R1026D
1777.24	2.501	2928247	WORD	n/a	wordpools/wordpool_EN.txt	FORK	5	16	[0, 0, 0]	n/a	FR1	0	R1026D
1779.741	2.616	2932248	WORD	n/a	wordpools/wordpool_EN.txt	SNAIL	6	16	[0, 0, 0]	n/a	FR1	0	R1026D
1782.357	2.418	2936434	WORD	n/a	wordpools/wordpool_EN.txt	OAR	7	16	[0, 0, 0]	n/a	FR1	0	R1026D
1784.775	2.417	2940302	WORD	n/a	wordpools/wordpool_EN.txt	CLOUD	8	16	[0, 0, 0]	n/a	FR1	0	R1026D
1787.192	2.551	2944169	WORD	n/a	wordpools/wordpool_EN.txt	BOAT	9	16	[0, 0, 0]	n/a	FR1	0	R1026D
1789.743	2.599	2948251	WORD	n/a	wordpools/wordpool_EN.txt	OAK	10	16	[0, 0, 0]	n/a	FR1	0	R1026D
1792.342	2.485	2952409	WORD	n/a	wordpools/wordpool_EN.txt	STOOL	11	16	[0, 0, 0]	n/a	FR1	0	R1026D
1794.827	1.616	2956385	WORD	n/a	wordpools/wordpool_EN.txt	BEACH	12	16	[0, 0, 0]	n/a	FR1	0	R1026D
1796.443	0.001	2958970	DISTRACT_START	n/a	n/a	n/a	-999	16	[0, 0, 0]	n/a	FR1	0	R1026D
1796.444	0.017	2958972	START	n/a	n/a	n/a	-999	16	[-999, -999, -999]	n/a	FR1	0	R1026D
1796.461	3.916	2958999	PROB	3.916	n/a	n/a	-999	16	[8, 2, 4]	14	FR1	0	R1026D
1800.377	4.802	2965264	PROB	4.802	n/a	n/a	-999	16	[7, 5, 4]	16	FR1	0	R1026D
1805.179	3.434	2972947	PROB	3.434	n/a	n/a	-999	16	[3, 5, 2]	10	FR1	0	R1026D
1808.613	3.317	2978441	PROB	3.317	n/a	n/a	-999	16	[2, 7, 1]	10	FR1	0	R1026D
1811.93	2.784	2983748	PROB	2.784	n/a	n/a	-999	16	[7, 7, 1]	15	FR1	0	R1026D
1814.714	8.117	2988202	PROB	8.117	n/a	n/a	-999	16	[4, 8, 9]	21	FR1	0	R1026D
1822.831	0.018	3001189	STOP	n/a	n/a	n/a	-999	16	[-999, -999, -999]	n/a	FR1	0	R1026D
1822.849	1.184	3001218	DISTRACT_END	n/a	n/a	n/a	-999	16	[0, 0, 0]	n/a	FR1	0	R1026D
1824.033	2.21	3003112	REC_START	n/a	n/a	n/a	-999	16	[0, 0, 0]	n/a	FR1	0	R1026D
1826.243	2.069	3006648	REC_WORD	2.069	n/a	MOON	-999	16	[0, 0, 0]	n/a	FR1	0	R1026D
1828.312	4.216	3009958	REC_WORD	4.216	n/a	FOOT	-999	16	[0, 0, 0]	n/a	FR1	0	R1026D
1832.528	21.516	3016703	REC_WORD	21.516	n/a	BEACH	-999	16	[0, 0, 0]	n/a	FR1	0	R1026D
1854.044	5.562	3051127	REC_END	n/a	n/a	n/a	-999	16	[0, 0, 0]	n/a	FR1	0	R1026D
1859.606	0.0	3060026	TRIAL	n/a	n/a	n/a	-999	17	[0, 0, 0]	n/a	FR1	0	R1026D
1859.606	10.428	3060026	COUNTDOWN_START	n/a	n/a	n/a	-999	17	[0, 0, 0]	n/a	FR1	0	R1026D
1870.034	0.007	3076710	COUNTDOWN_END	n/a	n/a	n/a	-999	17	[0, 0, 0]	n/a	FR1	0	R1026D
1870.041	2.534	3076721	ORIENT	n/a	n/a	n/a	-999	17	[0, 0, 0]	n/a	FR1	0	R1026D
1872.575	2.417	3080775	WORD	n/a	wordpools/wordpool_EN.txt	BOY	1	17	[0, 0, 0]	n/a	FR1	0	R1026D
1874.992	2.449	3084642	WORD	n/a	wordpools/wordpool_EN.txt	MOUSE	2	17	[0, 0, 0]	n/a	FR1	0	R1026D
1877.441	2.485	3088561	WORD	n/a	wordpools/wordpool_EN.txt	HOOK	3	17	[0, 0, 0]	n/a	FR1	0	R1026D
1879.926	2.433	3092536	WORD	n/a	wordpools/wordpool_EN.txt	WAND	4	17	[0, 0, 0]	n/a	FR1	0	R1026D
1882.359	2.401	3096429	WORD	n/a	wordpools/wordpool_EN.txt	RAIN	5	17	[0, 0, 0]	n/a	FR1	0	R1026D
1884.76	2.384	3100270	WORD	n/a	wordpools/wordpool_EN.txt	FAN	6	17	[0, 0, 0]	n/a	FR1	0	R1026D
1887.144	2.401	3104085	WORD	n/a	wordpools/wordpool_EN.txt	SKY	7	17	[0, 0, 0]	n/a	FR1	0	R1026D
1889.545	2.483	3107926	WORD	n/a	wordpools/wordpool_EN.txt	NAIL	8	17	[0, 0, 0]	n/a	FR1	0	R1026D
1892.028	2.567	3111899	WORD	n/a	wordpools/wordpool_EN.txt	BAT	9	17	[0, 0, 0]	n/a	FR1	0	R1026D
1894.595	2.451	3116006	WORD	n/a	wordpools/wordpool_EN.txt	GRASS	10	17	[0, 0, 0]	n/a	FR1	0	R1026D
1897.046	2.517	3119927	WORD	n/a	wordpools/wordpool_EN.txt	ANT	11	17	[0, 0, 0]	n/a	FR1	0	R1026D
1899.563	1.617	3123954	WORD	n/a	wordpools/wordpool_EN.txt	CHALK	12	17	[0, 0, 0]	n/a	FR1	0	R1026D
1901.18	0.001	3126541	DISTRACT_START	n/a	n/a	n/a	-999	17	[0, 0, 0]	n/a	FR1	0	R1026D
1901.181	0.015	3126543	START	n/a	n/a	n/a	-999	17	[-999, -999, -999]	n/a	FR1	0	R1026D
1901.196	6.835	3126567	PROB	6.835	n/a	n/a	-999	17	[5, 8, 4]	17	FR1	0	R1026D
1908.031	5.217	3137502	PROB	5.217	n/a	n/a	-999	17	[3, 8, 8]	19	FR1	0	R1026D
1913.248	2.851	3145849	PROB	2.851	n/a	n/a	-999	17	[4, 4, 2]	10	FR1	0	R1026D
1916.099	6.508	3150410	PROB	6.508	n/a	n/a	-999	17	[5, 4, 4]	13	FR1	0	R1026D
1922.607	0.01	3160823	STOP	n/a	n/a	n/a	-999	17	[-999, -999, -999]	n/a	FR1	0	R1026D
1922.617	1.151	3160839	DISTRACT_END	n/a	n/a	n/a	-999	17	[0, 0, 0]	n/a	FR1	0	R1026D
1923.768	2.632	3162680	REC_START	n/a	n/a	n/a	-999	17	[0, 0, 0]	n/a	FR1	0	R1026D
1926.4	1.905	3166891	REC_WORD	1.905	n/a	BOY	-999	17	[0, 0, 0]	n/a	FR1	0	R1026D
1928.305	3.696	3169939	REC_WORD	3.696	n/a	MOUSE	-999	17	[0, 0, 0]	n/a	FR1	0	R1026D
1932.001	2.214	3175852	REC_WORD	2.214	n/a	GRASS	-999	17	[0, 0, 0]	n/a	FR1	0	R1026D
1934.215	3.357	3179394	REC_WORD	3.357	n/a	ANT	-999	17	[0, 0, 0]	n/a	FR1	0	R1026D
1937.572	2.478	3184765	REC_WORD	2.478	n/a	RAIN	-999	17	[0, 0, 0]	n/a	FR1	0	R1026D
1940.05	13.732	3188730	REC_WORD	13.732	n/a	SKY	-999	17	[0, 0, 0]	n/a	FR1	0	R1026D
1953.782	136.482	3210700	REC_END	n/a	n/a	n/a	-999	17	[0, 0, 0]	n/a	FR1	0	R1026D
2090.264	0.0	3429060	TRIAL	n/a	n/a	n/a	-999	18	[0, 0, 0]	n/a	FR1	0	R1026D
2090.264	10.428	3429060	COUNTDOWN_START	n/a	n/a	n/a	-999	18	[0, 0, 0]	n/a	FR1	0	R1026D
2100.692	0.008	3445744	COUNTDOWN_END	n/a	n/a	n/a	-999	18	[0, 0, 0]	n/a	FR1	0	R1026D
2100.7	2.616	3445757	ORIENT	n/a	n/a	n/a	-999	18	[0, 0, 0]	n/a	FR1	0	R1026D
2103.316	2.501	3449942	WORD	n/a	wordpools/wordpool_EN.txt	GEESE	1	18	[0, 0, 0]	n/a	FR1	0	R1026D
2105.817	2.616	3453944	WORD	n/a	wordpools/wordpool_EN.txt	SKUNK	2	18	[0, 0, 0]	n/a	FR1	0	R1026D
2108.433	2.485	3458129	WORD	n/a	wordpools/wordpool_EN.txt	RIB	3	18	[0, 0, 0]	n/a	FR1	0	R1026D
2110.918	2.45	3462105	WORD	n/a	wordpools/wordpool_EN.txt	WORM	4	18	[0, 0, 0]	n/a	FR1	0	R1026D
2113.368	2.435	3466025	WORD	n/a	wordpools/wordpool_EN.txt	LOCK	5	18	[0, 0, 0]	n/a	FR1	0	R1026D
2115.803	2.399	3469921	WORD	n/a	wordpools/wordpool_EN.txt	SPONGE	6	18	[0, 0, 0]	n/a	FR1	0	R1026D
2118.202	2.568	3473759	WORD	n/a	wordpools/wordpool_EN.txt	OWL	7	18	[0, 0, 0]	n/a	FR1	0	R1026D
2120.77	2.533	3477867	WORD	n/a	wordpools/wordpool_EN.txt	HEN	8	18	[0, 0, 0]	n/a	FR1	0	R1026D
2123.303	2.585	3481920	WORD	n/a	wordpools/wordpool_EN.txt	PIN	9	18	[0, 0, 0]	n/a	FR1	0	R1026D
2125.888	2.416	3486056	WORD	n/a	wordpools/wordpool_EN.txt	FOOD	10	18	[0, 0, 0]	n/a	FR1	0	R1026D
2128.304	2.568	3489921	WORD	n/a	wordpools/wordpool_EN.txt	FISH	11	18	[0, 0, 0]	n/a	FR1	0	R1026D
2130.872	1.617	3494030	WORD	n/a	wordpools/wordpool_EN.txt	WEB	12	18	[0, 0, 0]	n/a	FR1	0	R1026D
2132.489	0.001	3496617	DISTRACT_START	n/a	n/a	n/a	-999	18	[0, 0, 0]	n/a	FR1	0	R1026D
2132.49	0.016	3496618	START	n/a	n/a	n/a	-999	18	[-999, -999, -999]	n/a	FR1	0	R1026D
2132.506	5.467	3496644	PROB	5.467	n/a	n/a	-999	18	[1, 7, 5]	13	FR1	0	R1026D
2137.973	5.718	3505391	PROB	5.718	n/a	n/a	-999	18	[9, 5, 7]	21	FR1	0	R1026D
2143.691	4.001	3514539	PROB	4.001	n/a	n/a	-999	18	[2, 2, 9]	13	FR1	0	R1026D
2147.692	3.749	3520940	PROB	3.749	n/a	n/a	-999	18	[6, 3, 1]	10	FR1	0	R1026D
2151.441	5.062	3526939	PROB	5.062	n/a	n/a	-999	18	[3, 5, 4]	12	FR1	0	R1026D
2156.503	0.007	3535037	STOP	n/a	n/a	n/a	-999	18	[-999, -999, -999]	n/a	FR1	0	R1026D
2156.51	1.151	3535048	DISTRACT_END	n/a	n/a	n/a	-999	18	[0, 0, 0]	n/a	FR1	0	R1026D
2157.661	21.284	3536890	REC_START	n/a	n/a	n/a	-999	18	[0, 0, 0]	n/a	FR1	0	R1026D
2178.945	1.473	3570943	REC_WORD	1.473	n/a	SKUNK	-999	18	[0, 0, 0]	n/a	FR1	0	R1026D
2180.418	3.665	3573299	REC_WORD	3.665	n/a	BARN	-999	18	[0, 0, 0]	n/a	FR1	0	R1026D
2184.083	1.907	3579163	REC_WORD	1.907	n/a	GEESE	-999	18	[0, 0, 0]	n/a	FR1	0	R1026D
2185.99	1.683	3582214	REC_WORD	1.683	n/a	RIB	-999	18	[0, 0, 0]	n/a	FR1	0	R1026D
2187.673	5.294	3584907	REC_END	n/a	n/a	n/a	-999	18	[0, 0, 0]	n/a	FR1	0	R1026D
2192.967	0.0	3593377	COUNTDOWN_START	n/a	n/a	n/a	-999	19	[0, 0, 0]	n/a	FR1	0	R1026D
2192.967	10.428	3593377	TRIAL	n/a	n/a	n/a	-999	19	[0, 0, 0]	n/a	FR1	0	R1026D
2203.395	0.006	3610061	COUNTDOWN_END	n/a	n/a	n/a	-999	19	[0, 0, 0]	n/a	FR1	0	R1026D
2203.401	2.601	3610070	ORIENT	n/a	n/a	n/a	-999	19	[0, 0, 0]	n/a	FR1	0	R1026D
2206.002	2.4	3614232	WORD	n/a	wordpools/wordpool_EN.txt	HOUSE	1	19	[0, 0, 0]	n/a	FR1	0	R1026D
2208.402	2.518	3618072	WORD	n/a	wordpools/wordpool_EN.txt	TRUCK	2	19	[0, 0, 0]	n/a	FR1	0	R1026D
2210.92	2.45	3622100	WORD	n/a	wordpools/wordpool_EN.txt	FARM	3	19	[0, 0, 0]	n/a	FR1	0	R1026D
2213.37	2.601	3626020	WORD	n/a	wordpools/wordpool_EN.txt	BLUSH	4	19	[0, 0, 0]	n/a	FR1	0	R1026D
2215.971	2.6	3630181	WORD	n/a	wordpools/wordpool_EN.txt	SMILE	5	19	[0, 0, 0]	n/a	FR1	0	R1026D
2218.571	2.484	3634341	WORD	n/a	wordpools/wordpool_EN.txt	SPRING	6	19	[0, 0, 0]	n/a	FR1	0	R1026D
2221.055	2.534	3638315	WORD	n/a	wordpools/wordpool_EN.txt	VINE	7	19	[0, 0, 0]	n/a	FR1	0	R1026D
2223.589	2.5	3642369	WORD	n/a	wordpools/wordpool_EN.txt	LIP	8	19	[0, 0, 0]	n/a	FR1	0	R1026D
2226.089	2.601	3646369	WORD	n/a	wordpools/wordpool_EN.txt	LAWN	9	19	[0, 0, 0]	n/a	FR1	0	R1026D
2228.69	2.516	3650531	WORD	n/a	wordpools/wordpool_EN.txt	STICK	10	19	[0, 0, 0]	n/a	FR1	0	R1026D
2231.206	2.585	3654556	WORD	n/a	wordpools/wordpool_EN.txt	TREE	11	19	[0, 0, 0]	n/a	FR1	0	R1026D
2233.791	1.616	3658692	WORD	n/a	wordpools/wordpool_EN.txt	TENT	12	19	[0, 0, 0]	n/a	FR1	0	R1026D
2235.407	0.001	3661277	DISTRACT_START	n/a	n/a	n/a	-999	19	[0, 0, 0]	n/a	FR1	0	R1026D
2235.408	0.015	3661279	START	n/a	n/a	n/a	-999	19	[-999, -999, -999]	n/a	FR1	0	R1026D
2235.423	5.069	3661303	PROB	5.069	n/a	n/a	-999	19	[7, 8, 2]	17	FR1	0	R1026D
2240.492	3.367	3669413	PROB	3.367	n/a	n/a	-999	19	[4, 6, 6]	16	FR1	0	R1026D
2243.859	3.768	3674800	PROB	3.768	n/a	n/a	-999	19	[9, 2, 1]	12	FR1	0	R1026D
2247.627	4.284	3680828	PROB	4.284	n/a	n/a	-999	19	[7, 5, 7]	19	FR1	0	R1026D
2251.911	4.455	3687682	PROB	4.455	n/a	n/a	-999	19	[2, 9, 6]	17	FR1	0	R1026D
2256.366	0.011	3694810	STOP	n/a	n/a	n/a	-999	19	[-999, -999, -999]	n/a	FR1	0	R1026D
2256.377	1.202	3694828	DISTRACT_END	n/a	n/a	n/a	-999	19	[0, 0, 0]	n/a	FR1	0	R1026D
2257.579	2.651	3696751	REC_START	n/a	n/a	n/a	-999	19	[0, 0, 0]	n/a	FR1	0	R1026D
2260.23	1.465	3700992	REC_WORD	1.465	n/a	LIP	-999	19	[0, 0, 0]	n/a	FR1	0	R1026D
2261.695	2.259	3703336	REC_WORD	2.259	n/a	LAWN	-999	19	[0, 0, 0]	n/a	FR1	0	R1026D
2263.954	2.415	3706950	REC_WORD	2.415	n/a	TREE	-999	19	[0, 0, 0]	n/a	FR1	0	R1026D
2266.369	2.733	3710814	REC_WORD	2.733	n/a	STICK	-999	19	[0, 0, 0]	n/a	FR1	0	R1026D
2269.102	18.495	3715187	REC_WORD	18.495	n/a	TENT	-999	19	[0, 0, 0]	n/a	FR1	0	R1026D
2287.597	9.472	3744777	REC_END	n/a	n/a	n/a	-999	19	[0, 0, 0]	n/a	FR1	0	R1026D
2297.069	0.0	3759932	TRIAL	n/a	n/a	n/a	-999	20	[0, 0, 0]	n/a	FR1	0	R1026D
2297.069	10.428	3759932	COUNTDOWN_START	n/a	n/a	n/a	-999	20	[0, 0, 0]	n/a	FR1	0	R1026D
2307.497	0.007	3776616	COUNTDOWN_END	n/a	n/a	n/a	-999	20	[0, 0, 0]	n/a	FR1	0	R1026D
2307.504	2.634	3776627	ORIENT	n/a	n/a	n/a	-999	20	[0, 0, 0]	n/a	FR1	0	R1026D
2310.138	2.567	3780841	WORD	n/a	wordpools/wordpool_EN.txt	CLOCK	1	20	[0, 0, 0]	n/a	FR1	0	R1026D
2312.705	2.5	3784948	WORD	n/a	wordpools/wordpool_EN.txt	FORT	2	20	[0, 0, 0]	n/a	FR1	0	R1026D
2315.205	2.601	3788948	WORD	n/a	wordpools/wordpool_EN.txt	PIE	3	20	[0, 0, 0]	n/a	FR1	0	R1026D
2317.806	2.55	3793109	WORD	n/a	wordpools/wordpool_EN.txt	VAN	4	20	[0, 0, 0]	n/a	FR1	0	R1026D
2320.356	2.451	3797189	WORD	n/a	wordpools/wordpool_EN.txt	FLEA	5	20	[0, 0, 0]	n/a	FR1	0	R1026D
2322.807	2.4	3801110	WORD	n/a	wordpools/wordpool_EN.txt	SHIELD	6	20	[0, 0, 0]	n/a	FR1	0	R1026D
2325.207	2.518	3804950	WORD	n/a	wordpools/wordpool_EN.txt	WEED	7	20	[0, 0, 0]	n/a	FR1	0	R1026D
2327.725	2.516	3808979	WORD	n/a	wordpools/wordpool_EN.txt	CAR	8	20	[0, 0, 0]	n/a	FR1	0	R1026D
2330.241	2.551	3813004	WORD	n/a	wordpools/wordpool_EN.txt	CONE	9	20	[0, 0, 0]	n/a	FR1	0	R1026D
2332.792	2.566	3817086	WORD	n/a	wordpools/wordpool_EN.txt	JAIL	10	20	[0, 0, 0]	n/a	FR1	0	R1026D
2335.358	2.369	3821191	WORD	n/a	wordpools/wordpool_EN.txt	PHONE	11	20	[0, 0, 0]	n/a	FR1	0	R1026D
2337.727	1.615	3824981	WORD	n/a	wordpools/wordpool_EN.txt	BAND	12	20	[0, 0, 0]	n/a	FR1	0	R1026D
2339.342	0.001	3827565	DISTRACT_START	n/a	n/a	n/a	-999	20	[0, 0, 0]	n/a	FR1	0	R1026D
2339.343	0.016	3827567	START	n/a	n/a	n/a	-999	20	[-999, -999, -999]	n/a	FR1	0	R1026D
2339.359	10.002	3827592	PROB	10.002	n/a	n/a	-999	20	[5, 2, 6]	13	FR1	0	R1026D
2349.361	4.385	3843595	PROB	4.385	n/a	n/a	-999	20	[5, 2, 6]	13	FR1	0	R1026D
2353.746	5.765	3850610	PROB	5.765	n/a	n/a	-999	20	[9, 9, 3]	21	FR1	0	R1026D
2359.511	0.02	3859834	STOP	n/a	n/a	n/a	-999	20	[-999, -999, -999]	n/a	FR1	0	R1026D
2359.531	1.1	3859866	DISTRACT_END	n/a	n/a	n/a	-999	20	[0, 0, 0]	n/a	FR1	0	R1026D
2360.631	6.07	3861626	REC_START	n/a	n/a	n/a	-999	20	[0, 0, 0]	n/a	FR1	0	R1026D
2366.701	23.947	3871337	REC_WORD	23.947	n/a	BAND	-999	20	[0, 0, 0]	n/a	FR1	0	R1026D
2390.648	16.54	3909650	REC_END	n/a	n/a	n/a	-999	20	[0, 0, 0]	n/a	FR1	0	R1026D
2407.188	0.001	3936113	COUNTDOWN_START	n/a	n/a	n/a	-999	21	[0, 0, 0]	n/a	FR1	0	R1026D
2407.189	10.427	3936115	TRIAL	n/a	n/a	n/a	-999	21	[0, 0, 0]	n/a	FR1	0	R1026D
2417.616	0.009	3952797	COUNTDOWN_END	n/a	n/a	n/a	-999	21	[0, 0, 0]	n/a	FR1	0	R1026D
2417.625	2.582	3952811	ORIENT	n/a	n/a	n/a	-999	21	[0, 0, 0]	n/a	FR1	0	R1026D
2420.207	2.385	3956942	WORD	n/a	wordpools/wordpool_EN.txt	CAPE	1	21	[0, 0, 0]	n/a	FR1	0	R1026D
2422.592	2.501	3960758	WORD	n/a	wordpools/wordpool_EN.txt	BAG	2	21	[0, 0, 0]	n/a	FR1	0	R1026D
2425.093	2.45	3964760	WORD	n/a	wordpools/wordpool_EN.txt	MAT	3	21	[0, 0, 0]	n/a	FR1	0	R1026D
2427.543	2.45	3968679	WORD	n/a	wordpools/wordpool_EN.txt	DOOR	4	21	[0, 0, 0]	n/a	FR1	0	R1026D
2429.993	2.45	3972599	WORD	n/a	wordpools/wordpool_EN.txt	STOVE	5	21	[0, 0, 0]	n/a	FR1	0	R1026D
2432.443	2.568	3976519	WORD	n/a	wordpools/wordpool_EN.txt	PURSE	6	21	[0, 0, 0]	n/a	FR1	0	R1026D
2435.011	2.484	3980628	WORD	n/a	wordpools/wordpool_EN.txt	SHIRT	7	21	[0, 0, 0]	n/a	FR1	0	R1026D
2437.495	2.4	3984602	WORD	n/a	wordpools/wordpool_EN.txt	BOOT	8	21	[0, 0, 0]	n/a	FR1	0	R1026D
2439.895	2.466	3988442	WORD	n/a	wordpools/wordpool_EN.txt	BATH	9	21	[0, 0, 0]	n/a	FR1	0	R1026D
2442.361	2.519	3992387	WORD	n/a	wordpools/wordpool_EN.txt	TEA	10	21	[0, 0, 0]	n/a	FR1	0	R1026D
2444.88	2.499	3996417	WORD	n/a	wordpools/wordpool_EN.txt	PEA	11	21	[0, 0, 0]	n/a	FR1	0	R1026D
2447.379	1.618	4000415	WORD	n/a	wordpools/wordpool_EN.txt	CLOTH	12	21	[0, 0, 0]	n/a	FR1	0	R1026D
2448.997	0.001	4003004	DISTRACT_START	n/a	n/a	n/a	-999	21	[0, 0, 0]	n/a	FR1	0	R1026D
2448.998	0.016	4003006	START	n/a	n/a	n/a	-999	21	[-999, -999, -999]	n/a	FR1	0	R1026D
2449.014	5.2	4003031	PROB	5.2	n/a	n/a	-999	21	[9, 8, 7]	24	FR1	0	R1026D
2454.214	7.001	4011351	PROB	7.001	n/a	n/a	-999	21	[4, 6, 7]	17	FR1	0	R1026D
2461.215	5.084	4022552	PROB	5.084	n/a	n/a	-999	21	[8, 7, 5]	20	FR1	0	R1026D
2466.299	3.556	4030686	PROB	3.556	n/a	n/a	-999	21	[3, 4, 1]	8	FR1	0	R1026D
2469.855	0.012	4036375	STOP	n/a	n/a	n/a	-999	21	[-999, -999, -999]	n/a	FR1	0	R1026D
2469.867	1.135	4036394	DISTRACT_END	n/a	n/a	n/a	-999	21	[0, 0, 0]	n/a	FR1	0	R1026D
2471.002	3.766	4038210	REC_START	n/a	n/a	n/a	-999	21	[0, 0, 0]	n/a	FR1	0	R1026D
2474.768	2.15	4044236	REC_WORD	2.15	n/a	BOOT	-999	21	[0, 0, 0]	n/a	FR1	0	R1026D
2476.918	12.739	4047675	REC_WORD	12.739	n/a	TEA	-999	21	[0, 0, 0]	n/a	FR1	0	R1026D
2489.657	11.357	4068057	REC_WORD	11.357	n/a	PEA	-999	21	[0, 0, 0]	n/a	FR1	0	R1026D
2501.014	3.026	4086227	REC_END	n/a	n/a	n/a	-999	21	[0, 0, 0]	n/a	FR1	0	R1026D
2504.04	0.001	4091069	COUNTDOWN_START	n/a	n/a	n/a	-999	22	[0, 0, 0]	n/a	FR1	0	R1026D
2504.041	10.427	4091070	TRIAL	n/a	n/a	n/a	-999	22	[0, 0, 0]	n/a	FR1	0	R1026D
2514.468	0.008	4107752	COUNTDOWN_END	n/a	n/a	n/a	-999	22	[0, 0, 0]	n/a	FR1	0	R1026D
2514.476	2.567	4107765	ORIENT	n/a	n/a	n/a	-999	22	[0, 0, 0]	n/a	FR1	0	R1026D
2517.043	2.55	4111872	WORD	n/a	wordpools/wordpool_EN.txt	CAVE	1	22	[0, 0, 0]	n/a	FR1	0	R1026D
2519.593	2.616	4115952	WORD	n/a	wordpools/wordpool_EN.txt	STAIR	2	22	[0, 0, 0]	n/a	FR1	0	R1026D
2522.209	2.452	4120137	WORD	n/a	wordpools/wordpool_EN.txt	COUCH	3	22	[0, 0, 0]	n/a	FR1	0	R1026D
2524.661	2.484	4124060	WORD	n/a	wordpools/wordpool_EN.txt	DART	4	22	[0, 0, 0]	n/a	FR1	0	R1026D
2527.145	2.617	4128035	WORD	n/a	wordpools/wordpool_EN.txt	BED	5	22	[0, 0, 0]	n/a	FR1	0	R1026D
2529.762	2.482	4132222	WORD	n/a	wordpools/wordpool_EN.txt	MAZE	6	22	[0, 0, 0]	n/a	FR1	0	R1026D
2532.244	2.535	4136193	WORD	n/a	wordpools/wordpool_EN.txt	SNAKE	7	22	[0, 0, 0]	n/a	FR1	0	R1026D
2534.779	2.616	4140248	WORD	n/a	wordpools/wordpool_EN.txt	CLIFF	8	22	[0, 0, 0]	n/a	FR1	0	R1026D
2537.395	2.552	4144434	WORD	n/a	wordpools/wordpool_EN.txt	TOE	9	22	[0, 0, 0]	n/a	FR1	0	R1026D
2539.947	2.499	4148517	WORD	n/a	wordpools/wordpool_EN.txt	CHAIR	10	22	[0, 0, 0]	n/a	FR1	0	R1026D
2542.446	2.569	4152515	WORD	n/a	wordpools/wordpool_EN.txt	MUD	11	22	[0, 0, 0]	n/a	FR1	0	R1026D
2545.015	1.617	4156625	WORD	n/a	wordpools/wordpool_EN.txt	BROOM	12	22	[0, 0, 0]	n/a	FR1	0	R1026D
2546.632	0.0	4159212	DISTRACT_START	n/a	n/a	n/a	-999	22	[0, 0, 0]	n/a	FR1	0	R1026D
2546.632	0.016	4159212	START	n/a	n/a	n/a	-999	22	[-999, -999, -999]	n/a	FR1	0	R1026D
2546.648	5.385	4159238	PROB	5.385	n/a	n/a	-999	22	[6, 5, 7]	18	FR1	0	R1026D
2552.033	6.501	4167853	PROB	6.501	n/a	n/a	-999	22	[8, 9, 8]	25	FR1	0	R1026D
2558.534	3.367	4178255	PROB	3.367	n/a	n/a	-999	22	[7, 4, 2]	13	FR1	0	R1026D
2561.901	3.967	4183641	PROB	3.967	n/a	n/a	-999	22	[9, 7, 1]	17	FR1	0	R1026D
2565.868	6.211	4189988	PROB	6.211	n/a	n/a	-999	22	[9, 2, 5]	16	FR1	0	R1026D
2572.079	0.007	4199925	STOP	n/a	n/a	n/a	-999	22	[-999, -999, -999]	n/a	FR1	0	R1026D
2572.086	1.117	4199937	DISTRACT_END	n/a	n/a	n/a	-999	22	[0, 0, 0]	n/a	FR1	0	R1026D
2573.203	2.868	4201724	REC_START	n/a	n/a	n/a	-999	22	[0, 0, 0]	n/a	FR1	0	R1026D
2576.071	2.217	4206312	REC_WORD	2.217	n/a	TOE	-999	22	[0, 0, 0]	n/a	FR1	0	R1026D
2578.288	7.675	4209859	REC_WORD	7.675	n/a	MUD	-999	22	[0, 0, 0]	n/a	FR1	0	R1026D
2585.963	17.252	4222139	REC_WORD	17.252	n/a	CAVE	-999	22	[0, 0, 0]	n/a	FR1	0	R1026D
2603.215	3.21	4249741	REC_END	n/a	n/a	n/a	-999	22	[0, 0, 0]	n/a	FR1	0	R1026D
2606.425	0.0	4254876	TRIAL	n/a	n/a	n/a	-999	23	[0, 0, 0]	n/a	FR1	0	R1026D
2606.425	10.428	4254876	COUNTDOWN_START	n/a	n/a	n/a	-999	23	[0, 0, 0]	n/a	FR1	0	R1026D
2616.853	0.008	4271560	COUNTDOWN_END	n/a	n/a	n/a	-999	23	[0, 0, 0]	n/a	FR1	0	R1026D
2616.861	2.433	4271573	ORIENT	n/a	n/a	n/a	-999	23	[0, 0, 0]	n/a	FR1	0	R1026D
2619.294	2.518	4275466	WORD	n/a	wordpools/wordpool_EN.txt	SHEEP	1	23	[0, 0, 0]	n/a	FR1	0	R1026D
2621.812	2.599	4279494	WORD	n/a	wordpools/wordpool_EN.txt	GOAT	2	23	[0, 0, 0]	n/a	FR1	0	R1026D
2624.411	2.452	4283652	WORD	n/a	wordpools/wordpool_EN.txt	MOOSE	3	23	[0, 0, 0]	n/a	FR1	0	R1026D
2626.863	2.449	4287575	WORD	n/a	wordpools/wordpool_EN.txt	MAIL	4	23	[0, 0, 0]	n/a	FR1	0	R1026D
2629.312	2.485	4291494	WORD	n/a	wordpools/wordpool_EN.txt	SKI	5	23	[0, 0, 0]	n/a	FR1	0	R1026D
2631.797	2.583	4295469	WORD	n/a	wordpools/wordpool_EN.txt	BREAD	6	23	[0, 0, 0]	n/a	FR1	0	R1026D
2634.38	2.468	4299602	WORD	n/a	wordpools/wordpool_EN.txt	HAT	7	23	[0, 0, 0]	n/a	FR1	0	R1026D
2636.848	2.55	4303551	WORD	n/a	wordpools/wordpool_EN.txt	BADGE	8	23	[0, 0, 0]	n/a	FR1	0	R1026D
2639.398	2.401	4307630	WORD	n/a	wordpools/wordpool_EN.txt	RICE	9	23	[0, 0, 0]	n/a	FR1	0	R1026D
2641.799	2.466	4311472	WORD	n/a	wordpools/wordpool_EN.txt	SNOW	10	23	[0, 0, 0]	n/a	FR1	0	R1026D
2644.265	2.418	4315417	WORD	n/a	wordpools/wordpool_EN.txt	FOG	11	23	[0, 0, 0]	n/a	FR1	0	R1026D
2646.683	1.616	4319286	WORD	n/a	wordpools/wordpool_EN.txt	STORE	12	23	[0, 0, 0]	n/a	FR1	0	R1026D
2648.299	0.001	4321871	DISTRACT_START	n/a	n/a	n/a	-999	23	[0, 0, 0]	n/a	FR1	0	R1026D
2648.3	0.016	4321873	START	n/a	n/a	n/a	-999	23	[-999, -999, -999]	n/a	FR1	0	R1026D
2648.316	6.635	4321898	PROB	6.635	n/a	n/a	-999	23	[5, 1, 8]	14	FR1	0	R1026D
2654.951	3.651	4332514	PROB	3.651	n/a	n/a	-999	23	[6, 1, 3]	10	FR1	0	R1026D
2658.602	3.534	4338355	PROB	3.534	n/a	n/a	-999	23	[5, 5, 4]	14	FR1	0	R1026D
2662.136	4.116	4344009	PROB	4.116	n/a	n/a	-999	23	[5, 4, 3]	12	FR1	0	R1026D
2666.252	5.915	4350595	PROB	5.915	n/a	n/a	-999	23	[9, 7, 6]	22	FR1	0	R1026D
2672.167	0.004	4360058	STOP	n/a	n/a	n/a	-999	23	[-999, -999, -999]	n/a	FR1	0	R1026D
2672.171	1.184	4360065	DISTRACT_END	n/a	n/a	n/a	-999	23	[0, 0, 0]	n/a	FR1	0	R1026D
2673.355	30.0	4361959	REC_START	n/a	n/a	n/a	-999	23	[0, 0, 0]	n/a	FR1	0	R1026D
2703.355	0.012	4409956	REC_WORD_VV	0.012	n/a	<>	-999	23	[0, 0, 0]	n/a	FR1	0	R1026D
2703.367	3.826	4409976	REC_END	n/a	n/a	n/a	-999	23	[0, 0, 0]	n/a	FR1	0	R1026D
2707.193	0.001	4416097	COUNTDOWN_START	n/a	n/a	n/a	-999	24	[0, 0, 0]	n/a	FR1	0	R1026D
2707.194	10.427	4416099	TRIAL	n/a	n/a	n/a	-999	24	[0, 0, 0]	n/a	FR1	0	R1026D
2717.621	0.009	4432781	COUNTDOWN_END	n/a	n/a	n/a	-999	24	[0, 0, 0]	n/a	FR1	0	R1026D
2717.63	2.5	4432795	ORIENT	n/a	n/a	n/a	-999	24	[0, 0, 0]	n/a	FR1	0	R1026D
2720.13	2.617	4436795	WORD	n/a	wordpools/wordpool_EN.txt	DUCK	1	24	[0, 0, 0]	n/a	FR1	0	R1026D
2722.747	2.583	4440982	WORD	n/a	wordpools/wordpool_EN.txt	CASH	2	24	[0, 0, 0]	n/a	FR1	0	R1026D
2725.33	2.401	4445115	WORD	n/a	wordpools/wordpool_EN.txt	BARN	3	24	[0, 0, 0]	n/a	FR1	0	R1026D
2727.731	2.466	4448956	WORD	n/a	wordpools/wordpool_EN.txt	FROG	4	24	[0, 0, 0]	n/a	FR1	0	R1026D
2730.197	2.569	4452902	WORD	n/a	wordpools/wordpool_EN.txt	POND	5	24	[0, 0, 0]	n/a	FR1	0	R1026D
2732.766	2.582	4457012	WORD	n/a	wordpools/wordpool_EN.txt	ARM	6	24	[0, 0, 0]	n/a	FR1	0	R1026D
2735.348	2.385	4461143	WORD	n/a	wordpools/wordpool_EN.txt	DEER	7	24	[0, 0, 0]	n/a	FR1	0	R1026D
2737.733	2.434	4464958	WORD	n/a	wordpools/wordpool_EN.txt	RAKE	8	24	[0, 0, 0]	n/a	FR1	0	R1026D
2740.167	2.5	4468853	WORD	n/a	wordpools/wordpool_EN.txt	JEEP	9	24	[0, 0, 0]	n/a	FR1	0	R1026D
2742.667	2.567	4472853	WORD	n/a	wordpools/wordpool_EN.txt	PARK	10	24	[0, 0, 0]	n/a	FR1	0	R1026D
2745.234	2.584	4476959	WORD	n/a	wordpools/wordpool_EN.txt	WOLF	11	24	[0, 0, 0]	n/a	FR1	0	R1026D
2747.818	1.616	4481094	WORD	n/a	wordpools/wordpool_EN.txt	ROPE	12	24	[0, 0, 0]	n/a	FR1	0	R1026D
2749.434	0.001	4483679	DISTRACT_START	n/a	n/a	n/a	-999	24	[0, 0, 0]	n/a	FR1	0	R1026D
2749.435	0.016	4483681	START	n/a	n/a	n/a	-999	24	[-999, -999, -999]	n/a	FR1	0	R1026D
2749.451	11.303	4483706	PROB	11.303	n/a	n/a	-999	24	[5, 2, 3]	10	FR1	0	R1026D
2760.754	7.467	4501790	PROB	7.467	n/a	n/a	-999	24	[4, 3, 6]	25	FR1	0	R1026D
2768.221	7.69	4513737	PROB	7.69	n/a	n/a	-999	24	[3, 6, 6]	15	FR1	0	R1026D
2775.911	0.013	4526040	STOP	n/a	n/a	n/a	-999	24	[-999, -999, -999]	n/a	FR1	0	R1026D
2775.924	1.05	4526061	DISTRACT_END	n/a	n/a	n/a	-999	24	[0, 0, 0]	n/a	FR1	0	R1026D
2776.974	2.887	4527741	REC_START	n/a	n/a	n/a	-999	24	[0, 0, 0]	n/a	FR1	0	R1026D
2779.861	1.817	4532360	REC_WORD	1.817	n/a	WOLF	-999	24	[0, 0, 0]	n/a	FR1	0	R1026D
2781.678	9.696	4535267	REC_WORD	9.696	n/a	WOOL	-999	24	[0, 0, 0]	n/a	FR1	0	R1026D
2791.374	6.623	4550780	REC_WORD	6.623	n/a	DUCK	-999	24	[0, 0, 0]	n/a	FR1	0	R1026D
2797.997	5.989	4561376	REC_WORD	5.989	n/a	EAR	-999	24	[0, 0, 0]	n/a	FR1	0	R1026D
2803.986	3.005	4570958	REC_WORD_VV	3.005	n/a	<>	-999	24	[0, 0, 0]	n/a	FR1	0	R1026D
2806.991	7.056	4575766	REC_END	n/a	n/a	n/a	-999	24	[0, 0, 0]	n/a	FR1	0	R1026D
2814.047	0.0	4587055	TRIAL	n/a	n/a	n/a	-999	25	[0, 0, 0]	n/a	FR1	0	R1026D
2814.047	10.428	4587055	COUNTDOWN_START	n/a	n/a	n/a	-999	25	[0, 0, 0]	n/a	FR1	0	R1026D
2824.475	0.007	4603739	COUNTDOWN_END	n/a	n/a	n/a	-999	25	[0, 0, 0]	n/a	FR1	0	R1026D
2824.482	2.601	4603750	ORIENT	n/a	n/a	n/a	-999	25	[0, 0, 0]	n/a	FR1	0	R1026D
2827.083	2.517	4607911	WORD	n/a	wordpools/wordpool_EN.txt	PEARL	1	25	[0, 0, 0]	n/a	FR1	0	R1026D
2829.6	2.567	4611938	WORD	n/a	wordpools/wordpool_EN.txt	STEAM	2	25	[0, 0, 0]	n/a	FR1	0	R1026D
2832.167	2.384	4616045	WORD	n/a	wordpools/wordpool_EN.txt	JET	3	25	[0, 0, 0]	n/a	FR1	0	R1026D
2834.551	2.434	4619860	WORD	n/a	wordpools/wordpool_EN.txt	ICE	4	25	[0, 0, 0]	n/a	FR1	0	R1026D
2836.985	2.5	4623754	WORD	n/a	wordpools/wordpool_EN.txt	SEA	5	25	[0, 0, 0]	n/a	FR1	0	R1026D
2839.485	2.551	4627754	WORD	n/a	wordpools/wordpool_EN.txt	SPARK	6	25	[0, 0, 0]	n/a	FR1	0	R1026D
2842.036	2.533	4631835	WORD	n/a	wordpools/wordpool_EN.txt	SUN	7	25	[0, 0, 0]	n/a	FR1	0	R1026D
2844.569	2.518	4635887	WORD	n/a	wordpools/wordpool_EN.txt	SHARK	8	25	[0, 0, 0]	n/a	FR1	0	R1026D
2847.087	2.483	4639916	WORD	n/a	wordpools/wordpool_EN.txt	PIT	9	25	[0, 0, 0]	n/a	FR1	0	R1026D
2849.57	2.484	4643889	WORD	n/a	wordpools/wordpool_EN.txt	MAP	10	25	[0, 0, 0]	n/a	FR1	0	R1026D
2852.054	2.534	4647863	WORD	n/a	wordpools/wordpool_EN.txt	PLANE	11	25	[0, 0, 0]	n/a	FR1	0	R1026D
2854.588	1.616	4651917	WORD	n/a	wordpools/wordpool_EN.txt	SAIL	12	25	[0, 0, 0]	n/a	FR1	0	R1026D
2856.204	0.001	4654503	DISTRACT_START	n/a	n/a	n/a	-999	25	[0, 0, 0]	n/a	FR1	0	R1026D
2856.205	0.016	4654504	START	n/a	n/a	n/a	-999	25	[-999, -999, -999]	n/a	FR1	0	R1026D
2856.221	6.167	4654530	PROB	6.167	n/a	n/a	-999	25	[1, 6, 8]	15	FR1	0	R1026D
2862.388	3.202	4664396	PROB	3.202	n/a	n/a	-999	25	[2, 2, 6]	10	FR1	0	R1026D
2865.59	5.184	4669519	PROB	5.184	n/a	n/a	-999	25	[7, 2, 9]	18	FR1	0	R1026D
2870.774	4.318	4677813	PROB	4.318	n/a	n/a	-999	25	[9, 6, 3]	18	FR1	0	R1026D
2875.092	5.939	4684722	PROB	5.939	n/a	n/a	-999	25	[4, 1, 8]	13	FR1	0	R1026D
2881.031	0.012	4694224	STOP	n/a	n/a	n/a	-999	25	[-999, -999, -999]	n/a	FR1	0	R1026D
2881.043	1.15	4694243	DISTRACT_END	n/a	n/a	n/a	-999	25	[0, 0, 0]	n/a	FR1	0	R1026D
2882.193	6.265	4696083	REC_START	n/a	n/a	n/a	-999	25	[0, 0, 0]	n/a	FR1	0	R1026D
2888.458	3.249	4706106	REC_WORD	3.249	n/a	MAP	-999	25	[0, 0, 0]	n/a	FR1	0	R1026D
2891.707	2.504	4711305	REC_WORD	2.504	n/a	PLANE	-999	25	[0, 0, 0]	n/a	FR1	0	R1026D
2894.211	17.994	4715311	REC_WORD	17.994	n/a	SAIL	-999	25	[0, 0, 0]	n/a	FR1	0	R1026D
2912.205	141.503	4744100	REC_END	n/a	n/a	n/a	-999	25	[0, 0, 0]	n/a	FR1	0	R1026D
3053.708	0.0	-1	SESS_END	n/a	n/a	n/a	-999	25	[0, 0, 0]	n/a	FR1	0	R1026D
