onset	duration	sample	trial_type	response_time	stim_file	item_name	serialpos	list	test	answer	experiment	session	subject
0.0	30.519	402631	SESS_START	n/a	n/a	n/a	-999	-999	[0, 0, 0]	n/a	FR1	0	R1114C
30.519	10.428	417889	COUNTDOWN_START	n/a	n/a	n/a	-999	-999	[0, 0, 0]	n/a	FR1	0	R1114C
40.947	3.658	423103	COUNTDOWN_END	n/a	n/a	n/a	-999	-999	[0, 0, 0]	n/a	FR1	0	R1114C
44.605	2.449	424932	PRACTICE_WORD	n/a	n/a	COTTON	1	-1	[0, 0, 0]	n/a	FR1	0	R1114C
47.054	2.602	426156	PRACTICE_WORD	n/a	n/a	FLOOD	2	-1	[0, 0, 0]	n/a	FR1	0	R1114C
49.656	2.383	427457	PRACTICE_WORD	n/a	n/a	WATCH	3	-1	[0, 0, 0]	n/a	FR1	0	R1114C
52.039	2.517	428649	PRACTICE_WORD	n/a	n/a	RHINO	4	-1	[0, 0, 0]	n/a	FR1	0	R1114C
54.556	2.383	429907	PRACTICE_WORD	n/a	n/a	BEAM	5	-1	[0, 0, 0]	n/a	FR1	0	R1114C
56.939	2.485	431098	PRACTICE_WORD	n/a	n/a	TONGUE	6	-1	[0, 0, 0]	n/a	FR1	0	R1114C
59.424	2.616	432341	PRACTICE_WORD	n/a	n/a	CHEST	7	-1	[0, 0, 0]	n/a	FR1	0	R1114C
62.04	2.385	433649	PRACTICE_WORD	n/a	n/a	IRON	8	-1	[0, 0, 0]	n/a	FR1	0	R1114C
64.425	2.401	434841	PRACTICE_WORD	n/a	n/a	WAGON	9	-1	[0, 0, 0]	n/a	FR1	0	R1114C
66.826	2.533	436042	PRACTICE_WORD	n/a	n/a	ATTIC	10	-1	[0, 0, 0]	n/a	FR1	0	R1114C
69.359	2.633	437308	PRACTICE_WORD	n/a	n/a	RING	11	-1	[0, 0, 0]	n/a	FR1	0	R1114C
71.992	1.601	438624	PRACTICE_WORD	n/a	n/a	CAMEL	12	-1	[0, 0, 0]	n/a	FR1	0	R1114C
73.593	0.001	439425	PRACTICE_DISTRACT_START	n/a	n/a	n/a	-999	-1	[0, 0, 0]	n/a	FR1	0	R1114C
73.594	0.016	439425	START	n/a	n/a	n/a	-999	-1	[-999, -999, -999]	n/a	FR1	0	R1114C
73.61	6.218	439433	PROB	6.218	n/a	n/a	-999	-1	[4, 3, 3]	10	FR1	0	R1114C
79.828	6.851	442542	PROB	6.851	n/a	n/a	-999	-1	[4, 1, 3]	8	FR1	0	R1114C
86.679	4.4	445967	PROB	4.4	n/a	n/a	-999	-1	[2, 1, 2]	5	FR1	0	R1114C
91.079	5.122	448167	PROB	5.122	n/a	n/a	-999	-1	[2, 5, 9]	16	FR1	0	R1114C
96.201	0.012	450728	STOP	n/a	n/a	n/a	-999	-1	[-999, -999, -999]	n/a	FR1	0	R1114C
96.213	0.571	450734	PRACTICE_DISTRACT_END	n/a	n/a	n/a	-999	-1	[0, 0, 0]	n/a	FR1	0	R1114C
96.784	30.513	451019	PRACTICE_REC_START	n/a	n/a	n/a	-999	-1	[0, 0, 0]	n/a	FR1	0	R1114C
127.297	26.694	466275	PRACTICE_REC_END	n/a	n/a	n/a	-999	-1	[0, 0, 0]	n/a	FR1	0	R1114C
153.991	0.0	479621	TRIAL	n/a	n/a	n/a	-999	1	[0, 0, 0]	n/a	FR1	0	R1114C
153.991	10.428	479621	COUNTDOWN_START	n/a	n/a	n/a	-999	1	[0, 0, 0]	n/a	FR1	0	R1114C
164.419	0.008	484835	COUNTDOWN_END	n/a	n/a	n/a	-999	1	[0, 0, 0]	n/a	FR1	0	R1114C
164.427	2.617	484839	ORIENT	n/a	n/a	n/a	-999	1	[0, 0, 0]	n/a	FR1	0	R1114C
167.044	2.618	486147	WORD	n/a	wordpools/wordpool_EN.txt	STEAM	1	1	[0, 0, 0]	n/a	FR1	0	R1114C
169.662	2.482	487456	WORD	n/a	wordpools/wordpool_EN.txt	SIGN	2	1	[0, 0, 0]	n/a	FR1	0	R1114C
172.144	2.385	488697	WORD	n/a	wordpools/wordpool_EN.txt	WHALE	3	1	[0, 0, 0]	n/a	FR1	0	R1114C
174.529	2.384	489889	WORD	n/a	wordpools/wordpool_EN.txt	SHIELD	4	1	[0, 0, 0]	n/a	FR1	0	R1114C
176.913	2.45	491081	WORD	n/a	wordpools/wordpool_EN.txt	ICE	5	1	[0, 0, 0]	n/a	FR1	0	R1114C
179.363	2.518	492306	WORD	n/a	wordpools/wordpool_EN.txt	CROW	6	1	[0, 0, 0]	n/a	FR1	0	R1114C
181.881	2.416	493565	WORD	n/a	wordpools/wordpool_EN.txt	AXE	7	1	[0, 0, 0]	n/a	FR1	0	R1114C
184.297	2.385	494773	WORD	n/a	wordpools/wordpool_EN.txt	JEEP	8	1	[0, 0, 0]	n/a	FR1	0	R1114C
186.682	2.532	495965	WORD	n/a	wordpools/wordpool_EN.txt	SPRING	9	1	[0, 0, 0]	n/a	FR1	0	R1114C
189.214	2.568	497231	WORD	n/a	wordpools/wordpool_EN.txt	SLEEVE	10	1	[0, 0, 0]	n/a	FR1	0	R1114C
191.782	2.517	498515	WORD	n/a	wordpools/wordpool_EN.txt	GEESE	11	1	[0, 0, 0]	n/a	FR1	0	R1114C
194.299	1.618	499774	WORD	n/a	wordpools/wordpool_EN.txt	GATE	12	1	[0, 0, 0]	n/a	FR1	0	R1114C
195.917	0.0	500583	DISTRACT_START	n/a	n/a	n/a	-999	1	[0, 0, 0]	n/a	FR1	0	R1114C
195.917	0.015	500583	START	n/a	n/a	n/a	-999	1	[-999, -999, -999]	n/a	FR1	0	R1114C
195.932	4.084	500590	PROB	4.084	n/a	n/a	-999	1	[1, 9, 4]	14	FR1	0	R1114C
200.016	3.469	502632	PROB	3.469	n/a	n/a	-999	1	[8, 2, 2]	12	FR1	0	R1114C
203.485	5.284	504366	PROB	5.284	n/a	n/a	-999	1	[3, 5, 6]	15	FR1	0	R1114C
208.769	5.851	507008	PROB	5.851	n/a	n/a	-999	1	[5, 1, 5]	11	FR1	0	R1114C
214.62	3.958	509933	PROB	3.958	n/a	n/a	-999	1	[4, 4, 4]	12	FR1	0	R1114C
218.578	0.009	511912	STOP	n/a	n/a	n/a	-999	1	[-999, -999, -999]	n/a	FR1	0	R1114C
218.587	1.088	511917	DISTRACT_END	n/a	n/a	n/a	-999	1	[0, 0, 0]	n/a	FR1	0	R1114C
219.675	1.74	512461	REC_START	n/a	n/a	n/a	-999	1	[0, 0, 0]	n/a	FR1	0	R1114C
221.415	1.467	513331	REC_WORD	1.467	n/a	STEAM	-999	1	[0, 0, 0]	n/a	FR1	0	R1114C
222.882	1.063	514064	REC_WORD	1.063	n/a	GEESE	-999	1	[0, 0, 0]	n/a	FR1	0	R1114C
223.945	1.567	514596	REC_WORD	1.567	n/a	COTTON	-999	1	[0, 0, 0]	n/a	FR1	0	R1114C
225.512	4.029	515379	REC_WORD	4.029	n/a	WHALE	-999	1	[0, 0, 0]	n/a	FR1	0	R1114C
229.541	5.036	517393	REC_WORD	5.036	n/a	WAGON	-999	1	[0, 0, 0]	n/a	FR1	0	R1114C
234.577	3.441	519911	REC_WORD	3.441	n/a	FLOOD	-999	1	[0, 0, 0]	n/a	FR1	0	R1114C
238.018	2.872	521632	REC_WORD	2.872	n/a	WATCH	-999	1	[0, 0, 0]	n/a	FR1	0	R1114C
240.89	7.861	523068	REC_WORD	7.861	n/a	YIELD	-999	1	[0, 0, 0]	n/a	FR1	0	R1114C
248.751	0.931	526998	REC_WORD_VV	0.931	n/a	<>	-999	1	[0, 0, 0]	n/a	FR1	0	R1114C
249.682	4.361	527463	REC_END	n/a	n/a	n/a	-999	1	[0, 0, 0]	n/a	FR1	0	R1114C
254.043	0.0	529644	TRIAL	n/a	n/a	n/a	-999	2	[0, 0, 0]	n/a	FR1	0	R1114C
254.043	10.428	529644	COUNTDOWN_START	n/a	n/a	n/a	-999	2	[0, 0, 0]	n/a	FR1	0	R1114C
264.471	0.008	534857	COUNTDOWN_END	n/a	n/a	n/a	-999	2	[0, 0, 0]	n/a	FR1	0	R1114C
264.479	2.384	534861	ORIENT	n/a	n/a	n/a	-999	2	[0, 0, 0]	n/a	FR1	0	R1114C
266.863	2.567	536053	WORD	n/a	wordpools/wordpool_EN.txt	FOOT	1	2	[0, 0, 0]	n/a	FR1	0	R1114C
269.43	2.533	537337	WORD	n/a	wordpools/wordpool_EN.txt	HORSE	2	2	[0, 0, 0]	n/a	FR1	0	R1114C
271.963	2.502	538603	WORD	n/a	wordpools/wordpool_EN.txt	CALF	3	2	[0, 0, 0]	n/a	FR1	0	R1114C
274.465	2.599	539854	WORD	n/a	wordpools/wordpool_EN.txt	BAG	4	2	[0, 0, 0]	n/a	FR1	0	R1114C
277.064	2.452	541153	WORD	n/a	wordpools/wordpool_EN.txt	NOSE	5	2	[0, 0, 0]	n/a	FR1	0	R1114C
279.516	2.533	542379	WORD	n/a	wordpools/wordpool_EN.txt	DITCH	6	2	[0, 0, 0]	n/a	FR1	0	R1114C
282.049	2.401	543646	WORD	n/a	wordpools/wordpool_EN.txt	WAND	7	2	[0, 0, 0]	n/a	FR1	0	R1114C
284.45	2.566	544846	WORD	n/a	wordpools/wordpool_EN.txt	SHIRT	8	2	[0, 0, 0]	n/a	FR1	0	R1114C
287.016	2.418	546129	WORD	n/a	wordpools/wordpool_EN.txt	MOUTH	9	2	[0, 0, 0]	n/a	FR1	0	R1114C
289.434	2.384	547338	WORD	n/a	wordpools/wordpool_EN.txt	CHALK	10	2	[0, 0, 0]	n/a	FR1	0	R1114C
291.818	2.499	548530	WORD	n/a	wordpools/wordpool_EN.txt	SINK	11	2	[0, 0, 0]	n/a	FR1	0	R1114C
294.317	1.602	549779	WORD	n/a	wordpools/wordpool_EN.txt	MUD	12	2	[0, 0, 0]	n/a	FR1	0	R1114C
295.919	0.0	550580	DISTRACT_START	n/a	n/a	n/a	-999	2	[0, 0, 0]	n/a	FR1	0	R1114C
295.919	0.015	550580	START	n/a	n/a	n/a	-999	2	[-999, -999, -999]	n/a	FR1	0	R1114C
295.934	6.252	550588	PROB	6.252	n/a	n/a	-999	2	[4, 4, 9]	17	FR1	0	R1114C
302.186	4.984	553713	PROB	4.984	n/a	n/a	-999	2	[3, 9, 6]	18	FR1	0	R1114C
307.17	5.235	556205	PROB	5.235	n/a	n/a	-999	2	[3, 8, 6]	17	FR1	0	R1114C
312.405	4.924	558823	PROB	4.924	n/a	n/a	-999	2	[4, 9, 8]	21	FR1	0	R1114C
317.329	0.009	561284	STOP	n/a	n/a	n/a	-999	2	[-999, -999, -999]	n/a	FR1	0	R1114C
317.338	1.036	561289	DISTRACT_END	n/a	n/a	n/a	-999	2	[0, 0, 0]	n/a	FR1	0	R1114C
318.374	2.97	561807	REC_START	n/a	n/a	n/a	-999	2	[0, 0, 0]	n/a	FR1	0	R1114C
321.344	1.601	563292	REC_WORD	1.601	n/a	HORSE	-999	2	[0, 0, 0]	n/a	FR1	0	R1114C
322.945	14.263	564092	REC_WORD	14.263	n/a	CALF	-999	2	[0, 0, 0]	n/a	FR1	0	R1114C
337.208	4.684	571223	REC_WORD	4.684	n/a	MUD	-999	2	[0, 0, 0]	n/a	FR1	0	R1114C
341.892	2.08	573565	REC_WORD	2.08	n/a	MOUTH	-999	2	[0, 0, 0]	n/a	FR1	0	R1114C
343.972	4.411	574605	REC_WORD	4.411	n/a	CHEST	-999	2	[0, 0, 0]	n/a	FR1	0	R1114C
348.383	6.413	576810	REC_END	n/a	n/a	n/a	-999	2	[0, 0, 0]	n/a	FR1	0	R1114C
354.796	0.001	580017	COUNTDOWN_START	n/a	n/a	n/a	-999	3	[0, 0, 0]	n/a	FR1	0	R1114C
354.797	10.427	580017	TRIAL	n/a	n/a	n/a	-999	3	[0, 0, 0]	n/a	FR1	0	R1114C
365.224	0.007	585230	COUNTDOWN_END	n/a	n/a	n/a	-999	3	[0, 0, 0]	n/a	FR1	0	R1114C
365.231	2.485	585234	ORIENT	n/a	n/a	n/a	-999	3	[0, 0, 0]	n/a	FR1	0	R1114C
367.716	2.465	586476	WORD	n/a	wordpools/wordpool_EN.txt	BALL	1	3	[0, 0, 0]	n/a	FR1	0	R1114C
370.181	2.385	587709	WORD	n/a	wordpools/wordpool_EN.txt	GLOVE	2	3	[0, 0, 0]	n/a	FR1	0	R1114C
372.566	2.383	588901	WORD	n/a	wordpools/wordpool_EN.txt	DRUM	3	3	[0, 0, 0]	n/a	FR1	0	R1114C
374.949	2.518	590093	WORD	n/a	wordpools/wordpool_EN.txt	PALM	4	3	[0, 0, 0]	n/a	FR1	0	R1114C
377.467	2.467	591351	WORD	n/a	wordpools/wordpool_EN.txt	PLATE	5	3	[0, 0, 0]	n/a	FR1	0	R1114C
379.934	2.4	592585	WORD	n/a	wordpools/wordpool_EN.txt	PRINCE	6	3	[0, 0, 0]	n/a	FR1	0	R1114C
382.334	2.501	593785	WORD	n/a	wordpools/wordpool_EN.txt	CHAIR	7	3	[0, 0, 0]	n/a	FR1	0	R1114C
384.835	2.551	595035	WORD	n/a	wordpools/wordpool_EN.txt	NET	8	3	[0, 0, 0]	n/a	FR1	0	R1114C
387.386	2.384	596311	WORD	n/a	wordpools/wordpool_EN.txt	TREE	9	3	[0, 0, 0]	n/a	FR1	0	R1114C
389.77	2.449	597503	WORD	n/a	wordpools/wordpool_EN.txt	VASE	10	3	[0, 0, 0]	n/a	FR1	0	R1114C
392.219	2.502	598727	WORD	n/a	wordpools/wordpool_EN.txt	SHARK	11	3	[0, 0, 0]	n/a	FR1	0	R1114C
394.721	1.616	599978	WORD	n/a	wordpools/wordpool_EN.txt	COIN	12	3	[0, 0, 0]	n/a	FR1	0	R1114C
396.337	0.0	600786	DISTRACT_START	n/a	n/a	n/a	-999	3	[0, 0, 0]	n/a	FR1	0	R1114C
396.337	0.016	600786	START	n/a	n/a	n/a	-999	3	[-999, -999, -999]	n/a	FR1	0	R1114C
396.353	6.818	600794	PROB	6.818	n/a	n/a	-999	3	[3, 8, 5]	16	FR1	0	R1114C
403.171	8.203	604203	PROB	8.203	n/a	n/a	-999	3	[8, 9, 9]	26	FR1	0	R1114C
411.374	7.947	608304	PROB	7.947	n/a	n/a	-999	3	[7, 4, 6]	17	FR1	0	R1114C
419.321	0.003	612277	STOP	n/a	n/a	n/a	-999	3	[-999, -999, -999]	n/a	FR1	0	R1114C
419.324	1.219	612278	DISTRACT_END	n/a	n/a	n/a	-999	3	[0, 0, 0]	n/a	FR1	0	R1114C
420.543	3.321	612888	REC_START	n/a	n/a	n/a	-999	3	[0, 0, 0]	n/a	FR1	0	R1114C
423.864	1.605	614548	REC_WORD	1.605	n/a	BALL	-999	3	[0, 0, 0]	n/a	FR1	0	R1114C
425.469	1.425	615351	REC_WORD	1.425	n/a	GLOVE	-999	3	[0, 0, 0]	n/a	FR1	0	R1114C
426.894	3.161	616063	REC_WORD	3.161	n/a	SHARK	-999	3	[0, 0, 0]	n/a	FR1	0	R1114C
430.055	5.306	617644	REC_WORD	5.306	n/a	VASE	-999	3	[0, 0, 0]	n/a	FR1	0	R1114C
435.361	1.375	620296	REC_WORD	1.375	n/a	PALM	-999	3	[0, 0, 0]	n/a	FR1	0	R1114C
436.736	13.817	620984	REC_WORD	13.817	n/a	PLATE	-999	3	[0, 0, 0]	n/a	FR1	0	R1114C
450.553	2.979	627892	REC_END	n/a	n/a	n/a	-999	3	[0, 0, 0]	n/a	FR1	0	R1114C
453.532	0.0	629381	TRIAL	n/a	n/a	n/a	-999	4	[0, 0, 0]	n/a	FR1	0	R1114C
453.532	10.428	629381	COUNTDOWN_START	n/a	n/a	n/a	-999	4	[0, 0, 0]	n/a	FR1	0	R1114C
463.96	0.006	634595	COUNTDOWN_END	n/a	n/a	n/a	-999	4	[0, 0, 0]	n/a	FR1	0	R1114C
463.966	2.585	634598	ORIENT	n/a	n/a	n/a	-999	4	[0, 0, 0]	n/a	FR1	0	R1114C
466.551	2.583	635890	WORD	n/a	wordpools/wordpool_EN.txt	DUCK	1	4	[0, 0, 0]	n/a	FR1	0	R1114C
469.134	2.468	637182	WORD	n/a	wordpools/wordpool_EN.txt	ZOO	2	4	[0, 0, 0]	n/a	FR1	0	R1114C
471.602	2.583	638416	WORD	n/a	wordpools/wordpool_EN.txt	SOUP	3	4	[0, 0, 0]	n/a	FR1	0	R1114C
474.185	2.534	639707	WORD	n/a	wordpools/wordpool_EN.txt	CLAY	4	4	[0, 0, 0]	n/a	FR1	0	R1114C
476.719	2.466	640974	WORD	n/a	wordpools/wordpool_EN.txt	MOUSE	5	4	[0, 0, 0]	n/a	FR1	0	R1114C
479.185	2.435	642207	WORD	n/a	wordpools/wordpool_EN.txt	SKUNK	6	4	[0, 0, 0]	n/a	FR1	0	R1114C
481.62	2.55	643424	WORD	n/a	wordpools/wordpool_EN.txt	ANT	7	4	[0, 0, 0]	n/a	FR1	0	R1114C
484.17	2.551	644699	WORD	n/a	wordpools/wordpool_EN.txt	MOOSE	8	4	[0, 0, 0]	n/a	FR1	0	R1114C
486.721	2.617	645975	WORD	n/a	wordpools/wordpool_EN.txt	ROCK	9	4	[0, 0, 0]	n/a	FR1	0	R1114C
489.338	2.384	647283	WORD	n/a	wordpools/wordpool_EN.txt	SPONGE	10	4	[0, 0, 0]	n/a	FR1	0	R1114C
491.722	2.583	648475	WORD	n/a	wordpools/wordpool_EN.txt	TENT	11	4	[0, 0, 0]	n/a	FR1	0	R1114C
494.305	1.601	649766	WORD	n/a	wordpools/wordpool_EN.txt	SNAKE	12	4	[0, 0, 0]	n/a	FR1	0	R1114C
495.906	0.001	650567	DISTRACT_START	n/a	n/a	n/a	-999	4	[0, 0, 0]	n/a	FR1	0	R1114C
495.907	0.016	650567	START	n/a	n/a	n/a	-999	4	[-999, -999, -999]	n/a	FR1	0	R1114C
495.923	6.117	650575	PROB	6.117	n/a	n/a	-999	4	[5, 4, 3]	12	FR1	0	R1114C
502.04	4.151	653634	PROB	4.151	n/a	n/a	-999	4	[3, 3, 5]	11	FR1	0	R1114C
506.191	5.685	655709	PROB	5.685	n/a	n/a	-999	4	[6, 6, 9]	21	FR1	0	R1114C
511.876	6.069	658551	PROB	6.069	n/a	n/a	-999	4	[5, 6, 6]	17	FR1	0	R1114C
517.945	0.014	661586	STOP	n/a	n/a	n/a	-999	4	[-999, -999, -999]	n/a	FR1	0	R1114C
517.959	1.068	661593	DISTRACT_END	n/a	n/a	n/a	-999	4	[0, 0, 0]	n/a	FR1	0	R1114C
519.027	2.769	662127	REC_START	n/a	n/a	n/a	-999	4	[0, 0, 0]	n/a	FR1	0	R1114C
521.796	1.962	663511	REC_WORD	1.962	n/a	ROCK	-999	4	[0, 0, 0]	n/a	FR1	0	R1114C
523.758	2.765	664492	REC_WORD	2.765	n/a	TENT	-999	4	[0, 0, 0]	n/a	FR1	0	R1114C
526.523	2.872	665874	REC_WORD	2.872	n/a	DUCK	-999	4	[0, 0, 0]	n/a	FR1	0	R1114C
529.395	2.21	667310	REC_WORD	2.21	n/a	ZOO	-999	4	[0, 0, 0]	n/a	FR1	0	R1114C
531.605	1.403	668415	REC_WORD	1.403	n/a	MOOSE	-999	4	[0, 0, 0]	n/a	FR1	0	R1114C
533.008	16.029	669117	REC_WORD	16.029	n/a	SKUNK	-999	4	[0, 0, 0]	n/a	FR1	0	R1114C
549.037	2.646	677131	REC_END	n/a	n/a	n/a	-999	4	[0, 0, 0]	n/a	FR1	0	R1114C
551.683	0.001	678453	COUNTDOWN_START	n/a	n/a	n/a	-999	5	[0, 0, 0]	n/a	FR1	0	R1114C
551.684	10.427	678454	TRIAL	n/a	n/a	n/a	-999	5	[0, 0, 0]	n/a	FR1	0	R1114C
562.111	0.007	683667	COUNTDOWN_END	n/a	n/a	n/a	-999	5	[0, 0, 0]	n/a	FR1	0	R1114C
562.118	2.385	683671	ORIENT	n/a	n/a	n/a	-999	5	[0, 0, 0]	n/a	FR1	0	R1114C
564.503	2.549	684863	WORD	n/a	wordpools/wordpool_EN.txt	MAIL	1	5	[0, 0, 0]	n/a	FR1	0	R1114C
567.052	2.418	686137	WORD	n/a	wordpools/wordpool_EN.txt	BANK	2	5	[0, 0, 0]	n/a	FR1	0	R1114C
569.47	2.483	687346	WORD	n/a	wordpools/wordpool_EN.txt	STORE	3	5	[0, 0, 0]	n/a	FR1	0	R1114C
571.953	2.4	688588	WORD	n/a	wordpools/wordpool_EN.txt	LAWN	4	5	[0, 0, 0]	n/a	FR1	0	R1114C
574.353	2.601	689788	WORD	n/a	wordpools/wordpool_EN.txt	PHONE	5	5	[0, 0, 0]	n/a	FR1	0	R1114C
576.954	2.568	691088	WORD	n/a	wordpools/wordpool_EN.txt	KEY	6	5	[0, 0, 0]	n/a	FR1	0	R1114C
579.522	2.4	692372	WORD	n/a	wordpools/wordpool_EN.txt	FUDGE	7	5	[0, 0, 0]	n/a	FR1	0	R1114C
581.922	2.584	693572	WORD	n/a	wordpools/wordpool_EN.txt	CASH	8	5	[0, 0, 0]	n/a	FR1	0	R1114C
584.506	2.45	694864	WORD	n/a	wordpools/wordpool_EN.txt	WALL	9	5	[0, 0, 0]	n/a	FR1	0	R1114C
586.956	2.468	696089	WORD	n/a	wordpools/wordpool_EN.txt	MILK	10	5	[0, 0, 0]	n/a	FR1	0	R1114C
589.424	2.4	697323	WORD	n/a	wordpools/wordpool_EN.txt	FOG	11	5	[0, 0, 0]	n/a	FR1	0	R1114C
591.824	1.617	698523	WORD	n/a	wordpools/wordpool_EN.txt	HEART	12	5	[0, 0, 0]	n/a	FR1	0	R1114C
593.441	0.001	699331	DISTRACT_START	n/a	n/a	n/a	-999	5	[0, 0, 0]	n/a	FR1	0	R1114C
593.442	0.016	699332	START	n/a	n/a	n/a	-999	5	[-999, -999, -999]	n/a	FR1	0	R1114C
593.458	8.501	699340	PROB	8.501	n/a	n/a	-999	5	[8, 7, 1]	16	FR1	0	R1114C
601.959	4.435	703590	PROB	4.435	n/a	n/a	-999	5	[9, 8, 2]	19	FR1	0	R1114C
606.394	3.783	705807	PROB	3.783	n/a	n/a	-999	5	[1, 5, 6]	13	FR1	0	R1114C
610.177	10.753	707698	PROB	10.753	n/a	n/a	-999	5	[6, 7, 4]	17	FR1	0	R1114C
620.93	0.015	713075	STOP	n/a	n/a	n/a	-999	5	[-999, -999, -999]	n/a	FR1	0	R1114C
620.945	1.151	713082	DISTRACT_END	n/a	n/a	n/a	-999	5	[0, 0, 0]	n/a	FR1	0	R1114C
622.096	5.975	713658	REC_START	n/a	n/a	n/a	-999	5	[0, 0, 0]	n/a	FR1	0	R1114C
628.071	1.169	716645	REC_WORD	1.169	n/a	NET	-999	5	[0, 0, 0]	n/a	FR1	0	R1114C
629.24	3.018	717229	REC_WORD	3.018	n/a	WALL	-999	5	[0, 0, 0]	n/a	FR1	0	R1114C
632.258	2.931	718738	REC_WORD	2.931	n/a	MILK	-999	5	[0, 0, 0]	n/a	FR1	0	R1114C
635.189	1.278	720204	REC_WORD	1.278	n/a	DANK	-999	5	[0, 0, 0]	n/a	FR1	0	R1114C
636.467	13.821	720843	REC_WORD	13.821	n/a	MAIL	-999	5	[0, 0, 0]	n/a	FR1	0	R1114C
650.288	1.822	727753	REC_WORD	1.822	n/a	WALL	-999	5	[0, 0, 0]	n/a	FR1	0	R1114C
652.11	4.242	728664	REC_END	n/a	n/a	n/a	-999	5	[0, 0, 0]	n/a	FR1	0	R1114C
656.352	0.001	730784	COUNTDOWN_START	n/a	n/a	n/a	-999	6	[0, 0, 0]	n/a	FR1	0	R1114C
656.353	10.427	730785	TRIAL	n/a	n/a	n/a	-999	6	[0, 0, 0]	n/a	FR1	0	R1114C
666.78	0.008	735998	COUNTDOWN_END	n/a	n/a	n/a	-999	6	[0, 0, 0]	n/a	FR1	0	R1114C
666.788	2.467	736002	ORIENT	n/a	n/a	n/a	-999	6	[0, 0, 0]	n/a	FR1	0	R1114C
669.255	2.584	737235	WORD	n/a	wordpools/wordpool_EN.txt	PIPE	1	6	[0, 0, 0]	n/a	FR1	0	R1114C
671.839	2.518	738527	WORD	n/a	wordpools/wordpool_EN.txt	STRING	2	6	[0, 0, 0]	n/a	FR1	0	R1114C
674.357	2.533	739786	WORD	n/a	wordpools/wordpool_EN.txt	ROOM	3	6	[0, 0, 0]	n/a	FR1	0	R1114C
676.89	2.416	741053	WORD	n/a	wordpools/wordpool_EN.txt	DART	4	6	[0, 0, 0]	n/a	FR1	0	R1114C
679.306	2.569	742261	WORD	n/a	wordpools/wordpool_EN.txt	BAND	5	6	[0, 0, 0]	n/a	FR1	0	R1114C
681.875	2.583	743545	WORD	n/a	wordpools/wordpool_EN.txt	CHEEK	6	6	[0, 0, 0]	n/a	FR1	0	R1114C
684.458	2.55	744836	WORD	n/a	wordpools/wordpool_EN.txt	NEST	7	6	[0, 0, 0]	n/a	FR1	0	R1114C
687.008	2.501	746111	WORD	n/a	wordpools/wordpool_EN.txt	HAT	8	6	[0, 0, 0]	n/a	FR1	0	R1114C
689.509	2.633	747362	WORD	n/a	wordpools/wordpool_EN.txt	DOLL	9	6	[0, 0, 0]	n/a	FR1	0	R1114C
692.142	2.552	748678	WORD	n/a	wordpools/wordpool_EN.txt	BIRD	10	6	[0, 0, 0]	n/a	FR1	0	R1114C
694.694	2.399	749954	WORD	n/a	wordpools/wordpool_EN.txt	CRANE	11	6	[0, 0, 0]	n/a	FR1	0	R1114C
697.093	1.618	751154	WORD	n/a	wordpools/wordpool_EN.txt	TAIL	12	6	[0, 0, 0]	n/a	FR1	0	R1114C
698.711	0.001	751962	DISTRACT_START	n/a	n/a	n/a	-999	6	[0, 0, 0]	n/a	FR1	0	R1114C
698.712	0.016	751963	START	n/a	n/a	n/a	-999	6	[-999, -999, -999]	n/a	FR1	0	R1114C
698.728	7.3	751971	PROB	7.3	n/a	n/a	-999	6	[9, 3, 6]	18	FR1	0	R1114C
706.028	4.419	755621	PROB	4.419	n/a	n/a	-999	6	[4, 2, 4]	10	FR1	0	R1114C
710.447	5.55	757830	PROB	5.55	n/a	n/a	-999	6	[5, 8, 4]	17	FR1	0	R1114C
715.997	7.501	760605	PROB	7.501	n/a	n/a	-999	6	[7, 9, 8]	24	FR1	0	R1114C
723.498	0.018	764355	STOP	n/a	n/a	n/a	-999	6	[-999, -999, -999]	n/a	FR1	0	R1114C
723.516	1.084	764364	DISTRACT_END	n/a	n/a	n/a	-999	6	[0, 0, 0]	n/a	FR1	0	R1114C
724.6	4.016	764906	REC_START	n/a	n/a	n/a	-999	6	[0, 0, 0]	n/a	FR1	0	R1114C
728.616	3.016	766914	REC_WORD	3.016	n/a	PIPE	-999	6	[0, 0, 0]	n/a	FR1	0	R1114C
731.632	9.541	768422	REC_WORD	9.541	n/a	DART	-999	6	[0, 0, 0]	n/a	FR1	0	R1114C
741.173	1.453	773192	REC_WORD	1.453	n/a	CHEEK	-999	6	[0, 0, 0]	n/a	FR1	0	R1114C
742.626	10.869	773918	REC_WORD	10.869	n/a	DOLL	-999	6	[0, 0, 0]	n/a	FR1	0	R1114C
753.495	1.115	779353	REC_WORD	1.115	n/a	TAIL	-999	6	[0, 0, 0]	n/a	FR1	0	R1114C
754.61	3.029	779910	REC_END	n/a	n/a	n/a	-999	6	[0, 0, 0]	n/a	FR1	0	R1114C
757.639	0.0	781424	TRIAL	n/a	n/a	n/a	-999	7	[0, 0, 0]	n/a	FR1	0	R1114C
757.639	10.428	781424	COUNTDOWN_START	n/a	n/a	n/a	-999	7	[0, 0, 0]	n/a	FR1	0	R1114C
768.067	0.006	786638	COUNTDOWN_END	n/a	n/a	n/a	-999	7	[0, 0, 0]	n/a	FR1	0	R1114C
768.073	2.418	786641	ORIENT	n/a	n/a	n/a	-999	7	[0, 0, 0]	n/a	FR1	0	R1114C
770.491	2.5	787850	WORD	n/a	wordpools/wordpool_EN.txt	SCHOOL	1	7	[0, 0, 0]	n/a	FR1	0	R1114C
772.991	2.418	789100	WORD	n/a	wordpools/wordpool_EN.txt	PIN	2	7	[0, 0, 0]	n/a	FR1	0	R1114C
775.409	2.45	790309	WORD	n/a	wordpools/wordpool_EN.txt	CLOCK	3	7	[0, 0, 0]	n/a	FR1	0	R1114C
777.859	2.617	791534	WORD	n/a	wordpools/wordpool_EN.txt	FLAG	4	7	[0, 0, 0]	n/a	FR1	0	R1114C
780.476	2.517	792842	WORD	n/a	wordpools/wordpool_EN.txt	THUMB	5	7	[0, 0, 0]	n/a	FR1	0	R1114C
782.993	2.451	794101	WORD	n/a	wordpools/wordpool_EN.txt	BOY	6	7	[0, 0, 0]	n/a	FR1	0	R1114C
785.444	2.5	795326	WORD	n/a	wordpools/wordpool_EN.txt	WORLD	7	7	[0, 0, 0]	n/a	FR1	0	R1114C
787.944	2.518	796576	WORD	n/a	wordpools/wordpool_EN.txt	DESK	8	7	[0, 0, 0]	n/a	FR1	0	R1114C
790.462	2.45	797835	WORD	n/a	wordpools/wordpool_EN.txt	BRIDGE	9	7	[0, 0, 0]	n/a	FR1	0	R1114C
792.912	2.551	799060	WORD	n/a	wordpools/wordpool_EN.txt	THREAD	10	7	[0, 0, 0]	n/a	FR1	0	R1114C
795.463	2.532	800335	WORD	n/a	wordpools/wordpool_EN.txt	INK	11	7	[0, 0, 0]	n/a	FR1	0	R1114C
797.995	1.601	801601	WORD	n/a	wordpools/wordpool_EN.txt	POOL	12	7	[0, 0, 0]	n/a	FR1	0	R1114C
799.596	0.001	802402	DISTRACT_START	n/a	n/a	n/a	-999	7	[0, 0, 0]	n/a	FR1	0	R1114C
799.597	0.016	802402	START	n/a	n/a	n/a	-999	7	[-999, -999, -999]	n/a	FR1	0	R1114C
799.613	4.868	802410	PROB	4.868	n/a	n/a	-999	7	[9, 1, 4]	14	FR1	0	R1114C
804.481	5.401	804844	PROB	5.401	n/a	n/a	-999	7	[4, 9, 4]	17	FR1	0	R1114C
809.882	5.618	807544	PROB	5.618	n/a	n/a	-999	7	[5, 6, 1]	12	FR1	0	R1114C
815.5	6.085	810353	PROB	6.085	n/a	n/a	-999	7	[2, 9, 3]	14	FR1	0	R1114C
821.585	0.016	813395	STOP	n/a	n/a	n/a	-999	7	[-999, -999, -999]	n/a	FR1	0	R1114C
821.601	1.117	813403	DISTRACT_END	n/a	n/a	n/a	-999	7	[0, 0, 0]	n/a	FR1	0	R1114C
822.718	2.229	813962	REC_START	n/a	n/a	n/a	-999	7	[0, 0, 0]	n/a	FR1	0	R1114C
824.947	2.19	815076	REC_WORD	2.19	n/a	SCHOOL	-999	7	[0, 0, 0]	n/a	FR1	0	R1114C
827.137	1.195	816171	REC_WORD	1.195	n/a	PIN	-999	7	[0, 0, 0]	n/a	FR1	0	R1114C
828.332	1.678	816769	REC_WORD	1.678	n/a	THUMB	-999	7	[0, 0, 0]	n/a	FR1	0	R1114C
830.01	2.751	817608	REC_WORD	2.751	n/a	DESK	-999	7	[0, 0, 0]	n/a	FR1	0	R1114C
832.761	1.542	818983	REC_WORD	1.542	n/a	WORLD	-999	7	[0, 0, 0]	n/a	FR1	0	R1114C
834.303	14.357	819754	REC_WORD	14.357	n/a	FLAG	-999	7	[0, 0, 0]	n/a	FR1	0	R1114C
848.66	4.072	826932	REC_WORD	4.072	n/a	THREAD	-999	7	[0, 0, 0]	n/a	FR1	0	R1114C
852.732	2.642	828968	REC_END	n/a	n/a	n/a	-999	7	[0, 0, 0]	n/a	FR1	0	R1114C
855.374	0.0	830289	TRIAL	n/a	n/a	n/a	-999	8	[0, 0, 0]	n/a	FR1	0	R1114C
855.374	10.428	830289	COUNTDOWN_START	n/a	n/a	n/a	-999	8	[0, 0, 0]	n/a	FR1	0	R1114C
865.802	0.007	835502	COUNTDOWN_END	n/a	n/a	n/a	-999	8	[0, 0, 0]	n/a	FR1	0	R1114C
865.809	2.584	835506	ORIENT	n/a	n/a	n/a	-999	8	[0, 0, 0]	n/a	FR1	0	R1114C
868.393	2.583	836798	WORD	n/a	wordpools/wordpool_EN.txt	SOAP	1	8	[0, 0, 0]	n/a	FR1	0	R1114C
870.976	2.635	838089	WORD	n/a	wordpools/wordpool_EN.txt	GRAPE	2	8	[0, 0, 0]	n/a	FR1	0	R1114C
873.611	2.566	839407	WORD	n/a	wordpools/wordpool_EN.txt	FLUTE	3	8	[0, 0, 0]	n/a	FR1	0	R1114C
876.177	2.418	840689	WORD	n/a	wordpools/wordpool_EN.txt	BENCH	4	8	[0, 0, 0]	n/a	FR1	0	R1114C
878.595	2.433	841898	WORD	n/a	wordpools/wordpool_EN.txt	FAN	5	8	[0, 0, 0]	n/a	FR1	0	R1114C
881.028	2.484	843115	WORD	n/a	wordpools/wordpool_EN.txt	JUICE	6	8	[0, 0, 0]	n/a	FR1	0	R1114C
883.512	2.5	844357	WORD	n/a	wordpools/wordpool_EN.txt	FRUIT	7	8	[0, 0, 0]	n/a	FR1	0	R1114C
886.012	2.368	845607	WORD	n/a	wordpools/wordpool_EN.txt	COUCH	8	8	[0, 0, 0]	n/a	FR1	0	R1114C
888.38	2.451	846791	WORD	n/a	wordpools/wordpool_EN.txt	GLASS	9	8	[0, 0, 0]	n/a	FR1	0	R1114C
890.831	2.55	848016	WORD	n/a	wordpools/wordpool_EN.txt	BOWL	10	8	[0, 0, 0]	n/a	FR1	0	R1114C
893.381	2.417	849291	WORD	n/a	wordpools/wordpool_EN.txt	BOOT	11	8	[0, 0, 0]	n/a	FR1	0	R1114C
895.798	1.617	850499	WORD	n/a	wordpools/wordpool_EN.txt	CANE	12	8	[0, 0, 0]	n/a	FR1	0	R1114C
897.415	0.001	851308	DISTRACT_START	n/a	n/a	n/a	-999	8	[0, 0, 0]	n/a	FR1	0	R1114C
897.416	0.016	851308	START	n/a	n/a	n/a	-999	8	[-999, -999, -999]	n/a	FR1	0	R1114C
897.432	6.951	851316	PROB	6.951	n/a	n/a	-999	8	[8, 4, 9]	21	FR1	0	R1114C
904.383	6.501	854791	PROB	6.501	n/a	n/a	-999	8	[8, 4, 9]	21	FR1	0	R1114C
910.884	4.568	858042	PROB	4.568	n/a	n/a	-999	8	[1, 2, 9]	12	FR1	0	R1114C
915.452	3.31	860326	PROB	3.31	n/a	n/a	-999	8	[2, 3, 2]	7	FR1	0	R1114C
918.762	0.007	861980	STOP	n/a	n/a	n/a	-999	8	[-999, -999, -999]	n/a	FR1	0	R1114C
918.769	1.034	861984	DISTRACT_END	n/a	n/a	n/a	-999	8	[0, 0, 0]	n/a	FR1	0	R1114C
919.803	4.452	862501	REC_START	n/a	n/a	n/a	-999	8	[0, 0, 0]	n/a	FR1	0	R1114C
924.255	2.198	864727	REC_WORD	2.198	n/a	FRUIT	-999	8	[0, 0, 0]	n/a	FR1	0	R1114C
926.453	2.781	865826	REC_WORD	2.781	n/a	GLASS	-999	8	[0, 0, 0]	n/a	FR1	0	R1114C
929.234	20.58	867216	REC_WORD	20.58	n/a	BOWL	-999	8	[0, 0, 0]	n/a	FR1	0	R1114C
949.814	3.211	877505	REC_END	n/a	n/a	n/a	-999	8	[0, 0, 0]	n/a	FR1	0	R1114C
953.025	0.0	879111	TRIAL	n/a	n/a	n/a	-999	9	[0, 0, 0]	n/a	FR1	0	R1114C
953.025	10.428	879111	COUNTDOWN_START	n/a	n/a	n/a	-999	9	[0, 0, 0]	n/a	FR1	0	R1114C
963.453	0.008	884324	COUNTDOWN_END	n/a	n/a	n/a	-999	9	[0, 0, 0]	n/a	FR1	0	R1114C
963.461	2.4	884328	ORIENT	n/a	n/a	n/a	-999	9	[0, 0, 0]	n/a	FR1	0	R1114C
965.861	2.634	885528	WORD	n/a	wordpools/wordpool_EN.txt	BRUSH	1	9	[0, 0, 0]	n/a	FR1	0	R1114C
968.495	2.434	886845	WORD	n/a	wordpools/wordpool_EN.txt	FLAME	2	9	[0, 0, 0]	n/a	FR1	0	R1114C
970.929	2.399	888062	WORD	n/a	wordpools/wordpool_EN.txt	STICK	3	9	[0, 0, 0]	n/a	FR1	0	R1114C
973.328	2.368	889262	WORD	n/a	wordpools/wordpool_EN.txt	ROSE	4	9	[0, 0, 0]	n/a	FR1	0	R1114C
975.696	2.483	890446	WORD	n/a	wordpools/wordpool_EN.txt	POND	5	9	[0, 0, 0]	n/a	FR1	0	R1114C
978.179	2.418	891687	WORD	n/a	wordpools/wordpool_EN.txt	PARK	6	9	[0, 0, 0]	n/a	FR1	0	R1114C
980.597	2.433	892896	WORD	n/a	wordpools/wordpool_EN.txt	SLIME	7	9	[0, 0, 0]	n/a	FR1	0	R1114C
983.03	2.435	894112	WORD	n/a	wordpools/wordpool_EN.txt	DEER	8	9	[0, 0, 0]	n/a	FR1	0	R1114C
985.465	2.499	895330	WORD	n/a	wordpools/wordpool_EN.txt	LIP	9	9	[0, 0, 0]	n/a	FR1	0	R1114C
987.964	2.419	896579	WORD	n/a	wordpools/wordpool_EN.txt	MAT	10	9	[0, 0, 0]	n/a	FR1	0	R1114C
990.383	2.45	897789	WORD	n/a	wordpools/wordpool_EN.txt	CLIFF	11	9	[0, 0, 0]	n/a	FR1	0	R1114C
992.833	1.617	899013	WORD	n/a	wordpools/wordpool_EN.txt	JAR	12	9	[0, 0, 0]	n/a	FR1	0	R1114C
994.45	0.001	899822	DISTRACT_START	n/a	n/a	n/a	-999	9	[0, 0, 0]	n/a	FR1	0	R1114C
994.451	0.016	899822	START	n/a	n/a	n/a	-999	9	[-999, -999, -999]	n/a	FR1	0	R1114C
994.467	8.834	899830	PROB	8.834	n/a	n/a	-999	9	[3, 8, 5]	16	FR1	0	R1114C
1003.301	5.651	904247	PROB	5.651	n/a	n/a	-999	9	[8, 3, 4]	15	FR1	0	R1114C
1008.952	6.056	907072	PROB	6.056	n/a	n/a	-999	9	[1, 5, 8]	14	FR1	0	R1114C
1015.008	0.012	910100	STOP	n/a	n/a	n/a	-999	9	[-999, -999, -999]	n/a	FR1	0	R1114C
1015.02	1.217	910106	DISTRACT_END	n/a	n/a	n/a	-999	9	[0, 0, 0]	n/a	FR1	0	R1114C
1016.237	4.7	910715	REC_START	n/a	n/a	n/a	-999	9	[0, 0, 0]	n/a	FR1	0	R1114C
1020.937	1.733	913064	REC_WORD	1.733	n/a	BRUSH	-999	9	[0, 0, 0]	n/a	FR1	0	R1114C
1022.67	1.721	913931	REC_WORD	1.721	n/a	JAR	-999	9	[0, 0, 0]	n/a	FR1	0	R1114C
1024.391	21.856	914791	REC_WORD	21.856	n/a	ROSE	-999	9	[0, 0, 0]	n/a	FR1	0	R1114C
1046.247	3.347	925719	REC_END	n/a	n/a	n/a	-999	9	[0, 0, 0]	n/a	FR1	0	R1114C
1049.594	0.0	927392	COUNTDOWN_START	n/a	n/a	n/a	-999	10	[0, 0, 0]	n/a	FR1	0	R1114C
1049.594	10.428	927392	TRIAL	n/a	n/a	n/a	-999	10	[0, 0, 0]	n/a	FR1	0	R1114C
1060.022	0.006	932606	COUNTDOWN_END	n/a	n/a	n/a	-999	10	[0, 0, 0]	n/a	FR1	0	R1114C
1060.028	2.485	932609	ORIENT	n/a	n/a	n/a	-999	10	[0, 0, 0]	n/a	FR1	0	R1114C
1062.513	2.533	933851	WORD	n/a	wordpools/wordpool_EN.txt	PASTE	1	10	[0, 0, 0]	n/a	FR1	0	R1114C
1065.046	2.568	935117	WORD	n/a	wordpools/wordpool_EN.txt	PEAR	2	10	[0, 0, 0]	n/a	FR1	0	R1114C
1067.614	2.516	936401	WORD	n/a	wordpools/wordpool_EN.txt	LEG	3	10	[0, 0, 0]	n/a	FR1	0	R1114C
1070.13	2.568	937659	WORD	n/a	wordpools/wordpool_EN.txt	APE	4	10	[0, 0, 0]	n/a	FR1	0	R1114C
1072.698	2.433	938943	WORD	n/a	wordpools/wordpool_EN.txt	CONE	5	10	[0, 0, 0]	n/a	FR1	0	R1114C
1075.131	2.435	940160	WORD	n/a	wordpools/wordpool_EN.txt	SEED	6	10	[0, 0, 0]	n/a	FR1	0	R1114C
1077.566	2.466	941377	WORD	n/a	wordpools/wordpool_EN.txt	CLOTH	7	10	[0, 0, 0]	n/a	FR1	0	R1114C
1080.032	2.585	942610	WORD	n/a	wordpools/wordpool_EN.txt	LEAF	8	10	[0, 0, 0]	n/a	FR1	0	R1114C
1082.617	2.466	943902	WORD	n/a	wordpools/wordpool_EN.txt	RAT	9	10	[0, 0, 0]	n/a	FR1	0	R1114C
1085.083	2.551	945135	WORD	n/a	wordpools/wordpool_EN.txt	WING	10	10	[0, 0, 0]	n/a	FR1	0	R1114C
1087.634	2.416	946411	WORD	n/a	wordpools/wordpool_EN.txt	CHIEF	11	10	[0, 0, 0]	n/a	FR1	0	R1114C
1090.05	1.601	947619	WORD	n/a	wordpools/wordpool_EN.txt	PLANT	12	10	[0, 0, 0]	n/a	FR1	0	R1114C
1091.651	0.001	948419	DISTRACT_START	n/a	n/a	n/a	-999	10	[0, 0, 0]	n/a	FR1	0	R1114C
1091.652	0.016	948420	START	n/a	n/a	n/a	-999	10	[-999, -999, -999]	n/a	FR1	0	R1114C
1091.668	4.168	948428	PROB	4.168	n/a	n/a	-999	10	[1, 7, 7]	15	FR1	0	R1114C
1095.836	5.801	950511	PROB	5.801	n/a	n/a	-999	10	[3, 7, 7]	17	FR1	0	R1114C
1101.637	4.984	953412	PROB	4.984	n/a	n/a	-999	10	[9, 9, 5]	23	FR1	0	R1114C
1106.621	7.436	955904	PROB	7.436	n/a	n/a	-999	10	[7, 8, 4]	19	FR1	0	R1114C
1114.057	0.014	959621	STOP	n/a	n/a	n/a	-999	10	[-999, -999, -999]	n/a	FR1	0	R1114C
1114.071	1.085	959628	DISTRACT_END	n/a	n/a	n/a	-999	10	[0, 0, 0]	n/a	FR1	0	R1114C
1115.156	2.579	960171	REC_START	n/a	n/a	n/a	-999	10	[0, 0, 0]	n/a	FR1	0	R1114C
1117.735	1.37	961460	REC_WORD	1.37	n/a	PASTE	-999	10	[0, 0, 0]	n/a	FR1	0	R1114C
1119.105	1.578	962145	REC_WORD	1.578	n/a	PEAR	-999	10	[0, 0, 0]	n/a	FR1	0	R1114C
1120.683	1.922	962934	REC_WORD	1.922	n/a	WING	-999	10	[0, 0, 0]	n/a	FR1	0	R1114C
1122.605	2.986	963895	REC_WORD	2.986	n/a	RAT	-999	10	[0, 0, 0]	n/a	FR1	0	R1114C
1125.591	11.232	965388	REC_WORD	11.232	n/a	LEAF	-999	10	[0, 0, 0]	n/a	FR1	0	R1114C
1136.823	8.343	971004	REC_WORD	8.343	n/a	CLIFF	-999	10	[0, 0, 0]	n/a	FR1	0	R1114C
1145.166	3.145	975175	REC_END	n/a	n/a	n/a	-999	10	[0, 0, 0]	n/a	FR1	0	R1114C
1148.311	0.001	976747	COUNTDOWN_START	n/a	n/a	n/a	-999	11	[0, 0, 0]	n/a	FR1	0	R1114C
1148.312	10.427	976748	TRIAL	n/a	n/a	n/a	-999	11	[0, 0, 0]	n/a	FR1	0	R1114C
1158.739	0.009	981961	COUNTDOWN_END	n/a	n/a	n/a	-999	11	[0, 0, 0]	n/a	FR1	0	R1114C
1158.748	2.416	981965	ORIENT	n/a	n/a	n/a	-999	11	[0, 0, 0]	n/a	FR1	0	R1114C
1161.164	2.384	983173	WORD	n/a	wordpools/wordpool_EN.txt	MUG	1	11	[0, 0, 0]	n/a	FR1	0	R1114C
1163.548	2.4	984365	WORD	n/a	wordpools/wordpool_EN.txt	TRUCK	2	11	[0, 0, 0]	n/a	FR1	0	R1114C
1165.948	2.418	985565	WORD	n/a	wordpools/wordpool_EN.txt	STOOL	3	11	[0, 0, 0]	n/a	FR1	0	R1114C
1168.366	2.434	986774	WORD	n/a	wordpools/wordpool_EN.txt	PURSE	4	11	[0, 0, 0]	n/a	FR1	0	R1114C
1170.8	2.584	987991	WORD	n/a	wordpools/wordpool_EN.txt	SHELL	5	11	[0, 0, 0]	n/a	FR1	0	R1114C
1173.384	2.5	989283	WORD	n/a	wordpools/wordpool_EN.txt	PEARL	6	11	[0, 0, 0]	n/a	FR1	0	R1114C
1175.884	2.45	990533	WORD	n/a	wordpools/wordpool_EN.txt	MAZE	7	11	[0, 0, 0]	n/a	FR1	0	R1114C
1178.334	2.616	991758	WORD	n/a	wordpools/wordpool_EN.txt	FLOOR	8	11	[0, 0, 0]	n/a	FR1	0	R1114C
1180.95	2.502	993066	WORD	n/a	wordpools/wordpool_EN.txt	VAN	9	11	[0, 0, 0]	n/a	FR1	0	R1114C
1183.452	2.483	994316	WORD	n/a	wordpools/wordpool_EN.txt	HOOK	10	11	[0, 0, 0]	n/a	FR1	0	R1114C
1185.935	2.468	995558	WORD	n/a	wordpools/wordpool_EN.txt	PEA	11	11	[0, 0, 0]	n/a	FR1	0	R1114C
1188.403	1.616	996792	WORD	n/a	wordpools/wordpool_EN.txt	CLOWN	12	11	[0, 0, 0]	n/a	FR1	0	R1114C
1190.019	0.001	997600	DISTRACT_START	n/a	n/a	n/a	-999	11	[0, 0, 0]	n/a	FR1	0	R1114C
1190.02	0.016	997600	START	n/a	n/a	n/a	-999	11	[-999, -999, -999]	n/a	FR1	0	R1114C
1190.036	4.652	997608	PROB	4.652	n/a	n/a	-999	11	[6, 3, 7]	16	FR1	0	R1114C
1194.688	4.266	999934	PROB	4.266	n/a	n/a	-999	11	[7, 3, 2]	12	FR1	0	R1114C
1198.954	3.918	1002067	PROB	3.918	n/a	n/a	-999	11	[3, 9, 9]	21	FR1	0	R1114C
1202.872	4.35	1004026	PROB	4.35	n/a	n/a	-999	11	[7, 2, 8]	17	FR1	0	R1114C
1207.222	5.572	1006201	PROB	5.572	n/a	n/a	-999	11	[2, 9, 8]	19	FR1	0	R1114C
1212.794	0.014	1008986	STOP	n/a	n/a	n/a	-999	11	[-999, -999, -999]	n/a	FR1	0	R1114C
1212.808	1.133	1008993	DISTRACT_END	n/a	n/a	n/a	-999	11	[0, 0, 0]	n/a	FR1	0	R1114C
1213.941	1.936	1009560	REC_START	n/a	n/a	n/a	-999	11	[0, 0, 0]	n/a	FR1	0	R1114C
1215.877	2.433	1010528	REC_WORD	2.433	n/a	MUD	-999	11	[0, 0, 0]	n/a	FR1	0	R1114C
1218.31	2.178	1011744	REC_WORD	2.178	n/a	TRUCK	-999	11	[0, 0, 0]	n/a	FR1	0	R1114C
1220.488	4.735	1012833	REC_WORD	4.735	n/a	PEA	-999	11	[0, 0, 0]	n/a	FR1	0	R1114C
1225.223	18.728	1015201	REC_WORD	18.728	n/a	FLOOR	-999	11	[0, 0, 0]	n/a	FR1	0	R1114C
1243.951	3.83	1024564	REC_END	n/a	n/a	n/a	-999	11	[0, 0, 0]	n/a	FR1	0	R1114C
1247.781	0.0	1026479	TRIAL	n/a	n/a	n/a	-999	12	[0, 0, 0]	n/a	FR1	0	R1114C
1247.781	10.428	1026479	COUNTDOWN_START	n/a	n/a	n/a	-999	12	[0, 0, 0]	n/a	FR1	0	R1114C
1258.209	0.006	1031692	COUNTDOWN_END	n/a	n/a	n/a	-999	12	[0, 0, 0]	n/a	FR1	0	R1114C
1258.215	2.418	1031695	ORIENT	n/a	n/a	n/a	-999	12	[0, 0, 0]	n/a	FR1	0	R1114C
1260.633	2.6	1032904	WORD	n/a	wordpools/wordpool_EN.txt	BLOOM	1	12	[0, 0, 0]	n/a	FR1	0	R1114C
1263.233	2.518	1034204	WORD	n/a	wordpools/wordpool_EN.txt	BROOM	2	12	[0, 0, 0]	n/a	FR1	0	R1114C
1265.751	2.416	1035463	WORD	n/a	wordpools/wordpool_EN.txt	BRANCH	3	12	[0, 0, 0]	n/a	FR1	0	R1114C
1268.167	2.485	1036671	WORD	n/a	wordpools/wordpool_EN.txt	ROAD	4	12	[0, 0, 0]	n/a	FR1	0	R1114C
1270.652	2.399	1037913	WORD	n/a	wordpools/wordpool_EN.txt	OAK	5	12	[0, 0, 0]	n/a	FR1	0	R1114C
1273.051	2.402	1039113	WORD	n/a	wordpools/wordpool_EN.txt	GRASS	6	12	[0, 0, 0]	n/a	FR1	0	R1114C
1275.453	2.4	1040314	WORD	n/a	wordpools/wordpool_EN.txt	VINE	7	12	[0, 0, 0]	n/a	FR1	0	R1114C
1277.853	2.383	1041514	WORD	n/a	wordpools/wordpool_EN.txt	STRAW	8	12	[0, 0, 0]	n/a	FR1	0	R1114C
1280.236	2.435	1042705	WORD	n/a	wordpools/wordpool_EN.txt	ROPE	9	12	[0, 0, 0]	n/a	FR1	0	R1114C
1282.671	2.383	1043923	WORD	n/a	wordpools/wordpool_EN.txt	PANTS	10	12	[0, 0, 0]	n/a	FR1	0	R1114C
1285.054	2.468	1045114	WORD	n/a	wordpools/wordpool_EN.txt	PEACH	11	12	[0, 0, 0]	n/a	FR1	0	R1114C
1287.522	1.616	1046348	WORD	n/a	wordpools/wordpool_EN.txt	WEED	12	12	[0, 0, 0]	n/a	FR1	0	R1114C
1289.138	0.001	1047156	DISTRACT_START	n/a	n/a	n/a	-999	12	[0, 0, 0]	n/a	FR1	0	R1114C
1289.139	0.015	1047156	START	n/a	n/a	n/a	-999	12	[-999, -999, -999]	n/a	FR1	0	R1114C
1289.154	8.336	1047164	PROB	8.336	n/a	n/a	-999	12	[6, 8, 9]	23	FR1	0	R1114C
1297.49	4.634	1051332	PROB	4.634	n/a	n/a	-999	12	[2, 6, 2]	10	FR1	0	R1114C
1302.124	6.817	1053648	PROB	6.817	n/a	n/a	-999	12	[2, 8, 3]	13	FR1	0	R1114C
1308.941	4.356	1057057	PROB	4.356	n/a	n/a	-999	12	[6, 6, 2]	14	FR1	0	R1114C
1313.297	0.012	1059235	STOP	n/a	n/a	n/a	-999	12	[-999, -999, -999]	n/a	FR1	0	R1114C
1313.309	1.052	1059241	DISTRACT_END	n/a	n/a	n/a	-999	12	[0, 0, 0]	n/a	FR1	0	R1114C
1314.361	6.713	1059767	REC_START	n/a	n/a	n/a	-999	12	[0, 0, 0]	n/a	FR1	0	R1114C
1321.074	1.759	1063123	REC_WORD	1.759	n/a	BLOOM	-999	12	[0, 0, 0]	n/a	FR1	0	R1114C
1322.833	2.289	1064002	REC_WORD	2.289	n/a	BROOM	-999	12	[0, 0, 0]	n/a	FR1	0	R1114C
1325.122	17.835	1065147	REC_WORD	17.835	n/a	BRANCH	-999	12	[0, 0, 0]	n/a	FR1	0	R1114C
1342.957	1.414	1074064	REC_WORD	1.414	n/a	PANTS	-999	12	[0, 0, 0]	n/a	FR1	0	R1114C
1344.371	4.262	1074770	REC_END	n/a	n/a	n/a	-999	12	[0, 0, 0]	n/a	FR1	0	R1114C
1348.633	0.001	1076901	COUNTDOWN_START	n/a	n/a	n/a	-999	13	[0, 0, 0]	n/a	FR1	0	R1114C
1348.634	10.427	1076902	TRIAL	n/a	n/a	n/a	-999	13	[0, 0, 0]	n/a	FR1	0	R1114C
1359.061	0.007	1082115	COUNTDOWN_END	n/a	n/a	n/a	-999	13	[0, 0, 0]	n/a	FR1	0	R1114C
1359.068	2.551	1082118	ORIENT	n/a	n/a	n/a	-999	13	[0, 0, 0]	n/a	FR1	0	R1114C
1361.619	2.466	1083394	WORD	n/a	wordpools/wordpool_EN.txt	TEA	1	13	[0, 0, 0]	n/a	FR1	0	R1114C
1364.085	2.435	1084627	WORD	n/a	wordpools/wordpool_EN.txt	SHRIMP	2	13	[0, 0, 0]	n/a	FR1	0	R1114C
1366.52	2.416	1085844	WORD	n/a	wordpools/wordpool_EN.txt	LAMP	3	13	[0, 0, 0]	n/a	FR1	0	R1114C
1368.936	2.417	1087052	WORD	n/a	wordpools/wordpool_EN.txt	SUIT	4	13	[0, 0, 0]	n/a	FR1	0	R1114C
1371.353	2.617	1088261	WORD	n/a	wordpools/wordpool_EN.txt	FOOD	5	13	[0, 0, 0]	n/a	FR1	0	R1114C
1373.97	2.518	1089569	WORD	n/a	wordpools/wordpool_EN.txt	TOE	6	13	[0, 0, 0]	n/a	FR1	0	R1114C
1376.488	2.616	1090828	WORD	n/a	wordpools/wordpool_EN.txt	HOOF	7	13	[0, 0, 0]	n/a	FR1	0	R1114C
1379.104	2.485	1092136	WORD	n/a	wordpools/wordpool_EN.txt	ROOT	8	13	[0, 0, 0]	n/a	FR1	0	R1114C
1381.589	2.517	1093378	WORD	n/a	wordpools/wordpool_EN.txt	BEAN	9	13	[0, 0, 0]	n/a	FR1	0	R1114C
1384.106	2.534	1094637	WORD	n/a	wordpools/wordpool_EN.txt	RAKE	10	13	[0, 0, 0]	n/a	FR1	0	R1114C
1386.64	2.417	1095904	WORD	n/a	wordpools/wordpool_EN.txt	SOCK	11	13	[0, 0, 0]	n/a	FR1	0	R1114C
1389.057	1.617	1097112	WORD	n/a	wordpools/wordpool_EN.txt	BATH	12	13	[0, 0, 0]	n/a	FR1	0	R1114C
1390.674	0.001	1097920	DISTRACT_START	n/a	n/a	n/a	-999	13	[0, 0, 0]	n/a	FR1	0	R1114C
1390.675	0.016	1097921	START	n/a	n/a	n/a	-999	13	[-999, -999, -999]	n/a	FR1	0	R1114C
1390.691	6.751	1097929	PROB	6.751	n/a	n/a	-999	13	[5, 3, 2]	10	FR1	0	R1114C
1397.442	3.633	1101304	PROB	3.633	n/a	n/a	-999	13	[7, 3, 7]	17	FR1	0	R1114C
1401.075	3.435	1103121	PROB	3.435	n/a	n/a	-999	13	[3, 6, 4]	13	FR1	0	R1114C
1404.51	6.611	1104838	PROB	6.611	n/a	n/a	-999	13	[3, 7, 8]	18	FR1	0	R1114C
1411.121	0.006	1108143	STOP	n/a	n/a	n/a	-999	13	[-999, -999, -999]	n/a	FR1	0	R1114C
1411.127	1.118	1108146	DISTRACT_END	n/a	n/a	n/a	-999	13	[0, 0, 0]	n/a	FR1	0	R1114C
1412.245	30.0	1108705	REC_START	n/a	n/a	n/a	-999	13	[0, 0, 0]	n/a	FR1	0	R1114C
1442.245	0.01	1123704	REC_WORD_VV	0.01	n/a	<>	-999	13	[0, 0, 0]	n/a	FR1	0	R1114C
1442.255	5.447	1123709	REC_END	n/a	n/a	n/a	-999	13	[0, 0, 0]	n/a	FR1	0	R1114C
1447.702	0.0	1126432	TRIAL	n/a	n/a	n/a	-999	14	[0, 0, 0]	n/a	FR1	0	R1114C
1447.702	10.428	1126432	COUNTDOWN_START	n/a	n/a	n/a	-999	14	[0, 0, 0]	n/a	FR1	0	R1114C
1458.13	0.006	1131646	COUNTDOWN_END	n/a	n/a	n/a	-999	14	[0, 0, 0]	n/a	FR1	0	R1114C
1458.136	2.385	1131649	ORIENT	n/a	n/a	n/a	-999	14	[0, 0, 0]	n/a	FR1	0	R1114C
1460.521	2.583	1132842	WORD	n/a	wordpools/wordpool_EN.txt	SUN	1	14	[0, 0, 0]	n/a	FR1	0	R1114C
1463.104	2.601	1134133	WORD	n/a	wordpools/wordpool_EN.txt	TOAD	2	14	[0, 0, 0]	n/a	FR1	0	R1114C
1465.705	2.6	1135433	WORD	n/a	wordpools/wordpool_EN.txt	SEA	3	14	[0, 0, 0]	n/a	FR1	0	R1114C
1468.305	2.551	1136733	WORD	n/a	wordpools/wordpool_EN.txt	SNOW	4	14	[0, 0, 0]	n/a	FR1	0	R1114C
1470.856	2.416	1138009	WORD	n/a	wordpools/wordpool_EN.txt	WOLF	5	14	[0, 0, 0]	n/a	FR1	0	R1114C
1473.272	2.452	1139217	WORD	n/a	wordpools/wordpool_EN.txt	SHIP	6	14	[0, 0, 0]	n/a	FR1	0	R1114C
1475.724	2.516	1140443	WORD	n/a	wordpools/wordpool_EN.txt	RIB	7	14	[0, 0, 0]	n/a	FR1	0	R1114C
1478.24	2.435	1141700	WORD	n/a	wordpools/wordpool_EN.txt	MOLE	8	14	[0, 0, 0]	n/a	FR1	0	R1114C
1480.675	2.616	1142918	WORD	n/a	wordpools/wordpool_EN.txt	MOTH	9	14	[0, 0, 0]	n/a	FR1	0	R1114C
1483.291	2.451	1144226	WORD	n/a	wordpools/wordpool_EN.txt	TEETH	10	14	[0, 0, 0]	n/a	FR1	0	R1114C
1485.742	2.567	1145451	WORD	n/a	wordpools/wordpool_EN.txt	FOX	11	14	[0, 0, 0]	n/a	FR1	0	R1114C
1488.309	1.617	1146735	WORD	n/a	wordpools/wordpool_EN.txt	BEAR	12	14	[0, 0, 0]	n/a	FR1	0	R1114C
1489.926	0.001	1147543	DISTRACT_START	n/a	n/a	n/a	-999	14	[0, 0, 0]	n/a	FR1	0	R1114C
1489.927	0.015	1147544	START	n/a	n/a	n/a	-999	14	[-999, -999, -999]	n/a	FR1	0	R1114C
1489.942	11.803	1147551	PROB	11.803	n/a	n/a	-999	14	[4, 7, 6]	17	FR1	0	R1114C
1501.745	3.3	1153452	PROB	3.3	n/a	n/a	-999	14	[5, 3, 3]	11	FR1	0	R1114C
1505.045	4.635	1155102	PROB	4.635	n/a	n/a	-999	14	[6, 8, 2]	16	FR1	0	R1114C
1509.68	6.504	1157419	PROB	6.504	n/a	n/a	-999	14	[9, 9, 5]	23	FR1	0	R1114C
1516.184	0.013	1160671	STOP	n/a	n/a	n/a	-999	14	[-999, -999, -999]	n/a	FR1	0	R1114C
1516.197	1.068	1160678	DISTRACT_END	n/a	n/a	n/a	-999	14	[0, 0, 0]	n/a	FR1	0	R1114C
1517.265	2.442	1161212	REC_START	n/a	n/a	n/a	-999	14	[0, 0, 0]	n/a	FR1	0	R1114C
1519.707	1.798	1162433	REC_WORD	1.798	n/a	SUN	-999	14	[0, 0, 0]	n/a	FR1	0	R1114C
1521.505	2.343	1163331	REC_WORD	2.343	n/a	TOAD	-999	14	[0, 0, 0]	n/a	FR1	0	R1114C
1523.848	1.803	1164503	REC_WORD	1.803	n/a	FOX	-999	14	[0, 0, 0]	n/a	FR1	0	R1114C
1525.651	2.388	1165404	REC_WORD	2.388	n/a	BEAR	-999	14	[0, 0, 0]	n/a	FR1	0	R1114C
1528.039	9.423	1166598	REC_WORD	9.423	n/a	MOTH	-999	14	[0, 0, 0]	n/a	FR1	0	R1114C
1537.462	9.814	1171309	REC_WORD	9.814	n/a	TEETH	-999	14	[0, 0, 0]	n/a	FR1	0	R1114C
1547.276	3.061	1176216	REC_END	n/a	n/a	n/a	-999	14	[0, 0, 0]	n/a	FR1	0	R1114C
1550.337	0.0	1177746	TRIAL	n/a	n/a	n/a	-999	15	[0, 0, 0]	n/a	FR1	0	R1114C
1550.337	10.428	1177746	COUNTDOWN_START	n/a	n/a	n/a	-999	15	[0, 0, 0]	n/a	FR1	0	R1114C
1560.765	0.008	1182960	COUNTDOWN_END	n/a	n/a	n/a	-999	15	[0, 0, 0]	n/a	FR1	0	R1114C
1560.773	2.416	1182964	ORIENT	n/a	n/a	n/a	-999	15	[0, 0, 0]	n/a	FR1	0	R1114C
1563.189	2.485	1184172	WORD	n/a	wordpools/wordpool_EN.txt	TRAY	1	15	[0, 0, 0]	n/a	FR1	0	R1114C
1565.674	2.483	1185414	WORD	n/a	wordpools/wordpool_EN.txt	SPOON	2	15	[0, 0, 0]	n/a	FR1	0	R1114C
1568.157	2.501	1186656	WORD	n/a	wordpools/wordpool_EN.txt	TIE	3	15	[0, 0, 0]	n/a	FR1	0	R1114C
1570.658	2.4	1187906	WORD	n/a	wordpools/wordpool_EN.txt	FROG	4	15	[0, 0, 0]	n/a	FR1	0	R1114C
1573.058	2.418	1189106	WORD	n/a	wordpools/wordpool_EN.txt	SMILE	5	15	[0, 0, 0]	n/a	FR1	0	R1114C
1575.476	2.549	1190315	WORD	n/a	wordpools/wordpool_EN.txt	FORK	6	15	[0, 0, 0]	n/a	FR1	0	R1114C
1578.025	2.568	1191590	WORD	n/a	wordpools/wordpool_EN.txt	VEST	7	15	[0, 0, 0]	n/a	FR1	0	R1114C
1580.593	2.467	1192873	WORD	n/a	wordpools/wordpool_EN.txt	ARM	8	15	[0, 0, 0]	n/a	FR1	0	R1114C
1583.06	2.568	1194107	WORD	n/a	wordpools/wordpool_EN.txt	BREAD	9	15	[0, 0, 0]	n/a	FR1	0	R1114C
1585.628	2.383	1195391	WORD	n/a	wordpools/wordpool_EN.txt	GOAT	10	15	[0, 0, 0]	n/a	FR1	0	R1114C
1588.011	2.384	1196582	WORD	n/a	wordpools/wordpool_EN.txt	PIE	11	15	[0, 0, 0]	n/a	FR1	0	R1114C
1590.395	1.616	1197774	WORD	n/a	wordpools/wordpool_EN.txt	STEAK	12	15	[0, 0, 0]	n/a	FR1	0	R1114C
1592.011	0.001	1198582	DISTRACT_START	n/a	n/a	n/a	-999	15	[0, 0, 0]	n/a	FR1	0	R1114C
1592.012	0.016	1198583	START	n/a	n/a	n/a	-999	15	[-999, -999, -999]	n/a	FR1	0	R1114C
1592.028	7.118	1198591	PROB	7.118	n/a	n/a	-999	15	[4, 8, 6]	18	FR1	0	R1114C
1599.146	3.917	1202149	PROB	3.917	n/a	n/a	-999	15	[6, 5, 1]	12	FR1	0	R1114C
1603.063	7.185	1204108	PROB	7.185	n/a	n/a	-999	15	[5, 3, 6]	14	FR1	0	R1114C
1610.248	6.049	1207700	PROB	6.049	n/a	n/a	-999	15	[4, 1, 6]	11	FR1	0	R1114C
1616.297	0.019	1210724	STOP	n/a	n/a	n/a	-999	15	[-999, -999, -999]	n/a	FR1	0	R1114C
1616.316	1.135	1210734	DISTRACT_END	n/a	n/a	n/a	-999	15	[0, 0, 0]	n/a	FR1	0	R1114C
1617.451	7.253	1211301	REC_START	n/a	n/a	n/a	-999	15	[0, 0, 0]	n/a	FR1	0	R1114C
1624.704	1.045	1214927	REC_WORD	1.045	n/a	PIE	-999	15	[0, 0, 0]	n/a	FR1	0	R1114C
1625.749	2.328	1215450	REC_WORD	2.328	n/a	STEAK	-999	15	[0, 0, 0]	n/a	FR1	0	R1114C
1628.077	8.441	1216614	REC_WORD	8.441	n/a	GOAT	-999	15	[0, 0, 0]	n/a	FR1	0	R1114C
1636.518	10.943	1220834	REC_WORD	10.943	n/a	VEST	-999	15	[0, 0, 0]	n/a	FR1	0	R1114C
1647.461	2.628	1226305	REC_END	n/a	n/a	n/a	-999	15	[0, 0, 0]	n/a	FR1	0	R1114C
1650.089	0.0	1227619	COUNTDOWN_START	n/a	n/a	n/a	-999	16	[0, 0, 0]	n/a	FR1	0	R1114C
1650.089	10.428	1227619	TRIAL	n/a	n/a	n/a	-999	16	[0, 0, 0]	n/a	FR1	0	R1114C
1660.517	0.008	1232833	COUNTDOWN_END	n/a	n/a	n/a	-999	16	[0, 0, 0]	n/a	FR1	0	R1114C
1660.525	2.45	1232837	ORIENT	n/a	n/a	n/a	-999	16	[0, 0, 0]	n/a	FR1	0	R1114C
1662.975	2.534	1234062	WORD	n/a	wordpools/wordpool_EN.txt	MULE	1	16	[0, 0, 0]	n/a	FR1	0	R1114C
1665.509	2.533	1235329	WORD	n/a	wordpools/wordpool_EN.txt	STORM	2	16	[0, 0, 0]	n/a	FR1	0	R1114C
1668.042	2.418	1236595	WORD	n/a	wordpools/wordpool_EN.txt	HEN	3	16	[0, 0, 0]	n/a	FR1	0	R1114C
1670.46	2.5	1237804	WORD	n/a	wordpools/wordpool_EN.txt	EGG	4	16	[0, 0, 0]	n/a	FR1	0	R1114C
1672.96	2.518	1239054	WORD	n/a	wordpools/wordpool_EN.txt	SKI	5	16	[0, 0, 0]	n/a	FR1	0	R1114C
1675.478	2.483	1240313	WORD	n/a	wordpools/wordpool_EN.txt	PEN	6	16	[0, 0, 0]	n/a	FR1	0	R1114C
1677.961	2.518	1241554	WORD	n/a	wordpools/wordpool_EN.txt	FORT	7	16	[0, 0, 0]	n/a	FR1	0	R1114C
1680.479	2.583	1242813	WORD	n/a	wordpools/wordpool_EN.txt	BEAK	8	16	[0, 0, 0]	n/a	FR1	0	R1114C
1683.062	2.485	1244104	WORD	n/a	wordpools/wordpool_EN.txt	SAIL	9	16	[0, 0, 0]	n/a	FR1	0	R1114C
1685.547	2.616	1245347	WORD	n/a	wordpools/wordpool_EN.txt	FARM	10	16	[0, 0, 0]	n/a	FR1	0	R1114C
1688.163	2.618	1246655	WORD	n/a	wordpools/wordpool_EN.txt	FUR	11	16	[0, 0, 0]	n/a	FR1	0	R1114C
1690.781	1.617	1247964	WORD	n/a	wordpools/wordpool_EN.txt	TRAIN	12	16	[0, 0, 0]	n/a	FR1	0	R1114C
1692.398	0.001	1248772	DISTRACT_START	n/a	n/a	n/a	-999	16	[0, 0, 0]	n/a	FR1	0	R1114C
1692.399	0.016	1248773	START	n/a	n/a	n/a	-999	16	[-999, -999, -999]	n/a	FR1	0	R1114C
1692.415	5.434	1248781	PROB	5.434	n/a	n/a	-999	16	[3, 7, 7]	17	FR1	0	R1114C
1697.849	4.667	1251497	PROB	4.667	n/a	n/a	-999	16	[2, 8, 4]	14	FR1	0	R1114C
1702.516	3.6	1253831	PROB	3.6	n/a	n/a	-999	16	[2, 1, 2]	5	FR1	0	R1114C
1706.116	3.984	1255631	PROB	3.984	n/a	n/a	-999	16	[5, 1, 4]	10	FR1	0	R1114C
1710.1	5.253	1257623	PROB	5.253	n/a	n/a	-999	16	[2, 8, 4]	14	FR1	0	R1114C
1715.353	0.016	1260249	STOP	n/a	n/a	n/a	-999	16	[-999, -999, -999]	n/a	FR1	0	R1114C
1715.369	1.068	1260257	DISTRACT_END	n/a	n/a	n/a	-999	16	[0, 0, 0]	n/a	FR1	0	R1114C
1716.437	2.736	1260791	REC_START	n/a	n/a	n/a	-999	16	[0, 0, 0]	n/a	FR1	0	R1114C
1719.173	5.627	1262159	REC_WORD	5.627	n/a	MULE	-999	16	[0, 0, 0]	n/a	FR1	0	R1114C
1724.8	1.509	1264972	REC_WORD	1.509	n/a	SKI	-999	16	[0, 0, 0]	n/a	FR1	0	R1114C
1726.309	2.604	1265726	REC_WORD	2.604	n/a	HEN	-999	16	[0, 0, 0]	n/a	FR1	0	R1114C
1728.913	3.708	1267028	REC_WORD	3.708	n/a	EGG	-999	16	[0, 0, 0]	n/a	FR1	0	R1114C
1732.621	12.695	1268882	REC_WORD	12.695	n/a	SAIL	-999	16	[0, 0, 0]	n/a	FR1	0	R1114C
1745.316	1.131	1275229	REC_WORD	1.131	n/a	SKI	-999	16	[0, 0, 0]	n/a	FR1	0	R1114C
1746.447	3.844	1275795	REC_END	n/a	n/a	n/a	-999	16	[0, 0, 0]	n/a	FR1	0	R1114C
1750.291	0.0	1277717	TRIAL	n/a	n/a	n/a	-999	17	[0, 0, 0]	n/a	FR1	0	R1114C
1750.291	10.428	1277717	COUNTDOWN_START	n/a	n/a	n/a	-999	17	[0, 0, 0]	n/a	FR1	0	R1114C
1760.719	0.008	1282930	COUNTDOWN_END	n/a	n/a	n/a	-999	17	[0, 0, 0]	n/a	FR1	0	R1114C
1760.727	2.583	1282934	ORIENT	n/a	n/a	n/a	-999	17	[0, 0, 0]	n/a	FR1	0	R1114C
1763.31	2.402	1284226	WORD	n/a	wordpools/wordpool_EN.txt	SEAL	1	17	[0, 0, 0]	n/a	FR1	0	R1114C
1765.712	2.466	1285427	WORD	n/a	wordpools/wordpool_EN.txt	GOLD	2	17	[0, 0, 0]	n/a	FR1	0	R1114C
1768.178	2.435	1286660	WORD	n/a	wordpools/wordpool_EN.txt	GUARD	3	17	[0, 0, 0]	n/a	FR1	0	R1114C
1770.613	2.582	1287877	WORD	n/a	wordpools/wordpool_EN.txt	NAIL	4	17	[0, 0, 0]	n/a	FR1	0	R1114C
1773.195	2.552	1289168	WORD	n/a	wordpools/wordpool_EN.txt	SQUARE	5	17	[0, 0, 0]	n/a	FR1	0	R1114C
1775.747	2.499	1290444	WORD	n/a	wordpools/wordpool_EN.txt	CAPE	6	17	[0, 0, 0]	n/a	FR1	0	R1114C
1778.246	2.468	1291693	WORD	n/a	wordpools/wordpool_EN.txt	TOOL	7	17	[0, 0, 0]	n/a	FR1	0	R1114C
1780.714	2.617	1292927	WORD	n/a	wordpools/wordpool_EN.txt	CROWN	8	17	[0, 0, 0]	n/a	FR1	0	R1114C
1783.331	2.501	1294236	WORD	n/a	wordpools/wordpool_EN.txt	SWORD	9	17	[0, 0, 0]	n/a	FR1	0	R1114C
1785.832	2.45	1295486	WORD	n/a	wordpools/wordpool_EN.txt	HAND	10	17	[0, 0, 0]	n/a	FR1	0	R1114C
1788.282	2.418	1296711	WORD	n/a	wordpools/wordpool_EN.txt	BLUSH	11	17	[0, 0, 0]	n/a	FR1	0	R1114C
1790.7	1.616	1297920	WORD	n/a	wordpools/wordpool_EN.txt	PIT	12	17	[0, 0, 0]	n/a	FR1	0	R1114C
1792.316	0.001	1298728	DISTRACT_START	n/a	n/a	n/a	-999	17	[0, 0, 0]	n/a	FR1	0	R1114C
1792.317	0.015	1298728	START	n/a	n/a	n/a	-999	17	[-999, -999, -999]	n/a	FR1	0	R1114C
1792.332	5.751	1298736	PROB	5.751	n/a	n/a	-999	17	[7, 1, 2]	10	FR1	0	R1114C
1798.083	6.286	1301611	PROB	6.286	n/a	n/a	-999	17	[9, 7, 3]	19	FR1	0	R1114C
1804.369	3.966	1304754	PROB	3.966	n/a	n/a	-999	17	[2, 1, 2]	5	FR1	0	R1114C
1808.335	6.203	1306737	PROB	6.203	n/a	n/a	-999	17	[6, 6, 4]	16	FR1	0	R1114C
1814.538	0.016	1309838	STOP	n/a	n/a	n/a	-999	17	[-999, -999, -999]	n/a	FR1	0	R1114C
1814.554	1.051	1309846	DISTRACT_END	n/a	n/a	n/a	-999	17	[0, 0, 0]	n/a	FR1	0	R1114C
1815.605	2.335	1310371	REC_START	n/a	n/a	n/a	-999	17	[0, 0, 0]	n/a	FR1	0	R1114C
1817.94	1.602	1311539	REC_WORD	1.602	n/a	GOLD	-999	17	[0, 0, 0]	n/a	FR1	0	R1114C
1819.542	26.073	1312340	REC_WORD	26.073	n/a	SEAL	-999	17	[0, 0, 0]	n/a	FR1	0	R1114C
1845.615	3.378	1325375	REC_END	n/a	n/a	n/a	-999	17	[0, 0, 0]	n/a	FR1	0	R1114C
1848.993	0.0	1327064	COUNTDOWN_START	n/a	n/a	n/a	-999	18	[0, 0, 0]	n/a	FR1	0	R1114C
1848.993	10.428	1327064	TRIAL	n/a	n/a	n/a	-999	18	[0, 0, 0]	n/a	FR1	0	R1114C
1859.421	0.008	1332278	COUNTDOWN_END	n/a	n/a	n/a	-999	18	[0, 0, 0]	n/a	FR1	0	R1114C
1859.429	2.583	1332282	ORIENT	n/a	n/a	n/a	-999	18	[0, 0, 0]	n/a	FR1	0	R1114C
1862.012	2.602	1333573	WORD	n/a	wordpools/wordpool_EN.txt	BRICK	1	18	[0, 0, 0]	n/a	FR1	0	R1114C
1864.614	2.432	1334874	WORD	n/a	wordpools/wordpool_EN.txt	POLE	2	18	[0, 0, 0]	n/a	FR1	0	R1114C
1867.046	2.435	1336090	WORD	n/a	wordpools/wordpool_EN.txt	JAIL	3	18	[0, 0, 0]	n/a	FR1	0	R1114C
1869.481	2.5	1337308	WORD	n/a	wordpools/wordpool_EN.txt	MAP	4	18	[0, 0, 0]	n/a	FR1	0	R1114C
1871.981	2.584	1338558	WORD	n/a	wordpools/wordpool_EN.txt	MOON	5	18	[0, 0, 0]	n/a	FR1	0	R1114C
1874.565	2.55	1339849	WORD	n/a	wordpools/wordpool_EN.txt	CORD	6	18	[0, 0, 0]	n/a	FR1	0	R1114C
1877.115	2.601	1341124	WORD	n/a	wordpools/wordpool_EN.txt	BOMB	7	18	[0, 0, 0]	n/a	FR1	0	R1114C
1879.716	2.45	1342425	WORD	n/a	wordpools/wordpool_EN.txt	OAR	8	18	[0, 0, 0]	n/a	FR1	0	R1114C
1882.166	2.568	1343650	WORD	n/a	wordpools/wordpool_EN.txt	STAR	9	18	[0, 0, 0]	n/a	FR1	0	R1114C
1884.734	2.5	1344934	WORD	n/a	wordpools/wordpool_EN.txt	STEM	10	18	[0, 0, 0]	n/a	FR1	0	R1114C
1887.234	2.484	1346183	WORD	n/a	wordpools/wordpool_EN.txt	BAT	11	18	[0, 0, 0]	n/a	FR1	0	R1114C
1889.718	1.616	1347425	WORD	n/a	wordpools/wordpool_EN.txt	TOOTH	12	18	[0, 0, 0]	n/a	FR1	0	R1114C
1891.334	0.001	1348233	DISTRACT_START	n/a	n/a	n/a	-999	18	[0, 0, 0]	n/a	FR1	0	R1114C
1891.335	0.016	1348234	START	n/a	n/a	n/a	-999	18	[-999, -999, -999]	n/a	FR1	0	R1114C
1891.351	6.601	1348242	PROB	6.601	n/a	n/a	-999	18	[3, 5, 9]	17	FR1	0	R1114C
1897.952	4.652	1351542	PROB	4.652	n/a	n/a	-999	18	[6, 1, 2]	9	FR1	0	R1114C
1902.604	3.533	1353868	PROB	3.533	n/a	n/a	-999	18	[2, 4, 6]	12	FR1	0	R1114C
1906.137	4.569	1355634	PROB	4.569	n/a	n/a	-999	18	[9, 5, 8]	22	FR1	0	R1114C
1910.706	5.542	1357919	PROB	5.542	n/a	n/a	-999	18	[3, 8, 3]	14	FR1	0	R1114C
1916.248	0.008	1360689	STOP	n/a	n/a	n/a	-999	18	[-999, -999, -999]	n/a	FR1	0	R1114C
1916.256	1.068	1360693	DISTRACT_END	n/a	n/a	n/a	-999	18	[0, 0, 0]	n/a	FR1	0	R1114C
1917.324	2.381	1361227	REC_START	n/a	n/a	n/a	-999	18	[0, 0, 0]	n/a	FR1	0	R1114C
1919.705	27.629	1362418	REC_WORD	27.629	n/a	BRICK	-999	18	[0, 0, 0]	n/a	FR1	0	R1114C
1947.334	3.678	1376231	REC_END	n/a	n/a	n/a	-999	18	[0, 0, 0]	n/a	FR1	0	R1114C
1951.012	0.001	1378070	COUNTDOWN_START	n/a	n/a	n/a	-999	19	[0, 0, 0]	n/a	FR1	0	R1114C
1951.013	10.427	1378071	TRIAL	n/a	n/a	n/a	-999	19	[0, 0, 0]	n/a	FR1	0	R1114C
1961.44	0.008	1383284	COUNTDOWN_END	n/a	n/a	n/a	-999	19	[0, 0, 0]	n/a	FR1	0	R1114C
1961.448	2.533	1383288	ORIENT	n/a	n/a	n/a	-999	19	[0, 0, 0]	n/a	FR1	0	R1114C
1963.981	2.518	1384554	WORD	n/a	wordpools/wordpool_EN.txt	CAT	1	19	[0, 0, 0]	n/a	FR1	0	R1114C
1966.499	2.533	1385813	WORD	n/a	wordpools/wordpool_EN.txt	TANK	2	19	[0, 0, 0]	n/a	FR1	0	R1114C
1969.032	2.518	1387080	WORD	n/a	wordpools/wordpool_EN.txt	BOAT	3	19	[0, 0, 0]	n/a	FR1	0	R1114C
1971.55	2.55	1388339	WORD	n/a	wordpools/wordpool_EN.txt	SPARK	4	19	[0, 0, 0]	n/a	FR1	0	R1114C
1974.1	2.518	1389614	WORD	n/a	wordpools/wordpool_EN.txt	WORM	5	19	[0, 0, 0]	n/a	FR1	0	R1114C
1976.618	2.583	1390872	WORD	n/a	wordpools/wordpool_EN.txt	HOSE	6	19	[0, 0, 0]	n/a	FR1	0	R1114C
1979.201	2.451	1392164	WORD	n/a	wordpools/wordpool_EN.txt	TRASH	7	19	[0, 0, 0]	n/a	FR1	0	R1114C
1981.652	2.416	1393389	WORD	n/a	wordpools/wordpool_EN.txt	KITE	8	19	[0, 0, 0]	n/a	FR1	0	R1114C
1984.068	2.385	1394597	WORD	n/a	wordpools/wordpool_EN.txt	FISH	9	19	[0, 0, 0]	n/a	FR1	0	R1114C
1986.453	2.516	1395790	WORD	n/a	wordpools/wordpool_EN.txt	WHEEL	10	19	[0, 0, 0]	n/a	FR1	0	R1114C
1988.969	2.485	1397048	WORD	n/a	wordpools/wordpool_EN.txt	DOG	11	19	[0, 0, 0]	n/a	FR1	0	R1114C
1991.454	1.616	1398290	WORD	n/a	wordpools/wordpool_EN.txt	LAND	12	19	[0, 0, 0]	n/a	FR1	0	R1114C
1993.07	0.001	1399098	DISTRACT_START	n/a	n/a	n/a	-999	19	[0, 0, 0]	n/a	FR1	0	R1114C
1993.071	0.016	1399098	START	n/a	n/a	n/a	-999	19	[-999, -999, -999]	n/a	FR1	0	R1114C
1993.087	173.803	1399106	PROB	173.803	n/a	n/a	-999	19	[7, 2, 2]	11	FR1	0	R1114C
2166.89	0.014	1486002	STOP	n/a	n/a	n/a	-999	19	[-999, -999, -999]	n/a	FR1	0	R1114C
2166.904	1.033	1486009	DISTRACT_END	n/a	n/a	n/a	-999	19	[0, 0, 0]	n/a	FR1	0	R1114C
2167.937	30.0	1486525	REC_START	n/a	n/a	n/a	-999	19	[0, 0, 0]	n/a	FR1	0	R1114C
2197.937	0.01	1501524	REC_WORD_VV	0.01	n/a	<>	-999	19	[0, 0, 0]	n/a	FR1	0	R1114C
2197.947	9.964	1501529	REC_END	n/a	n/a	n/a	-999	19	[0, 0, 0]	n/a	FR1	0	R1114C
2207.911	0.001	1506511	COUNTDOWN_START	n/a	n/a	n/a	-999	20	[0, 0, 0]	n/a	FR1	0	R1114C
2207.912	10.427	1506512	TRIAL	n/a	n/a	n/a	-999	20	[0, 0, 0]	n/a	FR1	0	R1114C
2218.339	0.007	1511725	COUNTDOWN_END	n/a	n/a	n/a	-999	20	[0, 0, 0]	n/a	FR1	0	R1114C
2218.346	2.401	1511728	ORIENT	n/a	n/a	n/a	-999	20	[0, 0, 0]	n/a	FR1	0	R1114C
2220.747	2.4	1512929	WORD	n/a	wordpools/wordpool_EN.txt	RUG	1	20	[0, 0, 0]	n/a	FR1	0	R1114C
2223.147	2.568	1514129	WORD	n/a	wordpools/wordpool_EN.txt	YARD	2	20	[0, 0, 0]	n/a	FR1	0	R1114C
2225.715	2.566	1515412	WORD	n/a	wordpools/wordpool_EN.txt	STOVE	3	20	[0, 0, 0]	n/a	FR1	0	R1114C
2228.281	2.568	1516695	WORD	n/a	wordpools/wordpool_EN.txt	LOCK	4	20	[0, 0, 0]	n/a	FR1	0	R1114C
2230.849	2.584	1517979	WORD	n/a	wordpools/wordpool_EN.txt	FACE	5	20	[0, 0, 0]	n/a	FR1	0	R1114C
2233.433	2.484	1519271	WORD	n/a	wordpools/wordpool_EN.txt	BOARD	6	20	[0, 0, 0]	n/a	FR1	0	R1114C
2235.917	2.55	1520513	WORD	n/a	wordpools/wordpool_EN.txt	CAGE	7	20	[0, 0, 0]	n/a	FR1	0	R1114C
2238.467	2.566	1521788	WORD	n/a	wordpools/wordpool_EN.txt	HORN	8	20	[0, 0, 0]	n/a	FR1	0	R1114C
2241.033	2.468	1523071	WORD	n/a	wordpools/wordpool_EN.txt	DRESS	9	20	[0, 0, 0]	n/a	FR1	0	R1114C
2243.501	2.583	1524305	WORD	n/a	wordpools/wordpool_EN.txt	DOCK	10	20	[0, 0, 0]	n/a	FR1	0	R1114C
2246.084	2.452	1525596	WORD	n/a	wordpools/wordpool_EN.txt	WOOD	11	20	[0, 0, 0]	n/a	FR1	0	R1114C
2248.536	1.616	1526822	WORD	n/a	wordpools/wordpool_EN.txt	TOY	12	20	[0, 0, 0]	n/a	FR1	0	R1114C
2250.152	0.001	1527630	DISTRACT_START	n/a	n/a	n/a	-999	20	[0, 0, 0]	n/a	FR1	0	R1114C
2250.153	0.015	1527631	START	n/a	n/a	n/a	-999	20	[-999, -999, -999]	n/a	FR1	0	R1114C
2250.168	13.687	1527638	PROB	13.687	n/a	n/a	-999	20	[7, 1, 2]	10	FR1	0	R1114C
2263.855	6.151	1534481	PROB	6.151	n/a	n/a	-999	20	[1, 5, 9]	15	FR1	0	R1114C
2270.006	4.868	1537556	PROB	4.868	n/a	n/a	-999	20	[8, 1, 8]	17	FR1	0	R1114C
2274.874	0.017	1539990	STOP	n/a	n/a	n/a	-999	20	[-999, -999, -999]	n/a	FR1	0	R1114C
2274.891	1.216	1539999	DISTRACT_END	n/a	n/a	n/a	-999	20	[0, 0, 0]	n/a	FR1	0	R1114C
2276.107	30.011	1540607	REC_START	n/a	n/a	n/a	-999	20	[0, 0, 0]	n/a	FR1	0	R1114C
2306.118	0.003	1555611	REC_WORD_VV	0.003	n/a	<>	-999	20	[0, 0, 0]	n/a	FR1	0	R1114C
2306.121	3.626	1555613	REC_END	n/a	n/a	n/a	-999	20	[0, 0, 0]	n/a	FR1	0	R1114C
2309.747	0.0	1557426	TRIAL	n/a	n/a	n/a	-999	21	[0, 0, 0]	n/a	FR1	0	R1114C
2309.747	10.428	1557426	COUNTDOWN_START	n/a	n/a	n/a	-999	21	[0, 0, 0]	n/a	FR1	0	R1114C
2320.175	0.007	1562639	COUNTDOWN_END	n/a	n/a	n/a	-999	21	[0, 0, 0]	n/a	FR1	0	R1114C
2320.182	2.534	1562643	ORIENT	n/a	n/a	n/a	-999	21	[0, 0, 0]	n/a	FR1	0	R1114C
2322.716	2.517	1563910	WORD	n/a	wordpools/wordpool_EN.txt	EAR	1	21	[0, 0, 0]	n/a	FR1	0	R1114C
2325.233	2.534	1565168	WORD	n/a	wordpools/wordpool_EN.txt	HOUSE	2	21	[0, 0, 0]	n/a	FR1	0	R1114C
2327.767	2.566	1566435	WORD	n/a	wordpools/wordpool_EN.txt	DOOR	3	21	[0, 0, 0]	n/a	FR1	0	R1114C
2330.333	2.535	1567718	WORD	n/a	wordpools/wordpool_EN.txt	STREET	4	21	[0, 0, 0]	n/a	FR1	0	R1114C
2332.868	2.433	1568985	WORD	n/a	wordpools/wordpool_EN.txt	DIME	5	21	[0, 0, 0]	n/a	FR1	0	R1114C
2335.301	2.435	1570202	WORD	n/a	wordpools/wordpool_EN.txt	BED	6	21	[0, 0, 0]	n/a	FR1	0	R1114C
2337.736	2.549	1571419	WORD	n/a	wordpools/wordpool_EN.txt	CAKE	7	21	[0, 0, 0]	n/a	FR1	0	R1114C
2340.285	2.452	1572694	WORD	n/a	wordpools/wordpool_EN.txt	CART	8	21	[0, 0, 0]	n/a	FR1	0	R1114C
2342.737	2.583	1573919	WORD	n/a	wordpools/wordpool_EN.txt	FENCE	9	21	[0, 0, 0]	n/a	FR1	0	R1114C
2345.32	2.518	1575211	WORD	n/a	wordpools/wordpool_EN.txt	CUP	10	21	[0, 0, 0]	n/a	FR1	0	R1114C
2347.838	2.533	1576470	WORD	n/a	wordpools/wordpool_EN.txt	SLUSH	11	21	[0, 0, 0]	n/a	FR1	0	R1114C
2350.371	1.617	1577736	WORD	n/a	wordpools/wordpool_EN.txt	STAIR	12	21	[0, 0, 0]	n/a	FR1	0	R1114C
2351.988	0.0	1578545	DISTRACT_START	n/a	n/a	n/a	-999	21	[0, 0, 0]	n/a	FR1	0	R1114C
2351.988	0.016	1578545	START	n/a	n/a	n/a	-999	21	[-999, -999, -999]	n/a	FR1	0	R1114C
2352.004	6.151	1578553	PROB	6.151	n/a	n/a	-999	21	[8, 8, 1]	17	FR1	0	R1114C
2358.155	6.118	1581628	PROB	6.118	n/a	n/a	-999	21	[5, 1, 7]	13	FR1	0	R1114C
2364.273	4.485	1584687	PROB	4.485	n/a	n/a	-999	21	[2, 6, 5]	13	FR1	0	R1114C
2368.758	8.004	1586929	PROB	8.004	n/a	n/a	-999	21	[3, 6, 9]	18	FR1	0	R1114C
2376.762	0.015	1590931	STOP	n/a	n/a	n/a	-999	21	[-999, -999, -999]	n/a	FR1	0	R1114C
2376.777	1.117	1590938	DISTRACT_END	n/a	n/a	n/a	-999	21	[0, 0, 0]	n/a	FR1	0	R1114C
2377.894	30.0	1591497	REC_START	n/a	n/a	n/a	-999	21	[0, 0, 0]	n/a	FR1	0	R1114C
2407.894	0.01	1606496	REC_WORD_VV	0.01	n/a	<>	-999	21	[0, 0, 0]	n/a	FR1	0	R1114C
2407.904	5.013	1606501	REC_END	n/a	n/a	n/a	-999	21	[0, 0, 0]	n/a	FR1	0	R1114C
2412.917	0.0	1609007	TRIAL	n/a	n/a	n/a	-999	22	[0, 0, 0]	n/a	FR1	0	R1114C
2412.917	10.428	1609007	COUNTDOWN_START	n/a	n/a	n/a	-999	22	[0, 0, 0]	n/a	FR1	0	R1114C
2423.345	0.006	1614221	COUNTDOWN_END	n/a	n/a	n/a	-999	22	[0, 0, 0]	n/a	FR1	0	R1114C
2423.351	2.518	1614224	ORIENT	n/a	n/a	n/a	-999	22	[0, 0, 0]	n/a	FR1	0	R1114C
2425.869	2.567	1615483	WORD	n/a	wordpools/wordpool_EN.txt	HILL	1	22	[0, 0, 0]	n/a	FR1	0	R1114C
2428.436	2.616	1616766	WORD	n/a	wordpools/wordpool_EN.txt	CLOUD	2	22	[0, 0, 0]	n/a	FR1	0	R1114C
2431.052	2.402	1618074	WORD	n/a	wordpools/wordpool_EN.txt	SHOE	3	22	[0, 0, 0]	n/a	FR1	0	R1114C
2433.454	2.583	1619275	WORD	n/a	wordpools/wordpool_EN.txt	BOX	4	22	[0, 0, 0]	n/a	FR1	0	R1114C
2436.037	2.484	1620566	WORD	n/a	wordpools/wordpool_EN.txt	RICE	5	22	[0, 0, 0]	n/a	FR1	0	R1114C
2438.521	2.617	1621808	WORD	n/a	wordpools/wordpool_EN.txt	TOAST	6	22	[0, 0, 0]	n/a	FR1	0	R1114C
2441.138	2.534	1623117	WORD	n/a	wordpools/wordpool_EN.txt	RAIN	7	22	[0, 0, 0]	n/a	FR1	0	R1114C
2443.672	2.483	1624384	WORD	n/a	wordpools/wordpool_EN.txt	ELF	8	22	[0, 0, 0]	n/a	FR1	0	R1114C
2446.155	2.485	1625625	WORD	n/a	wordpools/wordpool_EN.txt	FILM	9	22	[0, 0, 0]	n/a	FR1	0	R1114C
2448.64	2.516	1626867	WORD	n/a	wordpools/wordpool_EN.txt	CHIN	10	22	[0, 0, 0]	n/a	FR1	0	R1114C
2451.156	2.452	1628125	WORD	n/a	wordpools/wordpool_EN.txt	SWAMP	11	22	[0, 0, 0]	n/a	FR1	0	R1114C
2453.608	1.616	1629351	WORD	n/a	wordpools/wordpool_EN.txt	SALT	12	22	[0, 0, 0]	n/a	FR1	0	R1114C
2455.224	0.001	1630159	DISTRACT_START	n/a	n/a	n/a	-999	22	[0, 0, 0]	n/a	FR1	0	R1114C
2455.225	0.015	1630160	START	n/a	n/a	n/a	-999	22	[-999, -999, -999]	n/a	FR1	0	R1114C
2455.24	8.269	1630167	PROB	8.269	n/a	n/a	-999	22	[8, 4, 2]	14	FR1	0	R1114C
2463.509	7.869	1634301	PROB	7.869	n/a	n/a	-999	22	[3, 2, 9]	14	FR1	0	R1114C
2471.378	9.759	1638236	PROB	9.759	n/a	n/a	-999	22	[4, 3, 9]	16	FR1	0	R1114C
2481.137	0.008	1643115	STOP	n/a	n/a	n/a	-999	22	[-999, -999, -999]	n/a	FR1	0	R1114C
2481.145	1.219	1643119	DISTRACT_END	n/a	n/a	n/a	-999	22	[0, 0, 0]	n/a	FR1	0	R1114C
2482.364	3.458	1643728	REC_START	n/a	n/a	n/a	-999	22	[0, 0, 0]	n/a	FR1	0	R1114C
2485.822	1.872	1645457	REC_WORD_VV	1.872	n/a	<>	-999	22	[0, 0, 0]	n/a	FR1	0	R1114C
2487.694	3.039	1646393	REC_WORD	3.039	n/a	CHAIR	-999	22	[0, 0, 0]	n/a	FR1	0	R1114C
2490.733	21.625	1647912	REC_WORD_VV	21.625	n/a	<>	-999	22	[0, 0, 0]	n/a	FR1	0	R1114C
2512.358	0.016	1658724	REC_WORD_VV	0.016	n/a	<>	-999	22	[0, 0, 0]	n/a	FR1	0	R1114C
2512.374	5.396	1658732	REC_END	n/a	n/a	n/a	-999	22	[0, 0, 0]	n/a	FR1	0	R1114C
2517.77	0.0	1661430	TRIAL	n/a	n/a	n/a	-999	23	[0, 0, 0]	n/a	FR1	0	R1114C
2517.77	10.428	1661430	COUNTDOWN_START	n/a	n/a	n/a	-999	23	[0, 0, 0]	n/a	FR1	0	R1114C
2528.198	0.006	1666644	COUNTDOWN_END	n/a	n/a	n/a	-999	23	[0, 0, 0]	n/a	FR1	0	R1114C
2528.204	2.485	1666647	ORIENT	n/a	n/a	n/a	-999	23	[0, 0, 0]	n/a	FR1	0	R1114C
2530.689	2.382	1667889	WORD	n/a	wordpools/wordpool_EN.txt	STONE	1	23	[0, 0, 0]	n/a	FR1	0	R1114C
2533.071	2.552	1669080	WORD	n/a	wordpools/wordpool_EN.txt	FOAM	2	23	[0, 0, 0]	n/a	FR1	0	R1114C
2535.623	2.516	1670356	WORD	n/a	wordpools/wordpool_EN.txt	CUBE	3	23	[0, 0, 0]	n/a	FR1	0	R1114C
2538.139	2.518	1671614	WORD	n/a	wordpools/wordpool_EN.txt	BEACH	4	23	[0, 0, 0]	n/a	FR1	0	R1114C
2540.657	2.417	1672873	WORD	n/a	wordpools/wordpool_EN.txt	ROOF	5	23	[0, 0, 0]	n/a	FR1	0	R1114C
2543.074	2.418	1674081	WORD	n/a	wordpools/wordpool_EN.txt	CAVE	6	23	[0, 0, 0]	n/a	FR1	0	R1114C
2545.492	2.616	1675290	WORD	n/a	wordpools/wordpool_EN.txt	WEB	7	23	[0, 0, 0]	n/a	FR1	0	R1114C
2548.108	2.418	1676598	WORD	n/a	wordpools/wordpool_EN.txt	HOLE	8	23	[0, 0, 0]	n/a	FR1	0	R1114C
2550.526	2.4	1677807	WORD	n/a	wordpools/wordpool_EN.txt	BUSH	9	23	[0, 0, 0]	n/a	FR1	0	R1114C
2552.926	2.617	1679007	WORD	n/a	wordpools/wordpool_EN.txt	SNAIL	10	23	[0, 0, 0]	n/a	FR1	0	R1114C
2555.543	2.433	1680315	WORD	n/a	wordpools/wordpool_EN.txt	LAKE	11	23	[0, 0, 0]	n/a	FR1	0	R1114C
2557.976	1.601	1681532	WORD	n/a	wordpools/wordpool_EN.txt	SPEAR	12	23	[0, 0, 0]	n/a	FR1	0	R1114C
2559.577	0.001	1682332	DISTRACT_START	n/a	n/a	n/a	-999	23	[0, 0, 0]	n/a	FR1	0	R1114C
2559.578	0.016	1682333	START	n/a	n/a	n/a	-999	23	[-999, -999, -999]	n/a	FR1	0	R1114C
2559.594	12.718	1682341	PROB	12.718	n/a	n/a	-999	23	[9, 8, 7]	24	FR1	0	R1114C
2572.312	8.338	1688699	PROB	8.338	n/a	n/a	-999	23	[5, 1, 7]	13	FR1	0	R1114C
2580.65	0.015	1692868	STOP	n/a	n/a	n/a	-999	23	[-999, -999, -999]	n/a	FR1	0	R1114C
2580.665	1.034	1692875	DISTRACT_END	n/a	n/a	n/a	-999	23	[0, 0, 0]	n/a	FR1	0	R1114C
2581.699	20.065	1693392	REC_START	n/a	n/a	n/a	-999	23	[0, 0, 0]	n/a	FR1	0	R1114C
2601.764	0.812	1703424	REC_WORD_VV	0.812	n/a	<>	-999	23	[0, 0, 0]	n/a	FR1	0	R1114C
2602.576	9.133	1703830	REC_WORD	9.133	n/a	SNAIL	-999	23	[0, 0, 0]	n/a	FR1	0	R1114C
2611.709	5.362	1708396	REC_END	n/a	n/a	n/a	-999	23	[0, 0, 0]	n/a	FR1	0	R1114C
2617.071	0.0	1711077	TRIAL	n/a	n/a	n/a	-999	24	[0, 0, 0]	n/a	FR1	0	R1114C
2617.071	10.428	1711077	COUNTDOWN_START	n/a	n/a	n/a	-999	24	[0, 0, 0]	n/a	FR1	0	R1114C
2627.499	0.008	1716291	COUNTDOWN_END	n/a	n/a	n/a	-999	24	[0, 0, 0]	n/a	FR1	0	R1114C
2627.507	2.483	1716295	ORIENT	n/a	n/a	n/a	-999	24	[0, 0, 0]	n/a	FR1	0	R1114C
2629.99	2.451	1717536	WORD	n/a	wordpools/wordpool_EN.txt	BADGE	1	24	[0, 0, 0]	n/a	FR1	0	R1114C
2632.441	2.583	1718762	WORD	n/a	wordpools/wordpool_EN.txt	JUDGE	2	24	[0, 0, 0]	n/a	FR1	0	R1114C
2635.024	2.468	1720053	WORD	n/a	wordpools/wordpool_EN.txt	BOOK	3	24	[0, 0, 0]	n/a	FR1	0	R1114C
2637.492	2.6	1721287	WORD	n/a	wordpools/wordpool_EN.txt	PIG	4	24	[0, 0, 0]	n/a	FR1	0	R1114C
2640.092	2.468	1722587	WORD	n/a	wordpools/wordpool_EN.txt	PLANE	5	24	[0, 0, 0]	n/a	FR1	0	R1114C
2642.56	2.416	1723821	WORD	n/a	wordpools/wordpool_EN.txt	SHEET	6	24	[0, 0, 0]	n/a	FR1	0	R1114C
2644.976	2.401	1725029	WORD	n/a	wordpools/wordpool_EN.txt	CAR	7	24	[0, 0, 0]	n/a	FR1	0	R1114C
2647.377	2.451	1726229	WORD	n/a	wordpools/wordpool_EN.txt	SMOKE	8	24	[0, 0, 0]	n/a	FR1	0	R1114C
2649.828	2.383	1727454	WORD	n/a	wordpools/wordpool_EN.txt	SHEEP	9	24	[0, 0, 0]	n/a	FR1	0	R1114C
2652.211	2.434	1728646	WORD	n/a	wordpools/wordpool_EN.txt	WAVE	10	24	[0, 0, 0]	n/a	FR1	0	R1114C
2654.645	2.383	1729863	WORD	n/a	wordpools/wordpool_EN.txt	ARK	11	24	[0, 0, 0]	n/a	FR1	0	R1114C
2657.028	1.601	1731054	WORD	n/a	wordpools/wordpool_EN.txt	JET	12	24	[0, 0, 0]	n/a	FR1	0	R1114C
2658.629	0.002	1731855	DISTRACT_START	n/a	n/a	n/a	-999	24	[0, 0, 0]	n/a	FR1	0	R1114C
2658.631	0.015	1731856	START	n/a	n/a	n/a	-999	24	[-999, -999, -999]	n/a	FR1	0	R1114C
2658.646	7.768	1731863	PROB	7.768	n/a	n/a	-999	24	[4, 6, 4]	14	FR1	0	R1114C
2666.414	5.884	1735747	PROB	5.884	n/a	n/a	-999	24	[6, 3, 5]	14	FR1	0	R1114C
2672.298	3.75	1738689	PROB	3.75	n/a	n/a	-999	24	[1, 1, 9]	11	FR1	0	R1114C
2676.048	5.722	1740564	PROB	5.722	n/a	n/a	-999	24	[1, 1, 8]	10	FR1	0	R1114C
2681.77	0.014	1743424	STOP	n/a	n/a	n/a	-999	24	[-999, -999, -999]	n/a	FR1	0	R1114C
2681.784	1.2	1743431	DISTRACT_END	n/a	n/a	n/a	-999	24	[0, 0, 0]	n/a	FR1	0	R1114C
2682.984	19.375	1744031	REC_START	n/a	n/a	n/a	-999	24	[0, 0, 0]	n/a	FR1	0	R1114C
2702.359	10.635	1753718	REC_WORD	10.635	n/a	CHAIR	-999	24	[0, 0, 0]	n/a	FR1	0	R1114C
2712.994	3.546	1759035	REC_END	n/a	n/a	n/a	-999	24	[0, 0, 0]	n/a	FR1	0	R1114C
2716.54	0.001	1760808	COUNTDOWN_START	n/a	n/a	n/a	-999	25	[0, 0, 0]	n/a	FR1	0	R1114C
2716.541	10.427	1760809	TRIAL	n/a	n/a	n/a	-999	25	[0, 0, 0]	n/a	FR1	0	R1114C
2726.968	0.007	1766022	COUNTDOWN_END	n/a	n/a	n/a	-999	25	[0, 0, 0]	n/a	FR1	0	R1114C
2726.975	2.451	1766025	ORIENT	n/a	n/a	n/a	-999	25	[0, 0, 0]	n/a	FR1	0	R1114C
2729.426	2.6	1767251	WORD	n/a	wordpools/wordpool_EN.txt	HAWK	1	25	[0, 0, 0]	n/a	FR1	0	R1114C
2732.026	2.401	1768551	WORD	n/a	wordpools/wordpool_EN.txt	BEE	2	25	[0, 0, 0]	n/a	FR1	0	R1114C
2734.427	2.501	1769751	WORD	n/a	wordpools/wordpool_EN.txt	SEAT	3	25	[0, 0, 0]	n/a	FR1	0	R1114C
2736.928	2.399	1771002	WORD	n/a	wordpools/wordpool_EN.txt	CORN	4	25	[0, 0, 0]	n/a	FR1	0	R1114C
2739.327	2.402	1772201	WORD	n/a	wordpools/wordpool_EN.txt	COW	5	25	[0, 0, 0]	n/a	FR1	0	R1114C
2741.729	2.532	1773402	WORD	n/a	wordpools/wordpool_EN.txt	BARN	6	25	[0, 0, 0]	n/a	FR1	0	R1114C
2744.261	2.568	1774668	WORD	n/a	wordpools/wordpool_EN.txt	OWL	7	25	[0, 0, 0]	n/a	FR1	0	R1114C
2746.829	2.601	1775952	WORD	n/a	wordpools/wordpool_EN.txt	PET	8	25	[0, 0, 0]	n/a	FR1	0	R1114C
2749.43	2.583	1777252	WORD	n/a	wordpools/wordpool_EN.txt	LAMB	9	25	[0, 0, 0]	n/a	FR1	0	R1114C
2752.013	2.501	1778544	WORD	n/a	wordpools/wordpool_EN.txt	SKY	10	25	[0, 0, 0]	n/a	FR1	0	R1114C
2754.514	2.55	1779794	WORD	n/a	wordpools/wordpool_EN.txt	FLEA	11	25	[0, 0, 0]	n/a	FR1	0	R1114C
2757.064	1.618	1781069	WORD	n/a	wordpools/wordpool_EN.txt	EEL	12	25	[0, 0, 0]	n/a	FR1	0	R1114C
2758.682	0.001	1781878	DISTRACT_START	n/a	n/a	n/a	-999	25	[0, 0, 0]	n/a	FR1	0	R1114C
2758.683	0.015	1781878	START	n/a	n/a	n/a	-999	25	[-999, -999, -999]	n/a	FR1	0	R1114C
2758.698	8.234	1781886	PROB	8.234	n/a	n/a	-999	25	[8, 5, 2]	15	FR1	0	R1114C
2766.932	4.268	1786003	PROB	4.268	n/a	n/a	-999	25	[2, 2, 4]	8	FR1	0	R1114C
2771.2	9.889	1788136	PROB	9.889	n/a	n/a	-999	25	[6, 5, 5]	16	FR1	0	R1114C
2781.089	0.012	1793081	STOP	n/a	n/a	n/a	-999	25	[-999, -999, -999]	n/a	FR1	0	R1114C
2781.101	1.201	1793087	DISTRACT_END	n/a	n/a	n/a	-999	25	[0, 0, 0]	n/a	FR1	0	R1114C
2782.302	3.191	1793687	REC_START	n/a	n/a	n/a	-999	25	[0, 0, 0]	n/a	FR1	0	R1114C
2785.493	1.919	1795282	REC_WORD	1.919	n/a	BOOK	-999	25	[0, 0, 0]	n/a	FR1	0	R1114C
2787.412	4.43	1796242	REC_WORD	4.43	n/a	EEL	-999	25	[0, 0, 0]	n/a	FR1	0	R1114C
2791.842	20.474	1798457	REC_WORD	20.474	n/a	LAMB	-999	25	[0, 0, 0]	n/a	FR1	0	R1114C
2812.316	8.561	1808693	REC_END	n/a	n/a	n/a	-999	25	[0, 0, 0]	n/a	FR1	0	R1114C
2820.877	0.0	1812973	SESS_END	n/a	n/a	n/a	-999	25	[0, 0, 0]	n/a	FR1	0	R1114C
