onset	duration	sample	trial_type	response_time	stim_file	item_name	serialpos	list	test	answer	experiment	session	subject
0.0	4.349	1061551	INSTRUCT_START	n/a	n/a	n/a	-999	-999	[0, 0, 0]	n/a	FR1	1	R1409D
4.349	38.55	1065891	INSTRUCT_END	n/a	n/a	n/a	-999	-999	[0, 0, 0]	n/a	FR1	1	R1409D
42.899	10.35	1104444	COUNTDOWN_START	n/a	n/a	n/a	-999	-999	[0, 0, 0]	n/a	FR1	1	R1409D
53.249	0.0	1114793	COUNTDOWN_END	n/a	n/a	n/a	-999	-999	[0, 0, 0]	n/a	FR1	1	R1409D
53.249	1.916	1114793	ENCODING_START	n/a	n/a	n/a	-999	-1	[0, 0, 0]	n/a	FR1	1	R1409D
55.165	1.616	1116709	WORD	n/a	n/a	SOCK	1	-1	[0, 0, 0]	n/a	FR1	1	R1409D
56.781	1.0	1118321	WORD_OFF	n/a	n/a	SOCK	1	-1	[0, 0, 0]	n/a	FR1	1	R1409D
57.781	1.617	1119324	WORD	n/a	n/a	CLOCK	2	-1	[0, 0, 0]	n/a	FR1	1	R1409D
59.398	0.817	1120947	WORD_OFF	n/a	n/a	CLOCK	2	-1	[0, 0, 0]	n/a	FR1	1	R1409D
60.215	1.616	1121759	WORD	n/a	n/a	JAR	3	-1	[0, 0, 0]	n/a	FR1	1	R1409D
61.831	0.767	1123371	WORD_OFF	n/a	n/a	JAR	3	-1	[0, 0, 0]	n/a	FR1	1	R1409D
62.598	1.616	1124138	WORD	n/a	n/a	BAR	4	-1	[0, 0, 0]	n/a	FR1	1	R1409D
64.214	0.85	1125761	WORD_OFF	n/a	n/a	BAR	4	-1	[0, 0, 0]	n/a	FR1	1	R1409D
65.064	1.601	1126606	WORD	n/a	n/a	ROPE	5	-1	[0, 0, 0]	n/a	FR1	1	R1409D
66.665	0.965	1128207	WORD_OFF	n/a	n/a	ROPE	5	-1	[0, 0, 0]	n/a	FR1	1	R1409D
67.63	1.601	1129177	WORD	n/a	n/a	LODGE	6	-1	[0, 0, 0]	n/a	FR1	1	R1409D
69.231	0.95	1130777	WORD_OFF	n/a	n/a	LODGE	6	-1	[0, 0, 0]	n/a	FR1	1	R1409D
70.181	1.6	1131724	WORD	n/a	n/a	TREE	7	-1	[0, 0, 0]	n/a	FR1	1	R1409D
71.781	0.834	1133325	WORD_OFF	n/a	n/a	TREE	7	-1	[0, 0, 0]	n/a	FR1	1	R1409D
72.615	1.6	1134159	WORD	n/a	n/a	SPRING	8	-1	[0, 0, 0]	n/a	FR1	1	R1409D
74.215	0.933	1135760	WORD_OFF	n/a	n/a	SPRING	8	-1	[0, 0, 0]	n/a	FR1	1	R1409D
75.148	1.6	1136695	WORD	n/a	n/a	PALM	9	-1	[0, 0, 0]	n/a	FR1	1	R1409D
76.748	0.817	1138296	WORD_OFF	n/a	n/a	PALM	9	-1	[0, 0, 0]	n/a	FR1	1	R1409D
77.565	1.616	1139108	WORD	n/a	n/a	MOUSE	10	-1	[0, 0, 0]	n/a	FR1	1	R1409D
79.181	0.784	1140720	WORD_OFF	n/a	n/a	MOUSE	10	-1	[0, 0, 0]	n/a	FR1	1	R1409D
79.965	1.616	1141509	WORD	n/a	n/a	FRIEND	11	-1	[0, 0, 0]	n/a	FR1	1	R1409D
81.581	0.884	1143121	WORD_OFF	n/a	n/a	FRIEND	11	-1	[0, 0, 0]	n/a	FR1	1	R1409D
82.465	1.601	1144011	WORD	n/a	n/a	BRIDGE	12	-1	[0, 0, 0]	n/a	FR1	1	R1409D
84.066	0.0	1145606	START	n/a	n/a	n/a	-999	-1	[-999, -999, -999]	n/a	FR1	1	R1409D
84.066	0.0	1145606	PROB	0.0	n/a	n/a	-999	-1	[6, 1, 2]	9	FR1	1	R1409D
84.065	0.001	1145612	WORD_OFF	n/a	n/a	BRIDGE	12	-1	[0, 0, 0]	n/a	FR1	1	R1409D
84.066	0.0	1145612	ENCODING_END	n/a	n/a	n/a	-999	-1	[0, 0, 0]	n/a	FR1	1	R1409D
84.066	4.166	1145612	DISTRACT_START	n/a	n/a	n/a	-999	-1	[0, 0, 0]	n/a	FR1	1	R1409D
88.232	4.966	1149772	PROB	4.966	n/a	n/a	-999	-1	[5, 5, 6]	16	FR1	1	R1409D
93.198	3.666	1154738	PROB	3.666	n/a	n/a	-999	-1	[4, 1, 2]	7	FR1	1	R1409D
96.864	3.8	1158404	PROB	3.8	n/a	n/a	-999	-1	[5, 4, 1]	10	FR1	1	R1409D
100.664	5.252	1162204	PROB	5.252	n/a	n/a	-999	-1	[7, 2, 8]	17	FR1	1	R1409D
105.916	0.0	1167455	STOP	n/a	n/a	n/a	-999	-1	[-999, -999, -999]	n/a	FR1	1	R1409D
105.916	2.165	1167459	DISTRACT_END	n/a	n/a	n/a	-999	-1	[0, 0, 0]	n/a	FR1	1	R1409D
108.081	1.006	1169620	REC_START	n/a	n/a	n/a	-999	-1	[0, 0, 0]	n/a	FR1	1	R1409D
109.087	2.659	1170626	REC_WORD	2.659	n/a	SOCK	1	-1	[0, 0, 0]	n/a	FR1	1	R1409D
111.746	4.179	1173285	REC_WORD_VV	4.179	n/a	<>	-999	-1	[0, 0, 0]	n/a	FR1	1	R1409D
115.925	1.449	1177464	REC_WORD_VV	1.449	n/a	<>	-999	-1	[0, 0, 0]	n/a	FR1	1	R1409D
117.374	6.825	1178913	REC_WORD	6.825	n/a	TREE	7	-1	[0, 0, 0]	n/a	FR1	1	R1409D
124.199	1.0	1185737	REC_WORD_VV	1.0	n/a	<>	-999	-1	[0, 0, 0]	n/a	FR1	1	R1409D
125.199	1.418	1186737	REC_WORD_VV	1.418	n/a	<>	-999	-1	[0, 0, 0]	n/a	FR1	1	R1409D
126.617	1.0	1188155	REC_WORD_VV	1.0	n/a	<>	-999	-1	[0, 0, 0]	n/a	FR1	1	R1409D
127.617	1.51	1189155	REC_WORD_VV	1.51	n/a	<>	-999	-1	[0, 0, 0]	n/a	FR1	1	R1409D
129.127	4.326	1190665	REC_WORD_VV	4.326	n/a	<>	-999	-1	[0, 0, 0]	n/a	FR1	1	R1409D
133.453	1.587	1194991	REC_WORD_VV	1.587	n/a	<>	-999	-1	[0, 0, 0]	n/a	FR1	1	R1409D
135.04	0.903	1196578	REC_WORD	0.903	n/a	CLOCK	2	-1	[0, 0, 0]	n/a	FR1	1	R1409D
135.943	0.556	1197481	REC_WORD	0.556	n/a	SOCK	1	-1	[0, 0, 0]	n/a	FR1	1	R1409D
136.499	1.824	1198037	REC_WORD	1.824	n/a	CLOCK	2	-1	[0, 0, 0]	n/a	FR1	1	R1409D
138.323	57.008	1199868	REC_END	n/a	n/a	n/a	-999	-1	[0, 0, 0]	n/a	FR1	1	R1409D
195.331	10.35	1256874	COUNTDOWN_START	n/a	n/a	n/a	-999	1	[0, 0, 0]	n/a	FR1	1	R1409D
205.681	0.0	1267222	COUNTDOWN_END	n/a	n/a	n/a	-999	1	[0, 0, 0]	n/a	FR1	1	R1409D
205.681	2.082	1267222	ENCODING_START	n/a	n/a	n/a	-999	1	[0, 0, 0]	n/a	FR1	1	R1409D
207.763	1.601	1269296	WORD	n/a	wordpools/wordpool_long_EN.txt	BUSH	1	1	[0, 0, 0]	n/a	FR1	1	R1409D
209.364	0.983	1270897	WORD_OFF	n/a	n/a	BUSH	1	1	[0, 0, 0]	n/a	FR1	1	R1409D
210.347	1.6	1271878	WORD	n/a	wordpools/wordpool_long_EN.txt	WRIST	2	1	[0, 0, 0]	n/a	FR1	1	R1409D
211.947	0.934	1273479	WORD_OFF	n/a	n/a	WRIST	2	1	[0, 0, 0]	n/a	FR1	1	R1409D
212.881	1.6	1274414	WORD	n/a	wordpools/wordpool_long_EN.txt	ELF	3	1	[0, 0, 0]	n/a	FR1	1	R1409D
214.481	0.967	1276015	WORD_OFF	n/a	n/a	ELF	3	1	[0, 0, 0]	n/a	FR1	1	R1409D
215.448	1.617	1276984	WORD	n/a	wordpools/wordpool_long_EN.txt	BEEF	4	1	[0, 0, 0]	n/a	FR1	1	R1409D
217.065	0.883	1278596	WORD_OFF	n/a	n/a	BEEF	4	1	[0, 0, 0]	n/a	FR1	1	R1409D
217.948	1.616	1279487	WORD	n/a	wordpools/wordpool_long_EN.txt	TROUT	5	1	[0, 0, 0]	n/a	FR1	1	R1409D
219.564	0.851	1281099	WORD_OFF	n/a	n/a	TROUT	5	1	[0, 0, 0]	n/a	FR1	1	R1409D
220.415	1.6	1281944	WORD	n/a	wordpools/wordpool_long_EN.txt	SHIELD	6	1	[0, 0, 0]	n/a	FR1	1	R1409D
222.015	0.8	1283545	WORD_OFF	n/a	n/a	SHIELD	6	1	[0, 0, 0]	n/a	FR1	1	R1409D
222.815	1.6	1284345	WORD	n/a	wordpools/wordpool_long_EN.txt	CHALK	7	1	[0, 0, 0]	n/a	FR1	1	R1409D
224.415	0.933	1285946	WORD_OFF	n/a	n/a	CHALK	7	1	[0, 0, 0]	n/a	FR1	1	R1409D
225.348	1.6	1286882	WORD	n/a	wordpools/wordpool_long_EN.txt	TOOTH	8	1	[0, 0, 0]	n/a	FR1	1	R1409D
226.948	0.983	1288483	WORD_OFF	n/a	n/a	TOOTH	8	1	[0, 0, 0]	n/a	FR1	1	R1409D
227.931	1.617	1289463	WORD	n/a	wordpools/wordpool_long_EN.txt	DUST	9	1	[0, 0, 0]	n/a	FR1	1	R1409D
229.548	1.0	1291087	WORD_OFF	n/a	n/a	DUST	9	1	[0, 0, 0]	n/a	FR1	1	R1409D
230.548	1.617	1292079	WORD	n/a	wordpools/wordpool_long_EN.txt	LUNCH	10	1	[0, 0, 0]	n/a	FR1	1	R1409D
232.165	0.833	1293702	WORD_OFF	n/a	n/a	LUNCH	10	1	[0, 0, 0]	n/a	FR1	1	R1409D
232.998	1.6	1294536	WORD	n/a	wordpools/wordpool_long_EN.txt	TRIBE	11	1	[0, 0, 0]	n/a	FR1	1	R1409D
234.598	0.9	1296137	WORD_OFF	n/a	n/a	TRIBE	11	1	[0, 0, 0]	n/a	FR1	1	R1409D
235.498	1.6	1297027	WORD	n/a	wordpools/wordpool_long_EN.txt	YOLK	12	1	[0, 0, 0]	n/a	FR1	1	R1409D
237.098	0.001	1298628	WORD_OFF	n/a	n/a	YOLK	12	1	[0, 0, 0]	n/a	FR1	1	R1409D
237.099	0.0	1298632	START	n/a	n/a	n/a	-999	1	[-999, -999, -999]	n/a	FR1	1	R1409D
237.099	0.0	1298632	PROB	0.0	n/a	n/a	-999	1	[1, 5, 6]	12	FR1	1	R1409D
237.099	0.0	1298639	ENCODING_END	n/a	n/a	n/a	-999	1	[0, 0, 0]	n/a	FR1	1	R1409D
237.099	5.033	1298639	DISTRACT_START	n/a	n/a	n/a	-999	1	[0, 0, 0]	n/a	FR1	1	R1409D
242.132	5.065	1303665	PROB	5.065	n/a	n/a	-999	1	[4, 8, 4]	16	FR1	1	R1409D
247.197	5.15	1308729	PROB	5.15	n/a	n/a	-999	1	[4, 6, 8]	18	FR1	1	R1409D
252.347	4.718	1313879	PROB	4.718	n/a	n/a	-999	1	[6, 6, 3]	15	FR1	1	R1409D
257.065	4.483	1318597	PROB	4.483	n/a	n/a	-999	1	[3, 4, 4]	11	FR1	1	R1409D
261.548	0.0	1323079	DISTRACT_END	n/a	n/a	n/a	-999	1	[0, 0, 0]	n/a	FR1	1	R1409D
261.548	2.167	1323080	STOP	n/a	n/a	n/a	-999	1	[-999, -999, -999]	n/a	FR1	1	R1409D
263.715	1.818	1325251	REC_START	n/a	n/a	n/a	-999	1	[0, 0, 0]	n/a	FR1	1	R1409D
265.533	2.388	1327064	REC_WORD	2.388	n/a	BUSH	1	1	[0, 0, 0]	n/a	FR1	1	R1409D
267.921	18.164	1329452	REC_WORD	18.164	n/a	CHALK	7	1	[0, 0, 0]	n/a	FR1	1	R1409D
286.085	7.861	1347615	REC_WORD_VV	7.861	n/a	<>	-999	1	[0, 0, 0]	n/a	FR1	1	R1409D
293.946	2.801	1355476	REC_END	n/a	n/a	n/a	-999	1	[0, 0, 0]	n/a	FR1	1	R1409D
296.747	10.35	1358283	COUNTDOWN_START	n/a	n/a	n/a	-999	2	[0, 0, 0]	n/a	FR1	1	R1409D
307.097	0.0	1368632	COUNTDOWN_END	n/a	n/a	n/a	-999	2	[0, 0, 0]	n/a	FR1	1	R1409D
307.097	2.168	1368632	ENCODING_START	n/a	n/a	n/a	-999	2	[0, 0, 0]	n/a	FR1	1	R1409D
309.265	1.616	1370796	WORD	n/a	wordpools/wordpool_long_EN.txt	GOAL	1	2	[0, 0, 0]	n/a	FR1	1	R1409D
310.881	0.951	1372408	WORD_OFF	n/a	n/a	GOAL	1	2	[0, 0, 0]	n/a	FR1	1	R1409D
311.832	1.615	1373366	WORD	n/a	wordpools/wordpool_long_EN.txt	CHIN	2	2	[0, 0, 0]	n/a	FR1	1	R1409D
313.447	0.784	1374978	WORD_OFF	n/a	n/a	CHIN	2	2	[0, 0, 0]	n/a	FR1	1	R1409D
314.231	1.6	1375756	WORD	n/a	wordpools/wordpool_long_EN.txt	GLOVE	3	2	[0, 0, 0]	n/a	FR1	1	R1409D
315.831	0.783	1377357	WORD_OFF	n/a	n/a	GLOVE	3	2	[0, 0, 0]	n/a	FR1	1	R1409D
316.614	1.601	1378146	WORD	n/a	wordpools/wordpool_long_EN.txt	WOLF	4	2	[0, 0, 0]	n/a	FR1	1	R1409D
318.215	0.783	1379747	WORD_OFF	n/a	n/a	WOLF	4	2	[0, 0, 0]	n/a	FR1	1	R1409D
318.998	1.6	1380524	WORD	n/a	wordpools/wordpool_long_EN.txt	PIPE	5	2	[0, 0, 0]	n/a	FR1	1	R1409D
320.598	0.983	1382125	WORD_OFF	n/a	n/a	PIPE	5	2	[0, 0, 0]	n/a	FR1	1	R1409D
321.581	1.617	1383117	WORD	n/a	wordpools/wordpool_long_EN.txt	JAIL	6	2	[0, 0, 0]	n/a	FR1	1	R1409D
323.198	0.817	1384729	WORD_OFF	n/a	n/a	JAIL	6	2	[0, 0, 0]	n/a	FR1	1	R1409D
324.015	1.601	1385541	WORD	n/a	wordpools/wordpool_long_EN.txt	SLIME	7	2	[0, 0, 0]	n/a	FR1	1	R1409D
325.616	0.815	1387141	WORD_OFF	n/a	n/a	SLIME	7	2	[0, 0, 0]	n/a	FR1	1	R1409D
326.431	1.616	1387964	WORD	n/a	wordpools/wordpool_long_EN.txt	PERCH	8	2	[0, 0, 0]	n/a	FR1	1	R1409D
328.047	0.884	1389576	WORD_OFF	n/a	n/a	PERCH	8	2	[0, 0, 0]	n/a	FR1	1	R1409D
328.931	1.6	1390456	WORD	n/a	wordpools/wordpool_long_EN.txt	STICK	9	2	[0, 0, 0]	n/a	FR1	1	R1409D
330.531	0.817	1392056	WORD_OFF	n/a	n/a	STICK	9	2	[0, 0, 0]	n/a	FR1	1	R1409D
331.348	1.6	1392879	WORD	n/a	wordpools/wordpool_long_EN.txt	STRAW	10	2	[0, 0, 0]	n/a	FR1	1	R1409D
332.948	0.817	1394480	WORD_OFF	n/a	n/a	STRAW	10	2	[0, 0, 0]	n/a	FR1	1	R1409D
333.765	1.6	1395292	WORD	n/a	wordpools/wordpool_long_EN.txt	MAT	11	2	[0, 0, 0]	n/a	FR1	1	R1409D
335.365	0.9	1396892	WORD_OFF	n/a	n/a	MAT	11	2	[0, 0, 0]	n/a	FR1	1	R1409D
336.265	1.616	1397794	WORD	n/a	wordpools/wordpool_long_EN.txt	HAZE	12	2	[0, 0, 0]	n/a	FR1	1	R1409D
337.881	0.0	1399406	WORD_OFF	n/a	n/a	HAZE	12	2	[0, 0, 0]	n/a	FR1	1	R1409D
337.881	0.002	1399409	PROB	0.002	n/a	n/a	-999	2	[8, 6, 4]	18	FR1	1	R1409D
337.883	0.0	1399411	START	n/a	n/a	n/a	-999	2	[-999, -999, -999]	n/a	FR1	1	R1409D
337.883	0.0	1399417	ENCODING_END	n/a	n/a	n/a	-999	2	[0, 0, 0]	n/a	FR1	1	R1409D
337.883	7.665	1399417	DISTRACT_START	n/a	n/a	n/a	-999	2	[0, 0, 0]	n/a	FR1	1	R1409D
345.548	4.4	1407075	PROB	4.4	n/a	n/a	-999	2	[6, 4, 5]	15	FR1	1	R1409D
349.948	4.6	1411475	PROB	4.6	n/a	n/a	-999	2	[7, 7, 6]	20	FR1	1	R1409D
354.548	4.866	1416075	PROB	4.866	n/a	n/a	-999	2	[5, 5, 8]	18	FR1	1	R1409D
359.414	0.0	1420937	DISTRACT_END	n/a	n/a	n/a	-999	2	[0, 0, 0]	n/a	FR1	1	R1409D
359.414	2.034	1420941	STOP	n/a	n/a	n/a	-999	2	[-999, -999, -999]	n/a	FR1	1	R1409D
361.448	0.704	1422974	REC_START	n/a	n/a	n/a	-999	2	[0, 0, 0]	n/a	FR1	1	R1409D
362.152	2.049	1423679	REC_WORD	2.049	n/a	GOAL	1	2	[0, 0, 0]	n/a	FR1	1	R1409D
364.201	3.965	1425727	REC_WORD_VV	3.965	n/a	<>	-999	2	[0, 0, 0]	n/a	FR1	1	R1409D
368.166	10.928	1429692	REC_WORD_VV	10.928	n/a	<>	-999	2	[0, 0, 0]	n/a	FR1	1	R1409D
379.094	7.757	1440620	REC_WORD	7.757	n/a	FRIEND	-999	2	[0, 0, 0]	n/a	FR1	1	R1409D
386.851	4.825	1448376	REC_WORD_VV	4.825	n/a	<>	-999	2	[0, 0, 0]	n/a	FR1	1	R1409D
391.676	2.206	1453200	REC_END	n/a	n/a	n/a	-999	2	[0, 0, 0]	n/a	FR1	1	R1409D
393.882	10.35	1455409	COUNTDOWN_START	n/a	n/a	n/a	-999	3	[0, 0, 0]	n/a	FR1	1	R1409D
404.232	0.0	1465757	COUNTDOWN_END	n/a	n/a	n/a	-999	3	[0, 0, 0]	n/a	FR1	1	R1409D
404.232	2.132	1465757	ENCODING_START	n/a	n/a	n/a	-999	3	[0, 0, 0]	n/a	FR1	1	R1409D
406.364	1.601	1467888	WORD	n/a	wordpools/wordpool_long_EN.txt	BREAD	1	3	[0, 0, 0]	n/a	FR1	1	R1409D
407.965	0.766	1469489	WORD_OFF	n/a	n/a	BREAD	1	3	[0, 0, 0]	n/a	FR1	1	R1409D
408.731	1.6	1470255	WORD	n/a	wordpools/wordpool_long_EN.txt	KITE	2	3	[0, 0, 0]	n/a	FR1	1	R1409D
410.331	1.0	1471856	WORD_OFF	n/a	n/a	KITE	2	3	[0, 0, 0]	n/a	FR1	1	R1409D
411.331	1.6	1472859	WORD	n/a	wordpools/wordpool_long_EN.txt	ROAD	3	3	[0, 0, 0]	n/a	FR1	1	R1409D
412.931	0.966	1474460	WORD_OFF	n/a	n/a	ROAD	3	3	[0, 0, 0]	n/a	FR1	1	R1409D
413.897	1.6	1475418	WORD	n/a	wordpools/wordpool_long_EN.txt	CUBE	4	3	[0, 0, 0]	n/a	FR1	1	R1409D
415.497	0.801	1477019	WORD_OFF	n/a	n/a	CUBE	4	3	[0, 0, 0]	n/a	FR1	1	R1409D
416.298	1.6	1477819	WORD	n/a	wordpools/wordpool_long_EN.txt	STEAK	5	3	[0, 0, 0]	n/a	FR1	1	R1409D
417.898	0.833	1479420	WORD_OFF	n/a	n/a	STEAK	5	3	[0, 0, 0]	n/a	FR1	1	R1409D
418.731	1.6	1480254	WORD	n/a	wordpools/wordpool_long_EN.txt	WORLD	6	3	[0, 0, 0]	n/a	FR1	1	R1409D
420.331	0.867	1481855	WORD_OFF	n/a	n/a	WORLD	6	3	[0, 0, 0]	n/a	FR1	1	R1409D
421.198	1.6	1482723	WORD	n/a	wordpools/wordpool_long_EN.txt	BENCH	7	3	[0, 0, 0]	n/a	FR1	1	R1409D
422.798	0.799	1484324	WORD_OFF	n/a	n/a	BENCH	7	3	[0, 0, 0]	n/a	FR1	1	R1409D
423.597	1.601	1485124	WORD	n/a	wordpools/wordpool_long_EN.txt	LAWN	8	3	[0, 0, 0]	n/a	FR1	1	R1409D
425.198	0.783	1486725	WORD_OFF	n/a	n/a	LAWN	8	3	[0, 0, 0]	n/a	FR1	1	R1409D
425.981	1.617	1487502	WORD	n/a	wordpools/wordpool_long_EN.txt	SQUARE	9	3	[0, 0, 0]	n/a	FR1	1	R1409D
427.598	0.983	1489126	WORD_OFF	n/a	n/a	SQUARE	9	3	[0, 0, 0]	n/a	FR1	1	R1409D
428.581	1.616	1490106	WORD	n/a	wordpools/wordpool_long_EN.txt	CANE	10	3	[0, 0, 0]	n/a	FR1	1	R1409D
430.197	1.0	1491718	WORD_OFF	n/a	n/a	CANE	10	3	[0, 0, 0]	n/a	FR1	1	R1409D
431.197	1.601	1492722	WORD	n/a	wordpools/wordpool_long_EN.txt	SPACE	11	3	[0, 0, 0]	n/a	FR1	1	R1409D
432.798	0.95	1494322	WORD_OFF	n/a	n/a	SPACE	11	3	[0, 0, 0]	n/a	FR1	1	R1409D
433.748	1.6	1495269	WORD	n/a	wordpools/wordpool_long_EN.txt	CARD	12	3	[0, 0, 0]	n/a	FR1	1	R1409D
435.348	0.001	1496870	WORD_OFF	n/a	n/a	CARD	12	3	[0, 0, 0]	n/a	FR1	1	R1409D
435.349	0.0	1496870	ENCODING_END	n/a	n/a	n/a	-999	3	[0, 0, 0]	n/a	FR1	1	R1409D
435.348	0.001	1496871	PROB	0.001	n/a	n/a	-999	3	[4, 3, 6]	13	FR1	1	R1409D
435.349	0.0	1496872	START	n/a	n/a	n/a	-999	3	[-999, -999, -999]	n/a	FR1	1	R1409D
435.349	4.899	1496881	DISTRACT_START	n/a	n/a	n/a	-999	3	[0, 0, 0]	n/a	FR1	1	R1409D
440.248	4.717	1501771	PROB	4.717	n/a	n/a	-999	3	[4, 5, 7]	16	FR1	1	R1409D
444.965	4.95	1506487	PROB	4.95	n/a	n/a	-999	3	[2, 1, 3]	6	FR1	1	R1409D
449.915	4.049	1511437	PROB	4.049	n/a	n/a	-999	3	[4, 2, 3]	9	FR1	1	R1409D
453.964	3.467	1515486	PROB	3.467	n/a	n/a	-999	3	[2, 8, 1]	11	FR1	1	R1409D
457.431	0.0	1518953	DISTRACT_END	n/a	n/a	n/a	-999	3	[0, 0, 0]	n/a	FR1	1	R1409D
457.431	2.016	1518953	STOP	n/a	n/a	n/a	-999	3	[-999, -999, -999]	n/a	FR1	1	R1409D
459.447	2.527	1520968	REC_START	n/a	n/a	n/a	-999	3	[0, 0, 0]	n/a	FR1	1	R1409D
461.974	2.647	1523496	REC_WORD	2.647	n/a	SQUARE	9	3	[0, 0, 0]	n/a	FR1	1	R1409D
464.621	2.444	1526142	REC_WORD	2.444	n/a	CARD	12	3	[0, 0, 0]	n/a	FR1	1	R1409D
467.065	6.997	1528586	REC_WORD	6.997	n/a	LAWN	8	3	[0, 0, 0]	n/a	FR1	1	R1409D
474.062	15.635	1535583	REC_WORD_VV	15.635	n/a	<>	-999	3	[0, 0, 0]	n/a	FR1	1	R1409D
489.697	1.801	1551216	REC_END	n/a	n/a	n/a	-999	3	[0, 0, 0]	n/a	FR1	1	R1409D
491.498	10.35	1553019	COUNTDOWN_START	n/a	n/a	n/a	-999	4	[0, 0, 0]	n/a	FR1	1	R1409D
501.848	0.001	1563368	COUNTDOWN_END	n/a	n/a	n/a	-999	4	[0, 0, 0]	n/a	FR1	1	R1409D
501.849	1.916	1563368	ENCODING_START	n/a	n/a	n/a	-999	4	[0, 0, 0]	n/a	FR1	1	R1409D
503.765	1.616	1565284	WORD	n/a	wordpools/wordpool_long_EN.txt	SIGN	1	4	[0, 0, 0]	n/a	FR1	1	R1409D
505.381	0.934	1566907	WORD_OFF	n/a	n/a	SIGN	1	4	[0, 0, 0]	n/a	FR1	1	R1409D
506.315	1.6	1567832	WORD	n/a	wordpools/wordpool_long_EN.txt	OAR	2	4	[0, 0, 0]	n/a	FR1	1	R1409D
507.915	0.882	1569433	WORD_OFF	n/a	n/a	OAR	2	4	[0, 0, 0]	n/a	FR1	1	R1409D
508.797	1.601	1570323	WORD	n/a	wordpools/wordpool_long_EN.txt	BLUSH	3	4	[0, 0, 0]	n/a	FR1	1	R1409D
510.398	0.9	1571924	WORD_OFF	n/a	n/a	BLUSH	3	4	[0, 0, 0]	n/a	FR1	1	R1409D
511.298	1.617	1572814	WORD	n/a	wordpools/wordpool_long_EN.txt	SNAKE	4	4	[0, 0, 0]	n/a	FR1	1	R1409D
512.915	0.916	1574438	WORD_OFF	n/a	n/a	SNAKE	4	4	[0, 0, 0]	n/a	FR1	1	R1409D
513.831	1.617	1575351	WORD	n/a	wordpools/wordpool_long_EN.txt	POLE	5	4	[0, 0, 0]	n/a	FR1	1	R1409D
515.448	0.849	1576963	WORD_OFF	n/a	n/a	POLE	5	4	[0, 0, 0]	n/a	FR1	1	R1409D
516.297	1.601	1577819	WORD	n/a	wordpools/wordpool_long_EN.txt	FOOD	6	4	[0, 0, 0]	n/a	FR1	1	R1409D
517.898	0.917	1579420	WORD_OFF	n/a	n/a	FOOD	6	4	[0, 0, 0]	n/a	FR1	1	R1409D
518.815	1.6	1580333	WORD	n/a	wordpools/wordpool_long_EN.txt	MOON	7	4	[0, 0, 0]	n/a	FR1	1	R1409D
520.415	0.833	1581934	WORD_OFF	n/a	n/a	MOON	7	4	[0, 0, 0]	n/a	FR1	1	R1409D
521.248	1.6	1582768	WORD	n/a	wordpools/wordpool_long_EN.txt	TILE	8	4	[0, 0, 0]	n/a	FR1	1	R1409D
522.848	0.983	1584369	WORD_OFF	n/a	n/a	TILE	8	4	[0, 0, 0]	n/a	FR1	1	R1409D
523.831	1.6	1585350	WORD	n/a	wordpools/wordpool_long_EN.txt	SKATE	9	4	[0, 0, 0]	n/a	FR1	1	R1409D
525.431	0.934	1586950	WORD_OFF	n/a	n/a	SKATE	9	4	[0, 0, 0]	n/a	FR1	1	R1409D
526.365	1.6	1587886	WORD	n/a	wordpools/wordpool_long_EN.txt	BOX	10	4	[0, 0, 0]	n/a	FR1	1	R1409D
527.965	0.933	1589487	WORD_OFF	n/a	n/a	BOX	10	4	[0, 0, 0]	n/a	FR1	1	R1409D
528.898	1.616	1590422	WORD	n/a	wordpools/wordpool_long_EN.txt	HEART	11	4	[0, 0, 0]	n/a	FR1	1	R1409D
530.514	0.833	1592034	WORD_OFF	n/a	n/a	HEART	11	4	[0, 0, 0]	n/a	FR1	1	R1409D
531.347	1.601	1592869	WORD	n/a	wordpools/wordpool_long_EN.txt	DOCK	12	4	[0, 0, 0]	n/a	FR1	1	R1409D
532.948	0.001	1594466	PROB	0.001	n/a	n/a	-999	4	[5, 3, 8]	16	FR1	1	R1409D
532.949	0.0	1594467	START	n/a	n/a	n/a	-999	4	[-999, -999, -999]	n/a	FR1	1	R1409D
532.948	0.001	1594469	WORD_OFF	n/a	n/a	DOCK	12	4	[0, 0, 0]	n/a	FR1	1	R1409D
532.949	0.0	1594469	ENCODING_END	n/a	n/a	n/a	-999	4	[0, 0, 0]	n/a	FR1	1	R1409D
532.949	4.665	1594469	DISTRACT_START	n/a	n/a	n/a	-999	4	[0, 0, 0]	n/a	FR1	1	R1409D
537.614	2.901	1599132	PROB	2.901	n/a	n/a	-999	4	[3, 3, 1]	7	FR1	1	R1409D
540.515	3.683	1602033	PROB	3.683	n/a	n/a	-999	4	[4, 3, 5]	12	FR1	1	R1409D
544.198	7.033	1605715	PROB	7.033	n/a	n/a	-999	4	[8, 2, 8]	18	FR1	1	R1409D
551.231	5.083	1612748	PROB	5.083	n/a	n/a	-999	4	[4, 5, 8]	17	FR1	1	R1409D
556.314	0.0	1617827	DISTRACT_END	n/a	n/a	n/a	-999	4	[0, 0, 0]	n/a	FR1	1	R1409D
556.314	2.267	1617831	STOP	n/a	n/a	n/a	-999	4	[-999, -999, -999]	n/a	FR1	1	R1409D
558.581	0.812	1620100	REC_START	n/a	n/a	n/a	-999	4	[0, 0, 0]	n/a	FR1	1	R1409D
559.393	0.961	1620910	REC_WORD	0.961	n/a	HEART	11	4	[0, 0, 0]	n/a	FR1	1	R1409D
560.354	4.968	1621871	REC_WORD	4.968	n/a	BOX	10	4	[0, 0, 0]	n/a	FR1	1	R1409D
565.322	3.89	1626838	REC_WORD	3.89	n/a	TOOL	-999	4	[0, 0, 0]	n/a	FR1	1	R1409D
569.212	4.58	1630728	REC_WORD_VV	4.58	n/a	<>	-999	4	[0, 0, 0]	n/a	FR1	1	R1409D
573.792	15.03	1635308	REC_WORD	15.03	n/a	BUSH	-999	4	[0, 0, 0]	n/a	FR1	1	R1409D
588.822	1.742	1650337	REC_END	n/a	n/a	n/a	-999	4	[0, 0, 0]	n/a	FR1	1	R1409D
590.564	10.351	1652084	COUNTDOWN_START	n/a	n/a	n/a	-999	5	[0, 0, 0]	n/a	FR1	1	R1409D
600.915	0.0	1662432	COUNTDOWN_END	n/a	n/a	n/a	-999	5	[0, 0, 0]	n/a	FR1	1	R1409D
600.915	2.166	1662432	ENCODING_START	n/a	n/a	n/a	-999	5	[0, 0, 0]	n/a	FR1	1	R1409D
603.081	1.6	1664597	WORD	n/a	wordpools/wordpool_long_EN.txt	FARM	1	5	[0, 0, 0]	n/a	FR1	1	R1409D
604.681	0.9	1666198	WORD_OFF	n/a	n/a	FARM	1	5	[0, 0, 0]	n/a	FR1	1	R1409D
605.581	1.6	1667099	WORD	n/a	wordpools/wordpool_long_EN.txt	FOAM	2	5	[0, 0, 0]	n/a	FR1	1	R1409D
607.181	0.917	1668700	WORD_OFF	n/a	n/a	FOAM	2	5	[0, 0, 0]	n/a	FR1	1	R1409D
608.098	1.6	1669613	WORD	n/a	wordpools/wordpool_long_EN.txt	MOLE	3	5	[0, 0, 0]	n/a	FR1	1	R1409D
609.698	0.85	1671214	WORD_OFF	n/a	n/a	MOLE	3	5	[0, 0, 0]	n/a	FR1	1	R1409D
610.548	1.6	1672059	WORD	n/a	wordpools/wordpool_long_EN.txt	MOOSE	4	5	[0, 0, 0]	n/a	FR1	1	R1409D
612.148	0.8	1673660	WORD_OFF	n/a	n/a	MOOSE	4	5	[0, 0, 0]	n/a	FR1	1	R1409D
612.948	1.616	1674460	WORD	n/a	wordpools/wordpool_long_EN.txt	PIN	5	5	[0, 0, 0]	n/a	FR1	1	R1409D
614.564	0.817	1676084	WORD_OFF	n/a	n/a	PIN	5	5	[0, 0, 0]	n/a	FR1	1	R1409D
615.381	1.616	1676895	WORD	n/a	wordpools/wordpool_long_EN.txt	RIB	6	5	[0, 0, 0]	n/a	FR1	1	R1409D
616.997	0.834	1678507	WORD_OFF	n/a	n/a	RIB	6	5	[0, 0, 0]	n/a	FR1	1	R1409D
617.831	1.6	1679342	WORD	n/a	wordpools/wordpool_long_EN.txt	HOOK	7	5	[0, 0, 0]	n/a	FR1	1	R1409D
619.431	0.784	1680942	WORD_OFF	n/a	n/a	HOOK	7	5	[0, 0, 0]	n/a	FR1	1	R1409D
620.215	1.6	1681731	WORD	n/a	wordpools/wordpool_long_EN.txt	CLAY	8	5	[0, 0, 0]	n/a	FR1	1	R1409D
621.815	0.816	1683332	WORD_OFF	n/a	n/a	CLAY	8	5	[0, 0, 0]	n/a	FR1	1	R1409D
622.631	1.6	1684144	WORD	n/a	wordpools/wordpool_long_EN.txt	STAR	9	5	[0, 0, 0]	n/a	FR1	1	R1409D
624.231	0.9	1685744	WORD_OFF	n/a	n/a	STAR	9	5	[0, 0, 0]	n/a	FR1	1	R1409D
625.131	1.617	1686646	WORD	n/a	wordpools/wordpool_long_EN.txt	MOUTH	10	5	[0, 0, 0]	n/a	FR1	1	R1409D
626.748	0.883	1688258	WORD_OFF	n/a	n/a	MOUTH	10	5	[0, 0, 0]	n/a	FR1	1	R1409D
627.631	1.6	1689149	WORD	n/a	wordpools/wordpool_long_EN.txt	SPOUSE	11	5	[0, 0, 0]	n/a	FR1	1	R1409D
629.231	0.983	1690750	WORD_OFF	n/a	n/a	SPOUSE	11	5	[0, 0, 0]	n/a	FR1	1	R1409D
630.214	1.601	1691730	WORD	n/a	wordpools/wordpool_long_EN.txt	SPEAR	12	5	[0, 0, 0]	n/a	FR1	1	R1409D
631.815	0.001	1693328	PROB	0.001	n/a	n/a	-999	5	[4, 3, 1]	8	FR1	1	R1409D
631.816	0.0	1693329	START	n/a	n/a	n/a	-999	5	[-999, -999, -999]	n/a	FR1	1	R1409D
631.814	0.002	1693331	WORD_OFF	n/a	n/a	SPEAR	12	5	[0, 0, 0]	n/a	FR1	1	R1409D
631.816	0.0	1693331	ENCODING_END	n/a	n/a	n/a	-999	5	[0, 0, 0]	n/a	FR1	1	R1409D
631.816	4.732	1693331	DISTRACT_START	n/a	n/a	n/a	-999	5	[0, 0, 0]	n/a	FR1	1	R1409D
636.548	5.4	1698061	PROB	5.4	n/a	n/a	-999	5	[5, 8, 1]	14	FR1	1	R1409D
641.948	3.066	1703461	PROB	3.066	n/a	n/a	-999	5	[1, 4, 2]	7	FR1	1	R1409D
645.014	5.451	1706526	PROB	5.451	n/a	n/a	-999	5	[7, 8, 5]	20	FR1	1	R1409D
650.465	4.049	1711977	PROB	4.049	n/a	n/a	-999	5	[6, 2, 4]	12	FR1	1	R1409D
654.514	0.0	1716023	DISTRACT_END	n/a	n/a	n/a	-999	5	[0, 0, 0]	n/a	FR1	1	R1409D
654.514	2.216	1716026	STOP	n/a	n/a	n/a	-999	5	[-999, -999, -999]	n/a	FR1	1	R1409D
656.73	1.831	1718240	REC_START	n/a	n/a	n/a	-999	5	[0, 0, 0]	n/a	FR1	1	R1409D
658.561	0.978	1720073	REC_WORD	0.978	n/a	MOUTH	10	5	[0, 0, 0]	n/a	FR1	1	R1409D
659.539	5.399	1721051	REC_WORD	5.399	n/a	SPOUSE	11	5	[0, 0, 0]	n/a	FR1	1	R1409D
664.938	14.351	1726449	REC_WORD_VV	14.351	n/a	<>	-999	5	[0, 0, 0]	n/a	FR1	1	R1409D
679.289	3.471	1740800	REC_WORD_VV	3.471	n/a	<>	-999	5	[0, 0, 0]	n/a	FR1	1	R1409D
682.76	1.0	1744271	REC_WORD_VV	1.0	n/a	<>	-999	5	[0, 0, 0]	n/a	FR1	1	R1409D
683.76	3.183	1745270	REC_WORD_VV	3.183	n/a	<>	-999	5	[0, 0, 0]	n/a	FR1	1	R1409D
686.943	2.572	1748455	REC_END	n/a	n/a	n/a	-999	5	[0, 0, 0]	n/a	FR1	1	R1409D
689.515	10.35	1751025	COUNTDOWN_START	n/a	n/a	n/a	-999	6	[0, 0, 0]	n/a	FR1	1	R1409D
699.865	0.0	1761373	COUNTDOWN_END	n/a	n/a	n/a	-999	6	[0, 0, 0]	n/a	FR1	1	R1409D
699.865	2.3	1761373	ENCODING_START	n/a	n/a	n/a	-999	6	[0, 0, 0]	n/a	FR1	1	R1409D
702.165	1.616	1763673	WORD	n/a	wordpools/wordpool_long_EN.txt	TRASH	1	6	[0, 0, 0]	n/a	FR1	1	R1409D
703.781	0.8	1765296	WORD_OFF	n/a	n/a	TRASH	1	6	[0, 0, 0]	n/a	FR1	1	R1409D
704.581	1.6	1766096	WORD	n/a	wordpools/wordpool_long_EN.txt	HAT	2	6	[0, 0, 0]	n/a	FR1	1	R1409D
706.181	0.817	1767697	WORD_OFF	n/a	n/a	HAT	2	6	[0, 0, 0]	n/a	FR1	1	R1409D
706.998	1.6	1768509	WORD	n/a	wordpools/wordpool_long_EN.txt	PEA	3	6	[0, 0, 0]	n/a	FR1	1	R1409D
708.598	0.95	1770109	WORD_OFF	n/a	n/a	PEA	3	6	[0, 0, 0]	n/a	FR1	1	R1409D
709.548	1.617	1771056	WORD	n/a	wordpools/wordpool_long_EN.txt	FRAME	4	6	[0, 0, 0]	n/a	FR1	1	R1409D
711.165	0.85	1772680	WORD_OFF	n/a	n/a	FRAME	4	6	[0, 0, 0]	n/a	FR1	1	R1409D
712.015	1.6	1773525	WORD	n/a	wordpools/wordpool_long_EN.txt	RICE	5	6	[0, 0, 0]	n/a	FR1	1	R1409D
713.615	0.766	1775126	WORD_OFF	n/a	n/a	RICE	5	6	[0, 0, 0]	n/a	FR1	1	R1409D
714.381	1.6	1775892	WORD	n/a	wordpools/wordpool_long_EN.txt	CHIEF	6	6	[0, 0, 0]	n/a	FR1	1	R1409D
715.981	0.85	1777493	WORD_OFF	n/a	n/a	CHIEF	6	6	[0, 0, 0]	n/a	FR1	1	R1409D
716.831	1.617	1778339	WORD	n/a	wordpools/wordpool_long_EN.txt	PAIL	7	6	[0, 0, 0]	n/a	FR1	1	R1409D
718.448	0.85	1779962	WORD_OFF	n/a	n/a	PAIL	7	6	[0, 0, 0]	n/a	FR1	1	R1409D
719.298	1.616	1780807	WORD	n/a	wordpools/wordpool_long_EN.txt	HOOD	8	6	[0, 0, 0]	n/a	FR1	1	R1409D
720.914	0.816	1782419	WORD_OFF	n/a	n/a	HOOD	8	6	[0, 0, 0]	n/a	FR1	1	R1409D
721.73	1.601	1783242	WORD	n/a	wordpools/wordpool_long_EN.txt	FORT	9	6	[0, 0, 0]	n/a	FR1	1	R1409D
723.331	0.933	1784843	WORD_OFF	n/a	n/a	FORT	9	6	[0, 0, 0]	n/a	FR1	1	R1409D
724.264	1.6	1785779	WORD	n/a	wordpools/wordpool_long_EN.txt	FACE	10	6	[0, 0, 0]	n/a	FR1	1	R1409D
725.864	0.967	1787379	WORD_OFF	n/a	n/a	FACE	10	6	[0, 0, 0]	n/a	FR1	1	R1409D
726.831	1.6	1788337	WORD	n/a	wordpools/wordpool_long_EN.txt	PLATE	11	6	[0, 0, 0]	n/a	FR1	1	R1409D
728.431	0.883	1789938	WORD_OFF	n/a	n/a	PLATE	11	6	[0, 0, 0]	n/a	FR1	1	R1409D
729.314	1.6	1790817	WORD	n/a	wordpools/wordpool_long_EN.txt	VEST	12	6	[0, 0, 0]	n/a	FR1	1	R1409D
730.914	0.0	1792418	WORD_OFF	n/a	n/a	VEST	12	6	[0, 0, 0]	n/a	FR1	1	R1409D
730.914	0.002	1792422	PROB	0.002	n/a	n/a	-999	6	[2, 6, 1]	9	FR1	1	R1409D
730.916	0.0	1792424	START	n/a	n/a	n/a	-999	6	[-999, -999, -999]	n/a	FR1	1	R1409D
730.916	0.0	1792429	ENCODING_END	n/a	n/a	n/a	-999	6	[0, 0, 0]	n/a	FR1	1	R1409D
730.916	3.848	1792429	DISTRACT_START	n/a	n/a	n/a	-999	6	[0, 0, 0]	n/a	FR1	1	R1409D
734.764	5.151	1796272	PROB	5.151	n/a	n/a	-999	6	[8, 8, 1]	17	FR1	1	R1409D
739.915	4.332	1801423	PROB	4.332	n/a	n/a	-999	6	[3, 1, 2]	6	FR1	1	R1409D
744.247	6.368	1805754	PROB	6.368	n/a	n/a	-999	6	[6, 7, 4]	17	FR1	1	R1409D
750.615	4.666	1812122	PROB	4.666	n/a	n/a	-999	6	[3, 5, 1]	9	FR1	1	R1409D
755.281	0.0	1816788	STOP	n/a	n/a	n/a	-999	6	[-999, -999, -999]	n/a	FR1	1	R1409D
755.281	2.401	1816790	DISTRACT_END	n/a	n/a	n/a	-999	6	[0, 0, 0]	n/a	FR1	1	R1409D
757.682	1.51	1819188	REC_START	n/a	n/a	n/a	-999	6	[0, 0, 0]	n/a	FR1	1	R1409D
759.192	1.837	1820699	REC_WORD	1.837	n/a	TRASH	1	6	[0, 0, 0]	n/a	FR1	1	R1409D
761.029	0.855	1822536	REC_WORD	0.855	n/a	FACE	10	6	[0, 0, 0]	n/a	FR1	1	R1409D
761.884	1.784	1823391	REC_WORD	1.784	n/a	PLATE	11	6	[0, 0, 0]	n/a	FR1	1	R1409D
763.668	4.837	1825174	REC_WORD	4.837	n/a	CHIEF	6	6	[0, 0, 0]	n/a	FR1	1	R1409D
768.505	18.784	1830011	REC_WORD_VV	18.784	n/a	<>	-999	6	[0, 0, 0]	n/a	FR1	1	R1409D
787.289	0.617	1848794	REC_WORD	0.617	n/a	GLASS	-999	6	[0, 0, 0]	n/a	FR1	1	R1409D
787.906	2.009	1849413	REC_END	n/a	n/a	n/a	-999	6	[0, 0, 0]	n/a	FR1	1	R1409D
789.915	10.35	1851420	COUNTDOWN_START	n/a	n/a	n/a	-999	7	[0, 0, 0]	n/a	FR1	1	R1409D
800.265	0.0	1861768	COUNTDOWN_END	n/a	n/a	n/a	-999	7	[0, 0, 0]	n/a	FR1	1	R1409D
800.265	2.149	1861768	ENCODING_START	n/a	n/a	n/a	-999	7	[0, 0, 0]	n/a	FR1	1	R1409D
802.414	1.601	1863921	WORD	n/a	wordpools/wordpool_long_EN.txt	LOCK	1	7	[0, 0, 0]	n/a	FR1	1	R1409D
804.015	0.916	1865522	WORD_OFF	n/a	n/a	LOCK	1	7	[0, 0, 0]	n/a	FR1	1	R1409D
804.931	1.6	1866435	WORD	n/a	wordpools/wordpool_long_EN.txt	SLIDE	2	7	[0, 0, 0]	n/a	FR1	1	R1409D
806.531	0.849	1868036	WORD_OFF	n/a	n/a	SLIDE	2	7	[0, 0, 0]	n/a	FR1	1	R1409D
807.38	1.601	1868881	WORD	n/a	wordpools/wordpool_long_EN.txt	PARK	3	7	[0, 0, 0]	n/a	FR1	1	R1409D
808.981	0.816	1870482	WORD_OFF	n/a	n/a	PARK	3	7	[0, 0, 0]	n/a	FR1	1	R1409D
809.797	1.601	1871305	WORD	n/a	wordpools/wordpool_long_EN.txt	RAKE	4	7	[0, 0, 0]	n/a	FR1	1	R1409D
811.398	0.9	1872905	WORD_OFF	n/a	n/a	RAKE	4	7	[0, 0, 0]	n/a	FR1	1	R1409D
812.298	1.616	1873807	WORD	n/a	wordpools/wordpool_long_EN.txt	SLUG	5	7	[0, 0, 0]	n/a	FR1	1	R1409D
813.914	0.95	1875419	WORD_OFF	n/a	n/a	SLUG	5	7	[0, 0, 0]	n/a	FR1	1	R1409D
814.864	1.6	1876366	WORD	n/a	wordpools/wordpool_long_EN.txt	CAGE	6	7	[0, 0, 0]	n/a	FR1	1	R1409D
816.464	0.883	1877967	WORD_OFF	n/a	n/a	CAGE	6	7	[0, 0, 0]	n/a	FR1	1	R1409D
817.347	1.6	1878857	WORD	n/a	wordpools/wordpool_long_EN.txt	SOUP	7	7	[0, 0, 0]	n/a	FR1	1	R1409D
818.947	0.834	1880447	WORD_OFF	n/a	n/a	SOUP	7	7	[0, 0, 0]	n/a	FR1	1	R1409D
819.781	1.616	1881281	WORD	n/a	wordpools/wordpool_long_EN.txt	BRICK	8	7	[0, 0, 0]	n/a	FR1	1	R1409D
821.397	1.0	1882904	WORD_OFF	n/a	n/a	BRICK	8	7	[0, 0, 0]	n/a	FR1	1	R1409D
822.397	1.617	1883896	WORD	n/a	wordpools/wordpool_long_EN.txt	BUG	9	7	[0, 0, 0]	n/a	FR1	1	R1409D
824.014	0.917	1885520	WORD_OFF	n/a	n/a	BUG	9	7	[0, 0, 0]	n/a	FR1	1	R1409D
824.931	1.6	1886433	WORD	n/a	wordpools/wordpool_long_EN.txt	FENCE	10	7	[0, 0, 0]	n/a	FR1	1	R1409D
826.531	0.966	1888033	WORD_OFF	n/a	n/a	FENCE	10	7	[0, 0, 0]	n/a	FR1	1	R1409D
827.497	1.6	1889003	WORD	n/a	wordpools/wordpool_long_EN.txt	THUMB	11	7	[0, 0, 0]	n/a	FR1	1	R1409D
829.097	0.984	1890604	WORD_OFF	n/a	n/a	THUMB	11	7	[0, 0, 0]	n/a	FR1	1	R1409D
830.081	1.6	1891584	WORD	n/a	wordpools/wordpool_long_EN.txt	SHIP	12	7	[0, 0, 0]	n/a	FR1	1	R1409D
831.681	0.001	1893185	WORD_OFF	n/a	n/a	SHIP	12	7	[0, 0, 0]	n/a	FR1	1	R1409D
831.682	0.0	1893185	ENCODING_END	n/a	n/a	n/a	-999	7	[0, 0, 0]	n/a	FR1	1	R1409D
831.682	0.0	1893185	DISTRACT_START	n/a	n/a	n/a	-999	7	[0, 0, 0]	n/a	FR1	1	R1409D
831.682	0.0	1893185	START	n/a	n/a	n/a	-999	7	[-999, -999, -999]	n/a	FR1	1	R1409D
831.682	7.966	1893185	PROB	7.966	n/a	n/a	-999	7	[6, 7, 8]	21	FR1	1	R1409D
839.648	3.5	1901151	PROB	3.5	n/a	n/a	-999	7	[8, 2, 4]	14	FR1	1	R1409D
843.148	5.784	1904650	PROB	5.784	n/a	n/a	-999	7	[4, 8, 3]	15	FR1	1	R1409D
848.932	5.065	1910434	PROB	5.065	n/a	n/a	-999	7	[8, 7, 6]	21	FR1	1	R1409D
853.997	0.0	1915499	STOP	n/a	n/a	n/a	-999	7	[-999, -999, -999]	n/a	FR1	1	R1409D
853.997	2.201	1915505	DISTRACT_END	n/a	n/a	n/a	-999	7	[0, 0, 0]	n/a	FR1	1	R1409D
856.198	0.955	1917700	REC_START	n/a	n/a	n/a	-999	7	[0, 0, 0]	n/a	FR1	1	R1409D
857.153	1.82	1918655	REC_WORD	1.82	n/a	BRICK	8	7	[0, 0, 0]	n/a	FR1	1	R1409D
858.973	15.358	1920475	REC_WORD	15.358	n/a	BUG	9	7	[0, 0, 0]	n/a	FR1	1	R1409D
874.331	2.257	1935832	REC_WORD	2.257	n/a	SLOTH	-999	7	[0, 0, 0]	n/a	FR1	1	R1409D
876.588	0.08	1938089	REC_WORD_VV	0.08	n/a	<>	-999	7	[0, 0, 0]	n/a	FR1	1	R1409D
876.668	2.291	1938169	REC_WORD	2.291	n/a	SLUG	5	7	[0, 0, 0]	n/a	FR1	1	R1409D
878.959	7.47	1940460	REC_WORD_VV	7.47	n/a	<>	-999	7	[0, 0, 0]	n/a	FR1	1	R1409D
886.429	1.803	1947925	REC_END	n/a	n/a	n/a	-999	7	[0, 0, 0]	n/a	FR1	1	R1409D
888.232	10.35	1949729	COUNTDOWN_START	n/a	n/a	n/a	-999	8	[0, 0, 0]	n/a	FR1	1	R1409D
898.582	0.0	1960077	COUNTDOWN_END	n/a	n/a	n/a	-999	8	[0, 0, 0]	n/a	FR1	1	R1409D
898.582	2.032	1960089	ENCODING_START	n/a	n/a	n/a	-999	8	[0, 0, 0]	n/a	FR1	1	R1409D
900.614	1.617	1962118	WORD	n/a	wordpools/wordpool_long_EN.txt	SALT	1	8	[0, 0, 0]	n/a	FR1	1	R1409D
902.231	0.983	1963730	WORD_OFF	n/a	n/a	SALT	1	8	[0, 0, 0]	n/a	FR1	1	R1409D
903.214	1.6	1964710	WORD	n/a	wordpools/wordpool_long_EN.txt	APE	2	8	[0, 0, 0]	n/a	FR1	1	R1409D
904.814	0.95	1966311	WORD_OFF	n/a	n/a	APE	2	8	[0, 0, 0]	n/a	FR1	1	R1409D
905.764	1.6	1967269	WORD	n/a	wordpools/wordpool_long_EN.txt	MARSH	3	8	[0, 0, 0]	n/a	FR1	1	R1409D
907.364	0.9	1968859	WORD_OFF	n/a	n/a	MARSH	3	8	[0, 0, 0]	n/a	FR1	1	R1409D
908.264	1.6	1969761	WORD	n/a	wordpools/wordpool_long_EN.txt	FLAME	4	8	[0, 0, 0]	n/a	FR1	1	R1409D
909.864	1.0	1971361	WORD_OFF	n/a	n/a	FLAME	4	8	[0, 0, 0]	n/a	FR1	1	R1409D
910.864	1.599	1972365	WORD	n/a	wordpools/wordpool_long_EN.txt	SKI	5	8	[0, 0, 0]	n/a	FR1	1	R1409D
912.463	1.001	1973965	WORD_OFF	n/a	n/a	SKI	5	8	[0, 0, 0]	n/a	FR1	1	R1409D
913.464	1.6	1974969	WORD	n/a	wordpools/wordpool_long_EN.txt	FUR	6	8	[0, 0, 0]	n/a	FR1	1	R1409D
915.064	0.783	1976558	WORD_OFF	n/a	n/a	FUR	6	8	[0, 0, 0]	n/a	FR1	1	R1409D
915.847	1.6	1977347	WORD	n/a	wordpools/wordpool_long_EN.txt	SPOOL	7	8	[0, 0, 0]	n/a	FR1	1	R1409D
917.447	0.9	1978948	WORD_OFF	n/a	n/a	SPOOL	7	8	[0, 0, 0]	n/a	FR1	1	R1409D
918.347	1.6	1979850	WORD	n/a	wordpools/wordpool_long_EN.txt	FROG	8	8	[0, 0, 0]	n/a	FR1	1	R1409D
919.947	0.934	1981450	WORD_OFF	n/a	n/a	FROG	8	8	[0, 0, 0]	n/a	FR1	1	R1409D
920.881	1.6	1982375	WORD	n/a	wordpools/wordpool_long_EN.txt	HORN	9	8	[0, 0, 0]	n/a	FR1	1	R1409D
922.481	0.916	1983975	WORD_OFF	n/a	n/a	HORN	9	8	[0, 0, 0]	n/a	FR1	1	R1409D
923.397	1.601	1984900	WORD	n/a	wordpools/wordpool_long_EN.txt	LAMP	10	8	[0, 0, 0]	n/a	FR1	1	R1409D
924.998	0.766	1986501	WORD_OFF	n/a	n/a	LAMP	10	8	[0, 0, 0]	n/a	FR1	1	R1409D
925.764	1.601	1987267	WORD	n/a	wordpools/wordpool_long_EN.txt	PIT	11	8	[0, 0, 0]	n/a	FR1	1	R1409D
927.365	0.766	1988868	WORD_OFF	n/a	n/a	PIT	11	8	[0, 0, 0]	n/a	FR1	1	R1409D
928.131	1.616	1989634	WORD	n/a	wordpools/wordpool_long_EN.txt	TOY	12	8	[0, 0, 0]	n/a	FR1	1	R1409D
929.747	0.002	1991246	WORD_OFF	n/a	n/a	TOY	12	8	[0, 0, 0]	n/a	FR1	1	R1409D
929.749	0.0	1991246	ENCODING_END	n/a	n/a	n/a	-999	8	[0, 0, 0]	n/a	FR1	1	R1409D
929.749	0.0	1991246	DISTRACT_START	n/a	n/a	n/a	-999	8	[0, 0, 0]	n/a	FR1	1	R1409D
929.748	0.001	1991246	PROB	0.001	n/a	n/a	-999	8	[5, 3, 2]	10	FR1	1	R1409D
929.749	6.648	1991247	START	n/a	n/a	n/a	-999	8	[-999, -999, -999]	n/a	FR1	1	R1409D
936.397	4.568	1997895	PROB	4.568	n/a	n/a	-999	8	[3, 7, 4]	14	FR1	1	R1409D
940.965	4.467	2002463	PROB	4.467	n/a	n/a	-999	8	[7, 3, 8]	18	FR1	1	R1409D
945.432	5.383	2006929	PROB	5.383	n/a	n/a	-999	8	[8, 6, 2]	16	FR1	1	R1409D
950.815	0.0	2012312	STOP	n/a	n/a	n/a	-999	8	[-999, -999, -999]	n/a	FR1	1	R1409D
950.815	2.2	2012315	DISTRACT_END	n/a	n/a	n/a	-999	8	[0, 0, 0]	n/a	FR1	1	R1409D
953.015	2.866	2014510	REC_START	n/a	n/a	n/a	-999	8	[0, 0, 0]	n/a	FR1	1	R1409D
955.881	5.877	2017378	REC_WORD	5.877	n/a	SKI	5	8	[0, 0, 0]	n/a	FR1	1	R1409D
961.758	16.766	2023255	REC_WORD_VV	16.766	n/a	<>	-999	8	[0, 0, 0]	n/a	FR1	1	R1409D
978.524	1.0	2040020	REC_WORD_VV	1.0	n/a	<>	-999	8	[0, 0, 0]	n/a	FR1	1	R1409D
979.524	1.0	2041020	REC_WORD_VV	1.0	n/a	<>	-999	8	[0, 0, 0]	n/a	FR1	1	R1409D
980.524	1.0	2042020	REC_WORD_VV	1.0	n/a	<>	-999	8	[0, 0, 0]	n/a	FR1	1	R1409D
981.524	1.704	2043020	REC_WORD_VV	1.704	n/a	<>	-999	8	[0, 0, 0]	n/a	FR1	1	R1409D
983.228	1.837	2044724	REC_END	n/a	n/a	n/a	-999	8	[0, 0, 0]	n/a	FR1	1	R1409D
985.065	10.35	2046562	COUNTDOWN_START	n/a	n/a	n/a	-999	9	[0, 0, 0]	n/a	FR1	1	R1409D
995.415	0.0	2056910	COUNTDOWN_END	n/a	n/a	n/a	-999	9	[0, 0, 0]	n/a	FR1	1	R1409D
995.415	2.082	2056910	ENCODING_START	n/a	n/a	n/a	-999	9	[0, 0, 0]	n/a	FR1	1	R1409D
997.497	1.601	2058995	WORD	n/a	wordpools/wordpool_long_EN.txt	HOUSE	1	9	[0, 0, 0]	n/a	FR1	1	R1409D
999.098	0.916	2060596	WORD_OFF	n/a	n/a	HOUSE	1	9	[0, 0, 0]	n/a	FR1	1	R1409D
1000.014	1.616	2061509	WORD	n/a	wordpools/wordpool_long_EN.txt	THREAD	2	9	[0, 0, 0]	n/a	FR1	1	R1409D
1001.63	0.851	2063121	WORD_OFF	n/a	n/a	THREAD	2	9	[0, 0, 0]	n/a	FR1	1	R1409D
1002.481	1.6	2063978	WORD	n/a	wordpools/wordpool_long_EN.txt	CLIFF	3	9	[0, 0, 0]	n/a	FR1	1	R1409D
1004.081	0.783	2065579	WORD_OFF	n/a	n/a	CLIFF	3	9	[0, 0, 0]	n/a	FR1	1	R1409D
1004.864	1.6	2066357	WORD	n/a	wordpools/wordpool_long_EN.txt	SHELL	4	9	[0, 0, 0]	n/a	FR1	1	R1409D
1006.464	0.983	2067957	WORD_OFF	n/a	n/a	SHELL	4	9	[0, 0, 0]	n/a	FR1	1	R1409D
1007.447	1.6	2068938	WORD	n/a	wordpools/wordpool_long_EN.txt	STAIR	5	9	[0, 0, 0]	n/a	FR1	1	R1409D
1009.047	1.0	2070539	WORD_OFF	n/a	n/a	STAIR	5	9	[0, 0, 0]	n/a	FR1	1	R1409D
1010.047	1.6	2071542	WORD	n/a	wordpools/wordpool_long_EN.txt	TANK	6	9	[0, 0, 0]	n/a	FR1	1	R1409D
1011.647	0.984	2073143	WORD_OFF	n/a	n/a	TANK	6	9	[0, 0, 0]	n/a	FR1	1	R1409D
1012.631	1.6	2074123	WORD	n/a	wordpools/wordpool_long_EN.txt	ICE	7	9	[0, 0, 0]	n/a	FR1	1	R1409D
1014.231	0.816	2075724	WORD_OFF	n/a	n/a	ICE	7	9	[0, 0, 0]	n/a	FR1	1	R1409D
1015.047	1.601	2076547	WORD	n/a	wordpools/wordpool_long_EN.txt	INK	8	9	[0, 0, 0]	n/a	FR1	1	R1409D
1016.648	0.917	2078137	WORD_OFF	n/a	n/a	INK	8	9	[0, 0, 0]	n/a	FR1	1	R1409D
1017.565	1.616	2079061	WORD	n/a	wordpools/wordpool_long_EN.txt	SNACK	9	9	[0, 0, 0]	n/a	FR1	1	R1409D
1019.181	0.85	2080673	WORD_OFF	n/a	n/a	SNACK	9	9	[0, 0, 0]	n/a	FR1	1	R1409D
1020.031	1.616	2081530	WORD	n/a	wordpools/wordpool_long_EN.txt	MUG	10	9	[0, 0, 0]	n/a	FR1	1	R1409D
1021.647	0.984	2083142	WORD_OFF	n/a	n/a	MUG	10	9	[0, 0, 0]	n/a	FR1	1	R1409D
1022.631	1.617	2084122	WORD	n/a	wordpools/wordpool_long_EN.txt	SHEET	11	9	[0, 0, 0]	n/a	FR1	1	R1409D
1024.248	0.966	2085746	WORD_OFF	n/a	n/a	SHEET	11	9	[0, 0, 0]	n/a	FR1	1	R1409D
1025.214	1.618	2086704	WORD	n/a	wordpools/wordpool_long_EN.txt	PASTE	12	9	[0, 0, 0]	n/a	FR1	1	R1409D
1026.832	0.0	2088325	START	n/a	n/a	n/a	-999	9	[-999, -999, -999]	n/a	FR1	1	R1409D
1026.832	0.0	2088325	PROB	0.0	n/a	n/a	-999	9	[6, 7, 3]	16	FR1	1	R1409D
1026.831	0.001	2088327	WORD_OFF	n/a	n/a	PASTE	12	9	[0, 0, 0]	n/a	FR1	1	R1409D
1026.832	0.0	2088327	ENCODING_END	n/a	n/a	n/a	-999	9	[0, 0, 0]	n/a	FR1	1	R1409D
1026.832	4.933	2088327	DISTRACT_START	n/a	n/a	n/a	-999	9	[0, 0, 0]	n/a	FR1	1	R1409D
1031.765	3.183	2093258	PROB	3.183	n/a	n/a	-999	9	[2, 5, 1]	8	FR1	1	R1409D
1034.948	4.867	2096441	PROB	4.867	n/a	n/a	-999	9	[5, 2, 6]	13	FR1	1	R1409D
1039.815	5.117	2101308	PROB	5.117	n/a	n/a	-999	9	[8, 5, 2]	15	FR1	1	R1409D
1044.932	5.083	2106424	PROB	5.083	n/a	n/a	-999	9	[7, 5, 5]	17	FR1	1	R1409D
1050.015	0.0	2111504	DISTRACT_END	n/a	n/a	n/a	-999	9	[0, 0, 0]	n/a	FR1	1	R1409D
1050.015	2.199	2111507	STOP	n/a	n/a	n/a	-999	9	[-999, -999, -999]	n/a	FR1	1	R1409D
1052.214	1.576	2113710	REC_START	n/a	n/a	n/a	-999	9	[0, 0, 0]	n/a	FR1	1	R1409D
1053.79	1.369	2115282	REC_WORD	1.369	n/a	HOUSE	1	9	[0, 0, 0]	n/a	FR1	1	R1409D
1055.159	5.055	2116651	REC_WORD	5.055	n/a	MAT	-999	9	[0, 0, 0]	n/a	FR1	1	R1409D
1060.214	10.574	2121706	REC_WORD	10.574	n/a	STAIR	5	9	[0, 0, 0]	n/a	FR1	1	R1409D
1070.788	11.668	2132279	REC_WORD	11.668	n/a	SHEET	11	9	[0, 0, 0]	n/a	FR1	1	R1409D
1082.456	1.742	2143947	REC_END	n/a	n/a	n/a	-999	9	[0, 0, 0]	n/a	FR1	1	R1409D
1084.198	10.351	2145694	COUNTDOWN_START	n/a	n/a	n/a	-999	10	[0, 0, 0]	n/a	FR1	1	R1409D
1094.549	0.0	2156042	COUNTDOWN_END	n/a	n/a	n/a	-999	10	[0, 0, 0]	n/a	FR1	1	R1409D
1094.549	2.232	2156042	ENCODING_START	n/a	n/a	n/a	-999	10	[0, 0, 0]	n/a	FR1	1	R1409D
1096.781	1.6	2158274	WORD	n/a	wordpools/wordpool_long_EN.txt	GRASS	1	10	[0, 0, 0]	n/a	FR1	1	R1409D
1098.381	0.983	2159875	WORD_OFF	n/a	n/a	GRASS	1	10	[0, 0, 0]	n/a	FR1	1	R1409D
1099.364	1.6	2160856	WORD	n/a	wordpools/wordpool_long_EN.txt	SOAP	2	10	[0, 0, 0]	n/a	FR1	1	R1409D
1100.964	0.833	2162456	WORD_OFF	n/a	n/a	SOAP	2	10	[0, 0, 0]	n/a	FR1	1	R1409D
1101.797	1.617	2163291	WORD	n/a	wordpools/wordpool_long_EN.txt	RUST	3	10	[0, 0, 0]	n/a	FR1	1	R1409D
1103.414	0.967	2164903	WORD_OFF	n/a	n/a	RUST	3	10	[0, 0, 0]	n/a	FR1	1	R1409D
1104.381	1.617	2165872	WORD	n/a	wordpools/wordpool_long_EN.txt	CAVE	4	10	[0, 0, 0]	n/a	FR1	1	R1409D
1105.998	0.95	2167484	WORD_OFF	n/a	n/a	CAVE	4	10	[0, 0, 0]	n/a	FR1	1	R1409D
1106.948	1.617	2168442	WORD	n/a	wordpools/wordpool_long_EN.txt	SUIT	5	10	[0, 0, 0]	n/a	FR1	1	R1409D
1108.565	0.866	2170054	WORD_OFF	n/a	n/a	SUIT	5	10	[0, 0, 0]	n/a	FR1	1	R1409D
1109.431	1.6	2170922	WORD	n/a	wordpools/wordpool_long_EN.txt	BRANCH	6	10	[0, 0, 0]	n/a	FR1	1	R1409D
1111.031	1.016	2172523	WORD_OFF	n/a	n/a	BRANCH	6	10	[0, 0, 0]	n/a	FR1	1	R1409D
1112.047	1.6	2173538	WORD	n/a	wordpools/wordpool_long_EN.txt	COIN	7	10	[0, 0, 0]	n/a	FR1	1	R1409D
1113.647	0.951	2175138	WORD_OFF	n/a	n/a	COIN	7	10	[0, 0, 0]	n/a	FR1	1	R1409D
1114.598	1.616	2176085	WORD	n/a	wordpools/wordpool_long_EN.txt	CLAM	8	10	[0, 0, 0]	n/a	FR1	1	R1409D
1116.214	0.85	2177708	WORD_OFF	n/a	n/a	CLAM	8	10	[0, 0, 0]	n/a	FR1	1	R1409D
1117.064	1.601	2178554	WORD	n/a	wordpools/wordpool_long_EN.txt	KEY	9	10	[0, 0, 0]	n/a	FR1	1	R1409D
1118.665	1.0	2180155	WORD_OFF	n/a	n/a	KEY	9	10	[0, 0, 0]	n/a	FR1	1	R1409D
1119.665	1.616	2181158	WORD	n/a	wordpools/wordpool_long_EN.txt	CLOTH	10	10	[0, 0, 0]	n/a	FR1	1	R1409D
1121.281	0.833	2182770	WORD_OFF	n/a	n/a	CLOTH	10	10	[0, 0, 0]	n/a	FR1	1	R1409D
1122.114	1.601	2183604	WORD	n/a	wordpools/wordpool_long_EN.txt	ARCH	11	10	[0, 0, 0]	n/a	FR1	1	R1409D
1123.715	0.933	2185205	WORD_OFF	n/a	n/a	ARCH	11	10	[0, 0, 0]	n/a	FR1	1	R1409D
1124.648	1.6	2186140	WORD	n/a	wordpools/wordpool_long_EN.txt	BLOOM	12	10	[0, 0, 0]	n/a	FR1	1	R1409D
1126.248	0.002	2187736	PROB	0.002	n/a	n/a	-999	10	[8, 4, 8]	20	FR1	1	R1409D
1126.25	0.0	2187738	START	n/a	n/a	n/a	-999	10	[-999, -999, -999]	n/a	FR1	1	R1409D
1126.248	0.001	2187741	WORD_OFF	n/a	n/a	BLOOM	12	10	[0, 0, 0]	n/a	FR1	1	R1409D
1126.249	0.001	2187741	ENCODING_END	n/a	n/a	n/a	-999	10	[0, 0, 0]	n/a	FR1	1	R1409D
1126.25	4.865	2187741	DISTRACT_START	n/a	n/a	n/a	-999	10	[0, 0, 0]	n/a	FR1	1	R1409D
1131.115	8.834	2192603	PROB	8.834	n/a	n/a	-999	10	[7, 6, 7]	20	FR1	1	R1409D
1139.949	4.466	2201437	PROB	4.466	n/a	n/a	-999	10	[8, 6, 6]	22	FR1	1	R1409D
1144.415	7.266	2205902	PROB	7.266	n/a	n/a	-999	10	[4, 7, 6]	17	FR1	1	R1409D
1151.681	0.0	2213168	STOP	n/a	n/a	n/a	-999	10	[-999, -999, -999]	n/a	FR1	1	R1409D
1151.681	2.267	2213172	DISTRACT_END	n/a	n/a	n/a	-999	10	[0, 0, 0]	n/a	FR1	1	R1409D
1153.948	1.744	2215435	REC_START	n/a	n/a	n/a	-999	10	[0, 0, 0]	n/a	FR1	1	R1409D
1155.692	2.867	2217179	REC_WORD	2.867	n/a	HOUSE	-999	10	[0, 0, 0]	n/a	FR1	1	R1409D
1158.559	3.807	2220046	REC_WORD_VV	3.807	n/a	<>	-999	10	[0, 0, 0]	n/a	FR1	1	R1409D
1162.366	4.696	2223853	REC_WORD	4.696	n/a	BLOSSOM	-999	10	[0, 0, 0]	n/a	FR1	1	R1409D
1167.062	9.457	2228548	REC_WORD_VV	9.457	n/a	<>	-999	10	[0, 0, 0]	n/a	FR1	1	R1409D
1176.519	7.661	2238005	REC_WORD	7.661	n/a	STAIR	-999	10	[0, 0, 0]	n/a	FR1	1	R1409D
1184.18	1.934	2245660	REC_END	n/a	n/a	n/a	-999	10	[0, 0, 0]	n/a	FR1	1	R1409D
1186.114	10.351	2247599	COUNTDOWN_START	n/a	n/a	n/a	-999	11	[0, 0, 0]	n/a	FR1	1	R1409D
1196.465	0.0	2257948	COUNTDOWN_END	n/a	n/a	n/a	-999	11	[0, 0, 0]	n/a	FR1	1	R1409D
1196.465	2.283	2257948	ENCODING_START	n/a	n/a	n/a	-999	11	[0, 0, 0]	n/a	FR1	1	R1409D
1198.748	1.617	2260236	WORD	n/a	wordpools/wordpool_long_EN.txt	SHOE	1	11	[0, 0, 0]	n/a	FR1	1	R1409D
1200.365	0.882	2261848	WORD_OFF	n/a	n/a	SHOE	1	11	[0, 0, 0]	n/a	FR1	1	R1409D
1201.247	1.6	2262727	WORD	n/a	wordpools/wordpool_long_EN.txt	LIP	2	11	[0, 0, 0]	n/a	FR1	1	R1409D
1202.847	0.784	2264328	WORD_OFF	n/a	n/a	LIP	2	11	[0, 0, 0]	n/a	FR1	1	R1409D
1203.631	1.616	2265117	WORD	n/a	wordpools/wordpool_long_EN.txt	HOUND	3	11	[0, 0, 0]	n/a	FR1	1	R1409D
1205.247	0.85	2266729	WORD_OFF	n/a	n/a	HOUND	3	11	[0, 0, 0]	n/a	FR1	1	R1409D
1206.097	1.601	2267586	WORD	n/a	wordpools/wordpool_long_EN.txt	POOL	4	11	[0, 0, 0]	n/a	FR1	1	R1409D
1207.698	0.951	2269187	WORD_OFF	n/a	n/a	POOL	4	11	[0, 0, 0]	n/a	FR1	1	R1409D
1208.649	1.6	2270133	WORD	n/a	wordpools/wordpool_long_EN.txt	CASH	5	11	[0, 0, 0]	n/a	FR1	1	R1409D
1210.249	0.783	2271734	WORD_OFF	n/a	n/a	CASH	5	11	[0, 0, 0]	n/a	FR1	1	R1409D
1211.032	1.615	2272512	WORD	n/a	wordpools/wordpool_long_EN.txt	DIME	6	11	[0, 0, 0]	n/a	FR1	1	R1409D
1212.647	0.8	2274135	WORD_OFF	n/a	n/a	DIME	6	11	[0, 0, 0]	n/a	FR1	1	R1409D
1213.447	1.6	2274936	WORD	n/a	wordpools/wordpool_long_EN.txt	WOOD	7	11	[0, 0, 0]	n/a	FR1	1	R1409D
1215.047	0.768	2276536	WORD_OFF	n/a	n/a	WOOD	7	11	[0, 0, 0]	n/a	FR1	1	R1409D
1215.815	1.6	2277303	WORD	n/a	wordpools/wordpool_long_EN.txt	SCHOOL	8	11	[0, 0, 0]	n/a	FR1	1	R1409D
1217.415	0.983	2278904	WORD_OFF	n/a	n/a	SCHOOL	8	11	[0, 0, 0]	n/a	FR1	1	R1409D
1218.398	1.6	2279884	WORD	n/a	wordpools/wordpool_long_EN.txt	CROWN	9	11	[0, 0, 0]	n/a	FR1	1	R1409D
1219.998	0.95	2281485	WORD_OFF	n/a	n/a	CROWN	9	11	[0, 0, 0]	n/a	FR1	1	R1409D
1220.948	1.6	2282432	WORD	n/a	wordpools/wordpool_long_EN.txt	CAT	10	11	[0, 0, 0]	n/a	FR1	1	R1409D
1222.548	0.865	2284033	WORD_OFF	n/a	n/a	CAT	10	11	[0, 0, 0]	n/a	FR1	1	R1409D
1223.413	1.602	2284901	WORD	n/a	wordpools/wordpool_long_EN.txt	HOOF	11	11	[0, 0, 0]	n/a	FR1	1	R1409D
1225.015	0.833	2286501	WORD_OFF	n/a	n/a	HOOF	11	11	[0, 0, 0]	n/a	FR1	1	R1409D
1225.848	1.617	2287336	WORD	n/a	wordpools/wordpool_long_EN.txt	CHEST	12	11	[0, 0, 0]	n/a	FR1	1	R1409D
1227.465	0.001	2288948	WORD_OFF	n/a	n/a	CHEST	12	11	[0, 0, 0]	n/a	FR1	1	R1409D
1227.466	0.0	2288948	ENCODING_END	n/a	n/a	n/a	-999	11	[0, 0, 0]	n/a	FR1	1	R1409D
1227.466	0.0	2288948	DISTRACT_START	n/a	n/a	n/a	-999	11	[0, 0, 0]	n/a	FR1	1	R1409D
1227.466	0.0	2288949	PROB	0.0	n/a	n/a	-999	11	[7, 6, 6]	19	FR1	1	R1409D
1227.466	4.966	2288949	START	n/a	n/a	n/a	-999	11	[-999, -999, -999]	n/a	FR1	1	R1409D
1232.432	4.85	2293915	PROB	4.85	n/a	n/a	-999	11	[5, 1, 5]	11	FR1	1	R1409D
1237.282	6.582	2298765	PROB	6.582	n/a	n/a	-999	11	[8, 5, 3]	16	FR1	1	R1409D
1243.864	7.001	2305346	PROB	7.001	n/a	n/a	-999	11	[3, 8, 2]	13	FR1	1	R1409D
1250.865	0.0	2312347	STOP	n/a	n/a	n/a	-999	11	[-999, -999, -999]	n/a	FR1	1	R1409D
1250.865	2.099	2312350	DISTRACT_END	n/a	n/a	n/a	-999	11	[0, 0, 0]	n/a	FR1	1	R1409D
1252.964	1.814	2314443	REC_START	n/a	n/a	n/a	-999	11	[0, 0, 0]	n/a	FR1	1	R1409D
1254.778	4.135	2316260	REC_WORD	4.135	n/a	DIME	6	11	[0, 0, 0]	n/a	FR1	1	R1409D
1258.913	1.895	2320395	REC_WORD_VV	1.895	n/a	<>	-999	11	[0, 0, 0]	n/a	FR1	1	R1409D
1260.808	9.536	2322290	REC_WORD	9.536	n/a	CAT	10	11	[0, 0, 0]	n/a	FR1	1	R1409D
1270.344	12.838	2331825	REC_WORD	12.838	n/a	MAT	-999	11	[0, 0, 0]	n/a	FR1	1	R1409D
1283.182	3.032	2344657	REC_END	n/a	n/a	n/a	-999	11	[0, 0, 0]	n/a	FR1	1	R1409D
1286.214	10.351	2347701	COUNTDOWN_START	n/a	n/a	n/a	-999	12	[0, 0, 0]	n/a	FR1	1	R1409D
1296.565	0.0	2358049	COUNTDOWN_END	n/a	n/a	n/a	-999	12	[0, 0, 0]	n/a	FR1	1	R1409D
1296.565	2.133	2358049	ENCODING_START	n/a	n/a	n/a	-999	12	[0, 0, 0]	n/a	FR1	1	R1409D
1298.698	1.6	2360180	WORD	n/a	wordpools/wordpool_long_EN.txt	WEED	1	12	[0, 0, 0]	n/a	FR1	1	R1409D
1300.298	0.833	2361781	WORD_OFF	n/a	n/a	WEED	1	12	[0, 0, 0]	n/a	FR1	1	R1409D
1301.131	1.6	2362615	WORD	n/a	wordpools/wordpool_long_EN.txt	TENT	2	12	[0, 0, 0]	n/a	FR1	1	R1409D
1302.731	0.85	2364216	WORD_OFF	n/a	n/a	TENT	2	12	[0, 0, 0]	n/a	FR1	1	R1409D
1303.581	1.6	2365061	WORD	n/a	wordpools/wordpool_long_EN.txt	MAP	3	12	[0, 0, 0]	n/a	FR1	1	R1409D
1305.181	0.867	2366662	WORD_OFF	n/a	n/a	MAP	3	12	[0, 0, 0]	n/a	FR1	1	R1409D
1306.048	1.617	2367530	WORD	n/a	wordpools/wordpool_long_EN.txt	MEAT	4	12	[0, 0, 0]	n/a	FR1	1	R1409D
1307.665	0.817	2369142	WORD_OFF	n/a	n/a	MEAT	4	12	[0, 0, 0]	n/a	FR1	1	R1409D
1308.482	1.616	2369965	WORD	n/a	wordpools/wordpool_long_EN.txt	SLUSH	5	12	[0, 0, 0]	n/a	FR1	1	R1409D
1310.098	0.799	2371577	WORD_OFF	n/a	n/a	SLUSH	5	12	[0, 0, 0]	n/a	FR1	1	R1409D
1310.897	1.601	2372377	WORD	n/a	wordpools/wordpool_long_EN.txt	DEER	6	12	[0, 0, 0]	n/a	FR1	1	R1409D
1312.498	0.867	2373978	WORD_OFF	n/a	n/a	DEER	6	12	[0, 0, 0]	n/a	FR1	1	R1409D
1313.365	1.6	2374846	WORD	n/a	wordpools/wordpool_long_EN.txt	CHEEK	7	12	[0, 0, 0]	n/a	FR1	1	R1409D
1314.965	0.966	2376446	WORD_OFF	n/a	n/a	CHEEK	7	12	[0, 0, 0]	n/a	FR1	1	R1409D
1315.931	1.617	2377416	WORD	n/a	wordpools/wordpool_long_EN.txt	BOOT	8	12	[0, 0, 0]	n/a	FR1	1	R1409D
1317.548	0.849	2379028	WORD_OFF	n/a	n/a	BOOT	8	12	[0, 0, 0]	n/a	FR1	1	R1409D
1318.397	1.601	2379873	WORD	n/a	wordpools/wordpool_long_EN.txt	QUEEN	9	12	[0, 0, 0]	n/a	FR1	1	R1409D
1319.998	0.967	2381474	WORD_OFF	n/a	n/a	QUEEN	9	12	[0, 0, 0]	n/a	FR1	1	R1409D
1320.965	1.6	2382444	WORD	n/a	wordpools/wordpool_long_EN.txt	SNAIL	10	12	[0, 0, 0]	n/a	FR1	1	R1409D
1322.565	0.917	2384044	WORD_OFF	n/a	n/a	SNAIL	10	12	[0, 0, 0]	n/a	FR1	1	R1409D
1323.482	1.599	2384957	WORD	n/a	wordpools/wordpool_long_EN.txt	CHILD	11	12	[0, 0, 0]	n/a	FR1	1	R1409D
1325.081	0.917	2386558	WORD_OFF	n/a	n/a	CHILD	11	12	[0, 0, 0]	n/a	FR1	1	R1409D
1325.998	1.6	2387471	WORD	n/a	wordpools/wordpool_long_EN.txt	BOWL	12	12	[0, 0, 0]	n/a	FR1	1	R1409D
1327.598	0.001	2389072	WORD_OFF	n/a	n/a	BOWL	12	12	[0, 0, 0]	n/a	FR1	1	R1409D
1327.599	0.0	2389077	START	n/a	n/a	n/a	-999	12	[-999, -999, -999]	n/a	FR1	1	R1409D
1327.599	0.0	2389077	PROB	0.0	n/a	n/a	-999	12	[6, 3, 5]	14	FR1	1	R1409D
1327.599	0.0	2389083	ENCODING_END	n/a	n/a	n/a	-999	12	[0, 0, 0]	n/a	FR1	1	R1409D
1327.599	4.999	2389083	DISTRACT_START	n/a	n/a	n/a	-999	12	[0, 0, 0]	n/a	FR1	1	R1409D
1332.598	7.601	2394076	PROB	7.601	n/a	n/a	-999	12	[7, 5, 3]	15	FR1	1	R1409D
1340.199	5.966	2401677	PROB	5.966	n/a	n/a	-999	12	[2, 5, 2]	9	FR1	1	R1409D
1346.165	7.1	2407642	PROB	7.1	n/a	n/a	-999	12	[3, 3, 6]	12	FR1	1	R1409D
1353.265	0.0	2414740	DISTRACT_END	n/a	n/a	n/a	-999	12	[0, 0, 0]	n/a	FR1	1	R1409D
1353.265	2.15	2414742	STOP	n/a	n/a	n/a	-999	12	[-999, -999, -999]	n/a	FR1	1	R1409D
1355.415	2.701	2416890	REC_START	n/a	n/a	n/a	-999	12	[0, 0, 0]	n/a	FR1	1	R1409D
1358.116	1.0	2419593	REC_WORD_VV	1.0	n/a	<>	-999	12	[0, 0, 0]	n/a	FR1	1	R1409D
1359.116	6.401	2420593	REC_WORD_VV	6.401	n/a	<>	-999	12	[0, 0, 0]	n/a	FR1	1	R1409D
1365.517	6.124	2426993	REC_WORD_VV	6.124	n/a	<>	-999	12	[0, 0, 0]	n/a	FR1	1	R1409D
1371.641	6.97	2433117	REC_WORD	6.97	n/a	BOLT	-999	12	[0, 0, 0]	n/a	FR1	1	R1409D
1378.611	7.034	2440087	REC_WORD	7.034	n/a	CHILD	11	12	[0, 0, 0]	n/a	FR1	1	R1409D
1385.645	0.0	2447126	REC_END	n/a	n/a	n/a	-999	12	[0, 0, 0]	n/a	FR1	1	R1409D
