onset	duration	sample	trial_type	response_time	stim_file	item_name	serialpos	list	test	answer	experiment	session	subject
0.0	0.0	-1	START	n/a	n/a	n/a	-999	-1	[-999, -999, -999]	n/a	FR1	0	R1461T
0.0	4.783	-1	PROB	4.783	n/a	n/a	-999	-1	[1, 4, 3]	8	FR1	0	R1461T
4.783	11.634	-1	PROB	11.634	n/a	n/a	-999	-1	[5, 3, 6]	14	FR1	0	R1461T
16.417	91.564	-1	PROB	91.564	n/a	n/a	-999	-1	[6, 6, 8]	20	FR1	0	R1461T
107.981	103.136	-1	STOP	n/a	n/a	n/a	-999	-1	[-999, -999, -999]	n/a	FR1	0	R1461T
211.117	3580.943	-1	START	n/a	n/a	n/a	-999	1	[-999, -999, -999]	n/a	FR1	0	R1461T
3792.06	1.582	69638	INSTRUCT_START	n/a	n/a	n/a	-999	-999	[0, 0, 0]	n/a	FR1	0	R1461T
3793.642	46.966	71211	INSTRUCT_END	n/a	n/a	n/a	-999	-999	[0, 0, 0]	n/a	FR1	0	R1461T
3840.608	10.384	118189	COUNTDOWN_START	n/a	n/a	n/a	-999	-999	[0, 0, 0]	n/a	FR1	0	R1461T
3850.992	0.0	128563	COUNTDOWN_END	n/a	n/a	n/a	-999	-999	[0, 0, 0]	n/a	FR1	0	R1461T
3850.992	2.316	128563	ENCODING_START	n/a	n/a	n/a	-999	-1	[0, 0, 0]	n/a	FR1	0	R1461T
3853.308	1.617	130887	WORD	n/a	n/a	PIERNA	1	-1	[0, 0, 0]	n/a	FR1	0	R1461T
3854.925	0.983	132502	WORD_OFF	n/a	n/a	PIERNA	1	-1	[0, 0, 0]	n/a	FR1	0	R1461T
3855.908	1.6	133480	WORD	n/a	n/a	RAMA	2	-1	[0, 0, 0]	n/a	FR1	0	R1461T
3857.508	0.883	135081	WORD_OFF	n/a	n/a	RAMA	2	-1	[0, 0, 0]	n/a	FR1	0	R1461T
3858.391	1.617	135960	WORD	n/a	n/a	MANGUERA	3	-1	[0, 0, 0]	n/a	FR1	0	R1461T
3860.008	0.783	137576	WORD_OFF	n/a	n/a	MANGUERA	3	-1	[0, 0, 0]	n/a	FR1	0	R1461T
3860.791	1.6	138369	WORD	n/a	n/a	PIPA	4	-1	[0, 0, 0]	n/a	FR1	0	R1461T
3862.391	0.934	139956	WORD_OFF	n/a	n/a	PIPA	4	-1	[0, 0, 0]	n/a	FR1	0	R1461T
3863.325	1.615	140892	WORD	n/a	n/a	ARROZ	5	-1	[0, 0, 0]	n/a	FR1	0	R1461T
3864.94	0.901	142507	WORD_OFF	n/a	n/a	ARROZ	5	-1	[0, 0, 0]	n/a	FR1	0	R1461T
3865.841	1.6	143414	WORD	n/a	n/a	TRAJE	6	-1	[0, 0, 0]	n/a	FR1	0	R1461T
3867.441	0.85	145016	WORD_OFF	n/a	n/a	TRAJE	6	-1	[0, 0, 0]	n/a	FR1	0	R1461T
3868.291	1.617	145866	WORD	n/a	n/a	MANGA	7	-1	[0, 0, 0]	n/a	FR1	0	R1461T
3869.908	0.85	147481	WORD_OFF	n/a	n/a	MANGA	7	-1	[0, 0, 0]	n/a	FR1	0	R1461T
3870.758	1.6	148332	WORD	n/a	n/a	IMAGEN	8	-1	[0, 0, 0]	n/a	FR1	0	R1461T
3872.358	0.933	149933	WORD_OFF	n/a	n/a	IMAGEN	8	-1	[0, 0, 0]	n/a	FR1	0	R1461T
3873.291	1.6	150868	WORD	n/a	n/a	DARDO	9	-1	[0, 0, 0]	n/a	FR1	0	R1461T
3874.891	0.984	152456	WORD_OFF	n/a	n/a	DARDO	9	-1	[0, 0, 0]	n/a	FR1	0	R1461T
3875.875	1.616	153448	WORD	n/a	n/a	CALLE	10	-1	[0, 0, 0]	n/a	FR1	0	R1461T
3877.491	0.899	155063	WORD_OFF	n/a	n/a	CALLE	10	-1	[0, 0, 0]	n/a	FR1	0	R1461T
3878.39	1.601	155956	WORD	n/a	n/a	ZANJA	11	-1	[0, 0, 0]	n/a	FR1	0	R1461T
3879.991	0.999	157557	WORD_OFF	n/a	n/a	ZANJA	11	-1	[0, 0, 0]	n/a	FR1	0	R1461T
3880.99	1.602	158564	WORD	n/a	n/a	CAMION	12	-1	[0, 0, 0]	n/a	FR1	0	R1461T
3882.592	0.0	160160	START	n/a	n/a	n/a	-999	1	[-999, -999, -999]	n/a	FR1	0	R1461T
3882.592	0.0	160160	PROB	0.0	n/a	n/a	-999	1	[7, 8, 7]	787	FR1	0	R1461T
3882.591	0.001	160165	WORD_OFF	n/a	n/a	CAMION	12	-1	[0, 0, 0]	n/a	FR1	0	R1461T
3882.592	0.0	160165	ENCODING_END	n/a	n/a	n/a	-999	-1	[0, 0, 0]	n/a	FR1	0	R1461T
3882.592	44.516	160165	DISTRACT_START	n/a	n/a	n/a	-999	-1	[0, 0, 0]	n/a	FR1	0	R1461T
3927.108	0.0	204674	STOP	n/a	n/a	n/a	-999	1	[-999, -999, -999]	n/a	FR1	0	R1461T
3927.108	2.033	204677	DISTRACT_END	n/a	n/a	n/a	-999	-1	[0, 0, 0]	n/a	FR1	0	R1461T
3929.141	2.919	206712	REC_START	n/a	n/a	n/a	-999	-1	[0, 0, 0]	n/a	FR1	0	R1461T
3932.06	0.997	209626	REC_WORD	0.997	n/a	ARROZ	5	-1	[0, 0, 0]	n/a	FR1	0	R1461T
3933.057	0.223	210622	REC_WORD_VV	0.223	n/a	<>	-999	-1	[0, 0, 0]	n/a	FR1	0	R1461T
3933.28	3.41	210845	REC_WORD	3.41	n/a	CAMION	12	-1	[0, 0, 0]	n/a	FR1	0	R1461T
3936.69	2.307	214255	REC_WORD	2.307	n/a	DANZA	-999	-1	[0, 0, 0]	n/a	FR1	0	R1461T
3938.997	1.01	216562	REC_WORD_VV	1.01	n/a	<>	-999	-1	[0, 0, 0]	n/a	FR1	0	R1461T
3940.007	8.389	217572	REC_WORD_VV	8.389	n/a	<>	-999	-1	[0, 0, 0]	n/a	FR1	0	R1461T
3948.396	6.654	225961	REC_WORD	6.654	n/a	MEJOR	-999	-1	[0, 0, 0]	n/a	FR1	0	R1461T
3955.05	4.302	232614	REC_WORD_VV	4.302	n/a	<>	-999	-1	[0, 0, 0]	n/a	FR1	0	R1461T
3959.352	61.156	236917	REC_END	n/a	n/a	n/a	-999	-1	[0, 0, 0]	n/a	FR1	0	R1461T
4020.508	10.35	298067	COUNTDOWN_START	n/a	n/a	n/a	-999	1	[0, 0, 0]	n/a	FR1	0	R1461T
4030.858	0.0	308426	COUNTDOWN_END	n/a	n/a	n/a	-999	1	[0, 0, 0]	n/a	FR1	0	R1461T
4030.858	2.15	308426	ENCODING_START	n/a	n/a	n/a	-999	1	[0, 0, 0]	n/a	FR1	0	R1461T
4033.008	1.617	310566	WORD	n/a	wordpools/wordpool_long_SP.txt	CUEVA	1	1	[0, 0, 0]	n/a	FR1	0	R1461T
4034.625	0.933	312182	WORD_OFF	n/a	n/a	CUEVA	1	1	[0, 0, 0]	n/a	FR1	0	R1461T
4035.558	1.617	313117	WORD	n/a	wordpools/wordpool_long_SP.txt	ANILLO	2	1	[0, 0, 0]	n/a	FR1	0	R1461T
4037.175	0.783	314732	WORD_OFF	n/a	n/a	ANILLO	2	1	[0, 0, 0]	n/a	FR1	0	R1461T
4037.958	1.616	315526	WORD	n/a	wordpools/wordpool_long_SP.txt	PUENTE	3	1	[0, 0, 0]	n/a	FR1	0	R1461T
4039.574	0.967	317142	WORD_OFF	n/a	n/a	PUENTE	3	1	[0, 0, 0]	n/a	FR1	0	R1461T
4040.541	1.617	318105	WORD	n/a	wordpools/wordpool_long_SP.txt	TREN	4	1	[0, 0, 0]	n/a	FR1	0	R1461T
4042.158	0.933	319721	WORD_OFF	n/a	n/a	TREN	4	1	[0, 0, 0]	n/a	FR1	0	R1461T
4043.091	1.6	320656	WORD	n/a	wordpools/wordpool_long_SP.txt	PULGAR	5	1	[0, 0, 0]	n/a	FR1	0	R1461T
4044.691	0.867	322258	WORD_OFF	n/a	n/a	PULGAR	5	1	[0, 0, 0]	n/a	FR1	0	R1461T
4045.558	1.6	323122	WORD	n/a	wordpools/wordpool_long_SP.txt	SAPO	6	1	[0, 0, 0]	n/a	FR1	0	R1461T
4047.158	1.0	324723	WORD_OFF	n/a	n/a	SAPO	6	1	[0, 0, 0]	n/a	FR1	0	R1461T
4048.158	1.6	325715	WORD	n/a	wordpools/wordpool_long_SP.txt	CAMARON	7	1	[0, 0, 0]	n/a	FR1	0	R1461T
4049.758	0.8	327317	WORD_OFF	n/a	n/a	CAMARON	7	1	[0, 0, 0]	n/a	FR1	0	R1461T
4050.558	1.616	328124	WORD	n/a	wordpools/wordpool_long_SP.txt	ABEJA	8	1	[0, 0, 0]	n/a	FR1	0	R1461T
4052.174	0.884	329740	WORD_OFF	n/a	n/a	ABEJA	8	1	[0, 0, 0]	n/a	FR1	0	R1461T
4053.058	1.6	330619	WORD	n/a	wordpools/wordpool_long_SP.txt	CAPA	9	1	[0, 0, 0]	n/a	FR1	0	R1461T
4054.658	0.967	332220	WORD_OFF	n/a	n/a	CAPA	9	1	[0, 0, 0]	n/a	FR1	0	R1461T
4055.625	1.616	333184	WORD	n/a	wordpools/wordpool_long_SP.txt	CARNET	10	1	[0, 0, 0]	n/a	FR1	0	R1461T
4057.241	0.867	334799	WORD_OFF	n/a	n/a	CARNET	10	1	[0, 0, 0]	n/a	FR1	0	R1461T
4058.108	1.617	335664	WORD	n/a	wordpools/wordpool_long_SP.txt	CERCA	11	1	[0, 0, 0]	n/a	FR1	0	R1461T
4059.725	0.85	337293	WORD_OFF	n/a	n/a	CERCA	11	1	[0, 0, 0]	n/a	FR1	0	R1461T
4060.575	1.616	338130	WORD	n/a	wordpools/wordpool_long_SP.txt	FRUTA	12	1	[0, 0, 0]	n/a	FR1	0	R1461T
4062.191	0.003	339750	PROB	0.003	n/a	n/a	-999	2	[5, 3, 8]	538	FR1	0	R1461T
4062.194	0.0	339753	START	n/a	n/a	n/a	-999	2	[-999, -999, -999]	n/a	FR1	0	R1461T
4062.191	0.002	339759	WORD_OFF	n/a	n/a	FRUTA	12	1	[0, 0, 0]	n/a	FR1	0	R1461T
4062.193	0.001	339759	ENCODING_END	n/a	n/a	n/a	-999	1	[0, 0, 0]	n/a	FR1	0	R1461T
4062.194	21.631	339759	DISTRACT_START	n/a	n/a	n/a	-999	1	[0, 0, 0]	n/a	FR1	0	R1461T
4083.825	0.0	361383	STOP	n/a	n/a	n/a	-999	2	[-999, -999, -999]	n/a	FR1	0	R1461T
4083.825	2.033	361385	DISTRACT_END	n/a	n/a	n/a	-999	1	[0, 0, 0]	n/a	FR1	0	R1461T
4085.858	1.619	363419	REC_START	n/a	n/a	n/a	-999	1	[0, 0, 0]	n/a	FR1	0	R1461T
4087.477	2.107	365035	REC_WORD_VV	2.107	n/a	<>	-999	1	[0, 0, 0]	n/a	FR1	0	R1461T
4089.584	2.615	367141	REC_WORD	2.615	n/a	CAMION	-999	1	[0, 0, 0]	n/a	FR1	0	R1461T
4092.199	3.805	369756	REC_WORD_VV	3.805	n/a	<>	-999	1	[0, 0, 0]	n/a	FR1	0	R1461T
4096.004	1.474	373561	REC_WORD_VV	1.474	n/a	<>	-999	1	[0, 0, 0]	n/a	FR1	0	R1461T
4097.478	3.634	375035	REC_WORD_VV	3.634	n/a	<>	-999	1	[0, 0, 0]	n/a	FR1	0	R1461T
4101.112	0.999	378669	REC_WORD_VV	0.999	n/a	<>	-999	1	[0, 0, 0]	n/a	FR1	0	R1461T
4102.111	1.0	379668	REC_WORD_VV	1.0	n/a	<>	-999	1	[0, 0, 0]	n/a	FR1	0	R1461T
4103.111	0.63	380668	REC_WORD_VV	0.63	n/a	<>	-999	1	[0, 0, 0]	n/a	FR1	0	R1461T
4103.741	1.251	381298	REC_WORD_VV	1.251	n/a	<>	-999	1	[0, 0, 0]	n/a	FR1	0	R1461T
4104.992	1.0	382549	REC_WORD_VV	1.0	n/a	<>	-999	1	[0, 0, 0]	n/a	FR1	0	R1461T
4105.992	6.543	383549	REC_WORD_VV	6.543	n/a	<>	-999	1	[0, 0, 0]	n/a	FR1	0	R1461T
4112.535	3.502	390091	REC_WORD_VV	3.502	n/a	<>	-999	1	[0, 0, 0]	n/a	FR1	0	R1461T
4116.037	18.238	393596	REC_END	n/a	n/a	n/a	-999	1	[0, 0, 0]	n/a	FR1	0	R1461T
4134.275	10.35	411835	COUNTDOWN_START	n/a	n/a	n/a	-999	2	[0, 0, 0]	n/a	FR1	0	R1461T
4144.625	0.0	422180	COUNTDOWN_END	n/a	n/a	n/a	-999	2	[0, 0, 0]	n/a	FR1	0	R1461T
4144.625	2.1	422180	ENCODING_START	n/a	n/a	n/a	-999	2	[0, 0, 0]	n/a	FR1	0	R1461T
4146.725	1.6	424278	WORD	n/a	wordpools/wordpool_long_SP.txt	PAYASO	1	2	[0, 0, 0]	n/a	FR1	0	R1461T
4148.325	0.849	425879	WORD_OFF	n/a	n/a	PAYASO	1	2	[0, 0, 0]	n/a	FR1	0	R1461T
4149.174	1.6	426729	WORD	n/a	wordpools/wordpool_long_SP.txt	TAZA	2	2	[0, 0, 0]	n/a	FR1	0	R1461T
4150.774	0.817	428331	WORD_OFF	n/a	n/a	TAZA	2	2	[0, 0, 0]	n/a	FR1	0	R1461T
4151.591	1.617	429152	WORD	n/a	wordpools/wordpool_long_SP.txt	PISCINA	3	2	[0, 0, 0]	n/a	FR1	0	R1461T
4153.208	0.783	430768	WORD_OFF	n/a	n/a	PISCINA	3	2	[0, 0, 0]	n/a	FR1	0	R1461T
4153.991	1.6	431547	WORD	n/a	wordpools/wordpool_long_SP.txt	CORDERO	4	2	[0, 0, 0]	n/a	FR1	0	R1461T
4155.591	0.8	433149	WORD_OFF	n/a	n/a	CORDERO	4	2	[0, 0, 0]	n/a	FR1	0	R1461T
4156.391	1.617	433942	WORD	n/a	wordpools/wordpool_long_SP.txt	HIERBA	5	2	[0, 0, 0]	n/a	FR1	0	R1461T
4158.008	0.833	435558	WORD_OFF	n/a	n/a	HIERBA	5	2	[0, 0, 0]	n/a	FR1	0	R1461T
4158.841	1.617	436394	WORD	n/a	wordpools/wordpool_long_SP.txt	TARRO	6	2	[0, 0, 0]	n/a	FR1	0	R1461T
4160.458	0.999	438010	WORD_OFF	n/a	n/a	TARRO	6	2	[0, 0, 0]	n/a	FR1	0	R1461T
4161.457	1.6	439016	WORD	n/a	wordpools/wordpool_long_SP.txt	PATIO	7	2	[0, 0, 0]	n/a	FR1	0	R1461T
4163.057	0.81	440617	WORD_OFF	n/a	n/a	PATIO	7	2	[0, 0, 0]	n/a	FR1	0	R1461T
4163.867	1.607	441425	WORD	n/a	wordpools/wordpool_long_SP.txt	PLATO	8	2	[0, 0, 0]	n/a	FR1	0	R1461T
4165.474	0.917	443026	WORD_OFF	n/a	n/a	PLATO	8	2	[0, 0, 0]	n/a	FR1	0	R1461T
4166.391	1.617	443947	WORD	n/a	wordpools/wordpool_long_SP.txt	PARED	9	2	[0, 0, 0]	n/a	FR1	0	R1461T
4168.008	0.833	445563	WORD_OFF	n/a	n/a	PARED	9	2	[0, 0, 0]	n/a	FR1	0	R1461T
4168.841	1.617	446399	WORD	n/a	wordpools/wordpool_long_SP.txt	JABON	10	2	[0, 0, 0]	n/a	FR1	0	R1461T
4170.458	0.867	448015	WORD_OFF	n/a	n/a	JABON	10	2	[0, 0, 0]	n/a	FR1	0	R1461T
4171.325	1.599	448879	WORD	n/a	wordpools/wordpool_long_SP.txt	NARIZ	11	2	[0, 0, 0]	n/a	FR1	0	R1461T
4172.924	0.934	450480	WORD_OFF	n/a	n/a	NARIZ	11	2	[0, 0, 0]	n/a	FR1	0	R1461T
4173.858	1.601	451416	WORD	n/a	wordpools/wordpool_long_SP.txt	HUEVO	12	2	[0, 0, 0]	n/a	FR1	0	R1461T
4175.459	0.0	453012	PROB	0.0	n/a	n/a	-999	3	[4, 1, 7]	417	FR1	0	R1461T
4175.459	0.0	453012	START	n/a	n/a	n/a	-999	3	[-999, -999, -999]	n/a	FR1	0	R1461T
4175.458	0.001	453017	WORD_OFF	n/a	n/a	HUEVO	12	2	[0, 0, 0]	n/a	FR1	0	R1461T
4175.459	0.0	453017	ENCODING_END	n/a	n/a	n/a	-999	2	[0, 0, 0]	n/a	FR1	0	R1461T
4175.459	15.966	453017	DISTRACT_START	n/a	n/a	n/a	-999	2	[0, 0, 0]	n/a	FR1	0	R1461T
4191.425	45.766	468977	PROB	45.766	n/a	n/a	-999	3	[8, 8, 6]	886	FR1	0	R1461T
4237.191	0.0	514741	STOP	n/a	n/a	n/a	-999	3	[-999, -999, -999]	n/a	FR1	0	R1461T
4237.191	2.217	514748	DISTRACT_END	n/a	n/a	n/a	-999	2	[0, 0, 0]	n/a	FR1	0	R1461T
4239.408	2.328	516967	REC_START	n/a	n/a	n/a	-999	2	[0, 0, 0]	n/a	FR1	0	R1461T
4241.736	0.424	519286	REC_WORD_VV	0.424	n/a	<>	-999	2	[0, 0, 0]	n/a	FR1	0	R1461T
4242.16	3.964	519710	REC_WORD	3.964	n/a	PUERTA	-999	2	[0, 0, 0]	n/a	FR1	0	R1461T
4246.124	2.429	523673	REC_WORD_VV	2.429	n/a	<>	-999	2	[0, 0, 0]	n/a	FR1	0	R1461T
4248.553	5.445	526102	REC_WORD	5.445	n/a	ARROZ	-999	2	[0, 0, 0]	n/a	FR1	0	R1461T
4253.998	10.967	531547	REC_WORD	10.967	n/a	CASA	-999	2	[0, 0, 0]	n/a	FR1	0	R1461T
4264.965	0.643	542513	REC_WORD	0.643	n/a	ARROZ	-999	2	[0, 0, 0]	n/a	FR1	0	R1461T
4265.608	1.875	543156	REC_WORD_VV	1.875	n/a	<>	-999	2	[0, 0, 0]	n/a	FR1	0	R1461T
4267.483	2.13	545031	REC_WORD	2.13	n/a	ARROZ	-999	2	[0, 0, 0]	n/a	FR1	0	R1461T
4269.613	6.897	547158	REC_END	n/a	n/a	n/a	-999	2	[0, 0, 0]	n/a	FR1	0	R1461T
4276.51	10.348	554059	COUNTDOWN_START	n/a	n/a	n/a	-999	3	[0, 0, 0]	n/a	FR1	0	R1461T
4286.858	0.0	564404	COUNTDOWN_END	n/a	n/a	n/a	-999	3	[0, 0, 0]	n/a	FR1	0	R1461T
4286.858	2.25	564404	ENCODING_START	n/a	n/a	n/a	-999	3	[0, 0, 0]	n/a	FR1	0	R1461T
4289.108	1.6	566658	WORD	n/a	wordpools/wordpool_long_SP.txt	PUERTA	1	3	[0, 0, 0]	n/a	FR1	0	R1461T
4290.708	0.982	568259	WORD_OFF	n/a	n/a	PUERTA	1	3	[0, 0, 0]	n/a	FR1	0	R1461T
4291.69	1.601	569237	WORD	n/a	wordpools/wordpool_long_SP.txt	PEZUNA	2	3	[0, 0, 0]	n/a	FR1	0	R1461T
4293.291	0.783	570838	WORD_OFF	n/a	n/a	PEZUNA	2	3	[0, 0, 0]	n/a	FR1	0	R1461T
4294.074	1.617	571618	WORD	n/a	wordpools/wordpool_long_SP.txt	GUARDIA	3	3	[0, 0, 0]	n/a	FR1	0	R1461T
4295.691	0.95	573247	WORD_OFF	n/a	n/a	GUARDIA	3	3	[0, 0, 0]	n/a	FR1	0	R1461T
4296.641	1.6	574197	WORD	n/a	wordpools/wordpool_long_SP.txt	BARRO	4	3	[0, 0, 0]	n/a	FR1	0	R1461T
4298.241	0.85	575784	WORD_OFF	n/a	n/a	BARRO	4	3	[0, 0, 0]	n/a	FR1	0	R1461T
4299.091	1.6	576634	WORD	n/a	wordpools/wordpool_long_SP.txt	PELAJE	5	3	[0, 0, 0]	n/a	FR1	0	R1461T
4300.691	0.834	578236	WORD_OFF	n/a	n/a	PELAJE	5	3	[0, 0, 0]	n/a	FR1	0	R1461T
4301.525	1.6	579072	WORD	n/a	wordpools/wordpool_long_SP.txt	LAGO	6	3	[0, 0, 0]	n/a	FR1	0	R1461T
4303.125	0.9	580673	WORD_OFF	n/a	n/a	LAGO	6	3	[0, 0, 0]	n/a	FR1	0	R1461T
4304.025	1.6	581580	WORD	n/a	wordpools/wordpool_long_SP.txt	PULGA	7	3	[0, 0, 0]	n/a	FR1	0	R1461T
4305.625	0.783	583167	WORD_OFF	n/a	n/a	PULGA	7	3	[0, 0, 0]	n/a	FR1	0	R1461T
4306.408	1.617	583961	WORD	n/a	wordpools/wordpool_long_SP.txt	FREGADERO	8	3	[0, 0, 0]	n/a	FR1	0	R1461T
4308.025	0.766	585577	WORD_OFF	n/a	n/a	FREGADERO	8	3	[0, 0, 0]	n/a	FR1	0	R1461T
4308.791	1.6	586342	WORD	n/a	wordpools/wordpool_long_SP.txt	ROSA	9	3	[0, 0, 0]	n/a	FR1	0	R1461T
4310.391	0.767	587943	WORD_OFF	n/a	n/a	ROSA	9	3	[0, 0, 0]	n/a	FR1	0	R1461T
4311.158	1.6	588708	WORD	n/a	wordpools/wordpool_long_SP.txt	CARACOL	10	3	[0, 0, 0]	n/a	FR1	0	R1461T
4312.758	0.783	590310	WORD_OFF	n/a	n/a	CARACOL	10	3	[0, 0, 0]	n/a	FR1	0	R1461T
4313.541	1.617	591089	WORD	n/a	wordpools/wordpool_long_SP.txt	SOMBRERO	11	3	[0, 0, 0]	n/a	FR1	0	R1461T
4315.158	0.983	592705	WORD_OFF	n/a	n/a	SOMBRERO	11	3	[0, 0, 0]	n/a	FR1	0	R1461T
4316.141	1.617	593683	WORD	n/a	wordpools/wordpool_long_SP.txt	ROCA	12	3	[0, 0, 0]	n/a	FR1	0	R1461T
4317.758	0.001	595304	PROB	0.001	n/a	n/a	-999	4	[3, 2, 2]	322	FR1	0	R1461T
4317.759	0.0	595305	START	n/a	n/a	n/a	-999	4	[-999, -999, -999]	n/a	FR1	0	R1461T
4317.758	0.001	595312	WORD_OFF	n/a	n/a	ROCA	12	3	[0, 0, 0]	n/a	FR1	0	R1461T
4317.759	0.0	595312	ENCODING_END	n/a	n/a	n/a	-999	3	[0, 0, 0]	n/a	FR1	0	R1461T
4317.759	15.299	595312	DISTRACT_START	n/a	n/a	n/a	-999	3	[0, 0, 0]	n/a	FR1	0	R1461T
4333.058	15.666	610603	PROB	15.666	n/a	n/a	-999	4	[4, 8, 3]	483	FR1	0	R1461T
4348.724	0.0	626268	STOP	n/a	n/a	n/a	-999	4	[-999, -999, -999]	n/a	FR1	0	R1461T
4348.724	2.284	626277	DISTRACT_END	n/a	n/a	n/a	-999	3	[0, 0, 0]	n/a	FR1	0	R1461T
4351.008	5.77	628552	REC_START	n/a	n/a	n/a	-999	3	[0, 0, 0]	n/a	FR1	0	R1461T
4356.778	4.319	634322	REC_WORD_VV	4.319	n/a	<>	-999	3	[0, 0, 0]	n/a	FR1	0	R1461T
4361.097	2.53	638640	REC_WORD	2.53	n/a	CARRO	-999	3	[0, 0, 0]	n/a	FR1	0	R1461T
4363.627	5.885	641170	REC_WORD_VV	5.885	n/a	<>	-999	3	[0, 0, 0]	n/a	FR1	0	R1461T
4369.512	3.874	647055	REC_WORD	3.874	n/a	ARROZ	-999	3	[0, 0, 0]	n/a	FR1	0	R1461T
4373.386	3.708	650929	REC_WORD	3.708	n/a	PUERTA	1	3	[0, 0, 0]	n/a	FR1	0	R1461T
4377.094	4.136	654637	REC_WORD	4.136	n/a	SOMBRERO	11	3	[0, 0, 0]	n/a	FR1	0	R1461T
4381.23	14.911	658772	REC_END	n/a	n/a	n/a	-999	3	[0, 0, 0]	n/a	FR1	0	R1461T
4396.141	10.351	673694	COUNTDOWN_START	n/a	n/a	n/a	-999	4	[0, 0, 0]	n/a	FR1	0	R1461T
4406.492	0.0	684040	COUNTDOWN_END	n/a	n/a	n/a	-999	4	[0, 0, 0]	n/a	FR1	0	R1461T
4406.492	2.066	684040	ENCODING_START	n/a	n/a	n/a	-999	4	[0, 0, 0]	n/a	FR1	0	R1461T
4408.558	1.617	686094	WORD	n/a	wordpools/wordpool_long_SP.txt	TANQUE	1	4	[0, 0, 0]	n/a	FR1	0	R1461T
4410.175	0.932	687724	WORD_OFF	n/a	n/a	TANQUE	1	4	[0, 0, 0]	n/a	FR1	0	R1461T
4411.107	1.601	688645	WORD	n/a	wordpools/wordpool_long_SP.txt	DIENTES	2	4	[0, 0, 0]	n/a	FR1	0	R1461T
4412.708	0.883	690247	WORD_OFF	n/a	n/a	DIENTES	2	4	[0, 0, 0]	n/a	FR1	0	R1461T
4413.591	1.617	691139	WORD	n/a	wordpools/wordpool_long_SP.txt	GUISANTE	3	4	[0, 0, 0]	n/a	FR1	0	R1461T
4415.208	0.867	692755	WORD_OFF	n/a	n/a	GUISANTE	3	4	[0, 0, 0]	n/a	FR1	0	R1461T
4416.075	1.616	693619	WORD	n/a	wordpools/wordpool_long_SP.txt	LAMPARA	4	4	[0, 0, 0]	n/a	FR1	0	R1461T
4417.691	0.834	695235	WORD_OFF	n/a	n/a	LAMPARA	4	4	[0, 0, 0]	n/a	FR1	0	R1461T
4418.525	1.616	696071	WORD	n/a	wordpools/wordpool_long_SP.txt	TIZA	5	4	[0, 0, 0]	n/a	FR1	0	R1461T
4420.141	0.884	697687	WORD_OFF	n/a	n/a	TIZA	5	4	[0, 0, 0]	n/a	FR1	0	R1461T
4421.025	1.616	698565	WORD	n/a	wordpools/wordpool_long_SP.txt	BANO	6	4	[0, 0, 0]	n/a	FR1	0	R1461T
4422.641	0.766	700181	WORD_OFF	n/a	n/a	BANO	6	4	[0, 0, 0]	n/a	FR1	0	R1461T
4423.407	1.601	700946	WORD	n/a	wordpools/wordpool_long_SP.txt	ORO	7	4	[0, 0, 0]	n/a	FR1	0	R1461T
4425.008	0.8	702547	WORD_OFF	n/a	n/a	ORO	7	4	[0, 0, 0]	n/a	FR1	0	R1461T
4425.808	1.616	703355	WORD	n/a	wordpools/wordpool_long_SP.txt	COPA	8	4	[0, 0, 0]	n/a	FR1	0	R1461T
4427.424	0.766	704971	WORD_OFF	n/a	n/a	COPA	8	4	[0, 0, 0]	n/a	FR1	0	R1461T
4428.19	1.601	705736	WORD	n/a	wordpools/wordpool_long_SP.txt	OREJA	9	4	[0, 0, 0]	n/a	FR1	0	R1461T
4429.791	0.867	707337	WORD_OFF	n/a	n/a	OREJA	9	4	[0, 0, 0]	n/a	FR1	0	R1461T
4430.658	1.617	708202	WORD	n/a	wordpools/wordpool_long_SP.txt	PANTANO	10	4	[0, 0, 0]	n/a	FR1	0	R1461T
4432.275	0.766	709817	WORD_OFF	n/a	n/a	PANTANO	10	4	[0, 0, 0]	n/a	FR1	0	R1461T
4433.041	1.6	710583	WORD	n/a	wordpools/wordpool_long_SP.txt	ANZUELO	11	4	[0, 0, 0]	n/a	FR1	0	R1461T
4434.641	0.833	712184	WORD_OFF	n/a	n/a	ANZUELO	11	4	[0, 0, 0]	n/a	FR1	0	R1461T
4435.474	1.601	713020	WORD	n/a	wordpools/wordpool_long_SP.txt	CESPED	12	4	[0, 0, 0]	n/a	FR1	0	R1461T
4437.075	0.0	714614	START	n/a	n/a	n/a	-999	5	[-999, -999, -999]	n/a	FR1	0	R1461T
4437.075	0.0	714614	PROB	0.0	n/a	n/a	-999	5	[1, 1, 3]	113	FR1	0	R1461T
4437.074	0.001	714622	WORD_OFF	n/a	n/a	CESPED	12	4	[0, 0, 0]	n/a	FR1	0	R1461T
4437.075	0.0	714622	ENCODING_END	n/a	n/a	n/a	-999	4	[0, 0, 0]	n/a	FR1	0	R1461T
4437.075	9.933	714622	DISTRACT_START	n/a	n/a	n/a	-999	4	[0, 0, 0]	n/a	FR1	0	R1461T
4447.008	12.55	724547	PROB	12.55	n/a	n/a	-999	5	[8, 3, 7]	837	FR1	0	R1461T
4459.558	0.0	737096	STOP	n/a	n/a	n/a	-999	5	[-999, -999, -999]	n/a	FR1	0	R1461T
4459.558	2.133	737097	DISTRACT_END	n/a	n/a	n/a	-999	4	[0, 0, 0]	n/a	FR1	0	R1461T
4461.691	3.012	739231	REC_START	n/a	n/a	n/a	-999	4	[0, 0, 0]	n/a	FR1	0	R1461T
4464.703	0.999	742241	REC_WORD	0.999	n/a	DIENTES	2	4	[0, 0, 0]	n/a	FR1	0	R1461T
4465.702	1.217	743240	REC_WORD	1.217	n/a	DIENTES	2	4	[0, 0, 0]	n/a	FR1	0	R1461T
4466.919	2.434	744457	REC_WORD_VV	2.434	n/a	<>	-999	4	[0, 0, 0]	n/a	FR1	0	R1461T
4469.353	21.998	746891	REC_WORD	21.998	n/a	PAREJA	-999	4	[0, 0, 0]	n/a	FR1	0	R1461T
4491.351	0.525	768888	REC_WORD	0.525	n/a	BANO	6	4	[0, 0, 0]	n/a	FR1	0	R1461T
4491.876	28.782	769422	REC_END	n/a	n/a	n/a	-999	4	[0, 0, 0]	n/a	FR1	0	R1461T
4520.658	10.349	798190	COUNTDOWN_START	n/a	n/a	n/a	-999	5	[0, 0, 0]	n/a	FR1	0	R1461T
4531.007	0.0	808550	COUNTDOWN_END	n/a	n/a	n/a	-999	5	[0, 0, 0]	n/a	FR1	0	R1461T
4531.007	2.068	808550	ENCODING_START	n/a	n/a	n/a	-999	5	[0, 0, 0]	n/a	FR1	0	R1461T
4533.075	1.6	810604	WORD	n/a	wordpools/wordpool_long_SP.txt	RAIZ	1	5	[0, 0, 0]	n/a	FR1	0	R1461T
4534.675	0.766	812206	WORD_OFF	n/a	n/a	RAIZ	1	5	[0, 0, 0]	n/a	FR1	0	R1461T
4535.441	1.6	812971	WORD	n/a	wordpools/wordpool_long_SP.txt	DULCE	2	5	[0, 0, 0]	n/a	FR1	0	R1461T
4537.041	0.884	814572	WORD_OFF	n/a	n/a	DULCE	2	5	[0, 0, 0]	n/a	FR1	0	R1461T
4537.925	1.615	815465	WORD	n/a	wordpools/wordpool_long_SP.txt	RUEDA	3	5	[0, 0, 0]	n/a	FR1	0	R1461T
4539.54	0.9	817081	WORD_OFF	n/a	n/a	RUEDA	3	5	[0, 0, 0]	n/a	FR1	0	R1461T
4540.44	1.6	817974	WORD	n/a	wordpools/wordpool_long_SP.txt	COLINA	4	5	[0, 0, 0]	n/a	FR1	0	R1461T
4542.04	0.85	819575	WORD_OFF	n/a	n/a	COLINA	4	5	[0, 0, 0]	n/a	FR1	0	R1461T
4542.89	1.6	820425	WORD	n/a	wordpools/wordpool_long_SP.txt	SELLO	5	5	[0, 0, 0]	n/a	FR1	0	R1461T
4544.49	0.784	822027	WORD_OFF	n/a	n/a	SELLO	5	5	[0, 0, 0]	n/a	FR1	0	R1461T
4545.274	1.6	822806	WORD	n/a	wordpools/wordpool_long_SP.txt	SERPIENTE	6	5	[0, 0, 0]	n/a	FR1	0	R1461T
4546.874	0.934	824407	WORD_OFF	n/a	n/a	SERPIENTE	6	5	[0, 0, 0]	n/a	FR1	0	R1461T
4547.808	1.6	825343	WORD	n/a	wordpools/wordpool_long_SP.txt	OVEJA	7	5	[0, 0, 0]	n/a	FR1	0	R1461T
4549.408	0.933	826944	WORD_OFF	n/a	n/a	OVEJA	7	5	[0, 0, 0]	n/a	FR1	0	R1461T
4550.341	1.6	827879	WORD	n/a	wordpools/wordpool_long_SP.txt	JARRON	8	5	[0, 0, 0]	n/a	FR1	0	R1461T
4551.941	0.8	829481	WORD_OFF	n/a	n/a	JARRON	8	5	[0, 0, 0]	n/a	FR1	0	R1461T
4552.741	1.6	830274	WORD	n/a	wordpools/wordpool_long_SP.txt	RINOCERONTE	9	5	[0, 0, 0]	n/a	FR1	0	R1461T
4554.341	0.85	831876	WORD_OFF	n/a	n/a	RINOCERONTE	9	5	[0, 0, 0]	n/a	FR1	0	R1461T
4555.191	1.6	832726	WORD	n/a	wordpools/wordpool_long_SP.txt	RELOJ	10	5	[0, 0, 0]	n/a	FR1	0	R1461T
4556.791	0.85	834327	WORD_OFF	n/a	n/a	RELOJ	10	5	[0, 0, 0]	n/a	FR1	0	R1461T
4557.641	1.6	835178	WORD	n/a	wordpools/wordpool_long_SP.txt	BOLIGRAFO	11	5	[0, 0, 0]	n/a	FR1	0	R1461T
4559.241	0.933	836779	WORD_OFF	n/a	n/a	BOLIGRAFO	11	5	[0, 0, 0]	n/a	FR1	0	R1461T
4560.174	1.602	837714	WORD	n/a	wordpools/wordpool_long_SP.txt	MULA	12	5	[0, 0, 0]	n/a	FR1	0	R1461T
4561.776	0.0	839309	START	n/a	n/a	n/a	-999	6	[-999, -999, -999]	n/a	FR1	0	R1461T
4561.776	0.0	839309	PROB	0.0	n/a	n/a	-999	6	[1, 6, 5]	165	FR1	0	R1461T
4561.775	0.001	839316	WORD_OFF	n/a	n/a	MULA	12	5	[0, 0, 0]	n/a	FR1	0	R1461T
4561.776	0.0	839316	ENCODING_END	n/a	n/a	n/a	-999	5	[0, 0, 0]	n/a	FR1	0	R1461T
4561.776	12.866	839316	DISTRACT_START	n/a	n/a	n/a	-999	5	[0, 0, 0]	n/a	FR1	0	R1461T
4574.642	13.332	852174	PROB	13.332	n/a	n/a	-999	6	[2, 6, 1]	261	FR1	0	R1461T
4587.974	0.0	865505	DISTRACT_END	n/a	n/a	n/a	-999	5	[0, 0, 0]	n/a	FR1	0	R1461T
4587.974	2.284	865506	STOP	n/a	n/a	n/a	-999	6	[-999, -999, -999]	n/a	FR1	0	R1461T
4590.258	1.424	867794	REC_START	n/a	n/a	n/a	-999	5	[0, 0, 0]	n/a	FR1	0	R1461T
4591.682	1.444	869213	REC_WORD_VV	1.444	n/a	<>	-999	5	[0, 0, 0]	n/a	FR1	0	R1461T
4593.126	6.719	870657	REC_WORD_VV	6.719	n/a	<>	-999	5	[0, 0, 0]	n/a	FR1	0	R1461T
4599.845	4.863	877376	REC_WORD	4.863	n/a	JARRON	8	5	[0, 0, 0]	n/a	FR1	0	R1461T
4604.708	1.001	882239	REC_WORD_VV	1.001	n/a	<>	-999	5	[0, 0, 0]	n/a	FR1	0	R1461T
4605.709	0.415	883240	REC_WORD_VV	0.415	n/a	<>	-999	5	[0, 0, 0]	n/a	FR1	0	R1461T
4606.124	4.332	883655	REC_WORD	4.332	n/a	CEPILLO	-999	5	[0, 0, 0]	n/a	FR1	0	R1461T
4610.456	1.0	887987	REC_WORD	1.0	n/a	AMARILLO	-999	5	[0, 0, 0]	n/a	FR1	0	R1461T
4611.456	6.637	888986	REC_WORD	6.637	n/a	AMARILLO	-999	5	[0, 0, 0]	n/a	FR1	0	R1461T
4618.093	2.364	895623	REC_WORD_VV	2.364	n/a	<>	-999	5	[0, 0, 0]	n/a	FR1	0	R1461T
4620.457	18.117	897985	REC_END	n/a	n/a	n/a	-999	5	[0, 0, 0]	n/a	FR1	0	R1461T
4638.574	10.351	916111	COUNTDOWN_START	n/a	n/a	n/a	-999	6	[0, 0, 0]	n/a	FR1	0	R1461T
4648.925	0.0	926456	COUNTDOWN_END	n/a	n/a	n/a	-999	6	[0, 0, 0]	n/a	FR1	0	R1461T
4648.925	2.15	926456	ENCODING_START	n/a	n/a	n/a	-999	6	[0, 0, 0]	n/a	FR1	0	R1461T
4651.075	1.6	928610	WORD	n/a	wordpools/wordpool_long_SP.txt	CARRETERA	1	6	[0, 0, 0]	n/a	FR1	0	R1461T
4652.675	0.816	930211	WORD_OFF	n/a	n/a	CARRETERA	1	6	[0, 0, 0]	n/a	FR1	0	R1461T
4653.491	1.6	931019	WORD	n/a	wordpools/wordpool_long_SP.txt	MALEZA	2	6	[0, 0, 0]	n/a	FR1	0	R1461T
4655.091	0.967	932620	WORD_OFF	n/a	n/a	MALEZA	2	6	[0, 0, 0]	n/a	FR1	0	R1461T
4656.058	1.615	933584	WORD	n/a	wordpools/wordpool_long_SP.txt	LABERINTO	3	6	[0, 0, 0]	n/a	FR1	0	R1461T
4657.673	0.802	935200	WORD_OFF	n/a	n/a	LABERINTO	3	6	[0, 0, 0]	n/a	FR1	0	R1461T
4658.475	1.6	936007	WORD	n/a	wordpools/wordpool_long_SP.txt	ESCOBA	4	6	[0, 0, 0]	n/a	FR1	0	R1461T
4660.075	0.766	937609	WORD_OFF	n/a	n/a	ESCOBA	4	6	[0, 0, 0]	n/a	FR1	0	R1461T
4660.841	1.6	938374	WORD	n/a	wordpools/wordpool_long_SP.txt	MOFETA	5	6	[0, 0, 0]	n/a	FR1	0	R1461T
4662.441	0.866	939975	WORD_OFF	n/a	n/a	MOFETA	5	6	[0, 0, 0]	n/a	FR1	0	R1461T
4663.307	1.602	940840	WORD	n/a	wordpools/wordpool_long_SP.txt	UNA	6	6	[0, 0, 0]	n/a	FR1	0	R1461T
4664.909	0.766	942441	WORD_OFF	n/a	n/a	UNA	6	6	[0, 0, 0]	n/a	FR1	0	R1461T
4665.675	1.6	943206	WORD	n/a	wordpools/wordpool_long_SP.txt	ESTANQUE	7	6	[0, 0, 0]	n/a	FR1	0	R1461T
4667.275	0.783	944808	WORD_OFF	n/a	n/a	ESTANQUE	7	6	[0, 0, 0]	n/a	FR1	0	R1461T
4668.058	1.617	945587	WORD	n/a	wordpools/wordpool_long_SP.txt	VACA	8	6	[0, 0, 0]	n/a	FR1	0	R1461T
4669.675	0.85	947203	WORD_OFF	n/a	n/a	VACA	8	6	[0, 0, 0]	n/a	FR1	0	R1461T
4670.525	1.6	948053	WORD	n/a	wordpools/wordpool_long_SP.txt	VENTILADOR	9	6	[0, 0, 0]	n/a	FR1	0	R1461T
4672.125	1.0	949654	WORD_OFF	n/a	n/a	VENTILADOR	9	6	[0, 0, 0]	n/a	FR1	0	R1461T
4673.125	1.615	950661	WORD	n/a	wordpools/wordpool_long_SP.txt	ESCUDO	10	6	[0, 0, 0]	n/a	FR1	0	R1461T
4674.74	0.834	952276	WORD_OFF	n/a	n/a	ESCUDO	10	6	[0, 0, 0]	n/a	FR1	0	R1461T
4675.574	1.601	953098	WORD	n/a	wordpools/wordpool_long_SP.txt	PECHO	11	6	[0, 0, 0]	n/a	FR1	0	R1461T
4677.175	0.949	954699	WORD_OFF	n/a	n/a	PECHO	11	6	[0, 0, 0]	n/a	FR1	0	R1461T
4678.124	1.601	955649	WORD	n/a	wordpools/wordpool_long_SP.txt	DIENTE	12	6	[0, 0, 0]	n/a	FR1	0	R1461T
4679.725	0.0	957252	PROB	0.0	n/a	n/a	-999	7	[3, 3, 7]	337	FR1	0	R1461T
4679.724	0.004	957253	WORD_OFF	n/a	n/a	DIENTE	12	6	[0, 0, 0]	n/a	FR1	0	R1461T
4679.728	0.0	957255	START	n/a	n/a	n/a	-999	7	[-999, -999, -999]	n/a	FR1	0	R1461T
4679.728	0.0	957264	ENCODING_END	n/a	n/a	n/a	-999	6	[0, 0, 0]	n/a	FR1	0	R1461T
4679.728	13.081	957264	DISTRACT_START	n/a	n/a	n/a	-999	6	[0, 0, 0]	n/a	FR1	0	R1461T
4692.809	12.131	970335	PROB	12.131	n/a	n/a	-999	7	[8, 3, 2]	832	FR1	0	R1461T
4704.94	0.0	982466	STOP	n/a	n/a	n/a	-999	7	[-999, -999, -999]	n/a	FR1	0	R1461T
4704.94	2.118	982475	DISTRACT_END	n/a	n/a	n/a	-999	6	[0, 0, 0]	n/a	FR1	0	R1461T
4707.058	1.436	984581	REC_START	n/a	n/a	n/a	-999	6	[0, 0, 0]	n/a	FR1	0	R1461T
4708.494	2.749	986019	REC_WORD	2.749	n/a	UNA	6	6	[0, 0, 0]	n/a	FR1	0	R1461T
4711.243	0.705	988768	REC_WORD	0.705	n/a	ES	-999	6	[0, 0, 0]	n/a	FR1	0	R1461T
4711.948	2.649	989473	REC_WORD	2.649	n/a	TE	-999	6	[0, 0, 0]	n/a	FR1	0	R1461T
4714.597	3.946	992122	REC_WORD	3.946	n/a	LABERINTO	3	6	[0, 0, 0]	n/a	FR1	0	R1461T
4718.543	4.201	996068	REC_WORD_VV	4.201	n/a	<>	-999	6	[0, 0, 0]	n/a	FR1	0	R1461T
4722.744	2.57	1000269	REC_WORD_VV	2.57	n/a	<>	-999	6	[0, 0, 0]	n/a	FR1	0	R1461T
4725.314	5.725	1002839	REC_WORD_VV	5.725	n/a	<>	-999	6	[0, 0, 0]	n/a	FR1	0	R1461T
4731.039	6.23	1008563	REC_WORD	6.23	n/a	DIENTES	-999	6	[0, 0, 0]	n/a	FR1	0	R1461T
4737.269	95.372	1014800	REC_END	n/a	n/a	n/a	-999	6	[0, 0, 0]	n/a	FR1	0	R1461T
4832.641	10.351	1110160	COUNTDOWN_START	n/a	n/a	n/a	-999	7	[0, 0, 0]	n/a	FR1	0	R1461T
4842.992	0.0	1120519	COUNTDOWN_END	n/a	n/a	n/a	-999	7	[0, 0, 0]	n/a	FR1	0	R1461T
4842.992	1.983	1120519	ENCODING_START	n/a	n/a	n/a	-999	7	[0, 0, 0]	n/a	FR1	0	R1461T
4844.975	1.6	1122489	WORD	n/a	wordpools/wordpool_long_SP.txt	PALMA	1	7	[0, 0, 0]	n/a	FR1	0	R1461T
4846.575	0.866	1124090	WORD_OFF	n/a	n/a	PALMA	1	7	[0, 0, 0]	n/a	FR1	0	R1461T
4847.441	1.6	1124969	WORD	n/a	wordpools/wordpool_long_SP.txt	CASA	2	7	[0, 0, 0]	n/a	FR1	0	R1461T
4849.041	1.0	1126556	WORD_OFF	n/a	n/a	CASA	2	7	[0, 0, 0]	n/a	FR1	0	R1461T
4850.041	1.6	1127562	WORD	n/a	wordpools/wordpool_long_SP.txt	MONEDA	3	7	[0, 0, 0]	n/a	FR1	0	R1461T
4851.641	0.767	1129164	WORD_OFF	n/a	n/a	MONEDA	3	7	[0, 0, 0]	n/a	FR1	0	R1461T
4852.408	1.6	1129929	WORD	n/a	wordpools/wordpool_long_SP.txt	TAMBOR	4	7	[0, 0, 0]	n/a	FR1	0	R1461T
4854.008	0.8	1131530	WORD_OFF	n/a	n/a	TAMBOR	4	7	[0, 0, 0]	n/a	FR1	0	R1461T
4854.808	1.6	1132324	WORD	n/a	wordpools/wordpool_long_SP.txt	SEMILLA	5	7	[0, 0, 0]	n/a	FR1	0	R1461T
4856.408	0.867	1133925	WORD_OFF	n/a	n/a	SEMILLA	5	7	[0, 0, 0]	n/a	FR1	0	R1461T
4857.275	1.616	1134790	WORD	n/a	wordpools/wordpool_long_SP.txt	CAMELLO	6	7	[0, 0, 0]	n/a	FR1	0	R1461T
4858.891	0.866	1136405	WORD_OFF	n/a	n/a	CAMELLO	6	7	[0, 0, 0]	n/a	FR1	0	R1461T
4859.757	1.6	1137270	WORD	n/a	wordpools/wordpool_long_SP.txt	MADERA	7	7	[0, 0, 0]	n/a	FR1	0	R1461T
4861.357	0.968	1138871	WORD_OFF	n/a	n/a	MADERA	7	7	[0, 0, 0]	n/a	FR1	0	R1461T
4862.325	1.6	1139849	WORD	n/a	wordpools/wordpool_long_SP.txt	NIEVE	8	7	[0, 0, 0]	n/a	FR1	0	R1461T
4863.925	0.983	1141450	WORD_OFF	n/a	n/a	NIEVE	8	7	[0, 0, 0]	n/a	FR1	0	R1461T
4864.908	1.6	1142428	WORD	n/a	wordpools/wordpool_long_SP.txt	SOPA	9	7	[0, 0, 0]	n/a	FR1	0	R1461T
4866.508	0.9	1144030	WORD_OFF	n/a	n/a	SOPA	9	7	[0, 0, 0]	n/a	FR1	0	R1461T
4867.408	1.6	1144922	WORD	n/a	wordpools/wordpool_long_SP.txt	EFECTIVO	10	7	[0, 0, 0]	n/a	FR1	0	R1461T
4869.008	0.883	1146524	WORD_OFF	n/a	n/a	EFECTIVO	10	7	[0, 0, 0]	n/a	FR1	0	R1461T
4869.891	1.6	1147416	WORD	n/a	wordpools/wordpool_long_SP.txt	MURCIELAGO	11	7	[0, 0, 0]	n/a	FR1	0	R1461T
4871.491	0.817	1149004	WORD_OFF	n/a	n/a	MURCIELAGO	11	7	[0, 0, 0]	n/a	FR1	0	R1461T
4872.308	1.601	1149826	WORD	n/a	wordpools/wordpool_long_SP.txt	GRUA	12	7	[0, 0, 0]	n/a	FR1	0	R1461T
4873.909	0.0	1151426	START	n/a	n/a	n/a	-999	8	[-999, -999, -999]	n/a	FR1	0	R1461T
4873.909	0.0	1151426	PROB	0.0	n/a	n/a	-999	8	[7, 3, 8]	738	FR1	0	R1461T
4873.908	0.001	1151427	WORD_OFF	n/a	n/a	GRUA	12	7	[0, 0, 0]	n/a	FR1	0	R1461T
4873.909	0.0	1151427	ENCODING_END	n/a	n/a	n/a	-999	7	[0, 0, 0]	n/a	FR1	0	R1461T
4873.909	14.367	1151427	DISTRACT_START	n/a	n/a	n/a	-999	7	[0, 0, 0]	n/a	FR1	0	R1461T
4888.276	14.182	1165792	PROB	14.182	n/a	n/a	-999	8	[5, 6, 2]	562	FR1	0	R1461T
4902.458	0.0	1179973	STOP	n/a	n/a	n/a	-999	8	[-999, -999, -999]	n/a	FR1	0	R1461T
4902.458	2.099	1179982	DISTRACT_END	n/a	n/a	n/a	-999	7	[0, 0, 0]	n/a	FR1	0	R1461T
4904.557	3.505	1182074	REC_START	n/a	n/a	n/a	-999	7	[0, 0, 0]	n/a	FR1	0	R1461T
4908.062	2.168	1185577	REC_WORD	2.168	n/a	CASA	2	7	[0, 0, 0]	n/a	FR1	0	R1461T
4910.23	0.719	1187745	REC_WORD	0.719	n/a	ES	-999	7	[0, 0, 0]	n/a	FR1	0	R1461T
4910.949	4.908	1188464	REC_WORD	4.908	n/a	TE	-999	7	[0, 0, 0]	n/a	FR1	0	R1461T
4915.857	7.848	1193372	REC_WORD	7.848	n/a	PUERTA	-999	7	[0, 0, 0]	n/a	FR1	0	R1461T
4923.705	4.292	1201219	REC_WORD	4.292	n/a	ARROZ	-999	7	[0, 0, 0]	n/a	FR1	0	R1461T
4927.997	2.485	1205511	REC_WORD_VV	2.485	n/a	<>	-999	7	[0, 0, 0]	n/a	FR1	0	R1461T
4930.482	4.274	1207996	REC_WORD	4.274	n/a	SOMBRA	-999	7	[0, 0, 0]	n/a	FR1	0	R1461T
4934.756	8.335	1212279	REC_END	n/a	n/a	n/a	-999	7	[0, 0, 0]	n/a	FR1	0	R1461T
4943.091	10.35	1220612	COUNTDOWN_START	n/a	n/a	n/a	-999	8	[0, 0, 0]	n/a	FR1	0	R1461T
4953.441	0.0	1230957	COUNTDOWN_END	n/a	n/a	n/a	-999	8	[0, 0, 0]	n/a	FR1	0	R1461T
4953.441	1.884	1230957	ENCODING_START	n/a	n/a	n/a	-999	8	[0, 0, 0]	n/a	FR1	0	R1461T
4955.325	1.616	1232842	WORD	n/a	wordpools/wordpool_long_SP.txt	MASCOTA	1	8	[0, 0, 0]	n/a	FR1	0	R1461T
4956.941	0.884	1234457	WORD_OFF	n/a	n/a	MASCOTA	1	8	[0, 0, 0]	n/a	FR1	0	R1461T
4957.825	1.6	1235336	WORD	n/a	wordpools/wordpool_long_SP.txt	VERJA	2	8	[0, 0, 0]	n/a	FR1	0	R1461T
4959.425	0.933	1236937	WORD_OFF	n/a	n/a	VERJA	2	8	[0, 0, 0]	n/a	FR1	0	R1461T
4960.358	1.6	1237873	WORD	n/a	wordpools/wordpool_long_SP.txt	FLORECER	3	8	[0, 0, 0]	n/a	FR1	0	R1461T
4961.958	0.916	1239474	WORD_OFF	n/a	n/a	FLORECER	3	8	[0, 0, 0]	n/a	FR1	0	R1461T
4962.874	1.601	1240395	WORD	n/a	wordpools/wordpool_long_SP.txt	POLILLA	4	8	[0, 0, 0]	n/a	FR1	0	R1461T
4964.475	0.799	1241982	WORD_OFF	n/a	n/a	POLILLA	4	8	[0, 0, 0]	n/a	FR1	0	R1461T
4965.274	1.601	1242790	WORD	n/a	wordpools/wordpool_long_SP.txt	PERRO	5	8	[0, 0, 0]	n/a	FR1	0	R1461T
4966.875	0.95	1244392	WORD_OFF	n/a	n/a	PERRO	5	8	[0, 0, 0]	n/a	FR1	0	R1461T
4967.825	1.616	1245341	WORD	n/a	wordpools/wordpool_long_SP.txt	CHALECO	6	8	[0, 0, 0]	n/a	FR1	0	R1461T
4969.441	0.817	1246957	WORD_OFF	n/a	n/a	CHALECO	6	8	[0, 0, 0]	n/a	FR1	0	R1461T
4970.258	1.617	1247778	WORD	n/a	wordpools/wordpool_long_SP.txt	COSTILLA	7	8	[0, 0, 0]	n/a	FR1	0	R1461T
4971.875	0.999	1249394	WORD_OFF	n/a	n/a	COSTILLA	7	8	[0, 0, 0]	n/a	FR1	0	R1461T
4972.874	1.601	1250386	WORD	n/a	wordpools/wordpool_long_SP.txt	PALO	8	8	[0, 0, 0]	n/a	FR1	0	R1461T
4974.475	0.783	1251987	WORD_OFF	n/a	n/a	PALO	8	8	[0, 0, 0]	n/a	FR1	0	R1461T
4975.258	1.616	1252767	WORD	n/a	wordpools/wordpool_long_SP.txt	TABURETE	9	8	[0, 0, 0]	n/a	FR1	0	R1461T
4976.874	0.767	1254382	WORD_OFF	n/a	n/a	TABURETE	9	8	[0, 0, 0]	n/a	FR1	0	R1461T
4977.641	1.617	1255162	WORD	n/a	wordpools/wordpool_long_SP.txt	AVE	10	8	[0, 0, 0]	n/a	FR1	0	R1461T
4979.258	0.866	1256777	WORD_OFF	n/a	n/a	AVE	10	8	[0, 0, 0]	n/a	FR1	0	R1461T
4980.124	1.601	1257642	WORD	n/a	wordpools/wordpool_long_SP.txt	TENEDOR	11	8	[0, 0, 0]	n/a	FR1	0	R1461T
4981.725	0.766	1259243	WORD_OFF	n/a	n/a	TENEDOR	11	8	[0, 0, 0]	n/a	FR1	0	R1461T
4982.491	1.618	1260008	WORD	n/a	wordpools/wordpool_long_SP.txt	PANTALONES	12	8	[0, 0, 0]	n/a	FR1	0	R1461T
4984.109	0.0	1261620	START	n/a	n/a	n/a	-999	9	[-999, -999, -999]	n/a	FR1	0	R1461T
4984.109	0.0	1261620	PROB	0.0	n/a	n/a	-999	9	[4, 7, 1]	471	FR1	0	R1461T
4984.108	0.001	1261624	WORD_OFF	n/a	n/a	PANTALONES	12	8	[0, 0, 0]	n/a	FR1	0	R1461T
4984.109	0.0	1261624	ENCODING_END	n/a	n/a	n/a	-999	8	[0, 0, 0]	n/a	FR1	0	R1461T
4984.109	15.649	1261624	DISTRACT_START	n/a	n/a	n/a	-999	8	[0, 0, 0]	n/a	FR1	0	R1461T
4999.758	18.316	1277268	PROB	18.316	n/a	n/a	-999	9	[2, 3, 4]	224	FR1	0	R1461T
5018.074	0.0	1295579	DISTRACT_END	n/a	n/a	n/a	-999	8	[0, 0, 0]	n/a	FR1	0	R1461T
5018.074	2.384	1295583	STOP	n/a	n/a	n/a	-999	9	[-999, -999, -999]	n/a	FR1	0	R1461T
5020.458	5.005	1297967	REC_START	n/a	n/a	n/a	-999	8	[0, 0, 0]	n/a	FR1	0	R1461T
5025.463	3.924	1302972	REC_WORD	3.924	n/a	PUERTA	-999	8	[0, 0, 0]	n/a	FR1	0	R1461T
5029.387	8.263	1306896	REC_WORD_VV	8.263	n/a	<>	-999	8	[0, 0, 0]	n/a	FR1	0	R1461T
5037.65	13.024	1315158	REC_WORD	13.024	n/a	CASA	-999	8	[0, 0, 0]	n/a	FR1	0	R1461T
5050.674	16.033	1328187	REC_END	n/a	n/a	n/a	-999	8	[0, 0, 0]	n/a	FR1	0	R1461T
5066.707	10.351	1344215	COUNTDOWN_START	n/a	n/a	n/a	-999	9	[0, 0, 0]	n/a	FR1	0	R1461T
5077.058	0.0	1354560	COUNTDOWN_END	n/a	n/a	n/a	-999	9	[0, 0, 0]	n/a	FR1	0	R1461T
5077.058	2.083	1354574	ENCODING_START	n/a	n/a	n/a	-999	9	[0, 0, 0]	n/a	FR1	0	R1461T
5079.141	1.617	1356643	WORD	n/a	wordpools/wordpool_long_SP.txt	BOLSO	1	9	[0, 0, 0]	n/a	FR1	0	R1461T
5080.758	0.783	1358273	WORD_OFF	n/a	n/a	BOLSO	1	9	[0, 0, 0]	n/a	FR1	0	R1461T
5081.541	1.617	1359052	WORD	n/a	wordpools/wordpool_long_SP.txt	FILETE	2	9	[0, 0, 0]	n/a	FR1	0	R1461T
5083.158	0.866	1360668	WORD_OFF	n/a	n/a	FILETE	2	9	[0, 0, 0]	n/a	FR1	0	R1461T
5084.024	1.6	1361532	WORD	n/a	wordpools/wordpool_long_SP.txt	VELA	3	9	[0, 0, 0]	n/a	FR1	0	R1461T
5085.624	0.834	1363134	WORD_OFF	n/a	n/a	VELA	3	9	[0, 0, 0]	n/a	FR1	0	R1461T
5086.458	1.615	1363970	WORD	n/a	wordpools/wordpool_long_SP.txt	MUNECO	4	9	[0, 0, 0]	n/a	FR1	0	R1461T
5088.073	0.901	1365585	WORD_OFF	n/a	n/a	MUNECO	4	9	[0, 0, 0]	n/a	FR1	0	R1461T
5088.974	1.6	1366478	WORD	n/a	wordpools/wordpool_long_SP.txt	INUNDACION	5	9	[0, 0, 0]	n/a	FR1	0	R1461T
5090.574	0.9	1368080	WORD_OFF	n/a	n/a	INUNDACION	5	9	[0, 0, 0]	n/a	FR1	0	R1461T
5091.474	1.601	1368987	WORD	n/a	wordpools/wordpool_long_SP.txt	BRAZO	6	9	[0, 0, 0]	n/a	FR1	0	R1461T
5093.075	0.784	1370588	WORD_OFF	n/a	n/a	BRAZO	6	9	[0, 0, 0]	n/a	FR1	0	R1461T
5093.859	1.599	1371367	WORD	n/a	wordpools/wordpool_long_SP.txt	BEBE	7	9	[0, 0, 0]	n/a	FR1	0	R1461T
5095.458	0.983	1372969	WORD_OFF	n/a	n/a	BEBE	7	9	[0, 0, 0]	n/a	FR1	0	R1461T
5096.441	1.6	1373947	WORD	n/a	wordpools/wordpool_long_SP.txt	RATA	8	9	[0, 0, 0]	n/a	FR1	0	R1461T
5098.041	0.767	1375548	WORD_OFF	n/a	n/a	RATA	8	9	[0, 0, 0]	n/a	FR1	0	R1461T
5098.808	1.6	1376313	WORD	n/a	wordpools/wordpool_long_SP.txt	PASTA	9	9	[0, 0, 0]	n/a	FR1	0	R1461T
5100.408	0.883	1377915	WORD_OFF	n/a	n/a	PASTA	9	9	[0, 0, 0]	n/a	FR1	0	R1461T
5101.291	1.616	1378793	WORD	n/a	wordpools/wordpool_long_SP.txt	ZAPATO	10	9	[0, 0, 0]	n/a	FR1	0	R1461T
5102.907	0.918	1380409	WORD_OFF	n/a	n/a	ZAPATO	10	9	[0, 0, 0]	n/a	FR1	0	R1461T
5103.825	1.616	1381330	WORD	n/a	wordpools/wordpool_long_SP.txt	LADRILLO	11	9	[0, 0, 0]	n/a	FR1	0	R1461T
5105.441	0.767	1382945	WORD_OFF	n/a	n/a	LADRILLO	11	9	[0, 0, 0]	n/a	FR1	0	R1461T
5106.208	1.616	1383711	WORD	n/a	wordpools/wordpool_long_SP.txt	REMO	12	9	[0, 0, 0]	n/a	FR1	0	R1461T
5107.824	0.001	1385326	WORD_OFF	n/a	n/a	REMO	12	9	[0, 0, 0]	n/a	FR1	0	R1461T
5107.825	0.001	1385330	PROB	0.001	n/a	n/a	-999	10	[2, 7, 6]	276	FR1	0	R1461T
5107.826	0.0	1385331	START	n/a	n/a	n/a	-999	10	[-999, -999, -999]	n/a	FR1	0	R1461T
5107.825	0.001	1385340	ENCODING_END	n/a	n/a	n/a	-999	9	[0, 0, 0]	n/a	FR1	0	R1461T
5107.826	23.865	1385340	DISTRACT_START	n/a	n/a	n/a	-999	9	[0, 0, 0]	n/a	FR1	0	R1461T
5131.691	0.0	1409191	DISTRACT_END	n/a	n/a	n/a	-999	9	[0, 0, 0]	n/a	FR1	0	R1461T
5131.691	2.25	1409195	STOP	n/a	n/a	n/a	-999	10	[-999, -999, -999]	n/a	FR1	0	R1461T
5133.941	4.648	1411452	REC_START	n/a	n/a	n/a	-999	9	[0, 0, 0]	n/a	FR1	0	R1461T
5138.589	1.0	1416092	REC_WORD_VV	1.0	n/a	<>	-999	9	[0, 0, 0]	n/a	FR1	0	R1461T
5139.589	0.53	1417092	REC_WORD_VV	0.53	n/a	<>	-999	9	[0, 0, 0]	n/a	FR1	0	R1461T
5140.119	0.312	1417622	REC_WORD_VV	0.312	n/a	<>	-999	9	[0, 0, 0]	n/a	FR1	0	R1461T
5140.431	2.664	1417934	REC_WORD	2.664	n/a	FILETE	2	9	[0, 0, 0]	n/a	FR1	0	R1461T
5143.095	0.999	1420598	REC_WORD_VV	0.999	n/a	<>	-999	9	[0, 0, 0]	n/a	FR1	0	R1461T
5144.094	3.468	1421597	REC_WORD_VV	3.468	n/a	<>	-999	9	[0, 0, 0]	n/a	FR1	0	R1461T
5147.562	16.574	1425065	REC_WORD	16.574	n/a	SOPA	-999	9	[0, 0, 0]	n/a	FR1	0	R1461T
5164.136	10.354	1441643	REC_END	n/a	n/a	n/a	-999	9	[0, 0, 0]	n/a	FR1	0	R1461T
5174.49	10.352	1452003	COUNTDOWN_START	n/a	n/a	n/a	-999	10	[0, 0, 0]	n/a	FR1	0	R1461T
5184.842	0.0	1462348	COUNTDOWN_END	n/a	n/a	n/a	-999	10	[0, 0, 0]	n/a	FR1	0	R1461T
5184.842	2.116	1462348	ENCODING_START	n/a	n/a	n/a	-999	10	[0, 0, 0]	n/a	FR1	0	R1461T
5186.958	1.6	1464459	WORD	n/a	wordpools/wordpool_long_SP.txt	NINO	1	10	[0, 0, 0]	n/a	FR1	0	R1461T
5188.558	1.0	1466061	WORD_OFF	n/a	n/a	NINO	1	10	[0, 0, 0]	n/a	FR1	0	R1461T
5189.558	1.6	1467067	WORD	n/a	wordpools/wordpool_long_SP.txt	ARCA	2	10	[0, 0, 0]	n/a	FR1	0	R1461T
5191.158	0.783	1468654	WORD_OFF	n/a	n/a	ARCA	2	10	[0, 0, 0]	n/a	FR1	0	R1461T
5191.941	1.6	1469448	WORD	n/a	wordpools/wordpool_long_SP.txt	LLAVE	3	10	[0, 0, 0]	n/a	FR1	0	R1461T
5193.541	0.934	1471049	WORD_OFF	n/a	n/a	LLAVE	3	10	[0, 0, 0]	n/a	FR1	0	R1461T
5194.475	1.616	1471984	WORD	n/a	wordpools/wordpool_long_SP.txt	ALCES	4	10	[0, 0, 0]	n/a	FR1	0	R1461T
5196.091	0.8	1473600	WORD_OFF	n/a	n/a	ALCES	4	10	[0, 0, 0]	n/a	FR1	0	R1461T
5196.891	1.6	1474394	WORD	n/a	wordpools/wordpool_long_SP.txt	HORMIGA	5	10	[0, 0, 0]	n/a	FR1	0	R1461T
5198.491	0.9	1475995	WORD_OFF	n/a	n/a	HORMIGA	5	10	[0, 0, 0]	n/a	FR1	0	R1461T
5199.391	1.616	1476888	WORD	n/a	wordpools/wordpool_long_SP.txt	PELICULA	6	10	[0, 0, 0]	n/a	FR1	0	R1461T
5201.007	0.767	1478503	WORD_OFF	n/a	n/a	PELICULA	6	10	[0, 0, 0]	n/a	FR1	0	R1461T
5201.774	1.601	1479269	WORD	n/a	wordpools/wordpool_long_SP.txt	MAIZ	7	10	[0, 0, 0]	n/a	FR1	0	R1461T
5203.375	0.916	1480870	WORD_OFF	n/a	n/a	MAIZ	7	10	[0, 0, 0]	n/a	FR1	0	R1461T
5204.291	1.617	1481791	WORD	n/a	wordpools/wordpool_long_SP.txt	HIELO	8	10	[0, 0, 0]	n/a	FR1	0	R1461T
5205.908	0.816	1483407	WORD_OFF	n/a	n/a	HIELO	8	10	[0, 0, 0]	n/a	FR1	0	R1461T
5206.724	1.601	1484229	WORD	n/a	wordpools/wordpool_long_SP.txt	CORAZON	9	10	[0, 0, 0]	n/a	FR1	0	R1461T
5208.325	0.849	1485830	WORD_OFF	n/a	n/a	CORAZON	9	10	[0, 0, 0]	n/a	FR1	0	R1461T
5209.174	1.6	1486680	WORD	n/a	wordpools/wordpool_long_SP.txt	CRIA	10	10	[0, 0, 0]	n/a	FR1	0	R1461T
5210.774	0.767	1488282	WORD_OFF	n/a	n/a	CRIA	10	10	[0, 0, 0]	n/a	FR1	0	R1461T
5211.541	1.617	1489047	WORD	n/a	wordpools/wordpool_long_SP.txt	CABALLO	11	10	[0, 0, 0]	n/a	FR1	0	R1461T
5213.158	0.767	1490662	WORD_OFF	n/a	n/a	CABALLO	11	10	[0, 0, 0]	n/a	FR1	0	R1461T
5213.925	1.616	1491428	WORD	n/a	wordpools/wordpool_long_SP.txt	HALCON	12	10	[0, 0, 0]	n/a	FR1	0	R1461T
5215.541	0.001	1493040	PROB	0.001	n/a	n/a	-999	11	[4, 1, 6]	416	FR1	0	R1461T
5215.542	0.0	1493041	START	n/a	n/a	n/a	-999	11	[-999, -999, -999]	n/a	FR1	0	R1461T
5215.541	0.001	1493043	WORD_OFF	n/a	n/a	HALCON	12	10	[0, 0, 0]	n/a	FR1	0	R1461T
5215.542	0.0	1493043	ENCODING_END	n/a	n/a	n/a	-999	10	[0, 0, 0]	n/a	FR1	0	R1461T
5215.542	16.116	1493043	DISTRACT_START	n/a	n/a	n/a	-999	10	[0, 0, 0]	n/a	FR1	0	R1461T
5231.658	15.916	1509156	PROB	15.916	n/a	n/a	-999	11	[7, 4, 2]	742	FR1	0	R1461T
5247.574	0.0	1525071	DISTRACT_END	n/a	n/a	n/a	-999	10	[0, 0, 0]	n/a	FR1	0	R1461T
5247.574	2.383	1525072	STOP	n/a	n/a	n/a	-999	11	[-999, -999, -999]	n/a	FR1	0	R1461T
5249.957	0.059	1527459	REC_START	n/a	n/a	n/a	-999	10	[0, 0, 0]	n/a	FR1	0	R1461T
5250.016	1.0	1527513	REC_WORD_VV	1.0	n/a	<>	-999	10	[0, 0, 0]	n/a	FR1	0	R1461T
5251.016	1.0	1528513	REC_WORD_VV	1.0	n/a	<>	-999	10	[0, 0, 0]	n/a	FR1	0	R1461T
5252.016	0.92	1529513	REC_WORD_VV	0.92	n/a	<>	-999	10	[0, 0, 0]	n/a	FR1	0	R1461T
5252.936	2.543	1530433	REC_WORD	2.543	n/a	NIEVE	-999	10	[0, 0, 0]	n/a	FR1	0	R1461T
5255.479	4.232	1532976	REC_WORD_VV	4.232	n/a	<>	-999	10	[0, 0, 0]	n/a	FR1	0	R1461T
5259.711	1.921	1537208	REC_WORD_VV	1.921	n/a	<>	-999	10	[0, 0, 0]	n/a	FR1	0	R1461T
5261.632	2.814	1539129	REC_WORD	2.814	n/a	BEBE	-999	10	[0, 0, 0]	n/a	FR1	0	R1461T
5264.446	0.862	1541943	REC_WORD_VV	0.862	n/a	<>	-999	10	[0, 0, 0]	n/a	FR1	0	R1461T
5265.308	0.967	1542805	REC_WORD_VV	0.967	n/a	<>	-999	10	[0, 0, 0]	n/a	FR1	0	R1461T
5266.275	3.868	1543772	REC_WORD_VV	3.868	n/a	<>	-999	10	[0, 0, 0]	n/a	FR1	0	R1461T
5270.143	1.0	1547639	REC_WORD_VV	1.0	n/a	<>	-999	10	[0, 0, 0]	n/a	FR1	0	R1461T
5271.143	1.0	1548639	REC_WORD_VV	1.0	n/a	<>	-999	10	[0, 0, 0]	n/a	FR1	0	R1461T
5272.143	1.615	1549639	REC_WORD_VV	1.615	n/a	<>	-999	10	[0, 0, 0]	n/a	FR1	0	R1461T
5273.758	0.965	1551254	REC_WORD_VV	0.965	n/a	<>	-999	10	[0, 0, 0]	n/a	FR1	0	R1461T
5274.723	1.419	1552219	REC_WORD_VV	1.419	n/a	<>	-999	10	[0, 0, 0]	n/a	FR1	0	R1461T
5276.142	2.39	1553638	REC_WORD	2.39	n/a	PARED	-999	10	[0, 0, 0]	n/a	FR1	0	R1461T
5278.532	1.188	1556028	REC_WORD_VV	1.188	n/a	<>	-999	10	[0, 0, 0]	n/a	FR1	0	R1461T
5279.72	0.443	1557216	REC_WORD_VV	0.443	n/a	<>	-999	10	[0, 0, 0]	n/a	FR1	0	R1461T
5280.163	14.761	1557665	REC_END	n/a	n/a	n/a	-999	10	[0, 0, 0]	n/a	FR1	0	R1461T
5294.924	10.351	1572417	COUNTDOWN_START	n/a	n/a	n/a	-999	11	[0, 0, 0]	n/a	FR1	0	R1461T
5305.275	0.0	1582777	COUNTDOWN_END	n/a	n/a	n/a	-999	11	[0, 0, 0]	n/a	FR1	0	R1461T
5305.275	1.983	1582777	ENCODING_START	n/a	n/a	n/a	-999	11	[0, 0, 0]	n/a	FR1	0	R1461T
5307.258	1.617	1584761	WORD	n/a	wordpools/wordpool_long_SP.txt	GRANERO	1	11	[0, 0, 0]	n/a	FR1	0	R1461T
5308.875	0.832	1586376	WORD_OFF	n/a	n/a	GRANERO	1	11	[0, 0, 0]	n/a	FR1	0	R1461T
5309.707	1.6	1587198	WORD	n/a	wordpools/wordpool_long_SP.txt	NIDO	2	11	[0, 0, 0]	n/a	FR1	0	R1461T
5311.307	0.834	1588799	WORD_OFF	n/a	n/a	NIDO	2	11	[0, 0, 0]	n/a	FR1	0	R1461T
5312.141	1.617	1589636	WORD	n/a	wordpools/wordpool_long_SP.txt	SONRISA	3	11	[0, 0, 0]	n/a	FR1	0	R1461T
5313.758	0.767	1591251	WORD_OFF	n/a	n/a	SONRISA	3	11	[0, 0, 0]	n/a	FR1	0	R1461T
5314.525	1.616	1592016	WORD	n/a	wordpools/wordpool_long_SP.txt	LIMO	4	11	[0, 0, 0]	n/a	FR1	0	R1461T
5316.141	0.866	1593632	WORD_OFF	n/a	n/a	LIMO	4	11	[0, 0, 0]	n/a	FR1	0	R1461T
5317.007	1.601	1594510	WORD	n/a	wordpools/wordpool_long_SP.txt	TIBURON	5	11	[0, 0, 0]	n/a	FR1	0	R1461T
5318.608	0.983	1596098	WORD_OFF	n/a	n/a	TIBURON	5	11	[0, 0, 0]	n/a	FR1	0	R1461T
5319.591	1.617	1597090	WORD	n/a	wordpools/wordpool_long_SP.txt	DURAZNO	6	11	[0, 0, 0]	n/a	FR1	0	R1461T
5321.208	0.9	1598705	WORD_OFF	n/a	n/a	DURAZNO	6	11	[0, 0, 0]	n/a	FR1	0	R1461T
5322.108	1.6	1599598	WORD	n/a	wordpools/wordpool_long_SP.txt	ANGUILA	7	11	[0, 0, 0]	n/a	FR1	0	R1461T
5323.708	0.8	1601199	WORD_OFF	n/a	n/a	ANGUILA	7	11	[0, 0, 0]	n/a	FR1	0	R1461T
5324.508	1.616	1602007	WORD	n/a	wordpools/wordpool_long_SP.txt	AGUANIEVE	8	11	[0, 0, 0]	n/a	FR1	0	R1461T
5326.124	0.799	1603623	WORD_OFF	n/a	n/a	AGUANIEVE	8	11	[0, 0, 0]	n/a	FR1	0	R1461T
5326.923	1.601	1604416	WORD	n/a	wordpools/wordpool_long_SP.txt	FICHA	9	11	[0, 0, 0]	n/a	FR1	0	R1461T
5328.524	0.833	1606018	WORD_OFF	n/a	n/a	FICHA	9	11	[0, 0, 0]	n/a	FR1	0	R1461T
5329.357	1.6	1606854	WORD	n/a	wordpools/wordpool_long_SP.txt	LUNA	10	11	[0, 0, 0]	n/a	FR1	0	R1461T
5330.957	0.951	1608455	WORD_OFF	n/a	n/a	LUNA	10	11	[0, 0, 0]	n/a	FR1	0	R1461T
5331.908	1.6	1609405	WORD	n/a	wordpools/wordpool_long_SP.txt	MAR	11	11	[0, 0, 0]	n/a	FR1	0	R1461T
5333.508	0.766	1611006	WORD_OFF	n/a	n/a	MAR	11	11	[0, 0, 0]	n/a	FR1	0	R1461T
5334.274	1.618	1611771	WORD	n/a	wordpools/wordpool_long_SP.txt	CAJA	12	11	[0, 0, 0]	n/a	FR1	0	R1461T
5335.892	0.001	1613385	PROB	0.001	n/a	n/a	-999	12	[4, 4, 5]	445	FR1	0	R1461T
5335.893	0.0	1613386	START	n/a	n/a	n/a	-999	12	[-999, -999, -999]	n/a	FR1	0	R1461T
5335.891	0.002	1613387	WORD_OFF	n/a	n/a	CAJA	12	11	[0, 0, 0]	n/a	FR1	0	R1461T
5335.893	0.0	1613387	ENCODING_END	n/a	n/a	n/a	-999	11	[0, 0, 0]	n/a	FR1	0	R1461T
5335.893	22.898	1613387	DISTRACT_START	n/a	n/a	n/a	-999	11	[0, 0, 0]	n/a	FR1	0	R1461T
5358.791	0.0	1636283	STOP	n/a	n/a	n/a	-999	12	[-999, -999, -999]	n/a	FR1	0	R1461T
5358.791	2.267	1636288	DISTRACT_END	n/a	n/a	n/a	-999	11	[0, 0, 0]	n/a	FR1	0	R1461T
5361.058	4.685	1638549	REC_START	n/a	n/a	n/a	-999	11	[0, 0, 0]	n/a	FR1	0	R1461T
5365.743	0.474	1643235	REC_WORD_VV	0.474	n/a	<>	-999	11	[0, 0, 0]	n/a	FR1	0	R1461T
5366.217	2.017	1643708	REC_WORD	2.017	n/a	NINO	-999	11	[0, 0, 0]	n/a	FR1	0	R1461T
5368.234	4.907	1645725	REC_WORD_VV	4.907	n/a	<>	-999	11	[0, 0, 0]	n/a	FR1	0	R1461T
5373.141	3.203	1650632	REC_WORD_VV	3.203	n/a	<>	-999	11	[0, 0, 0]	n/a	FR1	0	R1461T
5376.344	6.417	1653835	REC_WORD_VV	6.417	n/a	<>	-999	11	[0, 0, 0]	n/a	FR1	0	R1461T
5382.761	8.526	1660252	REC_WORD_VV	8.526	n/a	<>	-999	11	[0, 0, 0]	n/a	FR1	0	R1461T
5391.287	11.388	1668783	REC_END	n/a	n/a	n/a	-999	11	[0, 0, 0]	n/a	FR1	0	R1461T
5402.675	10.35	1680163	COUNTDOWN_START	n/a	n/a	n/a	-999	12	[0, 0, 0]	n/a	FR1	0	R1461T
5413.025	0.0	1690522	COUNTDOWN_END	n/a	n/a	n/a	-999	12	[0, 0, 0]	n/a	FR1	0	R1461T
5413.025	2.082	1690522	ENCODING_START	n/a	n/a	n/a	-999	12	[0, 0, 0]	n/a	FR1	0	R1461T
5415.107	1.601	1692605	WORD	n/a	wordpools/wordpool_long_SP.txt	VIGA	1	12	[0, 0, 0]	n/a	FR1	0	R1461T
5416.708	0.765	1694206	WORD_OFF	n/a	n/a	VIGA	1	12	[0, 0, 0]	n/a	FR1	0	R1461T
5417.473	1.602	1694958	WORD	n/a	wordpools/wordpool_long_SP.txt	JAULA	2	12	[0, 0, 0]	n/a	FR1	0	R1461T
5419.075	0.816	1696559	WORD_OFF	n/a	n/a	JAULA	2	12	[0, 0, 0]	n/a	FR1	0	R1461T
5419.891	1.6	1697381	WORD	n/a	wordpools/wordpool_long_SP.txt	TINTA	3	12	[0, 0, 0]	n/a	FR1	0	R1461T
5421.491	0.967	1698982	WORD_OFF	n/a	n/a	TINTA	3	12	[0, 0, 0]	n/a	FR1	0	R1461T
5422.458	1.6	1699946	WORD	n/a	wordpools/wordpool_long_SP.txt	CUADRADO	4	12	[0, 0, 0]	n/a	FR1	0	R1461T
5424.058	0.882	1701547	WORD_OFF	n/a	n/a	CUADRADO	4	12	[0, 0, 0]	n/a	FR1	0	R1461T
5424.94	1.601	1702426	WORD	n/a	wordpools/wordpool_long_SP.txt	RANA	5	12	[0, 0, 0]	n/a	FR1	0	R1461T
5426.541	0.833	1704027	WORD_OFF	n/a	n/a	RANA	5	12	[0, 0, 0]	n/a	FR1	0	R1461T
5427.374	1.617	1704863	WORD	n/a	wordpools/wordpool_long_SP.txt	PAN	6	12	[0, 0, 0]	n/a	FR1	0	R1461T
5428.991	0.934	1706479	WORD_OFF	n/a	n/a	PAN	6	12	[0, 0, 0]	n/a	FR1	0	R1461T
5429.925	1.616	1707414	WORD	n/a	wordpools/wordpool_long_SP.txt	BOTE	7	12	[0, 0, 0]	n/a	FR1	0	R1461T
5431.541	0.9	1709030	WORD_OFF	n/a	n/a	BOTE	7	12	[0, 0, 0]	n/a	FR1	0	R1461T
5432.441	1.6	1709937	WORD	n/a	wordpools/wordpool_long_SP.txt	CARCEL	8	12	[0, 0, 0]	n/a	FR1	0	R1461T
5434.041	0.999	1711538	WORD_OFF	n/a	n/a	CARCEL	8	12	[0, 0, 0]	n/a	FR1	0	R1461T
5435.04	1.601	1712530	WORD	n/a	wordpools/wordpool_long_SP.txt	TORMENTA	9	12	[0, 0, 0]	n/a	FR1	0	R1461T
5436.641	0.816	1714131	WORD_OFF	n/a	n/a	TORMENTA	9	12	[0, 0, 0]	n/a	FR1	0	R1461T
5437.457	1.601	1714953	WORD	n/a	wordpools/wordpool_long_SP.txt	COLA	10	12	[0, 0, 0]	n/a	FR1	0	R1461T
5439.058	0.999	1716541	WORD_OFF	n/a	n/a	COLA	10	12	[0, 0, 0]	n/a	FR1	0	R1461T
5440.057	1.601	1717547	WORD	n/a	wordpools/wordpool_long_SP.txt	ZORRO	11	12	[0, 0, 0]	n/a	FR1	0	R1461T
5441.658	0.782	1719148	WORD_OFF	n/a	n/a	ZORRO	11	12	[0, 0, 0]	n/a	FR1	0	R1461T
5442.44	1.754	1719928	WORD	n/a	wordpools/wordpool_long_SP.txt	TE	12	12	[0, 0, 0]	n/a	FR1	0	R1461T
5444.194	0.0	1721681	START	n/a	n/a	n/a	-999	13	[-999, -999, -999]	n/a	FR1	0	R1461T
5444.194	0.0	1721681	PROB	0.0	n/a	n/a	-999	13	[1, 3, 8]	138	FR1	0	R1461T
5444.193	0.001	1721685	WORD_OFF	n/a	n/a	TE	12	12	[0, 0, 0]	n/a	FR1	0	R1461T
5444.194	0.0	1721685	ENCODING_END	n/a	n/a	n/a	-999	12	[0, 0, 0]	n/a	FR1	0	R1461T
5444.194	12.431	1721685	DISTRACT_START	n/a	n/a	n/a	-999	12	[0, 0, 0]	n/a	FR1	0	R1461T
5456.625	13.732	1734112	PROB	13.732	n/a	n/a	-999	13	[4, 4, 6]	446	FR1	0	R1461T
5470.357	0.0	1747843	STOP	n/a	n/a	n/a	-999	13	[-999, -999, -999]	n/a	FR1	0	R1461T
5470.357	2.284	1747845	DISTRACT_END	n/a	n/a	n/a	-999	12	[0, 0, 0]	n/a	FR1	0	R1461T
5472.641	1.458	1750135	REC_START	n/a	n/a	n/a	-999	12	[0, 0, 0]	n/a	FR1	0	R1461T
5474.099	2.174	1751585	REC_WORD	2.174	n/a	RANA	5	12	[0, 0, 0]	n/a	FR1	0	R1461T
5476.273	0.803	1753759	REC_WORD	0.803	n/a	ES	-999	12	[0, 0, 0]	n/a	FR1	0	R1461T
5477.076	14.426	1754562	REC_WORD	14.426	n/a	TE	12	12	[0, 0, 0]	n/a	FR1	0	R1461T
5491.502	0.999	1768987	REC_WORD	0.999	n/a	RANA	5	12	[0, 0, 0]	n/a	FR1	0	R1461T
5492.501	1.312	1769986	REC_WORD_VV	1.312	n/a	<>	-999	12	[0, 0, 0]	n/a	FR1	0	R1461T
5493.813	0.781	1771298	REC_WORD	0.781	n/a	TE	12	12	[0, 0, 0]	n/a	FR1	0	R1461T
5494.594	4.407	1772079	REC_WORD	4.407	n/a	BOTELLA	-999	12	[0, 0, 0]	n/a	FR1	0	R1461T
5499.001	3.876	1776486	REC_WORD_VV	3.876	n/a	<>	-999	12	[0, 0, 0]	n/a	FR1	0	R1461T
5502.877	0.0	1780369	REC_END	n/a	n/a	n/a	-999	12	[0, 0, 0]	n/a	FR1	0	R1461T
