onset	duration	sample	trial_type	response_time	stim_file	item_name	serialpos	list	test	answer	experiment	session	subject
0.0	20.088	314016	SESS_START	n/a	n/a	n/a	-999	-999	[0, 0, 0]	n/a	FR1	0	R1066P
20.088	10.428	324060	COUNTDOWN_START	n/a	n/a	n/a	-999	-999	[0, 0, 0]	n/a	FR1	0	R1066P
30.516	3.892	329274	COUNTDOWN_END	n/a	n/a	n/a	-999	-999	[0, 0, 0]	n/a	FR1	0	R1066P
34.408	2.533	331220	PRACTICE_WORD	n/a	n/a	RHINO	1	-1	[0, 0, 0]	n/a	FR1	0	R1066P
36.941	2.518	332486	PRACTICE_WORD	n/a	n/a	WAGON	2	-1	[0, 0, 0]	n/a	FR1	0	R1066P
39.459	2.516	333745	PRACTICE_WORD	n/a	n/a	ATTIC	3	-1	[0, 0, 0]	n/a	FR1	0	R1066P
41.975	2.535	335003	PRACTICE_WORD	n/a	n/a	FLOOD	4	-1	[0, 0, 0]	n/a	FR1	0	R1066P
44.51	2.483	336270	PRACTICE_WORD	n/a	n/a	TONGUE	5	-1	[0, 0, 0]	n/a	FR1	0	R1066P
46.993	2.535	337512	PRACTICE_WORD	n/a	n/a	RING	6	-1	[0, 0, 0]	n/a	FR1	0	R1066P
49.528	2.466	338779	PRACTICE_WORD	n/a	n/a	WATCH	7	-1	[0, 0, 0]	n/a	FR1	0	R1066P
51.994	2.468	340012	PRACTICE_WORD	n/a	n/a	IRON	8	-1	[0, 0, 0]	n/a	FR1	0	R1066P
54.462	2.599	341246	PRACTICE_WORD	n/a	n/a	BEAM	9	-1	[0, 0, 0]	n/a	FR1	0	R1066P
57.061	2.469	342545	PRACTICE_WORD	n/a	n/a	COTTON	10	-1	[0, 0, 0]	n/a	FR1	0	R1066P
59.53	2.499	343780	PRACTICE_WORD	n/a	n/a	CHEST	11	-1	[0, 0, 0]	n/a	FR1	0	R1066P
62.029	1.601	345029	PRACTICE_WORD	n/a	n/a	CAMEL	12	-1	[0, 0, 0]	n/a	FR1	0	R1066P
63.63	0.001	345830	PRACTICE_DISTRACT_START	n/a	n/a	n/a	-999	-1	[0, 0, 0]	n/a	FR1	0	R1066P
63.631	0.016	345830	START	n/a	n/a	n/a	-999	-1	[-999, -999, -999]	n/a	FR1	0	R1066P
63.647	8.467	345838	PROB	8.467	n/a	n/a	-999	-1	[6, 8, 4]	18	FR1	0	R1066P
72.114	2.418	350072	PROB	2.418	n/a	n/a	-999	-1	[2, 2, 2]	6	FR1	0	R1066P
74.532	3.367	351281	PROB	3.367	n/a	n/a	-999	-1	[8, 6, 1]	15	FR1	0	R1066P
77.899	2.967	352964	PROB	2.967	n/a	n/a	-999	-1	[1, 3, 2]	6	FR1	0	R1066P
80.866	4.767	354447	PROB	4.767	n/a	n/a	-999	-1	[5, 2, 9]	16	FR1	0	R1066P
85.633	0.018	356831	STOP	n/a	n/a	n/a	-999	-1	[-999, -999, -999]	n/a	FR1	0	R1066P
85.651	0.702	356840	PRACTICE_DISTRACT_END	n/a	n/a	n/a	-999	-1	[0, 0, 0]	n/a	FR1	0	R1066P
86.353	30.514	357191	PRACTICE_REC_START	n/a	n/a	n/a	-999	-1	[0, 0, 0]	n/a	FR1	0	R1066P
116.867	65.586	372447	PRACTICE_REC_END	n/a	n/a	n/a	-999	-1	[0, 0, 0]	n/a	FR1	0	R1066P
182.453	0.0	405238	COUNTDOWN_START	n/a	n/a	n/a	-999	1	[0, 0, 0]	n/a	FR1	0	R1066P
182.453	10.428	405238	TRIAL	n/a	n/a	n/a	-999	1	[0, 0, 0]	n/a	FR1	0	R1066P
192.881	0.006	410452	COUNTDOWN_END	n/a	n/a	n/a	-999	1	[0, 0, 0]	n/a	FR1	0	R1066P
192.887	2.468	410455	ORIENT	n/a	n/a	n/a	-999	1	[0, 0, 0]	n/a	FR1	0	R1066P
195.355	2.434	411689	WORD	n/a	wordpools/wordpool_EN.txt	STORM	1	1	[0, 0, 0]	n/a	FR1	0	R1066P
197.789	2.449	412906	WORD	n/a	wordpools/wordpool_EN.txt	FOAM	2	1	[0, 0, 0]	n/a	FR1	0	R1066P
200.238	2.552	414130	WORD	n/a	wordpools/wordpool_EN.txt	STRAW	3	1	[0, 0, 0]	n/a	FR1	0	R1066P
202.79	2.617	415406	WORD	n/a	wordpools/wordpool_EN.txt	TRASH	4	1	[0, 0, 0]	n/a	FR1	0	R1066P
205.407	2.466	416715	WORD	n/a	wordpools/wordpool_EN.txt	CLIFF	5	1	[0, 0, 0]	n/a	FR1	0	R1066P
207.873	2.418	417947	WORD	n/a	wordpools/wordpool_EN.txt	STAIR	6	1	[0, 0, 0]	n/a	FR1	0	R1066P
210.291	2.583	419156	WORD	n/a	wordpools/wordpool_EN.txt	GLASS	7	1	[0, 0, 0]	n/a	FR1	0	R1066P
212.874	2.451	420448	WORD	n/a	wordpools/wordpool_EN.txt	WHALE	8	1	[0, 0, 0]	n/a	FR1	0	R1066P
215.325	2.5	421673	WORD	n/a	wordpools/wordpool_EN.txt	BRICK	9	1	[0, 0, 0]	n/a	FR1	0	R1066P
217.825	2.384	422923	WORD	n/a	wordpools/wordpool_EN.txt	SMOKE	10	1	[0, 0, 0]	n/a	FR1	0	R1066P
220.209	2.634	424115	WORD	n/a	wordpools/wordpool_EN.txt	ROPE	11	1	[0, 0, 0]	n/a	FR1	0	R1066P
222.843	1.618	425432	WORD	n/a	wordpools/wordpool_EN.txt	ROCK	12	1	[0, 0, 0]	n/a	FR1	0	R1066P
224.461	0.001	426241	DISTRACT_START	n/a	n/a	n/a	-999	1	[0, 0, 0]	n/a	FR1	0	R1066P
224.462	0.015	426242	START	n/a	n/a	n/a	-999	1	[-999, -999, -999]	n/a	FR1	0	R1066P
224.477	4.467	426249	PROB	4.467	n/a	n/a	-999	1	[7, 2, 4]	13	FR1	0	R1066P
228.944	3.568	428482	PROB	3.568	n/a	n/a	-999	1	[2, 3, 7]	12	FR1	0	R1066P
232.512	4.616	430266	PROB	4.616	n/a	n/a	-999	1	[2, 2, 4]	8	FR1	0	R1066P
237.128	5.018	432574	PROB	5.018	n/a	n/a	-999	1	[2, 2, 6]	10	FR1	0	R1066P
242.146	2.75	435083	PROB	2.75	n/a	n/a	-999	1	[7, 3, 9]	19	FR1	0	R1066P
244.896	0.017	436458	STOP	n/a	n/a	n/a	-999	1	[-999, -999, -999]	n/a	FR1	0	R1066P
244.913	1.122	436467	DISTRACT_END	n/a	n/a	n/a	-999	1	[0, 0, 0]	n/a	FR1	0	R1066P
246.035	2.151	437027	REC_START	n/a	n/a	n/a	-999	1	[0, 0, 0]	n/a	FR1	0	R1066P
248.186	0.464	438103	REC_WORD_VV	0.464	n/a	<>	-999	1	[0, 0, 0]	n/a	FR1	0	R1066P
248.65	1.174	438335	REC_WORD	1.174	n/a	WHALE	8	1	[0, 0, 0]	n/a	FR1	0	R1066P
249.824	5.578	438922	REC_WORD	5.578	n/a	STORM	1	1	[0, 0, 0]	n/a	FR1	0	R1066P
255.402	0.635	441711	REC_WORD	0.635	n/a	CLIFF	5	1	[0, 0, 0]	n/a	FR1	0	R1066P
256.037	1.398	442028	REC_WORD	1.398	n/a	STAIR	6	1	[0, 0, 0]	n/a	FR1	0	R1066P
257.435	18.606	442727	REC_WORD	18.606	n/a	FOAM	2	1	[0, 0, 0]	n/a	FR1	0	R1066P
276.041	10.93	452030	REC_END	n/a	n/a	n/a	-999	1	[0, 0, 0]	n/a	FR1	0	R1066P
286.971	0.001	457494	COUNTDOWN_START	n/a	n/a	n/a	-999	2	[0, 0, 0]	n/a	FR1	0	R1066P
286.972	10.427	457495	TRIAL	n/a	n/a	n/a	-999	2	[0, 0, 0]	n/a	FR1	0	R1066P
297.399	0.009	462708	COUNTDOWN_END	n/a	n/a	n/a	-999	2	[0, 0, 0]	n/a	FR1	0	R1066P
297.408	2.599	462713	ORIENT	n/a	n/a	n/a	-999	2	[0, 0, 0]	n/a	FR1	0	R1066P
300.007	2.452	464012	WORD	n/a	wordpools/wordpool_EN.txt	BEAN	1	2	[0, 0, 0]	n/a	FR1	0	R1066P
302.459	2.549	465238	WORD	n/a	wordpools/wordpool_EN.txt	BIRD	2	2	[0, 0, 0]	n/a	FR1	0	R1066P
305.008	2.568	466512	WORD	n/a	wordpools/wordpool_EN.txt	FOOT	3	2	[0, 0, 0]	n/a	FR1	0	R1066P
307.576	2.566	467796	WORD	n/a	wordpools/wordpool_EN.txt	BEAK	4	2	[0, 0, 0]	n/a	FR1	0	R1066P
310.142	2.502	469079	WORD	n/a	wordpools/wordpool_EN.txt	PLANT	5	2	[0, 0, 0]	n/a	FR1	0	R1066P
312.644	2.583	470330	WORD	n/a	wordpools/wordpool_EN.txt	BLOOM	6	2	[0, 0, 0]	n/a	FR1	0	R1066P
315.227	2.384	471622	WORD	n/a	wordpools/wordpool_EN.txt	ANT	7	2	[0, 0, 0]	n/a	FR1	0	R1066P
317.611	2.383	472814	WORD	n/a	wordpools/wordpool_EN.txt	BEE	8	2	[0, 0, 0]	n/a	FR1	0	R1066P
319.994	2.402	474005	WORD	n/a	wordpools/wordpool_EN.txt	FOOD	9	2	[0, 0, 0]	n/a	FR1	0	R1066P
322.396	2.499	475206	WORD	n/a	wordpools/wordpool_EN.txt	BREAD	10	2	[0, 0, 0]	n/a	FR1	0	R1066P
324.895	2.385	476455	WORD	n/a	wordpools/wordpool_EN.txt	RICE	11	2	[0, 0, 0]	n/a	FR1	0	R1066P
327.28	1.616	477648	WORD	n/a	wordpools/wordpool_EN.txt	TREE	12	2	[0, 0, 0]	n/a	FR1	0	R1066P
328.896	0.001	478456	DISTRACT_START	n/a	n/a	n/a	-999	2	[0, 0, 0]	n/a	FR1	0	R1066P
328.897	0.016	478456	START	n/a	n/a	n/a	-999	2	[-999, -999, -999]	n/a	FR1	0	R1066P
328.913	2.851	478464	PROB	2.851	n/a	n/a	-999	2	[3, 3, 1]	7	FR1	0	R1066P
331.764	3.416	479890	PROB	3.416	n/a	n/a	-999	2	[6, 8, 1]	15	FR1	0	R1066P
335.18	3.302	481598	PROB	3.302	n/a	n/a	-999	2	[2, 8, 9]	19	FR1	0	R1066P
338.482	3.967	483249	PROB	3.967	n/a	n/a	-999	2	[2, 4, 2]	8	FR1	0	R1066P
342.449	3.318	485232	PROB	3.318	n/a	n/a	-999	2	[3, 9, 7]	19	FR1	0	R1066P
345.767	5.898	486891	PROB	5.898	n/a	n/a	-999	2	[9, 5, 3]	17	FR1	0	R1066P
351.665	0.019	489840	STOP	n/a	n/a	n/a	-999	2	[-999, -999, -999]	n/a	FR1	0	R1066P
351.684	1.068	489849	DISTRACT_END	n/a	n/a	n/a	-999	2	[0, 0, 0]	n/a	FR1	0	R1066P
352.752	1.823	490383	REC_START	n/a	n/a	n/a	-999	2	[0, 0, 0]	n/a	FR1	0	R1066P
354.575	0.7	491295	REC_WORD	0.7	n/a	BIRD	2	2	[0, 0, 0]	n/a	FR1	0	R1066P
355.275	2.567	491645	REC_WORD	2.567	n/a	BEAN	1	2	[0, 0, 0]	n/a	FR1	0	R1066P
357.842	17.181	492928	REC_WORD	17.181	n/a	BEE	8	2	[0, 0, 0]	n/a	FR1	0	R1066P
375.023	1.912	501518	REC_WORD	1.912	n/a	BEAK	4	2	[0, 0, 0]	n/a	FR1	0	R1066P
376.935	5.827	502474	REC_WORD	5.827	n/a	ANT	7	2	[0, 0, 0]	n/a	FR1	0	R1066P
382.762	36.552	505387	REC_END	n/a	n/a	n/a	-999	2	[0, 0, 0]	n/a	FR1	0	R1066P
419.314	0.0	523662	TRIAL	n/a	n/a	n/a	-999	3	[0, 0, 0]	n/a	FR1	0	R1066P
419.314	10.428	523662	COUNTDOWN_START	n/a	n/a	n/a	-999	3	[0, 0, 0]	n/a	FR1	0	R1066P
429.742	0.007	528876	COUNTDOWN_END	n/a	n/a	n/a	-999	3	[0, 0, 0]	n/a	FR1	0	R1066P
429.749	2.534	528880	ORIENT	n/a	n/a	n/a	-999	3	[0, 0, 0]	n/a	FR1	0	R1066P
432.283	2.583	530147	WORD	n/a	wordpools/wordpool_EN.txt	LAND	1	3	[0, 0, 0]	n/a	FR1	0	R1066P
434.866	2.601	531438	WORD	n/a	wordpools/wordpool_EN.txt	LAKE	2	3	[0, 0, 0]	n/a	FR1	0	R1066P
437.467	2.383	532738	WORD	n/a	wordpools/wordpool_EN.txt	FARM	3	3	[0, 0, 0]	n/a	FR1	0	R1066P
439.85	2.601	533930	WORD	n/a	wordpools/wordpool_EN.txt	TOY	4	3	[0, 0, 0]	n/a	FR1	0	R1066P
442.451	2.417	535230	WORD	n/a	wordpools/wordpool_EN.txt	ZOO	5	3	[0, 0, 0]	n/a	FR1	0	R1066P
444.868	2.384	536439	WORD	n/a	wordpools/wordpool_EN.txt	TEA	6	3	[0, 0, 0]	n/a	FR1	0	R1066P
447.252	2.551	537631	WORD	n/a	wordpools/wordpool_EN.txt	HEART	7	3	[0, 0, 0]	n/a	FR1	0	R1066P
449.803	2.567	538906	WORD	n/a	wordpools/wordpool_EN.txt	CAT	8	3	[0, 0, 0]	n/a	FR1	0	R1066P
452.37	2.4	540190	WORD	n/a	wordpools/wordpool_EN.txt	BRIDGE	9	3	[0, 0, 0]	n/a	FR1	0	R1066P
454.77	2.518	541389	WORD	n/a	wordpools/wordpool_EN.txt	SHRIMP	10	3	[0, 0, 0]	n/a	FR1	0	R1066P
457.288	2.582	542648	WORD	n/a	wordpools/wordpool_EN.txt	FORT	11	3	[0, 0, 0]	n/a	FR1	0	R1066P
459.87	1.601	543939	WORD	n/a	wordpools/wordpool_EN.txt	GOLD	12	3	[0, 0, 0]	n/a	FR1	0	R1066P
461.471	0.001	544740	DISTRACT_START	n/a	n/a	n/a	-999	3	[0, 0, 0]	n/a	FR1	0	R1066P
461.472	0.016	544740	START	n/a	n/a	n/a	-999	3	[-999, -999, -999]	n/a	FR1	0	R1066P
461.488	5.384	544748	PROB	5.384	n/a	n/a	-999	3	[7, 2, 6]	15	FR1	0	R1066P
466.872	3.918	547440	PROB	3.918	n/a	n/a	-999	3	[7, 2, 7]	16	FR1	0	R1066P
470.79	4.033	549399	PROB	4.033	n/a	n/a	-999	3	[1, 8, 1]	10	FR1	0	R1066P
474.823	4.802	551415	PROB	4.802	n/a	n/a	-999	3	[8, 8, 2]	18	FR1	0	R1066P
479.625	2.599	553816	PROB	2.599	n/a	n/a	-999	3	[1, 9, 3]	13	FR1	0	R1066P
482.224	0.017	555116	STOP	n/a	n/a	n/a	-999	3	[-999, -999, -999]	n/a	FR1	0	R1066P
482.241	1.086	555124	DISTRACT_END	n/a	n/a	n/a	-999	3	[0, 0, 0]	n/a	FR1	0	R1066P
483.327	1.651	555667	REC_START	n/a	n/a	n/a	-999	3	[0, 0, 0]	n/a	FR1	0	R1066P
484.978	0.743	556493	REC_WORD	0.743	n/a	LAND	1	3	[0, 0, 0]	n/a	FR1	0	R1066P
485.721	1.081	556864	REC_WORD	1.081	n/a	LAKE	2	3	[0, 0, 0]	n/a	FR1	0	R1066P
486.802	6.703	557405	REC_WORD	6.703	n/a	ZOO	5	3	[0, 0, 0]	n/a	FR1	0	R1066P
493.505	3.314	560756	REC_WORD	3.314	n/a	TOY	4	3	[0, 0, 0]	n/a	FR1	0	R1066P
496.819	16.518	562413	REC_WORD	16.518	n/a	BIRD	-999	3	[0, 0, 0]	n/a	FR1	0	R1066P
513.337	16.281	570671	REC_END	n/a	n/a	n/a	-999	3	[0, 0, 0]	n/a	FR1	0	R1066P
529.618	0.0	578811	TRIAL	n/a	n/a	n/a	-999	4	[0, 0, 0]	n/a	FR1	0	R1066P
529.618	10.428	578811	COUNTDOWN_START	n/a	n/a	n/a	-999	4	[0, 0, 0]	n/a	FR1	0	R1066P
540.046	0.006	584025	COUNTDOWN_END	n/a	n/a	n/a	-999	4	[0, 0, 0]	n/a	FR1	0	R1066P
540.052	2.435	584028	ORIENT	n/a	n/a	n/a	-999	4	[0, 0, 0]	n/a	FR1	0	R1066P
542.487	2.616	585246	WORD	n/a	wordpools/wordpool_EN.txt	FLAME	1	4	[0, 0, 0]	n/a	FR1	0	R1066P
545.103	2.535	586554	WORD	n/a	wordpools/wordpool_EN.txt	SKI	2	4	[0, 0, 0]	n/a	FR1	0	R1066P
547.638	2.432	587821	WORD	n/a	wordpools/wordpool_EN.txt	PIN	3	4	[0, 0, 0]	n/a	FR1	0	R1066P
550.07	2.519	589037	WORD	n/a	wordpools/wordpool_EN.txt	APE	4	4	[0, 0, 0]	n/a	FR1	0	R1066P
552.589	2.449	590296	WORD	n/a	wordpools/wordpool_EN.txt	WAVE	5	4	[0, 0, 0]	n/a	FR1	0	R1066P
555.038	2.518	591521	WORD	n/a	wordpools/wordpool_EN.txt	BROOM	6	4	[0, 0, 0]	n/a	FR1	0	R1066P
557.556	2.55	592780	WORD	n/a	wordpools/wordpool_EN.txt	FUR	7	4	[0, 0, 0]	n/a	FR1	0	R1066P
560.106	2.485	594055	WORD	n/a	wordpools/wordpool_EN.txt	SNOW	8	4	[0, 0, 0]	n/a	FR1	0	R1066P
562.591	2.399	595297	WORD	n/a	wordpools/wordpool_EN.txt	FOG	9	4	[0, 0, 0]	n/a	FR1	0	R1066P
564.99	2.485	596497	WORD	n/a	wordpools/wordpool_EN.txt	BEACH	10	4	[0, 0, 0]	n/a	FR1	0	R1066P
567.475	2.566	597739	WORD	n/a	wordpools/wordpool_EN.txt	DRUM	11	4	[0, 0, 0]	n/a	FR1	0	R1066P
570.041	1.601	599022	WORD	n/a	wordpools/wordpool_EN.txt	LIP	12	4	[0, 0, 0]	n/a	FR1	0	R1066P
571.642	0.001	599822	DISTRACT_START	n/a	n/a	n/a	-999	4	[0, 0, 0]	n/a	FR1	0	R1066P
571.643	0.016	599823	START	n/a	n/a	n/a	-999	4	[-999, -999, -999]	n/a	FR1	0	R1066P
571.659	5.751	599831	PROB	5.751	n/a	n/a	-999	4	[7, 5, 9]	17	FR1	0	R1066P
577.41	4.001	602706	PROB	4.001	n/a	n/a	-999	4	[8, 6, 5]	19	FR1	0	R1066P
581.411	3.533	604707	PROB	3.533	n/a	n/a	-999	4	[2, 1, 5]	7	FR1	0	R1066P
584.944	3.117	606473	PROB	3.117	n/a	n/a	-999	4	[1, 1, 4]	6	FR1	0	R1066P
588.061	3.502	608031	PROB	3.502	n/a	n/a	-999	4	[3, 7, 1]	11	FR1	0	R1066P
591.563	3.325	609782	PROB	3.325	n/a	n/a	-999	4	[4, 3, 6]	13	FR1	0	R1066P
594.888	0.008	611445	STOP	n/a	n/a	n/a	-999	4	[-999, -999, -999]	n/a	FR1	0	R1066P
594.896	1.134	611449	DISTRACT_END	n/a	n/a	n/a	-999	4	[0, 0, 0]	n/a	FR1	0	R1066P
596.03	1.159	612016	REC_START	n/a	n/a	n/a	-999	4	[0, 0, 0]	n/a	FR1	0	R1066P
597.189	0.874	612595	REC_WORD	0.874	n/a	FLAME	1	4	[0, 0, 0]	n/a	FR1	0	R1066P
598.063	0.383	613032	REC_WORD	0.383	n/a	APE	4	4	[0, 0, 0]	n/a	FR1	0	R1066P
598.446	2.926	613224	REC_WORD	2.926	n/a	SKI	2	4	[0, 0, 0]	n/a	FR1	0	R1066P
601.372	2.287	614687	REC_WORD	2.287	n/a	FUR	7	4	[0, 0, 0]	n/a	FR1	0	R1066P
603.659	21.061	615830	REC_WORD	21.061	n/a	SNOW	8	4	[0, 0, 0]	n/a	FR1	0	R1066P
624.72	1.048	626360	REC_WORD	1.048	n/a	SNOW	8	4	[0, 0, 0]	n/a	FR1	0	R1066P
625.768	0.272	626884	REC_WORD	0.272	n/a	FUR	7	4	[0, 0, 0]	n/a	FR1	0	R1066P
626.04	4.547	627020	REC_END	n/a	n/a	n/a	-999	4	[0, 0, 0]	n/a	FR1	0	R1066P
630.587	0.0	629293	TRIAL	n/a	n/a	n/a	-999	5	[0, 0, 0]	n/a	FR1	0	R1066P
630.587	10.428	629293	COUNTDOWN_START	n/a	n/a	n/a	-999	5	[0, 0, 0]	n/a	FR1	0	R1066P
641.015	0.006	634507	COUNTDOWN_END	n/a	n/a	n/a	-999	5	[0, 0, 0]	n/a	FR1	0	R1066P
641.021	2.635	634510	ORIENT	n/a	n/a	n/a	-999	5	[0, 0, 0]	n/a	FR1	0	R1066P
643.656	2.6	635827	WORD	n/a	wordpools/wordpool_EN.txt	MOUTH	1	5	[0, 0, 0]	n/a	FR1	0	R1066P
646.256	2.484	637127	WORD	n/a	wordpools/wordpool_EN.txt	DOLL	2	5	[0, 0, 0]	n/a	FR1	0	R1066P
648.74	2.517	638369	WORD	n/a	wordpools/wordpool_EN.txt	SEAL	3	5	[0, 0, 0]	n/a	FR1	0	R1066P
651.257	2.583	639628	WORD	n/a	wordpools/wordpool_EN.txt	WEED	4	5	[0, 0, 0]	n/a	FR1	0	R1066P
653.84	2.485	640919	WORD	n/a	wordpools/wordpool_EN.txt	CLOWN	5	5	[0, 0, 0]	n/a	FR1	0	R1066P
656.325	2.516	642162	WORD	n/a	wordpools/wordpool_EN.txt	TIE	6	5	[0, 0, 0]	n/a	FR1	0	R1066P
658.841	2.551	643420	WORD	n/a	wordpools/wordpool_EN.txt	PET	7	5	[0, 0, 0]	n/a	FR1	0	R1066P
661.392	2.401	644695	WORD	n/a	wordpools/wordpool_EN.txt	CLOTH	8	5	[0, 0, 0]	n/a	FR1	0	R1066P
663.793	2.617	645895	WORD	n/a	wordpools/wordpool_EN.txt	FAN	9	5	[0, 0, 0]	n/a	FR1	0	R1066P
666.41	2.483	647204	WORD	n/a	wordpools/wordpool_EN.txt	WOLF	10	5	[0, 0, 0]	n/a	FR1	0	R1066P
668.893	2.535	648445	WORD	n/a	wordpools/wordpool_EN.txt	RAT	11	5	[0, 0, 0]	n/a	FR1	0	R1066P
671.428	1.616	649713	WORD	n/a	wordpools/wordpool_EN.txt	SOCK	12	5	[0, 0, 0]	n/a	FR1	0	R1066P
673.044	0.001	650521	DISTRACT_START	n/a	n/a	n/a	-999	5	[0, 0, 0]	n/a	FR1	0	R1066P
673.045	0.015	650521	START	n/a	n/a	n/a	-999	5	[-999, -999, -999]	n/a	FR1	0	R1066P
673.06	5.001	650529	PROB	5.001	n/a	n/a	-999	5	[6, 3, 6]	15	FR1	0	R1066P
678.061	3.585	653029	PROB	3.585	n/a	n/a	-999	5	[3, 3, 6]	12	FR1	0	R1066P
681.646	2.5	654821	PROB	2.5	n/a	n/a	-999	5	[1, 3, 1]	5	FR1	0	R1066P
684.146	2.585	656071	PROB	2.585	n/a	n/a	-999	5	[6, 6, 1]	13	FR1	0	R1066P
686.731	3.567	657364	PROB	3.567	n/a	n/a	-999	5	[3, 4, 1]	8	FR1	0	R1066P
690.298	4.447	659147	PROB	4.447	n/a	n/a	-999	5	[7, 8, 9]	24	FR1	0	R1066P
694.745	0.003	661371	STOP	n/a	n/a	n/a	-999	5	[-999, -999, -999]	n/a	FR1	0	R1066P
694.748	1.184	661372	DISTRACT_END	n/a	n/a	n/a	-999	5	[0, 0, 0]	n/a	FR1	0	R1066P
695.932	1.697	661964	REC_START	n/a	n/a	n/a	-999	5	[0, 0, 0]	n/a	FR1	0	R1066P
697.629	2.624	662813	REC_WORD	2.624	n/a	DOLL	2	5	[0, 0, 0]	n/a	FR1	0	R1066P
700.253	3.05	664124	REC_WORD	3.05	n/a	MOUTH	1	5	[0, 0, 0]	n/a	FR1	0	R1066P
703.303	22.639	665649	REC_WORD	22.639	n/a	TOY	-999	5	[0, 0, 0]	n/a	FR1	0	R1066P
725.942	73.909	676968	REC_END	n/a	n/a	n/a	-999	5	[0, 0, 0]	n/a	FR1	0	R1066P
799.851	0.0	713921	TRIAL	n/a	n/a	n/a	-999	6	[0, 0, 0]	n/a	FR1	0	R1066P
799.851	10.428	713921	COUNTDOWN_START	n/a	n/a	n/a	-999	6	[0, 0, 0]	n/a	FR1	0	R1066P
810.279	0.008	719135	COUNTDOWN_END	n/a	n/a	n/a	-999	6	[0, 0, 0]	n/a	FR1	0	R1066P
810.287	2.517	719139	ORIENT	n/a	n/a	n/a	-999	6	[0, 0, 0]	n/a	FR1	0	R1066P
812.804	2.567	720397	WORD	n/a	wordpools/wordpool_EN.txt	GUARD	1	6	[0, 0, 0]	n/a	FR1	0	R1066P
815.371	2.45	721680	WORD	n/a	wordpools/wordpool_EN.txt	SWAMP	2	6	[0, 0, 0]	n/a	FR1	0	R1066P
817.821	2.468	722905	WORD	n/a	wordpools/wordpool_EN.txt	STONE	3	6	[0, 0, 0]	n/a	FR1	0	R1066P
820.289	2.583	724139	WORD	n/a	wordpools/wordpool_EN.txt	DART	4	6	[0, 0, 0]	n/a	FR1	0	R1066P
822.872	2.367	725431	WORD	n/a	wordpools/wordpool_EN.txt	CALF	5	6	[0, 0, 0]	n/a	FR1	0	R1066P
825.239	2.617	726614	WORD	n/a	wordpools/wordpool_EN.txt	CAVE	6	6	[0, 0, 0]	n/a	FR1	0	R1066P
827.856	2.601	727923	WORD	n/a	wordpools/wordpool_EN.txt	CORN	7	6	[0, 0, 0]	n/a	FR1	0	R1066P
830.457	2.533	729223	WORD	n/a	wordpools/wordpool_EN.txt	PIG	8	6	[0, 0, 0]	n/a	FR1	0	R1066P
832.99	2.435	730489	WORD	n/a	wordpools/wordpool_EN.txt	CLAY	9	6	[0, 0, 0]	n/a	FR1	0	R1066P
835.425	2.516	731707	WORD	n/a	wordpools/wordpool_EN.txt	DEER	10	6	[0, 0, 0]	n/a	FR1	0	R1066P
837.941	2.402	732965	WORD	n/a	wordpools/wordpool_EN.txt	DITCH	11	6	[0, 0, 0]	n/a	FR1	0	R1066P
840.343	1.616	734166	WORD	n/a	wordpools/wordpool_EN.txt	SPEAR	12	6	[0, 0, 0]	n/a	FR1	0	R1066P
841.959	0.0	734974	DISTRACT_START	n/a	n/a	n/a	-999	6	[0, 0, 0]	n/a	FR1	0	R1066P
841.959	0.016	734974	START	n/a	n/a	n/a	-999	6	[-999, -999, -999]	n/a	FR1	0	R1066P
841.975	5.536	734982	PROB	5.536	n/a	n/a	-999	6	[3, 5, 9]	17	FR1	0	R1066P
847.511	3.316	737750	PROB	3.316	n/a	n/a	-999	6	[7, 7, 2]	16	FR1	0	R1066P
850.827	6.435	739407	PROB	6.435	n/a	n/a	-999	6	[9, 6, 6]	21	FR1	0	R1066P
857.262	3.501	742625	PROB	3.501	n/a	n/a	-999	6	[6, 3, 8]	17	FR1	0	R1066P
860.763	2.077	744375	PROB	2.077	n/a	n/a	-999	6	[1, 9, 2]	12	FR1	0	R1066P
862.84	0.006	745414	STOP	n/a	n/a	n/a	-999	6	[-999, -999, -999]	n/a	FR1	0	R1066P
862.846	1.034	745417	DISTRACT_END	n/a	n/a	n/a	-999	6	[0, 0, 0]	n/a	FR1	0	R1066P
863.88	1.537	745934	REC_START	n/a	n/a	n/a	-999	6	[0, 0, 0]	n/a	FR1	0	R1066P
865.417	1.318	746702	REC_WORD	1.318	n/a	GUARD	1	6	[0, 0, 0]	n/a	FR1	0	R1066P
866.735	2.629	747361	REC_WORD	2.629	n/a	CALF	5	6	[0, 0, 0]	n/a	FR1	0	R1066P
869.364	4.282	748676	REC_WORD	4.282	n/a	PIG	8	6	[0, 0, 0]	n/a	FR1	0	R1066P
873.646	20.244	750816	REC_WORD	20.244	n/a	STONE	3	6	[0, 0, 0]	n/a	FR1	0	R1066P
893.89	14.449	760938	REC_END	n/a	n/a	n/a	-999	6	[0, 0, 0]	n/a	FR1	0	R1066P
908.339	0.0	768162	COUNTDOWN_START	n/a	n/a	n/a	-999	7	[0, 0, 0]	n/a	FR1	0	R1066P
908.339	10.428	768162	TRIAL	n/a	n/a	n/a	-999	7	[0, 0, 0]	n/a	FR1	0	R1066P
918.767	0.007	773376	COUNTDOWN_END	n/a	n/a	n/a	-999	7	[0, 0, 0]	n/a	FR1	0	R1066P
918.774	2.416	773379	ORIENT	n/a	n/a	n/a	-999	7	[0, 0, 0]	n/a	FR1	0	R1066P
921.19	2.368	774587	WORD	n/a	wordpools/wordpool_EN.txt	DOOR	1	7	[0, 0, 0]	n/a	FR1	0	R1066P
923.558	2.483	775771	WORD	n/a	wordpools/wordpool_EN.txt	SMILE	2	7	[0, 0, 0]	n/a	FR1	0	R1066P
926.041	2.635	777013	WORD	n/a	wordpools/wordpool_EN.txt	CLOCK	3	7	[0, 0, 0]	n/a	FR1	0	R1066P
928.676	2.566	778330	WORD	n/a	wordpools/wordpool_EN.txt	OAR	4	7	[0, 0, 0]	n/a	FR1	0	R1066P
931.242	2.385	779613	WORD	n/a	wordpools/wordpool_EN.txt	LAMP	5	7	[0, 0, 0]	n/a	FR1	0	R1066P
933.627	2.483	780805	WORD	n/a	wordpools/wordpool_EN.txt	STOVE	6	7	[0, 0, 0]	n/a	FR1	0	R1066P
936.11	2.451	782047	WORD	n/a	wordpools/wordpool_EN.txt	FLOOR	7	7	[0, 0, 0]	n/a	FR1	0	R1066P
938.561	2.516	783272	WORD	n/a	wordpools/wordpool_EN.txt	PEN	8	7	[0, 0, 0]	n/a	FR1	0	R1066P
941.077	2.468	784530	WORD	n/a	wordpools/wordpool_EN.txt	STICK	9	7	[0, 0, 0]	n/a	FR1	0	R1066P
943.545	2.383	785764	WORD	n/a	wordpools/wordpool_EN.txt	BOOT	10	7	[0, 0, 0]	n/a	FR1	0	R1066P
945.928	2.502	786955	WORD	n/a	wordpools/wordpool_EN.txt	DIME	11	7	[0, 0, 0]	n/a	FR1	0	R1066P
948.43	1.616	788206	WORD	n/a	wordpools/wordpool_EN.txt	ARM	12	7	[0, 0, 0]	n/a	FR1	0	R1066P
950.046	0.001	789014	DISTRACT_START	n/a	n/a	n/a	-999	7	[0, 0, 0]	n/a	FR1	0	R1066P
950.047	0.015	789015	START	n/a	n/a	n/a	-999	7	[-999, -999, -999]	n/a	FR1	0	R1066P
950.062	5.118	789022	PROB	5.118	n/a	n/a	-999	7	[4, 9, 1]	14	FR1	0	R1066P
955.18	4.602	791581	PROB	4.602	n/a	n/a	-999	7	[3, 2, 2]	7	FR1	0	R1066P
959.782	2.734	793882	PROB	2.734	n/a	n/a	-999	7	[6, 8, 3]	17	FR1	0	R1066P
962.516	4.349	795249	PROB	4.349	n/a	n/a	-999	7	[5, 9, 6]	20	FR1	0	R1066P
966.865	3.76	797423	PROB	3.76	n/a	n/a	-999	7	[9, 2, 2]	13	FR1	0	R1066P
970.625	0.009	799303	STOP	n/a	n/a	n/a	-999	7	[-999, -999, -999]	n/a	FR1	0	R1066P
970.634	1.183	799308	DISTRACT_END	n/a	n/a	n/a	-999	7	[0, 0, 0]	n/a	FR1	0	R1066P
971.817	0.981	799899	REC_START	n/a	n/a	n/a	-999	7	[0, 0, 0]	n/a	FR1	0	R1066P
972.798	1.079	800390	REC_WORD	1.079	n/a	BOOT	10	7	[0, 0, 0]	n/a	FR1	0	R1066P
973.877	0.973	800929	REC_WORD	0.973	n/a	DIME	11	7	[0, 0, 0]	n/a	FR1	0	R1066P
974.85	1.649	801416	REC_WORD	1.649	n/a	ARM	12	7	[0, 0, 0]	n/a	FR1	0	R1066P
976.499	0.788	802240	REC_WORD	0.788	n/a	DOOR	1	7	[0, 0, 0]	n/a	FR1	0	R1066P
977.287	10.597	802634	REC_WORD	10.597	n/a	SMILE	2	7	[0, 0, 0]	n/a	FR1	0	R1066P
987.884	13.943	807932	REC_WORD	13.943	n/a	BOOT	10	7	[0, 0, 0]	n/a	FR1	0	R1066P
1001.827	5.947	814904	REC_END	n/a	n/a	n/a	-999	7	[0, 0, 0]	n/a	FR1	0	R1066P
1007.774	0.0	817877	TRIAL	n/a	n/a	n/a	-999	8	[0, 0, 0]	n/a	FR1	0	R1066P
1007.774	10.428	817877	COUNTDOWN_START	n/a	n/a	n/a	-999	8	[0, 0, 0]	n/a	FR1	0	R1066P
1018.202	0.006	823091	COUNTDOWN_END	n/a	n/a	n/a	-999	8	[0, 0, 0]	n/a	FR1	0	R1066P
1018.208	2.602	823094	ORIENT	n/a	n/a	n/a	-999	8	[0, 0, 0]	n/a	FR1	0	R1066P
1020.81	2.584	824395	WORD	n/a	wordpools/wordpool_EN.txt	HOLE	1	8	[0, 0, 0]	n/a	FR1	0	R1066P
1023.394	2.549	825686	WORD	n/a	wordpools/wordpool_EN.txt	BED	2	8	[0, 0, 0]	n/a	FR1	0	R1066P
1025.943	2.568	826961	WORD	n/a	wordpools/wordpool_EN.txt	TRAIN	3	8	[0, 0, 0]	n/a	FR1	0	R1066P
1028.511	2.4	828245	WORD	n/a	wordpools/wordpool_EN.txt	CART	4	8	[0, 0, 0]	n/a	FR1	0	R1066P
1030.911	2.368	829445	WORD	n/a	wordpools/wordpool_EN.txt	MAT	5	8	[0, 0, 0]	n/a	FR1	0	R1066P
1033.279	2.599	830629	WORD	n/a	wordpools/wordpool_EN.txt	MAZE	6	8	[0, 0, 0]	n/a	FR1	0	R1066P
1035.878	2.502	831928	WORD	n/a	wordpools/wordpool_EN.txt	HAT	7	8	[0, 0, 0]	n/a	FR1	0	R1066P
1038.38	2.433	833179	WORD	n/a	wordpools/wordpool_EN.txt	PARK	8	8	[0, 0, 0]	n/a	FR1	0	R1066P
1040.813	2.417	834395	WORD	n/a	wordpools/wordpool_EN.txt	TRUCK	9	8	[0, 0, 0]	n/a	FR1	0	R1066P
1043.23	2.551	835604	WORD	n/a	wordpools/wordpool_EN.txt	SQUARE	10	8	[0, 0, 0]	n/a	FR1	0	R1066P
1045.781	2.467	836879	WORD	n/a	wordpools/wordpool_EN.txt	PRINCE	11	8	[0, 0, 0]	n/a	FR1	0	R1066P
1048.248	1.616	838113	WORD	n/a	wordpools/wordpool_EN.txt	HOOF	12	8	[0, 0, 0]	n/a	FR1	0	R1066P
1049.864	0.001	838921	DISTRACT_START	n/a	n/a	n/a	-999	8	[0, 0, 0]	n/a	FR1	0	R1066P
1049.865	0.016	838921	START	n/a	n/a	n/a	-999	8	[-999, -999, -999]	n/a	FR1	0	R1066P
1049.881	4.502	838929	PROB	4.502	n/a	n/a	-999	8	[8, 2, 1]	11	FR1	0	R1066P
1054.383	3.633	841180	PROB	3.633	n/a	n/a	-999	8	[7, 9, 1]	17	FR1	0	R1066P
1058.016	2.701	842997	PROB	2.701	n/a	n/a	-999	8	[7, 8, 2]	17	FR1	0	R1066P
1060.717	2.867	844347	PROB	2.867	n/a	n/a	-999	8	[5, 2, 7]	14	FR1	0	R1066P
1063.584	4.65	845780	PROB	4.65	n/a	n/a	-999	8	[3, 4, 3]	10	FR1	0	R1066P
1068.234	2.503	848105	PROB	2.503	n/a	n/a	-999	8	[1, 1, 5]	7	FR1	0	R1066P
1070.737	0.015	849357	STOP	n/a	n/a	n/a	-999	8	[-999, -999, -999]	n/a	FR1	0	R1066P
1070.752	1.083	849364	DISTRACT_END	n/a	n/a	n/a	-999	8	[0, 0, 0]	n/a	FR1	0	R1066P
1071.835	1.27	849906	REC_START	n/a	n/a	n/a	-999	8	[0, 0, 0]	n/a	FR1	0	R1066P
1073.105	0.628	850541	REC_WORD	0.628	n/a	HOLE	1	8	[0, 0, 0]	n/a	FR1	0	R1066P
1073.733	1.176	850855	REC_WORD	1.176	n/a	TRAIN	3	8	[0, 0, 0]	n/a	FR1	0	R1066P
1074.909	5.764	851443	REC_WORD	5.764	n/a	BED	2	8	[0, 0, 0]	n/a	FR1	0	R1066P
1080.673	12.659	854324	REC_WORD	12.659	n/a	SMILE	-999	8	[0, 0, 0]	n/a	FR1	0	R1066P
1093.332	0.325	860654	REC_WORD	0.325	n/a	HOLE	1	8	[0, 0, 0]	n/a	FR1	0	R1066P
1093.657	8.192	860816	REC_WORD	8.192	n/a	TRAIN	3	8	[0, 0, 0]	n/a	FR1	0	R1066P
1101.849	4.91	864912	REC_END	n/a	n/a	n/a	-999	8	[0, 0, 0]	n/a	FR1	0	R1066P
1106.759	0.0	867367	TRIAL	n/a	n/a	n/a	-999	9	[0, 0, 0]	n/a	FR1	0	R1066P
1106.759	10.428	867367	COUNTDOWN_START	n/a	n/a	n/a	-999	9	[0, 0, 0]	n/a	FR1	0	R1066P
1117.187	0.007	872580	COUNTDOWN_END	n/a	n/a	n/a	-999	9	[0, 0, 0]	n/a	FR1	0	R1066P
1117.194	2.451	872584	ORIENT	n/a	n/a	n/a	-999	9	[0, 0, 0]	n/a	FR1	0	R1066P
1119.645	2.416	873809	WORD	n/a	wordpools/wordpool_EN.txt	CHIN	1	9	[0, 0, 0]	n/a	FR1	0	R1066P
1122.061	2.452	875017	WORD	n/a	wordpools/wordpool_EN.txt	SEED	2	9	[0, 0, 0]	n/a	FR1	0	R1066P
1124.513	2.516	876243	WORD	n/a	wordpools/wordpool_EN.txt	SOUP	3	9	[0, 0, 0]	n/a	FR1	0	R1066P
1127.029	2.484	877501	WORD	n/a	wordpools/wordpool_EN.txt	VINE	4	9	[0, 0, 0]	n/a	FR1	0	R1066P
1129.513	2.5	878743	WORD	n/a	wordpools/wordpool_EN.txt	CHAIR	5	9	[0, 0, 0]	n/a	FR1	0	R1066P
1132.013	2.635	879993	WORD	n/a	wordpools/wordpool_EN.txt	BRANCH	6	9	[0, 0, 0]	n/a	FR1	0	R1066P
1134.648	2.449	881310	WORD	n/a	wordpools/wordpool_EN.txt	FUDGE	7	9	[0, 0, 0]	n/a	FR1	0	R1066P
1137.097	2.535	882535	WORD	n/a	wordpools/wordpool_EN.txt	FRUIT	8	9	[0, 0, 0]	n/a	FR1	0	R1066P
1139.632	2.533	883802	WORD	n/a	wordpools/wordpool_EN.txt	JUICE	9	9	[0, 0, 0]	n/a	FR1	0	R1066P
1142.165	2.618	885069	WORD	n/a	wordpools/wordpool_EN.txt	TOE	10	9	[0, 0, 0]	n/a	FR1	0	R1066P
1144.783	2.584	886378	WORD	n/a	wordpools/wordpool_EN.txt	PIT	11	9	[0, 0, 0]	n/a	FR1	0	R1066P
1147.367	1.616	887670	WORD	n/a	wordpools/wordpool_EN.txt	STEAK	12	9	[0, 0, 0]	n/a	FR1	0	R1066P
1148.983	0.001	888478	DISTRACT_START	n/a	n/a	n/a	-999	9	[0, 0, 0]	n/a	FR1	0	R1066P
1148.984	0.016	888478	START	n/a	n/a	n/a	-999	9	[-999, -999, -999]	n/a	FR1	0	R1066P
1149.0	3.785	888486	PROB	3.785	n/a	n/a	-999	9	[4, 1, 9]	14	FR1	0	R1066P
1152.785	2.349	890379	PROB	2.349	n/a	n/a	-999	9	[1, 2, 8]	11	FR1	0	R1066P
1155.134	2.934	891553	PROB	2.934	n/a	n/a	-999	9	[7, 4, 4]	15	FR1	0	R1066P
1158.068	2.685	893020	PROB	2.685	n/a	n/a	-999	9	[8, 7, 6]	21	FR1	0	R1066P
1160.753	3.667	894362	PROB	3.667	n/a	n/a	-999	9	[7, 1, 5]	13	FR1	0	R1066P
1164.42	2.084	896196	PROB	2.084	n/a	n/a	-999	9	[5, 8, 8]	21	FR1	0	R1066P
1166.504	5.576	897238	PROB	5.576	n/a	n/a	-999	9	[7, 9, 8]	24	FR1	0	R1066P
1172.08	0.007	900026	STOP	n/a	n/a	n/a	-999	9	[-999, -999, -999]	n/a	FR1	0	R1066P
1172.087	1.084	900029	DISTRACT_END	n/a	n/a	n/a	-999	9	[0, 0, 0]	n/a	FR1	0	R1066P
1173.171	1.159	900571	REC_START	n/a	n/a	n/a	-999	9	[0, 0, 0]	n/a	FR1	0	R1066P
1174.33	0.569	901150	REC_WORD	0.569	n/a	CHIN	1	9	[0, 0, 0]	n/a	FR1	0	R1066P
1174.899	1.099	901435	REC_WORD	1.099	n/a	SEED	2	9	[0, 0, 0]	n/a	FR1	0	R1066P
1175.998	0.64	901984	REC_WORD	0.64	n/a	SOUP	3	9	[0, 0, 0]	n/a	FR1	0	R1066P
1176.638	2.374	902304	REC_WORD	2.374	n/a	VINE	4	9	[0, 0, 0]	n/a	FR1	0	R1066P
1179.012	3.422	903491	REC_WORD	3.422	n/a	SEED	2	9	[0, 0, 0]	n/a	FR1	0	R1066P
1182.434	20.751	905202	REC_WORD	20.751	n/a	PIT	11	9	[0, 0, 0]	n/a	FR1	0	R1066P
1203.185	3.675	915577	REC_END	n/a	n/a	n/a	-999	9	[0, 0, 0]	n/a	FR1	0	R1066P
1206.86	0.001	917415	COUNTDOWN_START	n/a	n/a	n/a	-999	10	[0, 0, 0]	n/a	FR1	0	R1066P
1206.861	10.427	917415	TRIAL	n/a	n/a	n/a	-999	10	[0, 0, 0]	n/a	FR1	0	R1066P
1217.288	0.009	922628	COUNTDOWN_END	n/a	n/a	n/a	-999	10	[0, 0, 0]	n/a	FR1	0	R1066P
1217.297	2.532	922633	ORIENT	n/a	n/a	n/a	-999	10	[0, 0, 0]	n/a	FR1	0	R1066P
1219.829	2.518	923899	WORD	n/a	wordpools/wordpool_EN.txt	PHONE	1	10	[0, 0, 0]	n/a	FR1	0	R1066P
1222.347	2.434	925158	WORD	n/a	wordpools/wordpool_EN.txt	GRAPE	2	10	[0, 0, 0]	n/a	FR1	0	R1066P
1224.781	2.417	926375	WORD	n/a	wordpools/wordpool_EN.txt	KITE	3	10	[0, 0, 0]	n/a	FR1	0	R1066P
1227.198	2.384	927583	WORD	n/a	wordpools/wordpool_EN.txt	CONE	4	10	[0, 0, 0]	n/a	FR1	0	R1066P
1229.582	2.566	928775	WORD	n/a	wordpools/wordpool_EN.txt	LOCK	5	10	[0, 0, 0]	n/a	FR1	0	R1066P
1232.148	2.402	930058	WORD	n/a	wordpools/wordpool_EN.txt	MILK	6	10	[0, 0, 0]	n/a	FR1	0	R1066P
1234.55	2.516	931259	WORD	n/a	wordpools/wordpool_EN.txt	MOUSE	7	10	[0, 0, 0]	n/a	FR1	0	R1066P
1237.066	2.368	932517	WORD	n/a	wordpools/wordpool_EN.txt	CROWN	8	10	[0, 0, 0]	n/a	FR1	0	R1066P
1239.434	2.616	933701	WORD	n/a	wordpools/wordpool_EN.txt	PEAR	9	10	[0, 0, 0]	n/a	FR1	0	R1066P
1242.05	2.602	935009	WORD	n/a	wordpools/wordpool_EN.txt	SNAKE	10	10	[0, 0, 0]	n/a	FR1	0	R1066P
1244.652	2.6	936310	WORD	n/a	wordpools/wordpool_EN.txt	SHOE	11	10	[0, 0, 0]	n/a	FR1	0	R1066P
1247.252	1.616	937610	WORD	n/a	wordpools/wordpool_EN.txt	PEARL	12	10	[0, 0, 0]	n/a	FR1	0	R1066P
1248.868	0.001	938417	DISTRACT_START	n/a	n/a	n/a	-999	10	[0, 0, 0]	n/a	FR1	0	R1066P
1248.869	0.016	938418	START	n/a	n/a	n/a	-999	10	[-999, -999, -999]	n/a	FR1	0	R1066P
1248.885	3.117	938426	PROB	3.117	n/a	n/a	-999	10	[3, 3, 3]	9	FR1	0	R1066P
1252.002	6.035	939984	PROB	6.035	n/a	n/a	-999	10	[5, 6, 7]	18	FR1	0	R1066P
1258.037	2.501	943002	PROB	2.501	n/a	n/a	-999	10	[8, 6, 3]	17	FR1	0	R1066P
1260.538	3.267	944252	PROB	3.267	n/a	n/a	-999	10	[7, 1, 5]	13	FR1	0	R1066P
1263.805	3.2	945886	PROB	3.2	n/a	n/a	-999	10	[6, 9, 3]	18	FR1	0	R1066P
1267.005	3.756	947485	PROB	3.756	n/a	n/a	-999	10	[6, 7, 2]	15	FR1	0	R1066P
1270.761	0.012	949363	STOP	n/a	n/a	n/a	-999	10	[-999, -999, -999]	n/a	FR1	0	R1066P
1270.773	1.224	949369	DISTRACT_END	n/a	n/a	n/a	-999	10	[0, 0, 0]	n/a	FR1	0	R1066P
1271.997	1.423	949981	REC_START	n/a	n/a	n/a	-999	10	[0, 0, 0]	n/a	FR1	0	R1066P
1273.42	2.874	950693	REC_WORD	2.874	n/a	SNAKE	10	10	[0, 0, 0]	n/a	FR1	0	R1066P
1276.294	1.878	952130	REC_WORD	1.878	n/a	SHOE	11	10	[0, 0, 0]	n/a	FR1	0	R1066P
1278.172	3.668	953069	REC_WORD	3.668	n/a	VINE	-999	10	[0, 0, 0]	n/a	FR1	0	R1066P
1281.84	4.93	954903	REC_WORD	4.93	n/a	RAKE	-999	10	[0, 0, 0]	n/a	FR1	0	R1066P
1286.77	5.658	957367	REC_WORD	5.658	n/a	SHOE	11	10	[0, 0, 0]	n/a	FR1	0	R1066P
1292.428	8.73	960196	REC_WORD	8.73	n/a	TOE	-999	10	[0, 0, 0]	n/a	FR1	0	R1066P
1301.158	0.842	964561	REC_WORD	0.842	n/a	SNAKE	10	10	[0, 0, 0]	n/a	FR1	0	R1066P
1302.0	19.932	964982	REC_END	n/a	n/a	n/a	-999	10	[0, 0, 0]	n/a	FR1	0	R1066P
1321.932	0.0	974948	TRIAL	n/a	n/a	n/a	-999	11	[0, 0, 0]	n/a	FR1	0	R1066P
1321.932	10.428	974948	COUNTDOWN_START	n/a	n/a	n/a	-999	11	[0, 0, 0]	n/a	FR1	0	R1066P
1332.36	0.008	980161	COUNTDOWN_END	n/a	n/a	n/a	-999	11	[0, 0, 0]	n/a	FR1	0	R1066P
1332.368	2.5	980165	ORIENT	n/a	n/a	n/a	-999	11	[0, 0, 0]	n/a	FR1	0	R1066P
1334.868	2.501	981415	WORD	n/a	wordpools/wordpool_EN.txt	SEA	1	11	[0, 0, 0]	n/a	FR1	0	R1066P
1337.369	2.583	982666	WORD	n/a	wordpools/wordpool_EN.txt	STAR	2	11	[0, 0, 0]	n/a	FR1	0	R1066P
1339.952	2.401	983957	WORD	n/a	wordpools/wordpool_EN.txt	SHIP	3	11	[0, 0, 0]	n/a	FR1	0	R1066P
1342.353	2.401	985158	WORD	n/a	wordpools/wordpool_EN.txt	STEAM	4	11	[0, 0, 0]	n/a	FR1	0	R1066P
1344.754	2.55	986358	WORD	n/a	wordpools/wordpool_EN.txt	BOMB	5	11	[0, 0, 0]	n/a	FR1	0	R1066P
1347.304	2.533	987633	WORD	n/a	wordpools/wordpool_EN.txt	JEEP	6	11	[0, 0, 0]	n/a	FR1	0	R1066P
1349.837	2.518	988899	WORD	n/a	wordpools/wordpool_EN.txt	PLANE	7	11	[0, 0, 0]	n/a	FR1	0	R1066P
1352.355	2.417	990158	WORD	n/a	wordpools/wordpool_EN.txt	MOON	8	11	[0, 0, 0]	n/a	FR1	0	R1066P
1354.772	2.501	991367	WORD	n/a	wordpools/wordpool_EN.txt	FILM	9	11	[0, 0, 0]	n/a	FR1	0	R1066P
1357.273	2.417	992617	WORD	n/a	wordpools/wordpool_EN.txt	CLOUD	10	11	[0, 0, 0]	n/a	FR1	0	R1066P
1359.69	2.483	993826	WORD	n/a	wordpools/wordpool_EN.txt	TANK	11	11	[0, 0, 0]	n/a	FR1	0	R1066P
1362.173	1.601	995067	WORD	n/a	wordpools/wordpool_EN.txt	FLUTE	12	11	[0, 0, 0]	n/a	FR1	0	R1066P
1363.774	0.001	995867	DISTRACT_START	n/a	n/a	n/a	-999	11	[0, 0, 0]	n/a	FR1	0	R1066P
1363.775	0.016	995868	START	n/a	n/a	n/a	-999	11	[-999, -999, -999]	n/a	FR1	0	R1066P
1363.791	3.534	995876	PROB	3.534	n/a	n/a	-999	11	[9, 4, 3]	16	FR1	0	R1066P
1367.325	2.25	997643	PROB	2.25	n/a	n/a	-999	11	[4, 1, 1]	6	FR1	0	R1066P
1369.575	2.5	998768	PROB	2.5	n/a	n/a	-999	11	[2, 6, 1]	9	FR1	0	R1066P
1372.075	2.067	1000018	PROB	2.067	n/a	n/a	-999	11	[1, 2, 1]	4	FR1	0	R1066P
1374.142	2.501	1001051	PROB	2.501	n/a	n/a	-999	11	[3, 6, 4]	13	FR1	0	R1066P
1376.643	3.034	1002302	PROB	3.034	n/a	n/a	-999	11	[3, 4, 9]	16	FR1	0	R1066P
1379.677	2.084	1003819	PROB	2.084	n/a	n/a	-999	11	[5, 5, 1]	11	FR1	0	R1066P
1381.761	2.048	1004860	PROB	2.048	n/a	n/a	-999	11	[2, 6, 6]	14	FR1	0	R1066P
1383.809	0.018	1005884	STOP	n/a	n/a	n/a	-999	11	[-999, -999, -999]	n/a	FR1	0	R1066P
1383.827	1.034	1005893	DISTRACT_END	n/a	n/a	n/a	-999	11	[0, 0, 0]	n/a	FR1	0	R1066P
1384.861	0.924	1006410	REC_START	n/a	n/a	n/a	-999	11	[0, 0, 0]	n/a	FR1	0	R1066P
1385.785	0.776	1006872	REC_WORD	0.776	n/a	STEAM	4	11	[0, 0, 0]	n/a	FR1	0	R1066P
1386.561	1.461	1007260	REC_WORD	1.461	n/a	SHIP	3	11	[0, 0, 0]	n/a	FR1	0	R1066P
1388.022	1.227	1007991	REC_WORD	1.227	n/a	STAR	2	11	[0, 0, 0]	n/a	FR1	0	R1066P
1389.249	2.35	1008604	REC_WORD	2.35	n/a	BOMB	5	11	[0, 0, 0]	n/a	FR1	0	R1066P
1391.599	1.181	1009779	REC_WORD	1.181	n/a	JEEP	6	11	[0, 0, 0]	n/a	FR1	0	R1066P
1392.78	3.478	1010370	REC_WORD	3.478	n/a	CLOUD	10	11	[0, 0, 0]	n/a	FR1	0	R1066P
1396.258	0.764	1012109	REC_WORD	0.764	n/a	STEAM	4	11	[0, 0, 0]	n/a	FR1	0	R1066P
1397.022	2.653	1012491	REC_WORD	2.653	n/a	SHIP	3	11	[0, 0, 0]	n/a	FR1	0	R1066P
1399.675	2.6	1013817	REC_WORD	2.6	n/a	STAR	2	11	[0, 0, 0]	n/a	FR1	0	R1066P
1402.275	0.597	1015117	REC_WORD	0.597	n/a	JEEP	6	11	[0, 0, 0]	n/a	FR1	0	R1066P
1402.872	0.559	1015415	REC_WORD	0.559	n/a	BOMB	5	11	[0, 0, 0]	n/a	FR1	0	R1066P
1403.431	11.44	1015695	REC_WORD	11.44	n/a	PLANE	7	11	[0, 0, 0]	n/a	FR1	0	R1066P
1414.871	3.196	1021415	REC_END	n/a	n/a	n/a	-999	11	[0, 0, 0]	n/a	FR1	0	R1066P
1418.067	0.0	1023013	TRIAL	n/a	n/a	n/a	-999	12	[0, 0, 0]	n/a	FR1	0	R1066P
1418.067	10.428	1023013	COUNTDOWN_START	n/a	n/a	n/a	-999	12	[0, 0, 0]	n/a	FR1	0	R1066P
1428.495	0.008	1028226	COUNTDOWN_END	n/a	n/a	n/a	-999	12	[0, 0, 0]	n/a	FR1	0	R1066P
1428.503	2.499	1028230	ORIENT	n/a	n/a	n/a	-999	12	[0, 0, 0]	n/a	FR1	0	R1066P
1431.002	2.468	1029480	WORD	n/a	wordpools/wordpool_EN.txt	MOTH	1	12	[0, 0, 0]	n/a	FR1	0	R1066P
1433.47	2.4	1030714	WORD	n/a	wordpools/wordpool_EN.txt	WING	2	12	[0, 0, 0]	n/a	FR1	0	R1066P
1435.87	2.518	1031914	WORD	n/a	wordpools/wordpool_EN.txt	RIB	3	12	[0, 0, 0]	n/a	FR1	0	R1066P
1438.388	2.466	1033172	WORD	n/a	wordpools/wordpool_EN.txt	THREAD	4	12	[0, 0, 0]	n/a	FR1	0	R1066P
1440.854	2.367	1034405	WORD	n/a	wordpools/wordpool_EN.txt	NET	5	12	[0, 0, 0]	n/a	FR1	0	R1066P
1443.221	2.617	1035589	WORD	n/a	wordpools/wordpool_EN.txt	POND	6	12	[0, 0, 0]	n/a	FR1	0	R1066P
1445.838	2.468	1036897	WORD	n/a	wordpools/wordpool_EN.txt	SNAIL	7	12	[0, 0, 0]	n/a	FR1	0	R1066P
1448.306	2.517	1038131	WORD	n/a	wordpools/wordpool_EN.txt	FISH	8	12	[0, 0, 0]	n/a	FR1	0	R1066P
1450.823	2.501	1039390	WORD	n/a	wordpools/wordpool_EN.txt	STRING	9	12	[0, 0, 0]	n/a	FR1	0	R1066P
1453.324	2.633	1040640	WORD	n/a	wordpools/wordpool_EN.txt	HAND	10	12	[0, 0, 0]	n/a	FR1	0	R1066P
1455.957	2.485	1041957	WORD	n/a	wordpools/wordpool_EN.txt	OWL	11	12	[0, 0, 0]	n/a	FR1	0	R1066P
1458.442	1.616	1043199	WORD	n/a	wordpools/wordpool_EN.txt	SKUNK	12	12	[0, 0, 0]	n/a	FR1	0	R1066P
1460.058	0.0	1044007	DISTRACT_START	n/a	n/a	n/a	-999	12	[0, 0, 0]	n/a	FR1	0	R1066P
1460.058	0.016	1044007	START	n/a	n/a	n/a	-999	12	[-999, -999, -999]	n/a	FR1	0	R1066P
1460.074	3.285	1044015	PROB	3.285	n/a	n/a	-999	12	[1, 6, 6]	13	FR1	0	R1066P
1463.359	5.018	1045657	PROB	5.018	n/a	n/a	-999	12	[1, 7, 5]	13	FR1	0	R1066P
1468.377	2.934	1048166	PROB	2.934	n/a	n/a	-999	12	[7, 7, 6]	20	FR1	0	R1066P
1471.311	4.184	1049633	PROB	4.184	n/a	n/a	-999	12	[3, 9, 3]	15	FR1	0	R1066P
1475.495	3.851	1051725	PROB	3.851	n/a	n/a	-999	12	[4, 7, 8]	19	FR1	0	R1066P
1479.346	2.51	1053650	PROB	2.51	n/a	n/a	-999	12	[3, 4, 3]	10	FR1	0	R1066P
1481.856	0.006	1054905	STOP	n/a	n/a	n/a	-999	12	[-999, -999, -999]	n/a	FR1	0	R1066P
1481.862	1.101	1054908	DISTRACT_END	n/a	n/a	n/a	-999	12	[0, 0, 0]	n/a	FR1	0	R1066P
1482.963	1.023	1055459	REC_START	n/a	n/a	n/a	-999	12	[0, 0, 0]	n/a	FR1	0	R1066P
1483.986	2.177	1055970	REC_WORD	2.177	n/a	MOTH	1	12	[0, 0, 0]	n/a	FR1	0	R1066P
1486.163	3.377	1057059	REC_WORD	3.377	n/a	WING	2	12	[0, 0, 0]	n/a	FR1	0	R1066P
1489.54	2.173	1058747	REC_WORD_VV	2.173	n/a	<>	-999	12	[0, 0, 0]	n/a	FR1	0	R1066P
1491.713	4.765	1059834	REC_WORD	4.765	n/a	RIB	3	12	[0, 0, 0]	n/a	FR1	0	R1066P
1496.478	16.495	1062216	REC_WORD_VV	16.495	n/a	<>	-999	12	[0, 0, 0]	n/a	FR1	0	R1066P
1512.973	29.435	1070463	REC_END	n/a	n/a	n/a	-999	12	[0, 0, 0]	n/a	FR1	0	R1066P
1542.408	0.0	1085180	COUNTDOWN_START	n/a	n/a	n/a	-999	13	[0, 0, 0]	n/a	FR1	0	R1066P
1542.408	10.428	1085180	TRIAL	n/a	n/a	n/a	-999	13	[0, 0, 0]	n/a	FR1	0	R1066P
1552.836	0.006	1090393	COUNTDOWN_END	n/a	n/a	n/a	-999	13	[0, 0, 0]	n/a	FR1	0	R1066P
1552.842	2.418	1090396	ORIENT	n/a	n/a	n/a	-999	13	[0, 0, 0]	n/a	FR1	0	R1066P
1555.26	2.599	1091605	WORD	n/a	wordpools/wordpool_EN.txt	JUDGE	1	13	[0, 0, 0]	n/a	FR1	0	R1066P
1557.859	2.585	1092905	WORD	n/a	wordpools/wordpool_EN.txt	KEY	2	13	[0, 0, 0]	n/a	FR1	0	R1066P
1560.444	2.55	1094197	WORD	n/a	wordpools/wordpool_EN.txt	BOY	3	13	[0, 0, 0]	n/a	FR1	0	R1066P
1562.994	2.468	1095472	WORD	n/a	wordpools/wordpool_EN.txt	DESK	4	13	[0, 0, 0]	n/a	FR1	0	R1066P
1565.462	2.499	1096706	WORD	n/a	wordpools/wordpool_EN.txt	CASH	5	13	[0, 0, 0]	n/a	FR1	0	R1066P
1567.961	2.585	1097956	WORD	n/a	wordpools/wordpool_EN.txt	FLAG	6	13	[0, 0, 0]	n/a	FR1	0	R1066P
1570.546	2.583	1099248	WORD	n/a	wordpools/wordpool_EN.txt	BADGE	7	13	[0, 0, 0]	n/a	FR1	0	R1066P
1573.129	2.451	1100539	WORD	n/a	wordpools/wordpool_EN.txt	ROOM	8	13	[0, 0, 0]	n/a	FR1	0	R1066P
1575.58	2.383	1101765	WORD	n/a	wordpools/wordpool_EN.txt	CAR	9	13	[0, 0, 0]	n/a	FR1	0	R1066P
1577.963	2.552	1102956	WORD	n/a	wordpools/wordpool_EN.txt	SIGN	10	13	[0, 0, 0]	n/a	FR1	0	R1066P
1580.515	2.532	1104232	WORD	n/a	wordpools/wordpool_EN.txt	ARK	11	13	[0, 0, 0]	n/a	FR1	0	R1066P
1583.047	1.602	1105498	WORD	n/a	wordpools/wordpool_EN.txt	PIE	12	13	[0, 0, 0]	n/a	FR1	0	R1066P
1584.649	0.0	1106299	DISTRACT_START	n/a	n/a	n/a	-999	13	[0, 0, 0]	n/a	FR1	0	R1066P
1584.649	0.016	1106299	START	n/a	n/a	n/a	-999	13	[-999, -999, -999]	n/a	FR1	0	R1066P
1584.665	5.085	1106307	PROB	5.085	n/a	n/a	-999	13	[7, 1, 8]	16	FR1	0	R1066P
1589.75	3.366	1108849	PROB	3.366	n/a	n/a	-999	13	[9, 6, 1]	15	FR1	0	R1066P
1593.116	4.469	1110532	PROB	4.469	n/a	n/a	-999	13	[8, 7, 1]	16	FR1	0	R1066P
1597.585	3.784	1112767	PROB	3.784	n/a	n/a	-999	13	[3, 6, 6]	15	FR1	0	R1066P
1601.369	4.751	1114659	PROB	4.751	n/a	n/a	-999	13	[8, 5, 7]	20	FR1	0	R1066P
1606.12	0.015	1117034	STOP	n/a	n/a	n/a	-999	13	[-999, -999, -999]	n/a	FR1	0	R1066P
1606.135	1.084	1117042	DISTRACT_END	n/a	n/a	n/a	-999	13	[0, 0, 0]	n/a	FR1	0	R1066P
1607.219	0.995	1117584	REC_START	n/a	n/a	n/a	-999	13	[0, 0, 0]	n/a	FR1	0	R1066P
1608.214	0.698	1118081	REC_WORD	0.698	n/a	JUDGE	1	13	[0, 0, 0]	n/a	FR1	0	R1066P
1608.912	0.566	1118430	REC_WORD	0.566	n/a	BOY	3	13	[0, 0, 0]	n/a	FR1	0	R1066P
1609.478	0.948	1118713	REC_WORD	0.948	n/a	DESK	4	13	[0, 0, 0]	n/a	FR1	0	R1066P
1610.426	0.436	1119187	REC_WORD	0.436	n/a	KEY	2	13	[0, 0, 0]	n/a	FR1	0	R1066P
1610.862	0.676	1119405	REC_WORD	0.676	n/a	CASH	5	13	[0, 0, 0]	n/a	FR1	0	R1066P
1611.538	25.695	1119743	REC_WORD	25.695	n/a	FLAG	6	13	[0, 0, 0]	n/a	FR1	0	R1066P
1637.233	2.608	1132590	REC_END	n/a	n/a	n/a	-999	13	[0, 0, 0]	n/a	FR1	0	R1066P
1639.841	0.001	1133894	COUNTDOWN_START	n/a	n/a	n/a	-999	14	[0, 0, 0]	n/a	FR1	0	R1066P
1639.842	10.427	1133894	TRIAL	n/a	n/a	n/a	-999	14	[0, 0, 0]	n/a	FR1	0	R1066P
1650.269	0.009	1139107	COUNTDOWN_END	n/a	n/a	n/a	-999	14	[0, 0, 0]	n/a	FR1	0	R1066P
1650.278	2.45	1139112	ORIENT	n/a	n/a	n/a	-999	14	[0, 0, 0]	n/a	FR1	0	R1066P
1652.728	2.466	1140337	WORD	n/a	wordpools/wordpool_EN.txt	SUN	1	14	[0, 0, 0]	n/a	FR1	0	R1066P
1655.194	2.568	1141570	WORD	n/a	wordpools/wordpool_EN.txt	CAPE	2	14	[0, 0, 0]	n/a	FR1	0	R1066P
1657.762	2.45	1142854	WORD	n/a	wordpools/wordpool_EN.txt	BATH	3	14	[0, 0, 0]	n/a	FR1	0	R1066P
1660.212	2.518	1144079	WORD	n/a	wordpools/wordpool_EN.txt	SAIL	4	14	[0, 0, 0]	n/a	FR1	0	R1066P
1662.73	2.601	1145338	WORD	n/a	wordpools/wordpool_EN.txt	LEG	5	14	[0, 0, 0]	n/a	FR1	0	R1066P
1665.331	2.566	1146638	WORD	n/a	wordpools/wordpool_EN.txt	ROSE	6	14	[0, 0, 0]	n/a	FR1	0	R1066P
1667.897	2.468	1147921	WORD	n/a	wordpools/wordpool_EN.txt	RUG	7	14	[0, 0, 0]	n/a	FR1	0	R1066P
1670.365	2.533	1149155	WORD	n/a	wordpools/wordpool_EN.txt	MOOSE	8	14	[0, 0, 0]	n/a	FR1	0	R1066P
1672.898	2.485	1150421	WORD	n/a	wordpools/wordpool_EN.txt	BOAT	9	14	[0, 0, 0]	n/a	FR1	0	R1066P
1675.383	2.482	1151664	WORD	n/a	wordpools/wordpool_EN.txt	ICE	10	14	[0, 0, 0]	n/a	FR1	0	R1066P
1677.865	2.568	1152905	WORD	n/a	wordpools/wordpool_EN.txt	CAKE	11	14	[0, 0, 0]	n/a	FR1	0	R1066P
1680.433	1.616	1154189	WORD	n/a	wordpools/wordpool_EN.txt	FENCE	12	14	[0, 0, 0]	n/a	FR1	0	R1066P
1682.049	0.001	1154997	DISTRACT_START	n/a	n/a	n/a	-999	14	[0, 0, 0]	n/a	FR1	0	R1066P
1682.05	0.016	1154997	START	n/a	n/a	n/a	-999	14	[-999, -999, -999]	n/a	FR1	0	R1066P
1682.066	3.252	1155005	PROB	3.252	n/a	n/a	-999	14	[1, 9, 9]	19	FR1	0	R1066P
1685.318	3.45	1156631	PROB	3.45	n/a	n/a	-999	14	[9, 3, 8]	20	FR1	0	R1066P
1688.768	1.651	1158356	PROB	1.651	n/a	n/a	-999	14	[7, 7, 7]	21	FR1	0	R1066P
1690.419	5.134	1159181	PROB	5.134	n/a	n/a	-999	14	[9, 3, 4]	16	FR1	0	R1066P
1695.553	2.984	1161748	PROB	2.984	n/a	n/a	-999	14	[1, 8, 4]	13	FR1	0	R1066P
1698.537	2.267	1163240	PROB	2.267	n/a	n/a	-999	14	[1, 9, 5]	15	FR1	0	R1066P
1700.804	3.789	1164374	PROB	3.789	n/a	n/a	-999	14	[7, 5, 6]	18	FR1	0	R1066P
1704.593	0.012	1166268	STOP	n/a	n/a	n/a	-999	14	[-999, -999, -999]	n/a	FR1	0	R1066P
1704.605	1.1	1166274	DISTRACT_END	n/a	n/a	n/a	-999	14	[0, 0, 0]	n/a	FR1	0	R1066P
1705.705	1.137	1166824	REC_START	n/a	n/a	n/a	-999	14	[0, 0, 0]	n/a	FR1	0	R1066P
1706.842	0.8	1167392	REC_WORD	0.8	n/a	SUN	1	14	[0, 0, 0]	n/a	FR1	0	R1066P
1707.642	2.243	1167792	REC_WORD	2.243	n/a	CAPE	2	14	[0, 0, 0]	n/a	FR1	0	R1066P
1709.885	4.537	1168914	REC_WORD	4.537	n/a	LEG	5	14	[0, 0, 0]	n/a	FR1	0	R1066P
1714.422	5.385	1171182	REC_WORD	5.385	n/a	SAIL	4	14	[0, 0, 0]	n/a	FR1	0	R1066P
1719.807	11.15	1173875	REC_WORD	11.15	n/a	LEG	5	14	[0, 0, 0]	n/a	FR1	0	R1066P
1730.957	4.759	1179449	REC_WORD	4.759	n/a	ROSE	6	14	[0, 0, 0]	n/a	FR1	0	R1066P
1735.716	29.75	1181829	REC_END	n/a	n/a	n/a	-999	14	[0, 0, 0]	n/a	FR1	0	R1066P
1765.466	0.0	1196703	TRIAL	n/a	n/a	n/a	-999	15	[0, 0, 0]	n/a	FR1	0	R1066P
1765.466	10.428	1196703	COUNTDOWN_START	n/a	n/a	n/a	-999	15	[0, 0, 0]	n/a	FR1	0	R1066P
1775.894	0.006	1201917	COUNTDOWN_END	n/a	n/a	n/a	-999	15	[0, 0, 0]	n/a	FR1	0	R1066P
1775.9	2.518	1201920	ORIENT	n/a	n/a	n/a	-999	15	[0, 0, 0]	n/a	FR1	0	R1066P
1778.418	2.5	1203178	WORD	n/a	wordpools/wordpool_EN.txt	SOAP	1	15	[0, 0, 0]	n/a	FR1	0	R1066P
1780.918	2.501	1204428	WORD	n/a	wordpools/wordpool_EN.txt	PALM	2	15	[0, 0, 0]	n/a	FR1	0	R1066P
1783.419	2.433	1205679	WORD	n/a	wordpools/wordpool_EN.txt	CANE	3	15	[0, 0, 0]	n/a	FR1	0	R1066P
1785.852	2.518	1206895	WORD	n/a	wordpools/wordpool_EN.txt	JAR	4	15	[0, 0, 0]	n/a	FR1	0	R1066P
1788.37	2.566	1208154	WORD	n/a	wordpools/wordpool_EN.txt	POOL	5	15	[0, 0, 0]	n/a	FR1	0	R1066P
1790.936	2.369	1209437	WORD	n/a	wordpools/wordpool_EN.txt	TOAST	6	15	[0, 0, 0]	n/a	FR1	0	R1066P
1793.305	2.433	1210622	WORD	n/a	wordpools/wordpool_EN.txt	VASE	7	15	[0, 0, 0]	n/a	FR1	0	R1066P
1795.738	2.416	1211838	WORD	n/a	wordpools/wordpool_EN.txt	TRAY	8	15	[0, 0, 0]	n/a	FR1	0	R1066P
1798.154	2.435	1213046	WORD	n/a	wordpools/wordpool_EN.txt	COUCH	9	15	[0, 0, 0]	n/a	FR1	0	R1066P
1800.589	2.566	1214263	WORD	n/a	wordpools/wordpool_EN.txt	HOUSE	10	15	[0, 0, 0]	n/a	FR1	0	R1066P
1803.155	2.385	1215546	WORD	n/a	wordpools/wordpool_EN.txt	CUBE	11	15	[0, 0, 0]	n/a	FR1	0	R1066P
1805.54	1.616	1216739	WORD	n/a	wordpools/wordpool_EN.txt	VAN	12	15	[0, 0, 0]	n/a	FR1	0	R1066P
1807.156	0.001	1217547	DISTRACT_START	n/a	n/a	n/a	-999	15	[0, 0, 0]	n/a	FR1	0	R1066P
1807.157	0.016	1217547	START	n/a	n/a	n/a	-999	15	[-999, -999, -999]	n/a	FR1	0	R1066P
1807.173	5.418	1217555	PROB	5.418	n/a	n/a	-999	15	[6, 4, 7]	17	FR1	0	R1066P
1812.591	2.367	1220264	PROB	2.367	n/a	n/a	-999	15	[4, 9, 2]	15	FR1	0	R1066P
1814.958	2.217	1221448	PROB	2.217	n/a	n/a	-999	15	[4, 5, 5]	14	FR1	0	R1066P
1817.175	2.101	1222556	PROB	2.101	n/a	n/a	-999	15	[2, 4, 4]	10	FR1	0	R1066P
1819.276	2.417	1223606	PROB	2.417	n/a	n/a	-999	15	[3, 2, 9]	14	FR1	0	R1066P
1821.693	3.167	1224815	PROB	3.167	n/a	n/a	-999	15	[6, 3, 7]	16	FR1	0	R1066P
1824.86	1.767	1226398	PROB	1.767	n/a	n/a	-999	15	[1, 1, 1]	3	FR1	0	R1066P
1826.627	3.357	1227282	PROB	3.357	n/a	n/a	-999	15	[8, 6, 6]	29	FR1	0	R1066P
1829.984	0.01	1228960	STOP	n/a	n/a	n/a	-999	15	[-999, -999, -999]	n/a	FR1	0	R1066P
1829.994	1.101	1228965	DISTRACT_END	n/a	n/a	n/a	-999	15	[0, 0, 0]	n/a	FR1	0	R1066P
1831.095	1.59	1229516	REC_START	n/a	n/a	n/a	-999	15	[0, 0, 0]	n/a	FR1	0	R1066P
1832.685	0.911	1230311	REC_WORD	0.911	n/a	SOAP	1	15	[0, 0, 0]	n/a	FR1	0	R1066P
1833.596	3.592	1230766	REC_WORD	3.592	n/a	CANE	3	15	[0, 0, 0]	n/a	FR1	0	R1066P
1837.188	7.972	1232562	REC_WORD	7.972	n/a	VASE	7	15	[0, 0, 0]	n/a	FR1	0	R1066P
1845.16	9.289	1236548	REC_WORD	9.289	n/a	PALM	2	15	[0, 0, 0]	n/a	FR1	0	R1066P
1854.449	6.656	1241192	REC_WORD	6.656	n/a	CUBE	11	15	[0, 0, 0]	n/a	FR1	0	R1066P
1861.105	393.052	1244520	REC_END	n/a	n/a	n/a	-999	15	[0, 0, 0]	n/a	FR1	0	R1066P
2254.157	0.0	1441035	TRIAL	n/a	n/a	n/a	-999	16	[0, 0, 0]	n/a	FR1	0	R1066P
2254.157	10.428	1441035	COUNTDOWN_START	n/a	n/a	n/a	-999	16	[0, 0, 0]	n/a	FR1	0	R1066P
2264.585	0.008	1446249	COUNTDOWN_END	n/a	n/a	n/a	-999	16	[0, 0, 0]	n/a	FR1	0	R1066P
2264.593	2.416	1446253	ORIENT	n/a	n/a	n/a	-999	16	[0, 0, 0]	n/a	FR1	0	R1066P
2267.009	2.435	1447461	WORD	n/a	wordpools/wordpool_EN.txt	TENT	1	16	[0, 0, 0]	n/a	FR1	0	R1066P
2269.444	2.549	1448679	WORD	n/a	wordpools/wordpool_EN.txt	STOOL	2	16	[0, 0, 0]	n/a	FR1	0	R1066P
2271.993	2.585	1449953	WORD	n/a	wordpools/wordpool_EN.txt	HORN	3	16	[0, 0, 0]	n/a	FR1	0	R1066P
2274.578	2.516	1451245	WORD	n/a	wordpools/wordpool_EN.txt	SHIRT	4	16	[0, 0, 0]	n/a	FR1	0	R1066P
2277.094	2.518	1452503	WORD	n/a	wordpools/wordpool_EN.txt	YARD	5	16	[0, 0, 0]	n/a	FR1	0	R1066P
2279.612	2.483	1453762	WORD	n/a	wordpools/wordpool_EN.txt	BOWL	6	16	[0, 0, 0]	n/a	FR1	0	R1066P
2282.095	2.418	1455004	WORD	n/a	wordpools/wordpool_EN.txt	SEAT	7	16	[0, 0, 0]	n/a	FR1	0	R1066P
2284.513	2.566	1456213	WORD	n/a	wordpools/wordpool_EN.txt	SLUSH	8	16	[0, 0, 0]	n/a	FR1	0	R1066P
2287.079	2.535	1457496	WORD	n/a	wordpools/wordpool_EN.txt	CHALK	9	16	[0, 0, 0]	n/a	FR1	0	R1066P
2289.614	2.55	1458763	WORD	n/a	wordpools/wordpool_EN.txt	PLATE	10	16	[0, 0, 0]	n/a	FR1	0	R1066P
2292.164	2.401	1460038	WORD	n/a	wordpools/wordpool_EN.txt	PANTS	11	16	[0, 0, 0]	n/a	FR1	0	R1066P
2294.565	1.616	1461238	WORD	n/a	wordpools/wordpool_EN.txt	BAND	12	16	[0, 0, 0]	n/a	FR1	0	R1066P
2296.181	0.001	1462046	DISTRACT_START	n/a	n/a	n/a	-999	16	[0, 0, 0]	n/a	FR1	0	R1066P
2296.182	0.016	1462047	START	n/a	n/a	n/a	-999	16	[-999, -999, -999]	n/a	FR1	0	R1066P
2296.198	4.452	1462055	PROB	4.452	n/a	n/a	-999	16	[6, 9, 6]	21	FR1	0	R1066P
2300.65	2.366	1464281	PROB	2.366	n/a	n/a	-999	16	[5, 9, 5]	19	FR1	0	R1066P
2303.016	2.334	1465464	PROB	2.334	n/a	n/a	-999	16	[7, 8, 4]	19	FR1	0	R1066P
2305.35	2.034	1466631	PROB	2.034	n/a	n/a	-999	16	[1, 5, 1]	7	FR1	0	R1066P
2307.384	2.334	1467648	PROB	2.334	n/a	n/a	-999	16	[2, 2, 9]	13	FR1	0	R1066P
2309.718	2.767	1468814	PROB	2.767	n/a	n/a	-999	16	[7, 6, 3]	16	FR1	0	R1066P
2312.485	4.972	1470198	PROB	4.972	n/a	n/a	-999	16	[3, 3, 4]	10	FR1	0	R1066P
2317.457	0.012	1472684	STOP	n/a	n/a	n/a	-999	16	[-999, -999, -999]	n/a	FR1	0	R1066P
2317.469	1.068	1472690	DISTRACT_END	n/a	n/a	n/a	-999	16	[0, 0, 0]	n/a	FR1	0	R1066P
2318.537	1.276	1473224	REC_START	n/a	n/a	n/a	-999	16	[0, 0, 0]	n/a	FR1	0	R1066P
2319.813	0.423	1473862	REC_WORD	0.423	n/a	TENT	1	16	[0, 0, 0]	n/a	FR1	0	R1066P
2320.236	0.645	1474073	REC_WORD	0.645	n/a	STOOL	2	16	[0, 0, 0]	n/a	FR1	0	R1066P
2320.881	1.666	1474396	REC_WORD	1.666	n/a	SEAT	7	16	[0, 0, 0]	n/a	FR1	0	R1066P
2322.547	2.177	1475229	REC_WORD	2.177	n/a	PANTS	11	16	[0, 0, 0]	n/a	FR1	0	R1066P
2324.724	5.748	1476317	REC_WORD	5.748	n/a	SOUP	-999	16	[0, 0, 0]	n/a	FR1	0	R1066P
2330.472	18.075	1479191	REC_WORD	18.075	n/a	FIELD	-999	16	[0, 0, 0]	n/a	FR1	0	R1066P
2348.547	2.795	1488228	REC_END	n/a	n/a	n/a	-999	16	[0, 0, 0]	n/a	FR1	0	R1066P
2351.342	0.001	1489625	COUNTDOWN_START	n/a	n/a	n/a	-999	17	[0, 0, 0]	n/a	FR1	0	R1066P
2351.343	10.427	1489626	TRIAL	n/a	n/a	n/a	-999	17	[0, 0, 0]	n/a	FR1	0	R1066P
2361.77	0.008	1494839	COUNTDOWN_END	n/a	n/a	n/a	-999	17	[0, 0, 0]	n/a	FR1	0	R1066P
2361.778	2.467	1494843	ORIENT	n/a	n/a	n/a	-999	17	[0, 0, 0]	n/a	FR1	0	R1066P
2364.245	2.566	1496077	WORD	n/a	wordpools/wordpool_EN.txt	HAWK	1	17	[0, 0, 0]	n/a	FR1	0	R1066P
2366.811	2.534	1497359	WORD	n/a	wordpools/wordpool_EN.txt	MAIL	2	17	[0, 0, 0]	n/a	FR1	0	R1066P
2369.345	2.617	1498626	WORD	n/a	wordpools/wordpool_EN.txt	BOOK	3	17	[0, 0, 0]	n/a	FR1	0	R1066P
2371.962	2.368	1499935	WORD	n/a	wordpools/wordpool_EN.txt	STORE	4	17	[0, 0, 0]	n/a	FR1	0	R1066P
2374.33	2.4	1501119	WORD	n/a	wordpools/wordpool_EN.txt	HORSE	5	17	[0, 0, 0]	n/a	FR1	0	R1066P
2376.73	2.467	1502319	WORD	n/a	wordpools/wordpool_EN.txt	CORD	6	17	[0, 0, 0]	n/a	FR1	0	R1066P
2379.197	2.568	1503552	WORD	n/a	wordpools/wordpool_EN.txt	BAT	7	17	[0, 0, 0]	n/a	FR1	0	R1066P
2381.765	2.6	1504836	WORD	n/a	wordpools/wordpool_EN.txt	PEA	8	17	[0, 0, 0]	n/a	FR1	0	R1066P
2384.365	2.533	1506136	WORD	n/a	wordpools/wordpool_EN.txt	JET	9	17	[0, 0, 0]	n/a	FR1	0	R1066P
2386.898	2.568	1507402	WORD	n/a	wordpools/wordpool_EN.txt	JAIL	10	17	[0, 0, 0]	n/a	FR1	0	R1066P
2389.466	2.516	1508686	WORD	n/a	wordpools/wordpool_EN.txt	TOOL	11	17	[0, 0, 0]	n/a	FR1	0	R1066P
2391.982	1.601	1509944	WORD	n/a	wordpools/wordpool_EN.txt	SHEET	12	17	[0, 0, 0]	n/a	FR1	0	R1066P
2393.583	0.001	1510745	DISTRACT_START	n/a	n/a	n/a	-999	17	[0, 0, 0]	n/a	FR1	0	R1066P
2393.584	0.016	1510745	START	n/a	n/a	n/a	-999	17	[-999, -999, -999]	n/a	FR1	0	R1066P
2393.6	5.45	1510753	PROB	5.45	n/a	n/a	-999	17	[6, 1, 8]	15	FR1	0	R1066P
2399.05	2.151	1513478	PROB	2.151	n/a	n/a	-999	17	[1, 7, 7]	15	FR1	0	R1066P
2401.201	2.518	1514554	PROB	2.518	n/a	n/a	-999	17	[7, 5, 7]	19	FR1	0	R1066P
2403.719	3.717	1515812	PROB	3.717	n/a	n/a	-999	17	[5, 7, 4]	16	FR1	0	R1066P
2407.436	4.001	1517671	PROB	4.001	n/a	n/a	-999	17	[5, 3, 2]	10	FR1	0	R1066P
2411.437	2.795	1519671	PROB	2.795	n/a	n/a	-999	17	[7, 4, 9]	20	FR1	0	R1066P
2414.232	0.004	1521069	STOP	n/a	n/a	n/a	-999	17	[-999, -999, -999]	n/a	FR1	0	R1066P
2414.236	1.119	1521071	DISTRACT_END	n/a	n/a	n/a	-999	17	[0, 0, 0]	n/a	FR1	0	R1066P
2415.355	1.623	1521630	REC_START	n/a	n/a	n/a	-999	17	[0, 0, 0]	n/a	FR1	0	R1066P
2416.978	0.309	1522442	REC_WORD_VV	0.309	n/a	<>	-999	17	[0, 0, 0]	n/a	FR1	0	R1066P
2417.287	4.76	1522596	REC_WORD	4.76	n/a	HAWK	1	17	[0, 0, 0]	n/a	FR1	0	R1066P
2422.047	2.473	1524976	REC_WORD	2.473	n/a	TOOL	11	17	[0, 0, 0]	n/a	FR1	0	R1066P
2424.52	6.199	1526212	REC_WORD	6.199	n/a	JET	9	17	[0, 0, 0]	n/a	FR1	0	R1066P
2430.719	3.743	1529312	REC_WORD	3.743	n/a	MAIL	2	17	[0, 0, 0]	n/a	FR1	0	R1066P
2434.462	10.916	1531183	REC_WORD	10.916	n/a	BOOK	3	17	[0, 0, 0]	n/a	FR1	0	R1066P
2445.378	4.449	1536641	REC_END	n/a	n/a	n/a	-999	17	[0, 0, 0]	n/a	FR1	0	R1066P
2449.827	0.0	1538865	COUNTDOWN_START	n/a	n/a	n/a	-999	18	[0, 0, 0]	n/a	FR1	0	R1066P
2449.827	10.428	1538865	TRIAL	n/a	n/a	n/a	-999	18	[0, 0, 0]	n/a	FR1	0	R1066P
2460.255	0.008	1544079	COUNTDOWN_END	n/a	n/a	n/a	-999	18	[0, 0, 0]	n/a	FR1	0	R1066P
2460.263	2.384	1544083	ORIENT	n/a	n/a	n/a	-999	18	[0, 0, 0]	n/a	FR1	0	R1066P
2462.647	2.582	1545275	WORD	n/a	wordpools/wordpool_EN.txt	RAKE	1	18	[0, 0, 0]	n/a	FR1	0	R1066P
2465.229	2.485	1546566	WORD	n/a	wordpools/wordpool_EN.txt	SPRING	2	18	[0, 0, 0]	n/a	FR1	0	R1066P
2467.714	2.551	1547808	WORD	n/a	wordpools/wordpool_EN.txt	WORM	3	18	[0, 0, 0]	n/a	FR1	0	R1066P
2470.265	2.484	1549084	WORD	n/a	wordpools/wordpool_EN.txt	BLUSH	4	18	[0, 0, 0]	n/a	FR1	0	R1066P
2472.749	2.533	1550326	WORD	n/a	wordpools/wordpool_EN.txt	MOLE	5	18	[0, 0, 0]	n/a	FR1	0	R1066P
2475.282	2.533	1551592	WORD	n/a	wordpools/wordpool_EN.txt	ROAD	6	18	[0, 0, 0]	n/a	FR1	0	R1066P
2477.815	2.568	1552859	WORD	n/a	wordpools/wordpool_EN.txt	LEAF	7	18	[0, 0, 0]	n/a	FR1	0	R1066P
2480.383	2.616	1554142	WORD	n/a	wordpools/wordpool_EN.txt	WEB	8	18	[0, 0, 0]	n/a	FR1	0	R1066P
2482.999	2.519	1555450	WORD	n/a	wordpools/wordpool_EN.txt	TAIL	9	18	[0, 0, 0]	n/a	FR1	0	R1066P
2485.518	2.466	1556710	WORD	n/a	wordpools/wordpool_EN.txt	BUSH	10	18	[0, 0, 0]	n/a	FR1	0	R1066P
2487.984	2.535	1557943	WORD	n/a	wordpools/wordpool_EN.txt	FLEA	11	18	[0, 0, 0]	n/a	FR1	0	R1066P
2490.519	1.615	1559210	WORD	n/a	wordpools/wordpool_EN.txt	CAGE	12	18	[0, 0, 0]	n/a	FR1	0	R1066P
2492.134	0.001	1560018	DISTRACT_START	n/a	n/a	n/a	-999	18	[0, 0, 0]	n/a	FR1	0	R1066P
2492.135	0.016	1560018	START	n/a	n/a	n/a	-999	18	[-999, -999, -999]	n/a	FR1	0	R1066P
2492.151	4.552	1560026	PROB	4.552	n/a	n/a	-999	18	[5, 3, 5]	13	FR1	0	R1066P
2496.703	2.183	1562302	PROB	2.183	n/a	n/a	-999	18	[2, 1, 3]	5	FR1	0	R1066P
2498.886	3.234	1563393	PROB	3.234	n/a	n/a	-999	18	[6, 6, 4]	16	FR1	0	R1066P
2502.12	3.884	1565010	PROB	3.884	n/a	n/a	-999	18	[8, 2, 4]	14	FR1	0	R1066P
2506.004	3.401	1566952	PROB	3.401	n/a	n/a	-999	18	[6, 2, 2]	10	FR1	0	R1066P
2509.405	1.75	1568653	PROB	1.75	n/a	n/a	-999	18	[9, 8, 2]	19	FR1	0	R1066P
2511.155	2.262	1569528	PROB	2.262	n/a	n/a	-999	18	[3, 7, 5]	15	FR1	0	R1066P
2513.417	0.006	1570659	STOP	n/a	n/a	n/a	-999	18	[-999, -999, -999]	n/a	FR1	0	R1066P
2513.423	1.134	1570662	DISTRACT_END	n/a	n/a	n/a	-999	18	[0, 0, 0]	n/a	FR1	0	R1066P
2514.557	1.31	1571229	REC_START	n/a	n/a	n/a	-999	18	[0, 0, 0]	n/a	FR1	0	R1066P
2515.867	0.734	1571884	REC_WORD	0.734	n/a	SPRING	2	18	[0, 0, 0]	n/a	FR1	0	R1066P
2516.601	0.762	1572250	REC_WORD	0.762	n/a	RAKE	1	18	[0, 0, 0]	n/a	FR1	0	R1066P
2517.363	2.374	1572631	REC_WORD	2.374	n/a	LEAF	7	18	[0, 0, 0]	n/a	FR1	0	R1066P
2519.737	1.32	1573818	REC_WORD	1.32	n/a	WORM	3	18	[0, 0, 0]	n/a	FR1	0	R1066P
2521.057	2.61	1574478	REC_WORD	2.61	n/a	MOLE	5	18	[0, 0, 0]	n/a	FR1	0	R1066P
2523.667	1.327	1575783	REC_WORD	1.327	n/a	BUSH	10	18	[0, 0, 0]	n/a	FR1	0	R1066P
2524.994	19.573	1576447	REC_WORD	19.573	n/a	ROAD	6	18	[0, 0, 0]	n/a	FR1	0	R1066P
2544.567	2.578	1586233	REC_END	n/a	n/a	n/a	-999	18	[0, 0, 0]	n/a	FR1	0	R1066P
2547.145	0.0	1587522	TRIAL	n/a	n/a	n/a	-999	19	[0, 0, 0]	n/a	FR1	0	R1066P
2547.145	10.428	1587522	COUNTDOWN_START	n/a	n/a	n/a	-999	19	[0, 0, 0]	n/a	FR1	0	R1066P
2557.573	0.008	1592735	COUNTDOWN_END	n/a	n/a	n/a	-999	19	[0, 0, 0]	n/a	FR1	0	R1066P
2557.581	2.449	1592739	ORIENT	n/a	n/a	n/a	-999	19	[0, 0, 0]	n/a	FR1	0	R1066P
2560.03	2.452	1593964	WORD	n/a	wordpools/wordpool_EN.txt	FOX	1	19	[0, 0, 0]	n/a	FR1	0	R1066P
2562.482	2.399	1595190	WORD	n/a	wordpools/wordpool_EN.txt	BAG	2	19	[0, 0, 0]	n/a	FR1	0	R1066P
2564.881	2.419	1596389	WORD	n/a	wordpools/wordpool_EN.txt	COW	3	19	[0, 0, 0]	n/a	FR1	0	R1066P
2567.3	2.549	1597599	WORD	n/a	wordpools/wordpool_EN.txt	CRANE	4	19	[0, 0, 0]	n/a	FR1	0	R1066P
2569.849	2.485	1598873	WORD	n/a	wordpools/wordpool_EN.txt	DOCK	5	19	[0, 0, 0]	n/a	FR1	0	R1066P
2572.334	2.599	1600116	WORD	n/a	wordpools/wordpool_EN.txt	AXE	6	19	[0, 0, 0]	n/a	FR1	0	R1066P
2574.933	2.485	1601415	WORD	n/a	wordpools/wordpool_EN.txt	EAR	7	19	[0, 0, 0]	n/a	FR1	0	R1066P
2577.418	2.4	1602657	WORD	n/a	wordpools/wordpool_EN.txt	GRASS	8	19	[0, 0, 0]	n/a	FR1	0	R1066P
2579.818	2.451	1603857	WORD	n/a	wordpools/wordpool_EN.txt	CROW	9	19	[0, 0, 0]	n/a	FR1	0	R1066P
2582.269	2.583	1605083	WORD	n/a	wordpools/wordpool_EN.txt	TOAD	10	19	[0, 0, 0]	n/a	FR1	0	R1066P
2584.852	2.601	1606374	WORD	n/a	wordpools/wordpool_EN.txt	WORLD	11	19	[0, 0, 0]	n/a	FR1	0	R1066P
2587.453	1.616	1607675	WORD	n/a	wordpools/wordpool_EN.txt	SHEEP	12	19	[0, 0, 0]	n/a	FR1	0	R1066P
2589.069	0.001	1608483	DISTRACT_START	n/a	n/a	n/a	-999	19	[0, 0, 0]	n/a	FR1	0	R1066P
2589.07	0.016	1608483	START	n/a	n/a	n/a	-999	19	[-999, -999, -999]	n/a	FR1	0	R1066P
2589.086	4.452	1608491	PROB	4.452	n/a	n/a	-999	19	[3, 2, 7]	12	FR1	0	R1066P
2593.538	3.0	1610717	PROB	3.0	n/a	n/a	-999	19	[5, 4, 4]	13	FR1	0	R1066P
2596.538	3.65	1612217	PROB	3.65	n/a	n/a	-999	19	[9, 8, 3]	20	FR1	0	R1066P
2600.188	2.151	1614042	PROB	2.151	n/a	n/a	-999	19	[4, 4, 4]	12	FR1	0	R1066P
2602.339	4.534	1615117	PROB	4.534	n/a	n/a	-999	19	[1, 2, 3]	6	FR1	0	R1066P
2606.873	3.183	1617384	PROB	3.183	n/a	n/a	-999	19	[5, 2, 4]	11	FR1	0	R1066P
2610.056	0.017	1618976	STOP	n/a	n/a	n/a	-999	19	[-999, -999, -999]	n/a	FR1	0	R1066P
2610.073	1.035	1618984	DISTRACT_END	n/a	n/a	n/a	-999	19	[0, 0, 0]	n/a	FR1	0	R1066P
2611.108	1.224	1619501	REC_START	n/a	n/a	n/a	-999	19	[0, 0, 0]	n/a	FR1	0	R1066P
2612.332	0.73	1620113	REC_WORD	0.73	n/a	FOX	1	19	[0, 0, 0]	n/a	FR1	0	R1066P
2613.062	2.459	1620478	REC_WORD	2.459	n/a	COW	3	19	[0, 0, 0]	n/a	FR1	0	R1066P
2615.521	25.597	1621708	REC_WORD	25.597	n/a	EAR	7	19	[0, 0, 0]	n/a	FR1	0	R1066P
2641.118	15.665	1634506	REC_END	n/a	n/a	n/a	-999	19	[0, 0, 0]	n/a	FR1	0	R1066P
2656.783	0.0	1642338	TRIAL	n/a	n/a	n/a	-999	20	[0, 0, 0]	n/a	FR1	0	R1066P
2656.783	10.428	1642338	COUNTDOWN_START	n/a	n/a	n/a	-999	20	[0, 0, 0]	n/a	FR1	0	R1066P
2667.211	0.006	1647552	COUNTDOWN_END	n/a	n/a	n/a	-999	20	[0, 0, 0]	n/a	FR1	0	R1066P
2667.217	2.418	1647555	ORIENT	n/a	n/a	n/a	-999	20	[0, 0, 0]	n/a	FR1	0	R1066P
2669.635	2.483	1648763	WORD	n/a	wordpools/wordpool_EN.txt	DRESS	1	20	[0, 0, 0]	n/a	FR1	0	R1066P
2672.118	2.551	1650005	WORD	n/a	wordpools/wordpool_EN.txt	LAWN	2	20	[0, 0, 0]	n/a	FR1	0	R1066P
2674.669	2.433	1651280	WORD	n/a	wordpools/wordpool_EN.txt	BARN	3	20	[0, 0, 0]	n/a	FR1	0	R1066P
2677.102	2.485	1652497	WORD	n/a	wordpools/wordpool_EN.txt	SCHOOL	4	20	[0, 0, 0]	n/a	FR1	0	R1066P
2679.587	2.616	1653739	WORD	n/a	wordpools/wordpool_EN.txt	VEST	5	20	[0, 0, 0]	n/a	FR1	0	R1066P
2682.203	2.535	1655047	WORD	n/a	wordpools/wordpool_EN.txt	MUD	6	20	[0, 0, 0]	n/a	FR1	0	R1066P
2684.738	2.433	1656315	WORD	n/a	wordpools/wordpool_EN.txt	ROOF	7	20	[0, 0, 0]	n/a	FR1	0	R1066P
2687.171	2.568	1657531	WORD	n/a	wordpools/wordpool_EN.txt	NOSE	8	20	[0, 0, 0]	n/a	FR1	0	R1066P
2689.739	2.6	1658815	WORD	n/a	wordpools/wordpool_EN.txt	FACE	9	20	[0, 0, 0]	n/a	FR1	0	R1066P
2692.339	2.517	1660115	WORD	n/a	wordpools/wordpool_EN.txt	STREET	10	20	[0, 0, 0]	n/a	FR1	0	R1066P
2694.856	2.418	1661373	WORD	n/a	wordpools/wordpool_EN.txt	SHARK	11	20	[0, 0, 0]	n/a	FR1	0	R1066P
2697.274	1.616	1662582	WORD	n/a	wordpools/wordpool_EN.txt	CHEEK	12	20	[0, 0, 0]	n/a	FR1	0	R1066P
2698.89	0.001	1663390	DISTRACT_START	n/a	n/a	n/a	-999	20	[0, 0, 0]	n/a	FR1	0	R1066P
2698.891	0.016	1663391	START	n/a	n/a	n/a	-999	20	[-999, -999, -999]	n/a	FR1	0	R1066P
2698.907	7.284	1663399	PROB	7.284	n/a	n/a	-999	20	[3, 8, 4]	15	FR1	0	R1066P
2706.191	2.185	1667040	PROB	2.185	n/a	n/a	-999	20	[7, 7, 6]	20	FR1	0	R1066P
2708.376	2.566	1668133	PROB	2.566	n/a	n/a	-999	20	[6, 1, 8]	15	FR1	0	R1066P
2710.942	3.569	1669416	PROB	3.569	n/a	n/a	-999	20	[4, 6, 3]	13	FR1	0	R1066P
2714.511	2.783	1671200	PROB	2.783	n/a	n/a	-999	20	[3, 3, 8]	14	FR1	0	R1066P
2717.294	2.483	1672592	PROB	2.483	n/a	n/a	-999	20	[3, 8, 1]	12	FR1	0	R1066P
2719.777	0.018	1673833	STOP	n/a	n/a	n/a	-999	20	[-999, -999, -999]	n/a	FR1	0	R1066P
2719.795	1.05	1673842	DISTRACT_END	n/a	n/a	n/a	-999	20	[0, 0, 0]	n/a	FR1	0	R1066P
2720.845	0.833	1674367	REC_START	n/a	n/a	n/a	-999	20	[0, 0, 0]	n/a	FR1	0	R1066P
2721.678	0.705	1674784	REC_WORD	0.705	n/a	DRESS	1	20	[0, 0, 0]	n/a	FR1	0	R1066P
2722.383	0.53	1675136	REC_WORD	0.53	n/a	BARN	3	20	[0, 0, 0]	n/a	FR1	0	R1066P
2722.913	0.616	1675401	REC_WORD	0.616	n/a	NOSE	8	20	[0, 0, 0]	n/a	FR1	0	R1066P
2723.529	1.803	1675709	REC_WORD	1.803	n/a	FACE	9	20	[0, 0, 0]	n/a	FR1	0	R1066P
2725.332	4.525	1676610	REC_WORD	4.525	n/a	CHEEK	12	20	[0, 0, 0]	n/a	FR1	0	R1066P
2729.857	20.998	1678873	REC_WORD	20.998	n/a	MUD	6	20	[0, 0, 0]	n/a	FR1	0	R1066P
2750.855	19.566	1689371	REC_END	n/a	n/a	n/a	-999	20	[0, 0, 0]	n/a	FR1	0	R1066P
2770.421	0.0	1699154	TRIAL	n/a	n/a	n/a	-999	21	[0, 0, 0]	n/a	FR1	0	R1066P
2770.421	10.428	1699154	COUNTDOWN_START	n/a	n/a	n/a	-999	21	[0, 0, 0]	n/a	FR1	0	R1066P
2780.849	0.006	1704367	COUNTDOWN_END	n/a	n/a	n/a	-999	21	[0, 0, 0]	n/a	FR1	0	R1066P
2780.855	2.585	1704370	ORIENT	n/a	n/a	n/a	-999	21	[0, 0, 0]	n/a	FR1	0	R1066P
2783.44	2.516	1705663	WORD	n/a	wordpools/wordpool_EN.txt	MAP	1	21	[0, 0, 0]	n/a	FR1	0	R1066P
2785.956	2.552	1706921	WORD	n/a	wordpools/wordpool_EN.txt	BEAR	2	21	[0, 0, 0]	n/a	FR1	0	R1066P
2788.508	2.416	1708197	WORD	n/a	wordpools/wordpool_EN.txt	STEM	3	21	[0, 0, 0]	n/a	FR1	0	R1066P
2790.924	2.601	1709405	WORD	n/a	wordpools/wordpool_EN.txt	POLE	4	21	[0, 0, 0]	n/a	FR1	0	R1066P
2793.525	2.483	1710705	WORD	n/a	wordpools/wordpool_EN.txt	TOOTH	5	21	[0, 0, 0]	n/a	FR1	0	R1066P
2796.008	2.402	1711947	WORD	n/a	wordpools/wordpool_EN.txt	INK	6	21	[0, 0, 0]	n/a	FR1	0	R1066P
2798.41	2.4	1713148	WORD	n/a	wordpools/wordpool_EN.txt	TEETH	7	21	[0, 0, 0]	n/a	FR1	0	R1066P
2800.81	2.433	1714347	WORD	n/a	wordpools/wordpool_EN.txt	SLIME	8	21	[0, 0, 0]	n/a	FR1	0	R1066P
2803.243	2.518	1715564	WORD	n/a	wordpools/wordpool_EN.txt	SALT	9	21	[0, 0, 0]	n/a	FR1	0	R1066P
2805.761	2.55	1716823	WORD	n/a	wordpools/wordpool_EN.txt	ROOT	10	21	[0, 0, 0]	n/a	FR1	0	R1066P
2808.311	2.418	1718098	WORD	n/a	wordpools/wordpool_EN.txt	WHEEL	11	21	[0, 0, 0]	n/a	FR1	0	R1066P
2810.729	1.616	1719307	WORD	n/a	wordpools/wordpool_EN.txt	BANK	12	21	[0, 0, 0]	n/a	FR1	0	R1066P
2812.345	0.001	1720115	DISTRACT_START	n/a	n/a	n/a	-999	21	[0, 0, 0]	n/a	FR1	0	R1066P
2812.346	0.016	1720115	START	n/a	n/a	n/a	-999	21	[-999, -999, -999]	n/a	FR1	0	R1066P
2812.362	4.55	1720123	PROB	4.55	n/a	n/a	-999	21	[6, 1, 3]	10	FR1	0	R1066P
2816.912	3.017	1722398	PROB	3.017	n/a	n/a	-999	21	[5, 7, 6]	18	FR1	0	R1066P
2819.929	2.485	1723906	PROB	2.485	n/a	n/a	-999	21	[8, 3, 7]	18	FR1	0	R1066P
2822.414	3.217	1725149	PROB	3.217	n/a	n/a	-999	21	[7, 3, 3]	13	FR1	0	R1066P
2825.631	2.366	1726757	PROB	2.366	n/a	n/a	-999	21	[2, 7, 2]	11	FR1	0	R1066P
2827.997	2.585	1727940	PROB	2.585	n/a	n/a	-999	21	[6, 2, 4]	12	FR1	0	R1066P
2830.582	2.442	1729233	PROB	2.442	n/a	n/a	-999	21	[8, 4, 5]	17	FR1	0	R1066P
2833.024	0.008	1730454	STOP	n/a	n/a	n/a	-999	21	[-999, -999, -999]	n/a	FR1	0	R1066P
2833.032	1.034	1730458	DISTRACT_END	n/a	n/a	n/a	-999	21	[0, 0, 0]	n/a	FR1	0	R1066P
2834.066	1.127	1730975	REC_START	n/a	n/a	n/a	-999	21	[0, 0, 0]	n/a	FR1	0	R1066P
2835.193	0.282	1731538	REC_WORD_VV	0.282	n/a	<>	-999	21	[0, 0, 0]	n/a	FR1	0	R1066P
2835.475	0.956	1731679	REC_WORD	0.956	n/a	MAP	1	21	[0, 0, 0]	n/a	FR1	0	R1066P
2836.431	0.589	1732157	REC_WORD	0.589	n/a	BEAR	2	21	[0, 0, 0]	n/a	FR1	0	R1066P
2837.02	0.574	1732452	REC_WORD	0.574	n/a	WHEEL	11	21	[0, 0, 0]	n/a	FR1	0	R1066P
2837.594	26.482	1732738	REC_WORD	26.482	n/a	BANK	12	21	[0, 0, 0]	n/a	FR1	0	R1066P
2864.076	2.129	1745979	REC_END	n/a	n/a	n/a	-999	21	[0, 0, 0]	n/a	FR1	0	R1066P
2866.205	0.0	1747043	TRIAL	n/a	n/a	n/a	-999	22	[0, 0, 0]	n/a	FR1	0	R1066P
2866.205	10.428	1747043	COUNTDOWN_START	n/a	n/a	n/a	-999	22	[0, 0, 0]	n/a	FR1	0	R1066P
2876.633	0.008	1752257	COUNTDOWN_END	n/a	n/a	n/a	-999	22	[0, 0, 0]	n/a	FR1	0	R1066P
2876.641	2.583	1752261	ORIENT	n/a	n/a	n/a	-999	22	[0, 0, 0]	n/a	FR1	0	R1066P
2879.224	2.551	1753552	WORD	n/a	wordpools/wordpool_EN.txt	GATE	1	22	[0, 0, 0]	n/a	FR1	0	R1066P
2881.775	2.55	1754828	WORD	n/a	wordpools/wordpool_EN.txt	HILL	2	22	[0, 0, 0]	n/a	FR1	0	R1066P
2884.325	2.55	1756103	WORD	n/a	wordpools/wordpool_EN.txt	MULE	3	22	[0, 0, 0]	n/a	FR1	0	R1066P
2886.875	2.602	1757378	WORD	n/a	wordpools/wordpool_EN.txt	NEST	4	22	[0, 0, 0]	n/a	FR1	0	R1066P
2889.477	2.416	1758679	WORD	n/a	wordpools/wordpool_EN.txt	DOG	5	22	[0, 0, 0]	n/a	FR1	0	R1066P
2891.893	2.618	1759887	WORD	n/a	wordpools/wordpool_EN.txt	GEESE	6	22	[0, 0, 0]	n/a	FR1	0	R1066P
2894.511	2.583	1761195	WORD	n/a	wordpools/wordpool_EN.txt	CHIEF	7	22	[0, 0, 0]	n/a	FR1	0	R1066P
2897.094	2.585	1762487	WORD	n/a	wordpools/wordpool_EN.txt	EEL	8	22	[0, 0, 0]	n/a	FR1	0	R1066P
2899.679	2.583	1763779	WORD	n/a	wordpools/wordpool_EN.txt	GOAT	9	22	[0, 0, 0]	n/a	FR1	0	R1066P
2902.262	2.583	1765071	WORD	n/a	wordpools/wordpool_EN.txt	SKY	10	22	[0, 0, 0]	n/a	FR1	0	R1066P
2904.845	2.384	1766362	WORD	n/a	wordpools/wordpool_EN.txt	DUCK	11	22	[0, 0, 0]	n/a	FR1	0	R1066P
2907.229	1.617	1767554	WORD	n/a	wordpools/wordpool_EN.txt	SWORD	12	22	[0, 0, 0]	n/a	FR1	0	R1066P
2908.846	0.001	1768363	DISTRACT_START	n/a	n/a	n/a	-999	22	[0, 0, 0]	n/a	FR1	0	R1066P
2908.847	0.016	1768363	START	n/a	n/a	n/a	-999	22	[-999, -999, -999]	n/a	FR1	0	R1066P
2908.863	2.884	1768371	PROB	2.884	n/a	n/a	-999	22	[2, 1, 6]	9	FR1	0	R1066P
2911.747	4.2	1769813	PROB	4.2	n/a	n/a	-999	22	[9, 3, 1]	13	FR1	0	R1066P
2915.947	2.184	1771913	PROB	2.184	n/a	n/a	-999	22	[6, 9, 4]	19	FR1	0	R1066P
2918.131	2.618	1773005	PROB	2.618	n/a	n/a	-999	22	[9, 3, 5]	17	FR1	0	R1066P
2920.749	2.283	1774314	PROB	2.283	n/a	n/a	-999	22	[8, 2, 4]	13	FR1	0	R1066P
2923.032	4.385	1775455	PROB	4.385	n/a	n/a	-999	22	[7, 5, 2]	14	FR1	0	R1066P
2927.417	3.272	1777648	PROB	3.272	n/a	n/a	-999	22	[9, 9, 3]	21	FR1	0	R1066P
2930.689	0.012	1779284	STOP	n/a	n/a	n/a	-999	22	[-999, -999, -999]	n/a	FR1	0	R1066P
2930.701	1.085	1779290	DISTRACT_END	n/a	n/a	n/a	-999	22	[0, 0, 0]	n/a	FR1	0	R1066P
2931.786	1.429	1779832	REC_START	n/a	n/a	n/a	-999	22	[0, 0, 0]	n/a	FR1	0	R1066P
2933.215	0.196	1780546	REC_WORD_VV	0.196	n/a	<>	-999	22	[0, 0, 0]	n/a	FR1	0	R1066P
2933.411	0.651	1780644	REC_WORD	0.651	n/a	GATE	1	22	[0, 0, 0]	n/a	FR1	0	R1066P
2934.062	0.612	1780970	REC_WORD	0.612	n/a	HILL	2	22	[0, 0, 0]	n/a	FR1	0	R1066P
2934.674	1.515	1781276	REC_WORD	1.515	n/a	MULE	3	22	[0, 0, 0]	n/a	FR1	0	R1066P
2936.189	4.16	1782033	REC_WORD_VV	4.16	n/a	<>	-999	22	[0, 0, 0]	n/a	FR1	0	R1066P
2940.349	9.416	1784113	REC_WORD	9.416	n/a	BARN	-999	22	[0, 0, 0]	n/a	FR1	0	R1066P
2949.765	0.385	1788821	REC_WORD	0.385	n/a	OUT	-999	22	[0, 0, 0]	n/a	FR1	0	R1066P
2950.15	11.646	1789014	REC_WORD	11.646	n/a	GEESE	6	22	[0, 0, 0]	n/a	FR1	0	R1066P
2961.796	2.728	1794836	REC_END	n/a	n/a	n/a	-999	22	[0, 0, 0]	n/a	FR1	0	R1066P
2964.524	0.0	1796200	TRIAL	n/a	n/a	n/a	-999	23	[0, 0, 0]	n/a	FR1	0	R1066P
2964.524	10.428	1796200	COUNTDOWN_START	n/a	n/a	n/a	-999	23	[0, 0, 0]	n/a	FR1	0	R1066P
2974.952	0.006	1801414	COUNTDOWN_END	n/a	n/a	n/a	-999	23	[0, 0, 0]	n/a	FR1	0	R1066P
2974.958	2.368	1801417	ORIENT	n/a	n/a	n/a	-999	23	[0, 0, 0]	n/a	FR1	0	R1066P
2977.326	2.533	1802601	WORD	n/a	wordpools/wordpool_EN.txt	THUMB	1	23	[0, 0, 0]	n/a	FR1	0	R1066P
2979.859	2.552	1803867	WORD	n/a	wordpools/wordpool_EN.txt	SLEEVE	2	23	[0, 0, 0]	n/a	FR1	0	R1066P
2982.411	2.632	1805143	WORD	n/a	wordpools/wordpool_EN.txt	FROG	3	23	[0, 0, 0]	n/a	FR1	0	R1066P
2985.043	2.419	1806459	WORD	n/a	wordpools/wordpool_EN.txt	SUIT	4	23	[0, 0, 0]	n/a	FR1	0	R1066P
2987.462	2.633	1807669	WORD	n/a	wordpools/wordpool_EN.txt	BOARD	5	23	[0, 0, 0]	n/a	FR1	0	R1066P
2990.095	2.468	1808985	WORD	n/a	wordpools/wordpool_EN.txt	BRUSH	6	23	[0, 0, 0]	n/a	FR1	0	R1066P
2992.563	2.499	1810219	WORD	n/a	wordpools/wordpool_EN.txt	PIPE	7	23	[0, 0, 0]	n/a	FR1	0	R1066P
2995.062	2.585	1811468	WORD	n/a	wordpools/wordpool_EN.txt	NAIL	8	23	[0, 0, 0]	n/a	FR1	0	R1066P
2997.647	2.634	1812761	WORD	n/a	wordpools/wordpool_EN.txt	PURSE	9	23	[0, 0, 0]	n/a	FR1	0	R1066P
3000.281	2.583	1814078	WORD	n/a	wordpools/wordpool_EN.txt	FORK	10	23	[0, 0, 0]	n/a	FR1	0	R1066P
3002.864	2.468	1815369	WORD	n/a	wordpools/wordpool_EN.txt	BENCH	11	23	[0, 0, 0]	n/a	FR1	0	R1066P
3005.332	1.616	1816603	WORD	n/a	wordpools/wordpool_EN.txt	SINK	12	23	[0, 0, 0]	n/a	FR1	0	R1066P
3006.948	0.001	1817411	DISTRACT_START	n/a	n/a	n/a	-999	23	[0, 0, 0]	n/a	FR1	0	R1066P
3006.949	0.015	1817412	START	n/a	n/a	n/a	-999	23	[-999, -999, -999]	n/a	FR1	0	R1066P
3006.964	4.151	1817419	PROB	4.151	n/a	n/a	-999	23	[2, 9, 4]	15	FR1	0	R1066P
3011.115	2.701	1819494	PROB	2.701	n/a	n/a	-999	23	[8, 6, 5]	19	FR1	0	R1066P
3013.816	4.568	1820845	PROB	4.568	n/a	n/a	-999	23	[4, 8, 8]	20	FR1	0	R1066P
3018.384	2.85	1823129	PROB	2.85	n/a	n/a	-999	23	[7, 5, 2]	14	FR1	0	R1066P
3021.234	2.151	1824554	PROB	2.151	n/a	n/a	-999	23	[9, 1, 8]	18	FR1	0	R1066P
3023.385	2.101	1825629	PROB	2.101	n/a	n/a	-999	23	[9, 2, 9]	29	FR1	0	R1066P
3025.486	3.883	1826680	PROB	3.883	n/a	n/a	-999	23	[9, 2, 4]	15	FR1	0	R1066P
3029.369	0.017	1828621	STOP	n/a	n/a	n/a	-999	23	[-999, -999, -999]	n/a	FR1	0	R1066P
3029.386	1.106	1828629	DISTRACT_END	n/a	n/a	n/a	-999	23	[0, 0, 0]	n/a	FR1	0	R1066P
3030.492	1.835	1829182	REC_START	n/a	n/a	n/a	-999	23	[0, 0, 0]	n/a	FR1	0	R1066P
3032.327	0.647	1830100	REC_WORD_VV	0.647	n/a	<>	-999	23	[0, 0, 0]	n/a	FR1	0	R1066P
3032.974	0.706	1830423	REC_WORD	0.706	n/a	FROG	3	23	[0, 0, 0]	n/a	FR1	0	R1066P
3033.68	1.167	1830776	REC_WORD	1.167	n/a	SUIT	4	23	[0, 0, 0]	n/a	FR1	0	R1066P
3034.847	1.414	1831360	REC_WORD	1.414	n/a	BRUSH	6	23	[0, 0, 0]	n/a	FR1	0	R1066P
3036.261	12.842	1832067	REC_WORD	12.842	n/a	HAND	-999	23	[0, 0, 0]	n/a	FR1	0	R1066P
3049.103	0.604	1838487	REC_WORD	0.604	n/a	FROG	3	23	[0, 0, 0]	n/a	FR1	0	R1066P
3049.707	0.573	1838789	REC_WORD	0.573	n/a	HAND	-999	23	[0, 0, 0]	n/a	FR1	0	R1066P
3050.28	0.341	1839076	REC_WORD	0.341	n/a	BRUSH	6	23	[0, 0, 0]	n/a	FR1	0	R1066P
3050.621	6.483	1839246	REC_WORD	6.483	n/a	SUIT	4	23	[0, 0, 0]	n/a	FR1	0	R1066P
3057.104	3.395	1842488	REC_WORD	3.395	n/a	BOARD	5	23	[0, 0, 0]	n/a	FR1	0	R1066P
3060.499	3.027	1844185	REC_END	n/a	n/a	n/a	-999	23	[0, 0, 0]	n/a	FR1	0	R1066P
3063.526	0.0	1845699	TRIAL	n/a	n/a	n/a	-999	24	[0, 0, 0]	n/a	FR1	0	R1066P
3063.526	10.428	1845699	COUNTDOWN_START	n/a	n/a	n/a	-999	24	[0, 0, 0]	n/a	FR1	0	R1066P
3073.954	0.006	1850912	COUNTDOWN_END	n/a	n/a	n/a	-999	24	[0, 0, 0]	n/a	FR1	0	R1066P
3073.96	2.552	1850915	ORIENT	n/a	n/a	n/a	-999	24	[0, 0, 0]	n/a	FR1	0	R1066P
3076.512	2.532	1852191	WORD	n/a	wordpools/wordpool_EN.txt	COIN	1	24	[0, 0, 0]	n/a	FR1	0	R1066P
3079.044	2.552	1853457	WORD	n/a	wordpools/wordpool_EN.txt	WALL	2	24	[0, 0, 0]	n/a	FR1	0	R1066P
3081.596	2.566	1854733	WORD	n/a	wordpools/wordpool_EN.txt	GLOVE	3	24	[0, 0, 0]	n/a	FR1	0	R1066P
3084.162	2.518	1856016	WORD	n/a	wordpools/wordpool_EN.txt	SHIELD	4	24	[0, 0, 0]	n/a	FR1	0	R1066P
3086.68	2.617	1857275	WORD	n/a	wordpools/wordpool_EN.txt	SPARK	5	24	[0, 0, 0]	n/a	FR1	0	R1066P
3089.297	2.501	1858583	WORD	n/a	wordpools/wordpool_EN.txt	RAIN	6	24	[0, 0, 0]	n/a	FR1	0	R1066P
3091.798	2.6	1859834	WORD	n/a	wordpools/wordpool_EN.txt	SPONGE	7	24	[0, 0, 0]	n/a	FR1	0	R1066P
3094.398	2.466	1861134	WORD	n/a	wordpools/wordpool_EN.txt	BOX	8	24	[0, 0, 0]	n/a	FR1	0	R1066P
3096.864	2.552	1862367	WORD	n/a	wordpools/wordpool_EN.txt	HOOK	9	24	[0, 0, 0]	n/a	FR1	0	R1066P
3099.416	2.583	1863643	WORD	n/a	wordpools/wordpool_EN.txt	BALL	10	24	[0, 0, 0]	n/a	FR1	0	R1066P
3101.999	2.501	1864934	WORD	n/a	wordpools/wordpool_EN.txt	ELF	11	24	[0, 0, 0]	n/a	FR1	0	R1066P
3104.5	1.616	1866184	WORD	n/a	wordpools/wordpool_EN.txt	HOSE	12	24	[0, 0, 0]	n/a	FR1	0	R1066P
3106.116	0.001	1866992	DISTRACT_START	n/a	n/a	n/a	-999	24	[0, 0, 0]	n/a	FR1	0	R1066P
3106.117	0.016	1866993	START	n/a	n/a	n/a	-999	24	[-999, -999, -999]	n/a	FR1	0	R1066P
3106.133	4.784	1867001	PROB	4.784	n/a	n/a	-999	24	[9, 3, 9]	21	FR1	0	R1066P
3110.917	2.967	1869393	PROB	2.967	n/a	n/a	-999	24	[6, 1, 9]	16	FR1	0	R1066P
3113.884	2.017	1870876	PROB	2.017	n/a	n/a	-999	24	[1, 5, 1]	7	FR1	0	R1066P
3115.901	3.101	1871885	PROB	3.101	n/a	n/a	-999	24	[2, 7, 9]	18	FR1	0	R1066P
3119.002	2.034	1873435	PROB	2.034	n/a	n/a	-999	24	[1, 8, 1]	10	FR1	0	R1066P
3121.036	2.85	1874452	PROB	2.85	n/a	n/a	-999	24	[2, 2, 7]	11	FR1	0	R1066P
3123.886	2.739	1875877	PROB	2.739	n/a	n/a	-999	24	[6, 8, 6]	20	FR1	0	R1066P
3126.625	0.013	1877246	STOP	n/a	n/a	n/a	-999	24	[-999, -999, -999]	n/a	FR1	0	R1066P
3126.638	1.167	1877253	DISTRACT_END	n/a	n/a	n/a	-999	24	[0, 0, 0]	n/a	FR1	0	R1066P
3127.805	1.137	1877836	REC_START	n/a	n/a	n/a	-999	24	[0, 0, 0]	n/a	FR1	0	R1066P
3128.942	3.171	1878405	REC_WORD	3.171	n/a	COIN	1	24	[0, 0, 0]	n/a	FR1	0	R1066P
3132.113	1.198	1879990	REC_WORD	1.198	n/a	SHIELD	4	24	[0, 0, 0]	n/a	FR1	0	R1066P
3133.311	24.51	1880589	REC_WORD	24.51	n/a	HAND	-999	24	[0, 0, 0]	n/a	FR1	0	R1066P
3157.821	14.308	1892844	REC_END	n/a	n/a	n/a	-999	24	[0, 0, 0]	n/a	FR1	0	R1066P
3172.129	0.0	1899997	TRIAL	n/a	n/a	n/a	-999	25	[0, 0, 0]	n/a	FR1	0	R1066P
3172.129	0.0	1899997	COUNTDOWN_START	n/a	n/a	n/a	-999	25	[0, 0, 0]	n/a	FR1	0	R1066P
