onset	duration	sample	trial_type	response_time	stim_file	item_name	serialpos	list	test	answer	experiment	session	subject
0.0	24.635	5568	SESS_START	n/a	n/a	n/a	-999	-999	[0, 0, 0]	n/a	FR1	2	R1092J
24.635	10.428	30203	COUNTDOWN_START	n/a	n/a	n/a	-999	-999	[0, 0, 0]	n/a	FR1	2	R1092J
35.063	0.009	40631	COUNTDOWN_END	n/a	n/a	n/a	-999	-999	[0, 0, 0]	n/a	FR1	2	R1092J
35.072	3.533	40640	PRACTICE_ORIENT	n/a	n/a	n/a	-999	-999	[0, 0, 0]	n/a	FR1	2	R1092J
38.605	2.401	44173	PRACTICE_WORD	n/a	n/a	FLOOD	1	-1	[0, 0, 0]	n/a	FR1	2	R1092J
41.006	2.484	46574	PRACTICE_WORD	n/a	n/a	RING	2	-1	[0, 0, 0]	n/a	FR1	2	R1092J
43.49	2.499	49058	PRACTICE_WORD	n/a	n/a	CHEST	3	-1	[0, 0, 0]	n/a	FR1	2	R1092J
45.989	2.534	51557	PRACTICE_WORD	n/a	n/a	COTTON	4	-1	[0, 0, 0]	n/a	FR1	2	R1092J
48.523	2.384	54091	PRACTICE_WORD	n/a	n/a	WAGON	5	-1	[0, 0, 0]	n/a	FR1	2	R1092J
50.907	2.451	56475	PRACTICE_WORD	n/a	n/a	IRON	6	-1	[0, 0, 0]	n/a	FR1	2	R1092J
53.358	2.583	58926	PRACTICE_WORD	n/a	n/a	WATCH	7	-1	[0, 0, 0]	n/a	FR1	2	R1092J
55.941	2.567	61509	PRACTICE_WORD	n/a	n/a	CAMEL	8	-1	[0, 0, 0]	n/a	FR1	2	R1092J
58.508	2.4	64076	PRACTICE_WORD	n/a	n/a	BEAM	9	-1	[0, 0, 0]	n/a	FR1	2	R1092J
60.908	2.434	66475	PRACTICE_WORD	n/a	n/a	ATTIC	10	-1	[0, 0, 0]	n/a	FR1	2	R1092J
63.342	2.617	68909	PRACTICE_WORD	n/a	n/a	RHINO	11	-1	[0, 0, 0]	n/a	FR1	2	R1092J
65.959	1.617	71526	PRACTICE_WORD	n/a	n/a	TONGUE	12	-1	[0, 0, 0]	n/a	FR1	2	R1092J
67.576	0.0	73143	PRACTICE_DISTRACT_START	n/a	n/a	n/a	-999	-1	[0, 0, 0]	n/a	FR1	2	R1092J
67.576	0.016	73143	START	n/a	n/a	n/a	-999	-1	[-999, -999, -999]	n/a	FR1	2	R1092J
67.592	3.918	73159	PROB	3.918	n/a	n/a	-999	-1	[5, 4, 2]	11	FR1	2	R1092J
71.51	3.082	77077	PROB	3.082	n/a	n/a	-999	-1	[2, 2, 7]	11	FR1	2	R1092J
74.592	3.151	80159	PROB	3.151	n/a	n/a	-999	-1	[5, 7, 6]	18	FR1	2	R1092J
77.743	3.917	83310	PROB	3.917	n/a	n/a	-999	-1	[8, 6, 9]	24	FR1	2	R1092J
81.66	2.768	87227	PROB	2.768	n/a	n/a	-999	-1	[6, 6, 4]	14	FR1	2	R1092J
84.428	3.321	89995	PROB	3.321	n/a	n/a	-999	-1	[5, 4, 9]	18	FR1	2	R1092J
87.749	0.696	93316	STOP	n/a	n/a	n/a	-999	-1	[-999, -999, -999]	n/a	FR1	2	R1092J
88.445	30.517	94012	PRACTICE_REC_START	n/a	n/a	n/a	-999	-1	[0, 0, 0]	n/a	FR1	2	R1092J
118.962	8.088	124529	PRACTICE_REC_END	n/a	n/a	n/a	-999	-1	[0, 0, 0]	n/a	FR1	2	R1092J
127.05	0.0	132617	COUNTDOWN_START	n/a	n/a	n/a	-999	1	[0, 0, 0]	n/a	FR1	2	R1092J
127.05	10.428	132617	TRIAL	n/a	n/a	n/a	-999	1	[0, 0, 0]	n/a	FR1	2	R1092J
137.478	0.007	143045	COUNTDOWN_END	n/a	n/a	n/a	-999	1	[0, 0, 0]	n/a	FR1	2	R1092J
137.485	3.784	143052	ORIENT	n/a	n/a	n/a	-999	1	[0, 0, 0]	n/a	FR1	2	R1092J
141.269	2.549	146836	WORD	n/a	wordpools/wordpool_EN.txt	CASH	1	1	[0, 0, 0]	n/a	FR1	2	R1092J
143.818	2.368	149384	WORD	n/a	wordpools/wordpool_EN.txt	SHIP	2	1	[0, 0, 0]	n/a	FR1	2	R1092J
146.186	2.566	151752	WORD	n/a	wordpools/wordpool_EN.txt	TENT	3	1	[0, 0, 0]	n/a	FR1	2	R1092J
148.752	2.551	154318	WORD	n/a	wordpools/wordpool_EN.txt	SKUNK	4	1	[0, 0, 0]	n/a	FR1	2	R1092J
151.303	2.584	156869	WORD	n/a	wordpools/wordpool_EN.txt	WORLD	5	1	[0, 0, 0]	n/a	FR1	2	R1092J
153.887	2.534	159453	WORD	n/a	wordpools/wordpool_EN.txt	PARK	6	1	[0, 0, 0]	n/a	FR1	2	R1092J
156.421	2.6	161987	WORD	n/a	wordpools/wordpool_EN.txt	RAIN	7	1	[0, 0, 0]	n/a	FR1	2	R1092J
159.021	2.418	164587	WORD	n/a	wordpools/wordpool_EN.txt	KEY	8	1	[0, 0, 0]	n/a	FR1	2	R1092J
161.439	2.449	167005	WORD	n/a	wordpools/wordpool_EN.txt	CHIEF	9	1	[0, 0, 0]	n/a	FR1	2	R1092J
163.888	2.467	169454	WORD	n/a	wordpools/wordpool_EN.txt	MAIL	10	1	[0, 0, 0]	n/a	FR1	2	R1092J
166.355	2.4	171921	WORD	n/a	wordpools/wordpool_EN.txt	FISH	11	1	[0, 0, 0]	n/a	FR1	2	R1092J
168.755	1.601	174321	WORD	n/a	wordpools/wordpool_EN.txt	CHEEK	12	1	[0, 0, 0]	n/a	FR1	2	R1092J
170.356	0.001	175922	DISTRACT_START	n/a	n/a	n/a	-999	1	[0, 0, 0]	n/a	FR1	2	R1092J
170.357	0.016	175923	START	n/a	n/a	n/a	-999	1	[-999, -999, -999]	n/a	FR1	2	R1092J
170.373	2.95	175939	PROB	2.95	n/a	n/a	-999	1	[9, 9, 1]	19	FR1	2	R1092J
173.323	2.234	178889	PROB	2.234	n/a	n/a	-999	1	[2, 7, 8]	17	FR1	2	R1092J
175.557	1.95	181123	PROB	1.95	n/a	n/a	-999	1	[3, 2, 6]	11	FR1	2	R1092J
177.507	2.249	183073	PROB	2.249	n/a	n/a	-999	1	[8, 3, 7]	18	FR1	2	R1092J
179.756	2.085	185322	PROB	2.085	n/a	n/a	-999	1	[1, 6, 6]	13	FR1	2	R1092J
181.841	2.184	187407	PROB	2.184	n/a	n/a	-999	1	[4, 6, 3]	13	FR1	2	R1092J
184.025	2.917	189591	PROB	2.917	n/a	n/a	-999	1	[3, 4, 8]	15	FR1	2	R1092J
186.942	2.033	192508	PROB	2.033	n/a	n/a	-999	1	[4, 4, 4]	12	FR1	2	R1092J
188.975	2.371	194541	PROB	2.371	n/a	n/a	-999	1	[7, 1, 6]	15	FR1	2	R1092J
191.346	0.013	196912	STOP	n/a	n/a	n/a	-999	1	[-999, -999, -999]	n/a	FR1	2	R1092J
191.359	1.084	196925	DISTRACT_END	n/a	n/a	n/a	-999	1	[0, 0, 0]	n/a	FR1	2	R1092J
192.443	6.013	198009	REC_START	n/a	n/a	n/a	-999	1	[0, 0, 0]	n/a	FR1	2	R1092J
198.456	1.586	204022	REC_WORD	1.586	n/a	FLOOD	-999	1	[0, 0, 0]	n/a	FR1	2	R1092J
200.042	11.275	205608	REC_WORD	11.275	n/a	CASH	1	1	[0, 0, 0]	n/a	FR1	2	R1092J
211.317	2.293	216883	REC_WORD	2.293	n/a	WATCH	-999	1	[0, 0, 0]	n/a	FR1	2	R1092J
213.61	8.847	219176	REC_WORD	8.847	n/a	SKUNK	4	1	[0, 0, 0]	n/a	FR1	2	R1092J
222.457	3.457	228022	REC_END	n/a	n/a	n/a	-999	1	[0, 0, 0]	n/a	FR1	2	R1092J
225.914	0.0	231479	TRIAL	n/a	n/a	n/a	-999	2	[0, 0, 0]	n/a	FR1	2	R1092J
225.914	10.428	231479	COUNTDOWN_START	n/a	n/a	n/a	-999	2	[0, 0, 0]	n/a	FR1	2	R1092J
236.342	0.006	241907	COUNTDOWN_END	n/a	n/a	n/a	-999	2	[0, 0, 0]	n/a	FR1	2	R1092J
236.348	3.784	241913	ORIENT	n/a	n/a	n/a	-999	2	[0, 0, 0]	n/a	FR1	2	R1092J
240.132	2.451	245697	WORD	n/a	wordpools/wordpool_EN.txt	FILM	1	2	[0, 0, 0]	n/a	FR1	2	R1092J
242.583	2.416	248148	WORD	n/a	wordpools/wordpool_EN.txt	CORD	2	2	[0, 0, 0]	n/a	FR1	2	R1092J
244.999	2.368	250564	WORD	n/a	wordpools/wordpool_EN.txt	LAMP	3	2	[0, 0, 0]	n/a	FR1	2	R1092J
247.367	2.399	252932	WORD	n/a	wordpools/wordpool_EN.txt	MULE	4	2	[0, 0, 0]	n/a	FR1	2	R1092J
249.766	2.518	255331	WORD	n/a	wordpools/wordpool_EN.txt	ROSE	5	2	[0, 0, 0]	n/a	FR1	2	R1092J
252.284	2.55	257849	WORD	n/a	wordpools/wordpool_EN.txt	CLOUD	6	2	[0, 0, 0]	n/a	FR1	2	R1092J
254.834	2.434	260399	WORD	n/a	wordpools/wordpool_EN.txt	PEN	7	2	[0, 0, 0]	n/a	FR1	2	R1092J
257.268	2.466	262833	WORD	n/a	wordpools/wordpool_EN.txt	TOE	8	2	[0, 0, 0]	n/a	FR1	2	R1092J
259.734	2.435	265299	WORD	n/a	wordpools/wordpool_EN.txt	PRINCE	9	2	[0, 0, 0]	n/a	FR1	2	R1092J
262.169	2.499	267734	WORD	n/a	wordpools/wordpool_EN.txt	ZOO	10	2	[0, 0, 0]	n/a	FR1	2	R1092J
264.668	2.534	270233	WORD	n/a	wordpools/wordpool_EN.txt	FUDGE	11	2	[0, 0, 0]	n/a	FR1	2	R1092J
267.202	1.616	272767	WORD	n/a	wordpools/wordpool_EN.txt	BOAT	12	2	[0, 0, 0]	n/a	FR1	2	R1092J
268.818	0.001	274383	DISTRACT_START	n/a	n/a	n/a	-999	2	[0, 0, 0]	n/a	FR1	2	R1092J
268.819	0.017	274384	START	n/a	n/a	n/a	-999	2	[-999, -999, -999]	n/a	FR1	2	R1092J
268.836	3.484	274401	PROB	3.484	n/a	n/a	-999	2	[9, 4, 2]	15	FR1	2	R1092J
272.32	3.067	277885	PROB	3.067	n/a	n/a	-999	2	[9, 6, 5]	20	FR1	2	R1092J
275.387	2.15	280952	PROB	2.15	n/a	n/a	-999	2	[6, 2, 3]	11	FR1	2	R1092J
277.537	2.584	283102	PROB	2.584	n/a	n/a	-999	2	[2, 7, 3]	12	FR1	2	R1092J
280.121	3.683	285686	PROB	3.683	n/a	n/a	-999	2	[2, 5, 4]	11	FR1	2	R1092J
283.804	3.151	289369	PROB	3.151	n/a	n/a	-999	2	[8, 5, 4]	17	FR1	2	R1092J
286.955	3.436	292520	PROB	3.436	n/a	n/a	-999	2	[8, 6, 9]	24	FR1	2	R1092J
290.391	0.015	295956	STOP	n/a	n/a	n/a	-999	2	[-999, -999, -999]	n/a	FR1	2	R1092J
290.406	1.234	295971	DISTRACT_END	n/a	n/a	n/a	-999	2	[0, 0, 0]	n/a	FR1	2	R1092J
291.64	3.909	297205	REC_START	n/a	n/a	n/a	-999	2	[0, 0, 0]	n/a	FR1	2	R1092J
295.549	6.801	301114	REC_WORD	6.801	n/a	AIR	-999	2	[0, 0, 0]	n/a	FR1	2	R1092J
302.35	3.644	307915	REC_WORD	3.644	n/a	TOE	8	2	[0, 0, 0]	n/a	FR1	2	R1092J
305.994	14.015	311558	REC_WORD	14.015	n/a	CLOUD	6	2	[0, 0, 0]	n/a	FR1	2	R1092J
320.009	1.639	325573	REC_WORD	1.639	n/a	FLUTE	-999	2	[0, 0, 0]	n/a	FR1	2	R1092J
321.648	3.595	327212	REC_END	n/a	n/a	n/a	-999	2	[0, 0, 0]	n/a	FR1	2	R1092J
325.243	0.0	330807	TRIAL	n/a	n/a	n/a	-999	3	[0, 0, 0]	n/a	FR1	2	R1092J
325.243	10.428	330807	COUNTDOWN_START	n/a	n/a	n/a	-999	3	[0, 0, 0]	n/a	FR1	2	R1092J
335.671	0.007	341235	COUNTDOWN_END	n/a	n/a	n/a	-999	3	[0, 0, 0]	n/a	FR1	2	R1092J
335.678	3.718	341242	ORIENT	n/a	n/a	n/a	-999	3	[0, 0, 0]	n/a	FR1	2	R1092J
339.396	2.567	344960	WORD	n/a	wordpools/wordpool_EN.txt	LIP	1	3	[0, 0, 0]	n/a	FR1	2	R1092J
341.963	2.617	347527	WORD	n/a	wordpools/wordpool_EN.txt	TOAD	2	3	[0, 0, 0]	n/a	FR1	2	R1092J
344.58	2.517	350144	WORD	n/a	wordpools/wordpool_EN.txt	LAMB	3	3	[0, 0, 0]	n/a	FR1	2	R1092J
347.097	2.433	352661	WORD	n/a	wordpools/wordpool_EN.txt	BOOT	4	3	[0, 0, 0]	n/a	FR1	2	R1092J
349.53	2.568	355094	WORD	n/a	wordpools/wordpool_EN.txt	BAT	5	3	[0, 0, 0]	n/a	FR1	2	R1092J
352.098	2.416	357662	WORD	n/a	wordpools/wordpool_EN.txt	FAN	6	3	[0, 0, 0]	n/a	FR1	2	R1092J
354.514	2.484	360078	WORD	n/a	wordpools/wordpool_EN.txt	FLUTE	7	3	[0, 0, 0]	n/a	FR1	2	R1092J
356.998	2.599	362562	WORD	n/a	wordpools/wordpool_EN.txt	FORK	8	3	[0, 0, 0]	n/a	FR1	2	R1092J
359.597	2.502	365161	WORD	n/a	wordpools/wordpool_EN.txt	CROW	9	3	[0, 0, 0]	n/a	FR1	2	R1092J
362.099	2.499	367663	WORD	n/a	wordpools/wordpool_EN.txt	SPEAR	10	3	[0, 0, 0]	n/a	FR1	2	R1092J
364.598	2.385	370162	WORD	n/a	wordpools/wordpool_EN.txt	DOLL	11	3	[0, 0, 0]	n/a	FR1	2	R1092J
366.983	1.616	372547	WORD	n/a	wordpools/wordpool_EN.txt	GOAT	12	3	[0, 0, 0]	n/a	FR1	2	R1092J
368.599	0.0	374163	DISTRACT_START	n/a	n/a	n/a	-999	3	[0, 0, 0]	n/a	FR1	2	R1092J
368.599	0.016	374163	START	n/a	n/a	n/a	-999	3	[-999, -999, -999]	n/a	FR1	2	R1092J
368.615	3.084	374179	PROB	3.084	n/a	n/a	-999	3	[9, 1, 9]	19	FR1	2	R1092J
371.699	2.218	377263	PROB	2.218	n/a	n/a	-999	3	[7, 2, 9]	18	FR1	2	R1092J
373.917	4.317	379481	PROB	4.317	n/a	n/a	-999	3	[9, 9, 8]	26	FR1	2	R1092J
378.234	3.217	383798	PROB	3.217	n/a	n/a	-999	3	[5, 7, 2]	14	FR1	2	R1092J
381.451	4.183	387015	PROB	4.183	n/a	n/a	-999	3	[5, 6, 6]	17	FR1	2	R1092J
385.634	3.096	391197	PROB	3.096	n/a	n/a	-999	3	[8, 7, 3]	18	FR1	2	R1092J
388.73	0.004	394293	STOP	n/a	n/a	n/a	-999	3	[-999, -999, -999]	n/a	FR1	2	R1092J
388.734	1.051	394297	DISTRACT_END	n/a	n/a	n/a	-999	3	[0, 0, 0]	n/a	FR1	2	R1092J
389.785	2.711	395348	REC_START	n/a	n/a	n/a	-999	3	[0, 0, 0]	n/a	FR1	2	R1092J
392.496	2.8	398059	REC_WORD	2.8	n/a	WATCH	-999	3	[0, 0, 0]	n/a	FR1	2	R1092J
395.296	2.739	400859	REC_WORD	2.739	n/a	CROW	9	3	[0, 0, 0]	n/a	FR1	2	R1092J
398.035	9.892	403598	REC_WORD	9.892	n/a	FLUTE	7	3	[0, 0, 0]	n/a	FR1	2	R1092J
407.927	4.604	413490	REC_WORD	4.604	n/a	TIME	-999	3	[0, 0, 0]	n/a	FR1	2	R1092J
412.531	4.035	418094	REC_WORD	4.035	n/a	BAT	5	3	[0, 0, 0]	n/a	FR1	2	R1092J
416.566	3.234	422129	REC_WORD	3.234	n/a	LIP	1	3	[0, 0, 0]	n/a	FR1	2	R1092J
419.8	4.09	425363	REC_END	n/a	n/a	n/a	-999	3	[0, 0, 0]	n/a	FR1	2	R1092J
423.89	0.0	429453	COUNTDOWN_START	n/a	n/a	n/a	-999	4	[0, 0, 0]	n/a	FR1	2	R1092J
423.89	10.428	429453	TRIAL	n/a	n/a	n/a	-999	4	[0, 0, 0]	n/a	FR1	2	R1092J
434.318	0.007	439881	COUNTDOWN_END	n/a	n/a	n/a	-999	4	[0, 0, 0]	n/a	FR1	2	R1092J
434.325	3.717	439888	ORIENT	n/a	n/a	n/a	-999	4	[0, 0, 0]	n/a	FR1	2	R1092J
438.042	2.401	443605	WORD	n/a	wordpools/wordpool_EN.txt	SQUARE	1	4	[0, 0, 0]	n/a	FR1	2	R1092J
440.443	2.417	446006	WORD	n/a	wordpools/wordpool_EN.txt	PLANE	2	4	[0, 0, 0]	n/a	FR1	2	R1092J
442.86	2.466	448423	WORD	n/a	wordpools/wordpool_EN.txt	TREE	3	4	[0, 0, 0]	n/a	FR1	2	R1092J
445.326	2.551	450889	WORD	n/a	wordpools/wordpool_EN.txt	DITCH	4	4	[0, 0, 0]	n/a	FR1	2	R1092J
447.877	2.534	453440	WORD	n/a	wordpools/wordpool_EN.txt	TRUCK	5	4	[0, 0, 0]	n/a	FR1	2	R1092J
450.411	2.45	455974	WORD	n/a	wordpools/wordpool_EN.txt	ELF	6	4	[0, 0, 0]	n/a	FR1	2	R1092J
452.861	2.534	458424	WORD	n/a	wordpools/wordpool_EN.txt	FLOOR	7	4	[0, 0, 0]	n/a	FR1	2	R1092J
455.395	2.583	460958	WORD	n/a	wordpools/wordpool_EN.txt	CLAY	8	4	[0, 0, 0]	n/a	FR1	2	R1092J
457.978	2.601	463541	WORD	n/a	wordpools/wordpool_EN.txt	TAIL	9	4	[0, 0, 0]	n/a	FR1	2	R1092J
460.579	2.517	466142	WORD	n/a	wordpools/wordpool_EN.txt	FLAG	10	4	[0, 0, 0]	n/a	FR1	2	R1092J
463.096	2.433	468659	WORD	n/a	wordpools/wordpool_EN.txt	JUDGE	11	4	[0, 0, 0]	n/a	FR1	2	R1092J
465.529	1.617	471091	WORD	n/a	wordpools/wordpool_EN.txt	FOX	12	4	[0, 0, 0]	n/a	FR1	2	R1092J
467.146	0.001	472708	DISTRACT_START	n/a	n/a	n/a	-999	4	[0, 0, 0]	n/a	FR1	2	R1092J
467.147	0.016	472709	START	n/a	n/a	n/a	-999	4	[-999, -999, -999]	n/a	FR1	2	R1092J
467.163	4.267	472725	PROB	4.267	n/a	n/a	-999	4	[1, 2, 4]	7	FR1	2	R1092J
471.43	2.8	476992	PROB	2.8	n/a	n/a	-999	4	[4, 2, 1]	7	FR1	2	R1092J
474.23	3.718	479792	PROB	3.718	n/a	n/a	-999	4	[9, 5, 9]	23	FR1	2	R1092J
477.948	2.866	483510	PROB	2.866	n/a	n/a	-999	4	[6, 5, 8]	19	FR1	2	R1092J
480.814	2.568	486376	PROB	2.568	n/a	n/a	-999	4	[7, 1, 2]	10	FR1	2	R1092J
483.382	2.399	488944	PROB	2.399	n/a	n/a	-999	4	[9, 5, 7]	21	FR1	2	R1092J
485.781	2.635	491343	PROB	2.635	n/a	n/a	-999	4	[9, 4, 1]	14	FR1	2	R1092J
488.416	0.016	493978	STOP	n/a	n/a	n/a	-999	4	[-999, -999, -999]	n/a	FR1	2	R1092J
488.432	1.2	493994	DISTRACT_END	n/a	n/a	n/a	-999	4	[0, 0, 0]	n/a	FR1	2	R1092J
489.632	2.852	495194	REC_START	n/a	n/a	n/a	-999	4	[0, 0, 0]	n/a	FR1	2	R1092J
492.484	1.834	498046	REC_WORD	1.834	n/a	WATCH	-999	4	[0, 0, 0]	n/a	FR1	2	R1092J
494.318	1.683	499880	REC_WORD	1.683	n/a	FUDGE	-999	4	[0, 0, 0]	n/a	FR1	2	R1092J
496.001	6.09	501563	REC_WORD	6.09	n/a	SQUARE	1	4	[0, 0, 0]	n/a	FR1	2	R1092J
502.091	8.973	507653	REC_WORD	8.973	n/a	TOE	-999	4	[0, 0, 0]	n/a	FR1	2	R1092J
511.064	3.694	516626	REC_WORD	3.694	n/a	ROOF	-999	4	[0, 0, 0]	n/a	FR1	2	R1092J
514.758	4.888	520320	REC_WORD	4.888	n/a	ELF	6	4	[0, 0, 0]	n/a	FR1	2	R1092J
519.646	3.208	525208	REC_END	n/a	n/a	n/a	-999	4	[0, 0, 0]	n/a	FR1	2	R1092J
522.854	0.0	528416	TRIAL	n/a	n/a	n/a	-999	5	[0, 0, 0]	n/a	FR1	2	R1092J
522.854	10.428	528416	COUNTDOWN_START	n/a	n/a	n/a	-999	5	[0, 0, 0]	n/a	FR1	2	R1092J
533.282	0.006	538844	COUNTDOWN_END	n/a	n/a	n/a	-999	5	[0, 0, 0]	n/a	FR1	2	R1092J
533.288	3.867	538850	ORIENT	n/a	n/a	n/a	-999	5	[0, 0, 0]	n/a	FR1	2	R1092J
537.155	2.516	542717	WORD	n/a	wordpools/wordpool_EN.txt	SUIT	1	5	[0, 0, 0]	n/a	FR1	2	R1092J
539.671	2.469	545233	WORD	n/a	wordpools/wordpool_EN.txt	WEB	2	5	[0, 0, 0]	n/a	FR1	2	R1092J
542.14	2.515	547702	WORD	n/a	wordpools/wordpool_EN.txt	STAIR	3	5	[0, 0, 0]	n/a	FR1	2	R1092J
544.655	2.368	550217	WORD	n/a	wordpools/wordpool_EN.txt	MUG	4	5	[0, 0, 0]	n/a	FR1	2	R1092J
547.023	2.434	552584	WORD	n/a	wordpools/wordpool_EN.txt	VAN	5	5	[0, 0, 0]	n/a	FR1	2	R1092J
549.457	2.6	555018	WORD	n/a	wordpools/wordpool_EN.txt	CONE	6	5	[0, 0, 0]	n/a	FR1	2	R1092J
552.057	2.5	557618	WORD	n/a	wordpools/wordpool_EN.txt	BANK	7	5	[0, 0, 0]	n/a	FR1	2	R1092J
554.557	2.617	560118	WORD	n/a	wordpools/wordpool_EN.txt	JAR	8	5	[0, 0, 0]	n/a	FR1	2	R1092J
557.174	2.433	562735	WORD	n/a	wordpools/wordpool_EN.txt	TOY	9	5	[0, 0, 0]	n/a	FR1	2	R1092J
559.607	2.385	565168	WORD	n/a	wordpools/wordpool_EN.txt	ROAD	10	5	[0, 0, 0]	n/a	FR1	2	R1092J
561.992	2.45	567553	WORD	n/a	wordpools/wordpool_EN.txt	YARD	11	5	[0, 0, 0]	n/a	FR1	2	R1092J
564.442	1.617	570003	WORD	n/a	wordpools/wordpool_EN.txt	POND	12	5	[0, 0, 0]	n/a	FR1	2	R1092J
566.059	0.0	571620	DISTRACT_START	n/a	n/a	n/a	-999	5	[0, 0, 0]	n/a	FR1	2	R1092J
566.059	0.017	571620	START	n/a	n/a	n/a	-999	5	[-999, -999, -999]	n/a	FR1	2	R1092J
566.076	3.582	571637	PROB	3.582	n/a	n/a	-999	5	[4, 1, 9]	14	FR1	2	R1092J
569.658	3.635	575219	PROB	3.635	n/a	n/a	-999	5	[7, 9, 4]	20	FR1	2	R1092J
573.293	2.834	578854	PROB	2.834	n/a	n/a	-999	5	[5, 5, 8]	18	FR1	2	R1092J
576.127	2.784	581688	PROB	2.784	n/a	n/a	-999	5	[6, 4, 8]	18	FR1	2	R1092J
578.911	2.45	584472	PROB	2.45	n/a	n/a	-999	5	[1, 5, 1]	7	FR1	2	R1092J
581.361	2.783	586922	PROB	2.783	n/a	n/a	-999	5	[4, 3, 2]	9	FR1	2	R1092J
584.144	3.003	589705	PROB	3.003	n/a	n/a	-999	5	[7, 8, 4]	19	FR1	2	R1092J
587.147	0.015	592708	STOP	n/a	n/a	n/a	-999	5	[-999, -999, -999]	n/a	FR1	2	R1092J
587.162	1.084	592723	DISTRACT_END	n/a	n/a	n/a	-999	5	[0, 0, 0]	n/a	FR1	2	R1092J
588.246	3.958	593807	REC_START	n/a	n/a	n/a	-999	5	[0, 0, 0]	n/a	FR1	2	R1092J
592.204	1.4	597765	REC_WORD	1.4	n/a	JAW	-999	5	[0, 0, 0]	n/a	FR1	2	R1092J
593.604	2.748	599165	REC_WORD	2.748	n/a	SUIT	1	5	[0, 0, 0]	n/a	FR1	2	R1092J
596.352	2.074	601913	REC_WORD	2.074	n/a	COW	-999	5	[0, 0, 0]	n/a	FR1	2	R1092J
598.426	4.923	603987	REC_WORD	4.923	n/a	FLOW	-999	5	[0, 0, 0]	n/a	FR1	2	R1092J
603.349	3.339	608910	REC_WORD	3.339	n/a	MOTH	-999	5	[0, 0, 0]	n/a	FR1	2	R1092J
606.688	2.296	612249	REC_WORD	2.296	n/a	JAW	-999	5	[0, 0, 0]	n/a	FR1	2	R1092J
608.984	1.414	614545	REC_WORD	1.414	n/a	COAT	-999	5	[0, 0, 0]	n/a	FR1	2	R1092J
610.398	2.659	615959	REC_WORD	2.659	n/a	SUIT	1	5	[0, 0, 0]	n/a	FR1	2	R1092J
613.057	5.197	618618	REC_WORD	5.197	n/a	TOE	-999	5	[0, 0, 0]	n/a	FR1	2	R1092J
618.254	3.361	623815	REC_END	n/a	n/a	n/a	-999	5	[0, 0, 0]	n/a	FR1	2	R1092J
621.615	0.0	627176	TRIAL	n/a	n/a	n/a	-999	6	[0, 0, 0]	n/a	FR1	2	R1092J
621.615	10.428	627176	COUNTDOWN_START	n/a	n/a	n/a	-999	6	[0, 0, 0]	n/a	FR1	2	R1092J
632.043	0.008	637603	COUNTDOWN_END	n/a	n/a	n/a	-999	6	[0, 0, 0]	n/a	FR1	2	R1092J
632.051	3.566	637611	ORIENT	n/a	n/a	n/a	-999	6	[0, 0, 0]	n/a	FR1	2	R1092J
635.617	2.551	641177	WORD	n/a	wordpools/wordpool_EN.txt	CUP	1	6	[0, 0, 0]	n/a	FR1	2	R1092J
638.168	2.55	643728	WORD	n/a	wordpools/wordpool_EN.txt	CAGE	2	6	[0, 0, 0]	n/a	FR1	2	R1092J
640.718	2.385	646278	WORD	n/a	wordpools/wordpool_EN.txt	BAND	3	6	[0, 0, 0]	n/a	FR1	2	R1092J
643.103	2.499	648663	WORD	n/a	wordpools/wordpool_EN.txt	SMILE	4	6	[0, 0, 0]	n/a	FR1	2	R1092J
645.602	2.418	651162	WORD	n/a	wordpools/wordpool_EN.txt	PIN	5	6	[0, 0, 0]	n/a	FR1	2	R1092J
648.02	2.517	653580	WORD	n/a	wordpools/wordpool_EN.txt	BRUSH	6	6	[0, 0, 0]	n/a	FR1	2	R1092J
650.537	2.55	656097	WORD	n/a	wordpools/wordpool_EN.txt	PALM	7	6	[0, 0, 0]	n/a	FR1	2	R1092J
653.087	2.599	658647	WORD	n/a	wordpools/wordpool_EN.txt	CHAIR	8	6	[0, 0, 0]	n/a	FR1	2	R1092J
655.686	2.585	661246	WORD	n/a	wordpools/wordpool_EN.txt	DUCK	9	6	[0, 0, 0]	n/a	FR1	2	R1092J
658.271	2.416	663831	WORD	n/a	wordpools/wordpool_EN.txt	RIB	10	6	[0, 0, 0]	n/a	FR1	2	R1092J
660.687	2.552	666247	WORD	n/a	wordpools/wordpool_EN.txt	TRAY	11	6	[0, 0, 0]	n/a	FR1	2	R1092J
663.239	1.616	668799	WORD	n/a	wordpools/wordpool_EN.txt	SINK	12	6	[0, 0, 0]	n/a	FR1	2	R1092J
664.855	0.001	670415	DISTRACT_START	n/a	n/a	n/a	-999	6	[0, 0, 0]	n/a	FR1	2	R1092J
664.856	0.016	670416	START	n/a	n/a	n/a	-999	6	[-999, -999, -999]	n/a	FR1	2	R1092J
664.872	2.866	670432	PROB	2.866	n/a	n/a	-999	6	[7, 2, 3]	12	FR1	2	R1092J
667.738	2.785	673298	PROB	2.785	n/a	n/a	-999	6	[4, 7, 8]	19	FR1	2	R1092J
670.523	2.233	676083	PROB	2.233	n/a	n/a	-999	6	[5, 6, 1]	12	FR1	2	R1092J
672.756	2.033	678316	PROB	2.033	n/a	n/a	-999	6	[7, 3, 4]	14	FR1	2	R1092J
674.789	2.151	680349	PROB	2.151	n/a	n/a	-999	6	[4, 6, 8]	18	FR1	2	R1092J
676.94	3.034	682500	PROB	3.034	n/a	n/a	-999	6	[7, 4, 4]	15	FR1	2	R1092J
679.974	2.301	685534	PROB	2.301	n/a	n/a	-999	6	[6, 6, 2]	14	FR1	2	R1092J
682.275	2.973	687835	PROB	2.973	n/a	n/a	-999	6	[9, 9, 7]	25	FR1	2	R1092J
685.248	0.01	690808	STOP	n/a	n/a	n/a	-999	6	[-999, -999, -999]	n/a	FR1	2	R1092J
685.258	1.117	690818	DISTRACT_END	n/a	n/a	n/a	-999	6	[0, 0, 0]	n/a	FR1	2	R1092J
686.375	3.945	691935	REC_START	n/a	n/a	n/a	-999	6	[0, 0, 0]	n/a	FR1	2	R1092J
690.32	1.131	695880	REC_WORD	1.131	n/a	CUP	1	6	[0, 0, 0]	n/a	FR1	2	R1092J
691.451	2.598	697011	REC_WORD	2.598	n/a	SMILE	4	6	[0, 0, 0]	n/a	FR1	2	R1092J
694.049	5.216	699609	REC_WORD	5.216	n/a	SQUARE	-999	6	[0, 0, 0]	n/a	FR1	2	R1092J
699.265	13.054	704825	REC_WORD	13.054	n/a	SINK	12	6	[0, 0, 0]	n/a	FR1	2	R1092J
712.319	4.07	717878	REC_WORD	4.07	n/a	TOE	-999	6	[0, 0, 0]	n/a	FR1	2	R1092J
716.389	4.691	721948	REC_END	n/a	n/a	n/a	-999	6	[0, 0, 0]	n/a	FR1	2	R1092J
721.08	0.0	726639	TRIAL	n/a	n/a	n/a	-999	7	[0, 0, 0]	n/a	FR1	2	R1092J
721.08	10.428	726639	COUNTDOWN_START	n/a	n/a	n/a	-999	7	[0, 0, 0]	n/a	FR1	2	R1092J
731.508	0.006	737067	COUNTDOWN_END	n/a	n/a	n/a	-999	7	[0, 0, 0]	n/a	FR1	2	R1092J
731.514	3.751	737073	ORIENT	n/a	n/a	n/a	-999	7	[0, 0, 0]	n/a	FR1	2	R1092J
735.265	2.466	740824	WORD	n/a	wordpools/wordpool_EN.txt	SPRING	1	7	[0, 0, 0]	n/a	FR1	2	R1092J
737.731	2.618	743290	WORD	n/a	wordpools/wordpool_EN.txt	CANE	2	7	[0, 0, 0]	n/a	FR1	2	R1092J
740.349	2.449	745908	WORD	n/a	wordpools/wordpool_EN.txt	BARN	3	7	[0, 0, 0]	n/a	FR1	2	R1092J
742.798	2.535	748357	WORD	n/a	wordpools/wordpool_EN.txt	CAKE	4	7	[0, 0, 0]	n/a	FR1	2	R1092J
745.333	2.517	750892	WORD	n/a	wordpools/wordpool_EN.txt	TIE	5	7	[0, 0, 0]	n/a	FR1	2	R1092J
747.85	2.567	753409	WORD	n/a	wordpools/wordpool_EN.txt	NAIL	6	7	[0, 0, 0]	n/a	FR1	2	R1092J
750.417	2.567	755976	WORD	n/a	wordpools/wordpool_EN.txt	STICK	7	7	[0, 0, 0]	n/a	FR1	2	R1092J
752.984	2.434	758543	WORD	n/a	wordpools/wordpool_EN.txt	THREAD	8	7	[0, 0, 0]	n/a	FR1	2	R1092J
755.418	2.6	760977	WORD	n/a	wordpools/wordpool_EN.txt	SPOON	9	7	[0, 0, 0]	n/a	FR1	2	R1092J
758.018	2.583	763577	WORD	n/a	wordpools/wordpool_EN.txt	DART	10	7	[0, 0, 0]	n/a	FR1	2	R1092J
760.601	2.401	766160	WORD	n/a	wordpools/wordpool_EN.txt	BEAN	11	7	[0, 0, 0]	n/a	FR1	2	R1092J
763.002	1.616	768561	WORD	n/a	wordpools/wordpool_EN.txt	MAT	12	7	[0, 0, 0]	n/a	FR1	2	R1092J
764.618	0.0	770177	DISTRACT_START	n/a	n/a	n/a	-999	7	[0, 0, 0]	n/a	FR1	2	R1092J
764.618	0.017	770177	START	n/a	n/a	n/a	-999	7	[-999, -999, -999]	n/a	FR1	2	R1092J
764.635	3.835	770194	PROB	3.835	n/a	n/a	-999	7	[2, 7, 6]	15	FR1	2	R1092J
768.47	2.6	774029	PROB	2.6	n/a	n/a	-999	7	[6, 8, 1]	15	FR1	2	R1092J
771.07	2.167	776629	PROB	2.167	n/a	n/a	-999	7	[5, 5, 5]	15	FR1	2	R1092J
773.237	2.983	778796	PROB	2.983	n/a	n/a	-999	7	[9, 5, 2]	16	FR1	2	R1092J
776.22	2.533	781779	PROB	2.533	n/a	n/a	-999	7	[5, 2, 8]	15	FR1	2	R1092J
778.753	2.785	784312	PROB	2.785	n/a	n/a	-999	7	[4, 1, 8]	13	FR1	2	R1092J
781.538	2.65	787097	PROB	2.65	n/a	n/a	-999	7	[4, 2, 3]	9	FR1	2	R1092J
784.188	2.865	789747	PROB	2.865	n/a	n/a	-999	7	[7, 6, 1]	14	FR1	2	R1092J
787.053	0.019	792612	STOP	n/a	n/a	n/a	-999	7	[-999, -999, -999]	n/a	FR1	2	R1092J
787.072	1.101	792631	DISTRACT_END	n/a	n/a	n/a	-999	7	[0, 0, 0]	n/a	FR1	2	R1092J
788.173	3.435	793732	REC_START	n/a	n/a	n/a	-999	7	[0, 0, 0]	n/a	FR1	2	R1092J
791.608	1.567	797166	REC_WORD	1.567	n/a	CUP	-999	7	[0, 0, 0]	n/a	FR1	2	R1092J
793.175	2.206	798733	REC_WORD	2.206	n/a	MAT	12	7	[0, 0, 0]	n/a	FR1	2	R1092J
795.381	16.678	800939	REC_WORD	16.678	n/a	BEAN	11	7	[0, 0, 0]	n/a	FR1	2	R1092J
812.059	6.124	817617	REC_WORD	6.124	n/a	SQUARE	-999	7	[0, 0, 0]	n/a	FR1	2	R1092J
818.183	8.127	823741	REC_END	n/a	n/a	n/a	-999	7	[0, 0, 0]	n/a	FR1	2	R1092J
826.31	0.0	831868	TRIAL	n/a	n/a	n/a	-999	8	[0, 0, 0]	n/a	FR1	2	R1092J
826.31	10.428	831868	COUNTDOWN_START	n/a	n/a	n/a	-999	8	[0, 0, 0]	n/a	FR1	2	R1092J
836.738	0.006	842296	COUNTDOWN_END	n/a	n/a	n/a	-999	8	[0, 0, 0]	n/a	FR1	2	R1092J
836.744	3.702	842302	ORIENT	n/a	n/a	n/a	-999	8	[0, 0, 0]	n/a	FR1	2	R1092J
840.446	2.384	846004	WORD	n/a	wordpools/wordpool_EN.txt	WING	1	8	[0, 0, 0]	n/a	FR1	2	R1092J
842.83	2.6	848388	WORD	n/a	wordpools/wordpool_EN.txt	BALL	2	8	[0, 0, 0]	n/a	FR1	2	R1092J
845.43	2.467	850988	WORD	n/a	wordpools/wordpool_EN.txt	BLOOM	3	8	[0, 0, 0]	n/a	FR1	2	R1092J
847.897	2.617	853455	WORD	n/a	wordpools/wordpool_EN.txt	SHEEP	4	8	[0, 0, 0]	n/a	FR1	2	R1092J
850.514	2.484	856072	WORD	n/a	wordpools/wordpool_EN.txt	PEAR	5	8	[0, 0, 0]	n/a	FR1	2	R1092J
852.998	2.383	858556	WORD	n/a	wordpools/wordpool_EN.txt	GEESE	6	8	[0, 0, 0]	n/a	FR1	2	R1092J
855.381	2.5	860939	WORD	n/a	wordpools/wordpool_EN.txt	WHALE	7	8	[0, 0, 0]	n/a	FR1	2	R1092J
857.881	2.401	863439	WORD	n/a	wordpools/wordpool_EN.txt	SUN	8	8	[0, 0, 0]	n/a	FR1	2	R1092J
860.282	2.433	865840	WORD	n/a	wordpools/wordpool_EN.txt	NEST	9	8	[0, 0, 0]	n/a	FR1	2	R1092J
862.715	2.417	868273	WORD	n/a	wordpools/wordpool_EN.txt	LAWN	10	8	[0, 0, 0]	n/a	FR1	2	R1092J
865.132	2.434	870690	WORD	n/a	wordpools/wordpool_EN.txt	FRUIT	11	8	[0, 0, 0]	n/a	FR1	2	R1092J
867.566	1.617	873124	WORD	n/a	wordpools/wordpool_EN.txt	SNAKE	12	8	[0, 0, 0]	n/a	FR1	2	R1092J
869.183	0.0	874740	DISTRACT_START	n/a	n/a	n/a	-999	8	[0, 0, 0]	n/a	FR1	2	R1092J
869.183	0.017	874740	START	n/a	n/a	n/a	-999	8	[-999, -999, -999]	n/a	FR1	2	R1092J
869.2	3.85	874757	PROB	3.85	n/a	n/a	-999	8	[1, 1, 3]	5	FR1	2	R1092J
873.05	3.417	878607	PROB	3.417	n/a	n/a	-999	8	[9, 2, 4]	16	FR1	2	R1092J
876.467	3.968	882024	PROB	3.968	n/a	n/a	-999	8	[6, 6, 9]	21	FR1	2	R1092J
880.435	4.917	885992	PROB	4.917	n/a	n/a	-999	8	[2, 5, 9]	16	FR1	2	R1092J
885.352	2.083	890909	PROB	2.083	n/a	n/a	-999	8	[3, 2, 2]	7	FR1	2	R1092J
887.435	2.918	892992	PROB	2.918	n/a	n/a	-999	8	[6, 7, 2]	15	FR1	2	R1092J
890.353	0.016	895910	STOP	n/a	n/a	n/a	-999	8	[-999, -999, -999]	n/a	FR1	2	R1092J
890.369	1.218	895926	DISTRACT_END	n/a	n/a	n/a	-999	8	[0, 0, 0]	n/a	FR1	2	R1092J
891.587	3.714	897144	REC_START	n/a	n/a	n/a	-999	8	[0, 0, 0]	n/a	FR1	2	R1092J
895.301	1.07	900858	REC_WORD	1.07	n/a	WING	1	8	[0, 0, 0]	n/a	FR1	2	R1092J
896.371	2.6	901928	REC_WORD	2.6	n/a	SQUARE	-999	8	[0, 0, 0]	n/a	FR1	2	R1092J
898.971	10.569	904528	REC_WORD	10.569	n/a	BEAN	-999	8	[0, 0, 0]	n/a	FR1	2	R1092J
909.54	3.724	915097	REC_WORD	3.724	n/a	SUN	8	8	[0, 0, 0]	n/a	FR1	2	R1092J
913.264	6.1	918821	REC_WORD	6.1	n/a	RAIN	-999	8	[0, 0, 0]	n/a	FR1	2	R1092J
919.364	2.231	924921	REC_WORD	2.231	n/a	WHALE	7	8	[0, 0, 0]	n/a	FR1	2	R1092J
921.595	4.395	927152	REC_END	n/a	n/a	n/a	-999	8	[0, 0, 0]	n/a	FR1	2	R1092J
925.99	0.0	931547	TRIAL	n/a	n/a	n/a	-999	9	[0, 0, 0]	n/a	FR1	2	R1092J
925.99	10.428	931547	COUNTDOWN_START	n/a	n/a	n/a	-999	9	[0, 0, 0]	n/a	FR1	2	R1092J
936.418	0.007	941975	COUNTDOWN_END	n/a	n/a	n/a	-999	9	[0, 0, 0]	n/a	FR1	2	R1092J
936.425	3.601	941982	ORIENT	n/a	n/a	n/a	-999	9	[0, 0, 0]	n/a	FR1	2	R1092J
940.026	2.417	945583	WORD	n/a	wordpools/wordpool_EN.txt	HOSE	1	9	[0, 0, 0]	n/a	FR1	2	R1092J
942.443	2.383	948000	WORD	n/a	wordpools/wordpool_EN.txt	PLATE	2	9	[0, 0, 0]	n/a	FR1	2	R1092J
944.826	2.618	950383	WORD	n/a	wordpools/wordpool_EN.txt	PEACH	3	9	[0, 0, 0]	n/a	FR1	2	R1092J
947.444	2.5	953001	WORD	n/a	wordpools/wordpool_EN.txt	HORN	4	9	[0, 0, 0]	n/a	FR1	2	R1092J
949.944	2.401	955500	WORD	n/a	wordpools/wordpool_EN.txt	CAPE	5	9	[0, 0, 0]	n/a	FR1	2	R1092J
952.345	2.432	957901	WORD	n/a	wordpools/wordpool_EN.txt	STOOL	6	9	[0, 0, 0]	n/a	FR1	2	R1092J
954.777	2.468	960333	WORD	n/a	wordpools/wordpool_EN.txt	FOOT	7	9	[0, 0, 0]	n/a	FR1	2	R1092J
957.245	2.483	962801	WORD	n/a	wordpools/wordpool_EN.txt	KITE	8	9	[0, 0, 0]	n/a	FR1	2	R1092J
959.728	2.601	965284	WORD	n/a	wordpools/wordpool_EN.txt	GLOVE	9	9	[0, 0, 0]	n/a	FR1	2	R1092J
962.329	2.517	967885	WORD	n/a	wordpools/wordpool_EN.txt	VINE	10	9	[0, 0, 0]	n/a	FR1	2	R1092J
964.846	2.433	970402	WORD	n/a	wordpools/wordpool_EN.txt	BROOM	11	9	[0, 0, 0]	n/a	FR1	2	R1092J
967.279	1.617	972835	WORD	n/a	wordpools/wordpool_EN.txt	STOVE	12	9	[0, 0, 0]	n/a	FR1	2	R1092J
968.896	0.001	974452	DISTRACT_START	n/a	n/a	n/a	-999	9	[0, 0, 0]	n/a	FR1	2	R1092J
968.897	0.016	974453	START	n/a	n/a	n/a	-999	9	[-999, -999, -999]	n/a	FR1	2	R1092J
968.913	2.85	974469	PROB	2.85	n/a	n/a	-999	9	[1, 9, 3]	13	FR1	2	R1092J
971.763	2.451	977319	PROB	2.451	n/a	n/a	-999	9	[4, 2, 1]	7	FR1	2	R1092J
974.214	2.717	979770	PROB	2.717	n/a	n/a	-999	9	[6, 7, 5]	18	FR1	2	R1092J
976.931	3.816	982487	PROB	3.816	n/a	n/a	-999	9	[3, 9, 6]	19	FR1	2	R1092J
980.747	3.151	986303	PROB	3.151	n/a	n/a	-999	9	[2, 8, 4]	14	FR1	2	R1092J
983.898	2.833	989454	PROB	2.833	n/a	n/a	-999	9	[8, 2, 6]	16	FR1	2	R1092J
986.731	4.203	992287	PROB	4.203	n/a	n/a	-999	9	[8, 9, 3]	20	FR1	2	R1092J
990.934	0.015	996490	STOP	n/a	n/a	n/a	-999	9	[-999, -999, -999]	n/a	FR1	2	R1092J
990.949	1.151	996505	DISTRACT_END	n/a	n/a	n/a	-999	9	[0, 0, 0]	n/a	FR1	2	R1092J
992.1	10.691	997656	REC_START	n/a	n/a	n/a	-999	9	[0, 0, 0]	n/a	FR1	2	R1092J
1002.791	2.215	1008347	REC_WORD	2.215	n/a	SQUARE	-999	9	[0, 0, 0]	n/a	FR1	2	R1092J
1005.006	4.391	1010562	REC_WORD	4.391	n/a	BEAM	-999	9	[0, 0, 0]	n/a	FR1	2	R1092J
1009.397	4.194	1014953	REC_WORD	4.194	n/a	WHALE	-999	9	[0, 0, 0]	n/a	FR1	2	R1092J
1013.591	2.491	1019147	REC_WORD	2.491	n/a	BALLOON	-999	9	[0, 0, 0]	n/a	FR1	2	R1092J
1016.082	6.028	1021638	REC_WORD	6.028	n/a	ROSE	-999	9	[0, 0, 0]	n/a	FR1	2	R1092J
1022.11	4.427	1027666	REC_END	n/a	n/a	n/a	-999	9	[0, 0, 0]	n/a	FR1	2	R1092J
1026.537	0.0	1032093	TRIAL	n/a	n/a	n/a	-999	10	[0, 0, 0]	n/a	FR1	2	R1092J
1026.537	10.428	1032093	COUNTDOWN_START	n/a	n/a	n/a	-999	10	[0, 0, 0]	n/a	FR1	2	R1092J
1036.965	0.007	1042520	COUNTDOWN_END	n/a	n/a	n/a	-999	10	[0, 0, 0]	n/a	FR1	2	R1092J
1036.972	3.617	1042527	ORIENT	n/a	n/a	n/a	-999	10	[0, 0, 0]	n/a	FR1	2	R1092J
1040.589	2.517	1046144	WORD	n/a	wordpools/wordpool_EN.txt	MOTH	1	10	[0, 0, 0]	n/a	FR1	2	R1092J
1043.106	2.55	1048661	WORD	n/a	wordpools/wordpool_EN.txt	CHALK	2	10	[0, 0, 0]	n/a	FR1	2	R1092J
1045.656	2.484	1051211	WORD	n/a	wordpools/wordpool_EN.txt	BADGE	3	10	[0, 0, 0]	n/a	FR1	2	R1092J
1048.14	2.583	1053695	WORD	n/a	wordpools/wordpool_EN.txt	HAT	4	10	[0, 0, 0]	n/a	FR1	2	R1092J
1050.723	2.568	1056278	WORD	n/a	wordpools/wordpool_EN.txt	HOOK	5	10	[0, 0, 0]	n/a	FR1	2	R1092J
1053.291	2.533	1058846	WORD	n/a	wordpools/wordpool_EN.txt	FUR	6	10	[0, 0, 0]	n/a	FR1	2	R1092J
1055.824	2.601	1061379	WORD	n/a	wordpools/wordpool_EN.txt	DIME	7	10	[0, 0, 0]	n/a	FR1	2	R1092J
1058.425	2.584	1063980	WORD	n/a	wordpools/wordpool_EN.txt	POOL	8	10	[0, 0, 0]	n/a	FR1	2	R1092J
1061.009	2.467	1066564	WORD	n/a	wordpools/wordpool_EN.txt	DESK	9	10	[0, 0, 0]	n/a	FR1	2	R1092J
1063.476	2.417	1069031	WORD	n/a	wordpools/wordpool_EN.txt	FLEA	10	10	[0, 0, 0]	n/a	FR1	2	R1092J
1065.893	2.617	1071448	WORD	n/a	wordpools/wordpool_EN.txt	SHRIMP	11	10	[0, 0, 0]	n/a	FR1	2	R1092J
1068.51	1.617	1074065	WORD	n/a	wordpools/wordpool_EN.txt	ARK	12	10	[0, 0, 0]	n/a	FR1	2	R1092J
1070.127	0.001	1075682	DISTRACT_START	n/a	n/a	n/a	-999	10	[0, 0, 0]	n/a	FR1	2	R1092J
1070.128	0.016	1075683	START	n/a	n/a	n/a	-999	10	[-999, -999, -999]	n/a	FR1	2	R1092J
1070.144	3.582	1075699	PROB	3.582	n/a	n/a	-999	10	[7, 1, 4]	12	FR1	2	R1092J
1073.726	2.335	1079281	PROB	2.335	n/a	n/a	-999	10	[5, 4, 1]	10	FR1	2	R1092J
1076.061	2.549	1081616	PROB	2.549	n/a	n/a	-999	10	[9, 2, 9]	20	FR1	2	R1092J
1078.61	3.352	1084165	PROB	3.352	n/a	n/a	-999	10	[3, 3, 4]	10	FR1	2	R1092J
1081.962	2.933	1087517	PROB	2.933	n/a	n/a	-999	10	[5, 8, 7]	20	FR1	2	R1092J
1084.895	2.783	1090450	PROB	2.783	n/a	n/a	-999	10	[2, 7, 1]	10	FR1	2	R1092J
1087.678	2.301	1093233	PROB	2.301	n/a	n/a	-999	10	[6, 9, 6]	21	FR1	2	R1092J
1089.979	4.079	1095534	PROB	4.079	n/a	n/a	-999	10	[1, 5, 8]	14	FR1	2	R1092J
1094.058	0.005	1099613	STOP	n/a	n/a	n/a	-999	10	[-999, -999, -999]	n/a	FR1	2	R1092J
1094.063	1.201	1099618	DISTRACT_END	n/a	n/a	n/a	-999	10	[0, 0, 0]	n/a	FR1	2	R1092J
1095.264	3.607	1100819	REC_START	n/a	n/a	n/a	-999	10	[0, 0, 0]	n/a	FR1	2	R1092J
1098.871	1.376	1104426	REC_WORD	1.376	n/a	HOOK	5	10	[0, 0, 0]	n/a	FR1	2	R1092J
1100.247	7.585	1105802	REC_WORD	7.585	n/a	ARK	12	10	[0, 0, 0]	n/a	FR1	2	R1092J
1107.832	17.442	1113387	REC_WORD	17.442	n/a	SHINE	-999	10	[0, 0, 0]	n/a	FR1	2	R1092J
1125.274	5.644	1130828	REC_END	n/a	n/a	n/a	-999	10	[0, 0, 0]	n/a	FR1	2	R1092J
1130.918	0.0	1136472	TRIAL	n/a	n/a	n/a	-999	11	[0, 0, 0]	n/a	FR1	2	R1092J
1130.918	10.428	1136472	COUNTDOWN_START	n/a	n/a	n/a	-999	11	[0, 0, 0]	n/a	FR1	2	R1092J
1141.346	0.007	1146900	COUNTDOWN_END	n/a	n/a	n/a	-999	11	[0, 0, 0]	n/a	FR1	2	R1092J
1141.353	3.617	1146907	ORIENT	n/a	n/a	n/a	-999	11	[0, 0, 0]	n/a	FR1	2	R1092J
1144.97	2.534	1150524	WORD	n/a	wordpools/wordpool_EN.txt	ANT	1	11	[0, 0, 0]	n/a	FR1	2	R1092J
1147.504	2.467	1153058	WORD	n/a	wordpools/wordpool_EN.txt	CLIFF	2	11	[0, 0, 0]	n/a	FR1	2	R1092J
1149.971	2.633	1155525	WORD	n/a	wordpools/wordpool_EN.txt	HAWK	3	11	[0, 0, 0]	n/a	FR1	2	R1092J
1152.604	2.434	1158158	WORD	n/a	wordpools/wordpool_EN.txt	HOOF	4	11	[0, 0, 0]	n/a	FR1	2	R1092J
1155.038	2.4	1160592	WORD	n/a	wordpools/wordpool_EN.txt	RAT	5	11	[0, 0, 0]	n/a	FR1	2	R1092J
1157.438	2.468	1162992	WORD	n/a	wordpools/wordpool_EN.txt	GATE	6	11	[0, 0, 0]	n/a	FR1	2	R1092J
1159.906	2.517	1165460	WORD	n/a	wordpools/wordpool_EN.txt	MOON	7	11	[0, 0, 0]	n/a	FR1	2	R1092J
1162.423	2.433	1167977	WORD	n/a	wordpools/wordpool_EN.txt	HOLE	8	11	[0, 0, 0]	n/a	FR1	2	R1092J
1164.856	2.4	1170410	WORD	n/a	wordpools/wordpool_EN.txt	SPARK	9	11	[0, 0, 0]	n/a	FR1	2	R1092J
1167.256	2.383	1172810	WORD	n/a	wordpools/wordpool_EN.txt	SOUP	10	11	[0, 0, 0]	n/a	FR1	2	R1092J
1169.639	2.552	1175193	WORD	n/a	wordpools/wordpool_EN.txt	TEETH	11	11	[0, 0, 0]	n/a	FR1	2	R1092J
1172.191	1.615	1177745	WORD	n/a	wordpools/wordpool_EN.txt	BRICK	12	11	[0, 0, 0]	n/a	FR1	2	R1092J
1173.806	0.001	1179360	DISTRACT_START	n/a	n/a	n/a	-999	11	[0, 0, 0]	n/a	FR1	2	R1092J
1173.807	0.016	1179361	START	n/a	n/a	n/a	-999	11	[-999, -999, -999]	n/a	FR1	2	R1092J
1173.823	5.202	1179377	PROB	5.202	n/a	n/a	-999	11	[7, 8, 8]	23	FR1	2	R1092J
1179.025	4.017	1184579	PROB	4.017	n/a	n/a	-999	11	[8, 6, 5]	19	FR1	2	R1092J
1183.042	2.384	1188596	PROB	2.384	n/a	n/a	-999	11	[3, 5, 5]	13	FR1	2	R1092J
1185.426	4.399	1190980	PROB	4.399	n/a	n/a	-999	11	[5, 9, 7]	21	FR1	2	R1092J
1189.825	2.268	1195379	PROB	2.268	n/a	n/a	-999	11	[6, 6, 7]	19	FR1	2	R1092J
1192.093	2.545	1197647	PROB	2.545	n/a	n/a	-999	11	[5, 1, 7]	13	FR1	2	R1092J
1194.638	0.005	1200191	STOP	n/a	n/a	n/a	-999	11	[-999, -999, -999]	n/a	FR1	2	R1092J
1194.643	1.1	1200196	DISTRACT_END	n/a	n/a	n/a	-999	11	[0, 0, 0]	n/a	FR1	2	R1092J
1195.743	2.157	1201296	REC_START	n/a	n/a	n/a	-999	11	[0, 0, 0]	n/a	FR1	2	R1092J
1197.9	2.127	1203453	REC_WORD	2.127	n/a	CLIFF	2	11	[0, 0, 0]	n/a	FR1	2	R1092J
1200.027	3.934	1205580	REC_WORD	3.934	n/a	BEAM	-999	11	[0, 0, 0]	n/a	FR1	2	R1092J
1203.961	1.854	1209514	REC_WORD	1.854	n/a	ANT	1	11	[0, 0, 0]	n/a	FR1	2	R1092J
1205.815	3.824	1211368	REC_WORD	3.824	n/a	FLEA	-999	11	[0, 0, 0]	n/a	FR1	2	R1092J
1209.639	14.237	1215192	REC_WORD	14.237	n/a	SQUARE	-999	11	[0, 0, 0]	n/a	FR1	2	R1092J
1223.876	1.881	1229429	REC_WORD	1.881	n/a	SUN	-999	11	[0, 0, 0]	n/a	FR1	2	R1092J
1225.757	4.108	1231310	REC_END	n/a	n/a	n/a	-999	11	[0, 0, 0]	n/a	FR1	2	R1092J
1229.865	0.0	1235418	TRIAL	n/a	n/a	n/a	-999	12	[0, 0, 0]	n/a	FR1	2	R1092J
1229.865	10.428	1235418	COUNTDOWN_START	n/a	n/a	n/a	-999	12	[0, 0, 0]	n/a	FR1	2	R1092J
1240.293	0.007	1245846	COUNTDOWN_END	n/a	n/a	n/a	-999	12	[0, 0, 0]	n/a	FR1	2	R1092J
1240.3	3.633	1245853	ORIENT	n/a	n/a	n/a	-999	12	[0, 0, 0]	n/a	FR1	2	R1092J
1243.933	2.401	1249486	WORD	n/a	wordpools/wordpool_EN.txt	PURSE	1	12	[0, 0, 0]	n/a	FR1	2	R1092J
1246.334	2.517	1251887	WORD	n/a	wordpools/wordpool_EN.txt	SWAMP	2	12	[0, 0, 0]	n/a	FR1	2	R1092J
1248.851	2.584	1254404	WORD	n/a	wordpools/wordpool_EN.txt	HEN	3	12	[0, 0, 0]	n/a	FR1	2	R1092J
1251.435	2.499	1256988	WORD	n/a	wordpools/wordpool_EN.txt	BOOK	4	12	[0, 0, 0]	n/a	FR1	2	R1092J
1253.934	2.518	1259487	WORD	n/a	wordpools/wordpool_EN.txt	EGG	5	12	[0, 0, 0]	n/a	FR1	2	R1092J
1256.452	2.434	1262005	WORD	n/a	wordpools/wordpool_EN.txt	SPONGE	6	12	[0, 0, 0]	n/a	FR1	2	R1092J
1258.886	2.6	1264439	WORD	n/a	wordpools/wordpool_EN.txt	ARM	7	12	[0, 0, 0]	n/a	FR1	2	R1092J
1261.486	2.583	1267039	WORD	n/a	wordpools/wordpool_EN.txt	SKI	8	12	[0, 0, 0]	n/a	FR1	2	R1092J
1264.069	2.518	1269622	WORD	n/a	wordpools/wordpool_EN.txt	ROCK	9	12	[0, 0, 0]	n/a	FR1	2	R1092J
1266.587	2.383	1272140	WORD	n/a	wordpools/wordpool_EN.txt	BRIDGE	10	12	[0, 0, 0]	n/a	FR1	2	R1092J
1268.97	2.451	1274523	WORD	n/a	wordpools/wordpool_EN.txt	APE	11	12	[0, 0, 0]	n/a	FR1	2	R1092J
1271.421	1.617	1276974	WORD	n/a	wordpools/wordpool_EN.txt	PET	12	12	[0, 0, 0]	n/a	FR1	2	R1092J
1273.038	0.0	1278591	DISTRACT_START	n/a	n/a	n/a	-999	12	[0, 0, 0]	n/a	FR1	2	R1092J
1273.038	0.016	1278591	START	n/a	n/a	n/a	-999	12	[-999, -999, -999]	n/a	FR1	2	R1092J
1273.054	4.234	1278607	PROB	4.234	n/a	n/a	-999	12	[2, 3, 3]	8	FR1	2	R1092J
1277.288	3.65	1282840	PROB	3.65	n/a	n/a	-999	12	[1, 8, 3]	12	FR1	2	R1092J
1280.938	3.234	1286490	PROB	3.234	n/a	n/a	-999	12	[5, 8, 8]	21	FR1	2	R1092J
1284.172	8.467	1289724	PROB	8.467	n/a	n/a	-999	12	[8, 5, 7]	20	FR1	2	R1092J
1292.639	2.796	1298191	PROB	2.796	n/a	n/a	-999	12	[8, 7, 2]	17	FR1	2	R1092J
1295.435	0.005	1300987	STOP	n/a	n/a	n/a	-999	12	[-999, -999, -999]	n/a	FR1	2	R1092J
1295.44	1.034	1300992	DISTRACT_END	n/a	n/a	n/a	-999	12	[0, 0, 0]	n/a	FR1	2	R1092J
1296.474	8.156	1302026	REC_START	n/a	n/a	n/a	-999	12	[0, 0, 0]	n/a	FR1	2	R1092J
1304.63	3.361	1310182	REC_WORD	3.361	n/a	SQUARE	-999	12	[0, 0, 0]	n/a	FR1	2	R1092J
1307.991	11.428	1313543	REC_WORD	11.428	n/a	BEAM	-999	12	[0, 0, 0]	n/a	FR1	2	R1092J
1319.419	5.83	1324971	REC_WORD	5.83	n/a	MAT	-999	12	[0, 0, 0]	n/a	FR1	2	R1092J
1325.249	1.239	1330801	REC_WORD	1.239	n/a	CAT	-999	12	[0, 0, 0]	n/a	FR1	2	R1092J
1326.488	4.057	1332040	REC_END	n/a	n/a	n/a	-999	12	[0, 0, 0]	n/a	FR1	2	R1092J
1330.545	0.0	1336097	TRIAL	n/a	n/a	n/a	-999	13	[0, 0, 0]	n/a	FR1	2	R1092J
1330.545	10.428	1336097	COUNTDOWN_START	n/a	n/a	n/a	-999	13	[0, 0, 0]	n/a	FR1	2	R1092J
1340.973	0.007	1346525	COUNTDOWN_END	n/a	n/a	n/a	-999	13	[0, 0, 0]	n/a	FR1	2	R1092J
1340.98	3.632	1346532	ORIENT	n/a	n/a	n/a	-999	13	[0, 0, 0]	n/a	FR1	2	R1092J
1344.612	2.452	1350164	WORD	n/a	wordpools/wordpool_EN.txt	PIE	1	13	[0, 0, 0]	n/a	FR1	2	R1092J
1347.064	2.483	1352616	WORD	n/a	wordpools/wordpool_EN.txt	SWORD	2	13	[0, 0, 0]	n/a	FR1	2	R1092J
1349.547	2.417	1355099	WORD	n/a	wordpools/wordpool_EN.txt	BEE	3	13	[0, 0, 0]	n/a	FR1	2	R1092J
1351.964	2.584	1357516	WORD	n/a	wordpools/wordpool_EN.txt	SLUSH	4	13	[0, 0, 0]	n/a	FR1	2	R1092J
1354.548	2.4	1360099	WORD	n/a	wordpools/wordpool_EN.txt	CALF	5	13	[0, 0, 0]	n/a	FR1	2	R1092J
1356.948	2.501	1362499	WORD	n/a	wordpools/wordpool_EN.txt	STREET	6	13	[0, 0, 0]	n/a	FR1	2	R1092J
1359.449	2.517	1365000	WORD	n/a	wordpools/wordpool_EN.txt	SCHOOL	7	13	[0, 0, 0]	n/a	FR1	2	R1092J
1361.966	2.583	1367517	WORD	n/a	wordpools/wordpool_EN.txt	GUARD	8	13	[0, 0, 0]	n/a	FR1	2	R1092J
1364.549	2.551	1370100	WORD	n/a	wordpools/wordpool_EN.txt	BOARD	9	13	[0, 0, 0]	n/a	FR1	2	R1092J
1367.1	2.417	1372651	WORD	n/a	wordpools/wordpool_EN.txt	SOCK	10	13	[0, 0, 0]	n/a	FR1	2	R1092J
1369.517	2.45	1375068	WORD	n/a	wordpools/wordpool_EN.txt	FOAM	11	13	[0, 0, 0]	n/a	FR1	2	R1092J
1371.967	1.617	1377518	WORD	n/a	wordpools/wordpool_EN.txt	STRING	12	13	[0, 0, 0]	n/a	FR1	2	R1092J
1373.584	0.001	1379135	DISTRACT_START	n/a	n/a	n/a	-999	13	[0, 0, 0]	n/a	FR1	2	R1092J
1373.585	0.015	1379136	START	n/a	n/a	n/a	-999	13	[-999, -999, -999]	n/a	FR1	2	R1092J
1373.6	3.334	1379151	PROB	3.334	n/a	n/a	-999	13	[6, 7, 8]	21	FR1	2	R1092J
1376.934	2.351	1382485	PROB	2.351	n/a	n/a	-999	13	[5, 4, 1]	10	FR1	2	R1092J
1379.285	4.034	1384836	PROB	4.034	n/a	n/a	-999	13	[4, 2, 9]	15	FR1	2	R1092J
1383.319	2.233	1388870	PROB	2.233	n/a	n/a	-999	13	[4, 9, 1]	14	FR1	2	R1092J
1385.552	3.317	1391103	PROB	3.317	n/a	n/a	-999	13	[2, 3, 6]	11	FR1	2	R1092J
1388.869	4.722	1394420	PROB	4.722	n/a	n/a	-999	13	[9, 8, 9]	26	FR1	2	R1092J
1393.591	0.011	1399142	STOP	n/a	n/a	n/a	-999	13	[-999, -999, -999]	n/a	FR1	2	R1092J
1393.602	1.051	1399153	DISTRACT_END	n/a	n/a	n/a	-999	13	[0, 0, 0]	n/a	FR1	2	R1092J
1394.653	1.918	1400204	REC_START	n/a	n/a	n/a	-999	13	[0, 0, 0]	n/a	FR1	2	R1092J
1396.571	2.27	1402122	REC_WORD	2.27	n/a	SCHOOL	7	13	[0, 0, 0]	n/a	FR1	2	R1092J
1398.841	8.588	1404392	REC_WORD	8.588	n/a	BOARD	9	13	[0, 0, 0]	n/a	FR1	2	R1092J
1407.429	4.326	1412980	REC_WORD	4.326	n/a	BEAM	-999	13	[0, 0, 0]	n/a	FR1	2	R1092J
1411.755	3.595	1417306	REC_WORD	3.595	n/a	MOTH	-999	13	[0, 0, 0]	n/a	FR1	2	R1092J
1415.35	2.863	1420901	REC_WORD	2.863	n/a	TOE	-999	13	[0, 0, 0]	n/a	FR1	2	R1092J
1418.213	6.45	1423764	REC_WORD	6.45	n/a	ARM	-999	13	[0, 0, 0]	n/a	FR1	2	R1092J
1424.663	10.246	1430214	REC_END	n/a	n/a	n/a	-999	13	[0, 0, 0]	n/a	FR1	2	R1092J
1434.909	0.0	1440460	COUNTDOWN_START	n/a	n/a	n/a	-999	14	[0, 0, 0]	n/a	FR1	2	R1092J
1434.909	10.428	1440460	TRIAL	n/a	n/a	n/a	-999	14	[0, 0, 0]	n/a	FR1	2	R1092J
1445.337	0.006	1450887	COUNTDOWN_END	n/a	n/a	n/a	-999	14	[0, 0, 0]	n/a	FR1	2	R1092J
1445.343	3.801	1450893	ORIENT	n/a	n/a	n/a	-999	14	[0, 0, 0]	n/a	FR1	2	R1092J
1449.144	2.6	1454694	WORD	n/a	wordpools/wordpool_EN.txt	SLEEVE	1	14	[0, 0, 0]	n/a	FR1	2	R1092J
1451.744	2.501	1457294	WORD	n/a	wordpools/wordpool_EN.txt	CRANE	2	14	[0, 0, 0]	n/a	FR1	2	R1092J
1454.245	2.482	1459795	WORD	n/a	wordpools/wordpool_EN.txt	CAVE	3	14	[0, 0, 0]	n/a	FR1	2	R1092J
1456.727	2.602	1462277	WORD	n/a	wordpools/wordpool_EN.txt	WAND	4	14	[0, 0, 0]	n/a	FR1	2	R1092J
1459.329	2.5	1464879	WORD	n/a	wordpools/wordpool_EN.txt	CORN	5	14	[0, 0, 0]	n/a	FR1	2	R1092J
1461.829	2.433	1467379	WORD	n/a	wordpools/wordpool_EN.txt	JUICE	6	14	[0, 0, 0]	n/a	FR1	2	R1092J
1464.262	2.584	1469812	WORD	n/a	wordpools/wordpool_EN.txt	EAR	7	14	[0, 0, 0]	n/a	FR1	2	R1092J
1466.846	2.501	1472396	WORD	n/a	wordpools/wordpool_EN.txt	SEAT	8	14	[0, 0, 0]	n/a	FR1	2	R1092J
1469.347	2.533	1474897	WORD	n/a	wordpools/wordpool_EN.txt	FARM	9	14	[0, 0, 0]	n/a	FR1	2	R1092J
1471.88	2.518	1477430	WORD	n/a	wordpools/wordpool_EN.txt	GRAPE	10	14	[0, 0, 0]	n/a	FR1	2	R1092J
1474.398	2.533	1479948	WORD	n/a	wordpools/wordpool_EN.txt	COUCH	11	14	[0, 0, 0]	n/a	FR1	2	R1092J
1476.931	1.617	1482481	WORD	n/a	wordpools/wordpool_EN.txt	LOCK	12	14	[0, 0, 0]	n/a	FR1	2	R1092J
1478.548	0.001	1484098	DISTRACT_START	n/a	n/a	n/a	-999	14	[0, 0, 0]	n/a	FR1	2	R1092J
1478.549	0.016	1484099	START	n/a	n/a	n/a	-999	14	[-999, -999, -999]	n/a	FR1	2	R1092J
1478.565	3.817	1484115	PROB	3.817	n/a	n/a	-999	14	[7, 4, 7]	18	FR1	2	R1092J
1482.382	4.201	1487932	PROB	4.201	n/a	n/a	-999	14	[7, 7, 2]	16	FR1	2	R1092J
1486.583	2.683	1492133	PROB	2.683	n/a	n/a	-999	14	[9, 3, 3]	15	FR1	2	R1092J
1489.266	2.084	1494816	PROB	2.084	n/a	n/a	-999	14	[3, 2, 4]	9	FR1	2	R1092J
1491.35	3.349	1496900	PROB	3.349	n/a	n/a	-999	14	[3, 9, 4]	16	FR1	2	R1092J
1494.699	2.084	1500249	PROB	2.084	n/a	n/a	-999	14	[9, 4, 9]	22	FR1	2	R1092J
1496.783	3.509	1502333	PROB	3.509	n/a	n/a	-999	14	[4, 9, 3]	16	FR1	2	R1092J
1500.292	0.009	1505842	STOP	n/a	n/a	n/a	-999	14	[-999, -999, -999]	n/a	FR1	2	R1092J
1500.301	1.051	1505851	DISTRACT_END	n/a	n/a	n/a	-999	14	[0, 0, 0]	n/a	FR1	2	R1092J
1501.352	3.458	1506902	REC_START	n/a	n/a	n/a	-999	14	[0, 0, 0]	n/a	FR1	2	R1092J
1504.81	0.626	1510360	REC_WORD	0.626	n/a	CRANE	2	14	[0, 0, 0]	n/a	FR1	2	R1092J
1505.436	0.698	1510986	REC_WORD_VV	0.698	n/a	<>	-999	14	[0, 0, 0]	n/a	FR1	2	R1092J
1506.134	2.45	1511684	REC_WORD	2.45	n/a	CRANE	2	14	[0, 0, 0]	n/a	FR1	2	R1092J
1508.584	7.916	1514134	REC_WORD	7.916	n/a	ARK	-999	14	[0, 0, 0]	n/a	FR1	2	R1092J
1516.5	7.209	1522049	REC_WORD	7.209	n/a	ANT	-999	14	[0, 0, 0]	n/a	FR1	2	R1092J
1523.709	4.835	1529258	REC_WORD	4.835	n/a	SEA	-999	14	[0, 0, 0]	n/a	FR1	2	R1092J
1528.544	2.818	1534093	REC_WORD	2.818	n/a	CONE	-999	14	[0, 0, 0]	n/a	FR1	2	R1092J
1531.362	5.227	1536911	REC_END	n/a	n/a	n/a	-999	14	[0, 0, 0]	n/a	FR1	2	R1092J
1536.589	0.0	1542138	TRIAL	n/a	n/a	n/a	-999	15	[0, 0, 0]	n/a	FR1	2	R1092J
1536.589	10.428	1542138	COUNTDOWN_START	n/a	n/a	n/a	-999	15	[0, 0, 0]	n/a	FR1	2	R1092J
1547.017	0.007	1552566	COUNTDOWN_END	n/a	n/a	n/a	-999	15	[0, 0, 0]	n/a	FR1	2	R1092J
1547.024	3.583	1552573	ORIENT	n/a	n/a	n/a	-999	15	[0, 0, 0]	n/a	FR1	2	R1092J
1550.607	2.534	1556156	WORD	n/a	wordpools/wordpool_EN.txt	SAIL	1	15	[0, 0, 0]	n/a	FR1	2	R1092J
1553.141	2.483	1558690	WORD	n/a	wordpools/wordpool_EN.txt	CLOTH	2	15	[0, 0, 0]	n/a	FR1	2	R1092J
1555.624	2.501	1561173	WORD	n/a	wordpools/wordpool_EN.txt	HORSE	3	15	[0, 0, 0]	n/a	FR1	2	R1092J
1558.125	2.499	1563674	WORD	n/a	wordpools/wordpool_EN.txt	STONE	4	15	[0, 0, 0]	n/a	FR1	2	R1092J
1560.624	2.419	1566173	WORD	n/a	wordpools/wordpool_EN.txt	THUMB	5	15	[0, 0, 0]	n/a	FR1	2	R1092J
1563.043	2.582	1568592	WORD	n/a	wordpools/wordpool_EN.txt	MOLE	6	15	[0, 0, 0]	n/a	FR1	2	R1092J
1565.625	2.435	1571174	WORD	n/a	wordpools/wordpool_EN.txt	WOLF	7	15	[0, 0, 0]	n/a	FR1	2	R1092J
1568.06	2.566	1573609	WORD	n/a	wordpools/wordpool_EN.txt	PEA	8	15	[0, 0, 0]	n/a	FR1	2	R1092J
1570.626	2.485	1576175	WORD	n/a	wordpools/wordpool_EN.txt	FORT	9	15	[0, 0, 0]	n/a	FR1	2	R1092J
1573.111	2.615	1578660	WORD	n/a	wordpools/wordpool_EN.txt	ROOT	10	15	[0, 0, 0]	n/a	FR1	2	R1092J
1575.726	2.535	1581275	WORD	n/a	wordpools/wordpool_EN.txt	WHEEL	11	15	[0, 0, 0]	n/a	FR1	2	R1092J
1578.261	1.617	1583810	WORD	n/a	wordpools/wordpool_EN.txt	CLOWN	12	15	[0, 0, 0]	n/a	FR1	2	R1092J
1579.878	0.0	1585427	DISTRACT_START	n/a	n/a	n/a	-999	15	[0, 0, 0]	n/a	FR1	2	R1092J
1579.878	0.017	1585427	START	n/a	n/a	n/a	-999	15	[-999, -999, -999]	n/a	FR1	2	R1092J
1579.895	3.334	1585444	PROB	3.334	n/a	n/a	-999	15	[3, 6, 1]	10	FR1	2	R1092J
1583.229	2.283	1588778	PROB	2.283	n/a	n/a	-999	15	[7, 5, 6]	18	FR1	2	R1092J
1585.512	2.034	1591061	PROB	2.034	n/a	n/a	-999	15	[9, 1, 3]	13	FR1	2	R1092J
1587.546	3.867	1593095	PROB	3.867	n/a	n/a	-999	15	[3, 1, 9]	13	FR1	2	R1092J
1591.413	2.8	1596962	PROB	2.8	n/a	n/a	-999	15	[6, 5, 2]	13	FR1	2	R1092J
1594.213	4.483	1599762	PROB	4.483	n/a	n/a	-999	15	[3, 8, 3]	14	FR1	2	R1092J
1598.696	3.2	1604244	PROB	3.2	n/a	n/a	-999	15	[6, 8, 9]	23	FR1	2	R1092J
1601.896	0.019	1607444	STOP	n/a	n/a	n/a	-999	15	[-999, -999, -999]	n/a	FR1	2	R1092J
1601.915	1.134	1607463	DISTRACT_END	n/a	n/a	n/a	-999	15	[0, 0, 0]	n/a	FR1	2	R1092J
1603.049	3.245	1608597	REC_START	n/a	n/a	n/a	-999	15	[0, 0, 0]	n/a	FR1	2	R1092J
1606.294	1.705	1611842	REC_WORD	1.705	n/a	CLOTH	2	15	[0, 0, 0]	n/a	FR1	2	R1092J
1607.999	4.201	1613547	REC_WORD	4.201	n/a	SAIL	1	15	[0, 0, 0]	n/a	FR1	2	R1092J
1612.2	3.475	1617748	REC_WORD	3.475	n/a	ROOT	10	15	[0, 0, 0]	n/a	FR1	2	R1092J
1615.675	9.434	1621223	REC_WORD	9.434	n/a	ARK	-999	15	[0, 0, 0]	n/a	FR1	2	R1092J
1625.109	2.977	1630657	REC_WORD	2.977	n/a	CRUISE	-999	15	[0, 0, 0]	n/a	FR1	2	R1092J
1628.086	4.206	1633634	REC_WORD	4.206	n/a	ARM	-999	15	[0, 0, 0]	n/a	FR1	2	R1092J
1632.292	0.767	1637840	REC_WORD	0.767	n/a	FINGER	-999	15	[0, 0, 0]	n/a	FR1	2	R1092J
1633.059	3.793	1638607	REC_END	n/a	n/a	n/a	-999	15	[0, 0, 0]	n/a	FR1	2	R1092J
1636.852	0.0	1642400	COUNTDOWN_START	n/a	n/a	n/a	-999	16	[0, 0, 0]	n/a	FR1	2	R1092J
1636.852	10.428	1642400	TRIAL	n/a	n/a	n/a	-999	16	[0, 0, 0]	n/a	FR1	2	R1092J
1647.28	0.007	1652828	COUNTDOWN_END	n/a	n/a	n/a	-999	16	[0, 0, 0]	n/a	FR1	2	R1092J
1647.287	3.634	1652835	ORIENT	n/a	n/a	n/a	-999	16	[0, 0, 0]	n/a	FR1	2	R1092J
1650.921	2.434	1656469	WORD	n/a	wordpools/wordpool_EN.txt	PHONE	1	16	[0, 0, 0]	n/a	FR1	2	R1092J
1653.355	2.617	1658903	WORD	n/a	wordpools/wordpool_EN.txt	TRASH	2	16	[0, 0, 0]	n/a	FR1	2	R1092J
1655.972	2.583	1661520	WORD	n/a	wordpools/wordpool_EN.txt	WEED	3	16	[0, 0, 0]	n/a	FR1	2	R1092J
1658.555	2.584	1664103	WORD	n/a	wordpools/wordpool_EN.txt	POLE	4	16	[0, 0, 0]	n/a	FR1	2	R1092J
1661.139	2.616	1666687	WORD	n/a	wordpools/wordpool_EN.txt	STORE	5	16	[0, 0, 0]	n/a	FR1	2	R1092J
1663.755	2.485	1669303	WORD	n/a	wordpools/wordpool_EN.txt	BOY	6	16	[0, 0, 0]	n/a	FR1	2	R1092J
1666.24	2.617	1671788	WORD	n/a	wordpools/wordpool_EN.txt	PANTS	7	16	[0, 0, 0]	n/a	FR1	2	R1092J
1668.857	2.4	1674405	WORD	n/a	wordpools/wordpool_EN.txt	PLANT	8	16	[0, 0, 0]	n/a	FR1	2	R1092J
1671.257	2.6	1676805	WORD	n/a	wordpools/wordpool_EN.txt	WALL	9	16	[0, 0, 0]	n/a	FR1	2	R1092J
1673.857	2.501	1679405	WORD	n/a	wordpools/wordpool_EN.txt	SHIELD	10	16	[0, 0, 0]	n/a	FR1	2	R1092J
1676.358	2.55	1681906	WORD	n/a	wordpools/wordpool_EN.txt	OWL	11	16	[0, 0, 0]	n/a	FR1	2	R1092J
1678.908	1.617	1684455	WORD	n/a	wordpools/wordpool_EN.txt	PEARL	12	16	[0, 0, 0]	n/a	FR1	2	R1092J
1680.525	0.001	1686072	DISTRACT_START	n/a	n/a	n/a	-999	16	[0, 0, 0]	n/a	FR1	2	R1092J
1680.526	0.016	1686073	START	n/a	n/a	n/a	-999	16	[-999, -999, -999]	n/a	FR1	2	R1092J
1680.542	3.333	1686089	PROB	3.333	n/a	n/a	-999	16	[1, 1, 3]	5	FR1	2	R1092J
1683.875	6.051	1689422	PROB	6.051	n/a	n/a	-999	16	[9, 7, 4]	20	FR1	2	R1092J
1689.926	2.301	1695473	PROB	2.301	n/a	n/a	-999	16	[3, 2, 4]	9	FR1	2	R1092J
1692.227	3.283	1697774	PROB	3.283	n/a	n/a	-999	16	[7, 2, 9]	18	FR1	2	R1092J
1695.51	3.216	1701057	PROB	3.216	n/a	n/a	-999	16	[2, 8, 8]	18	FR1	2	R1092J
1698.726	3.167	1704273	PROB	3.167	n/a	n/a	-999	16	[8, 6, 1]	15	FR1	2	R1092J
1701.893	0.018	1707440	STOP	n/a	n/a	n/a	-999	16	[-999, -999, -999]	n/a	FR1	2	R1092J
1701.911	1.184	1707458	DISTRACT_END	n/a	n/a	n/a	-999	16	[0, 0, 0]	n/a	FR1	2	R1092J
1703.095	7.186	1708642	REC_START	n/a	n/a	n/a	-999	16	[0, 0, 0]	n/a	FR1	2	R1092J
1710.281	2.548	1715828	REC_WORD	2.548	n/a	STAIR	-999	16	[0, 0, 0]	n/a	FR1	2	R1092J
1712.829	2.69	1718376	REC_WORD	2.69	n/a	ARM	-999	16	[0, 0, 0]	n/a	FR1	2	R1092J
1715.519	2.967	1721066	REC_WORD	2.967	n/a	WEED	3	16	[0, 0, 0]	n/a	FR1	2	R1092J
1718.486	5.405	1724033	REC_WORD	5.405	n/a	SUIT	-999	16	[0, 0, 0]	n/a	FR1	2	R1092J
1723.891	2.586	1729438	REC_WORD	2.586	n/a	ARK	-999	16	[0, 0, 0]	n/a	FR1	2	R1092J
1726.477	4.525	1732024	REC_WORD	4.525	n/a	STORE	5	16	[0, 0, 0]	n/a	FR1	2	R1092J
1731.002	2.109	1736549	REC_WORD	2.109	n/a	MAT	-999	16	[0, 0, 0]	n/a	FR1	2	R1092J
1733.111	3.972	1738658	REC_END	n/a	n/a	n/a	-999	16	[0, 0, 0]	n/a	FR1	2	R1092J
1737.083	0.0	1742630	TRIAL	n/a	n/a	n/a	-999	17	[0, 0, 0]	n/a	FR1	2	R1092J
1737.083	10.428	1742630	COUNTDOWN_START	n/a	n/a	n/a	-999	17	[0, 0, 0]	n/a	FR1	2	R1092J
1747.511	0.006	1753058	COUNTDOWN_END	n/a	n/a	n/a	-999	17	[0, 0, 0]	n/a	FR1	2	R1092J
1747.517	3.518	1753064	ORIENT	n/a	n/a	n/a	-999	17	[0, 0, 0]	n/a	FR1	2	R1092J
1751.035	2.45	1756582	WORD	n/a	wordpools/wordpool_EN.txt	FENCE	1	17	[0, 0, 0]	n/a	FR1	2	R1092J
1753.485	2.617	1759032	WORD	n/a	wordpools/wordpool_EN.txt	VASE	2	17	[0, 0, 0]	n/a	FR1	2	R1092J
1756.102	2.549	1761649	WORD	n/a	wordpools/wordpool_EN.txt	MOUSE	3	17	[0, 0, 0]	n/a	FR1	2	R1092J
1758.651	2.568	1764197	WORD	n/a	wordpools/wordpool_EN.txt	SHOE	4	17	[0, 0, 0]	n/a	FR1	2	R1092J
1761.219	2.599	1766765	WORD	n/a	wordpools/wordpool_EN.txt	ROOF	5	17	[0, 0, 0]	n/a	FR1	2	R1092J
1763.818	2.402	1769364	WORD	n/a	wordpools/wordpool_EN.txt	SIGN	6	17	[0, 0, 0]	n/a	FR1	2	R1092J
1766.22	2.549	1771766	WORD	n/a	wordpools/wordpool_EN.txt	PIT	7	17	[0, 0, 0]	n/a	FR1	2	R1092J
1768.769	2.401	1774315	WORD	n/a	wordpools/wordpool_EN.txt	MILK	8	17	[0, 0, 0]	n/a	FR1	2	R1092J
1771.17	2.45	1776716	WORD	n/a	wordpools/wordpool_EN.txt	BLUSH	9	17	[0, 0, 0]	n/a	FR1	2	R1092J
1773.62	2.601	1779166	WORD	n/a	wordpools/wordpool_EN.txt	FLAME	10	17	[0, 0, 0]	n/a	FR1	2	R1092J
1776.221	2.483	1781767	WORD	n/a	wordpools/wordpool_EN.txt	AXE	11	17	[0, 0, 0]	n/a	FR1	2	R1092J
1778.704	1.618	1784250	WORD	n/a	wordpools/wordpool_EN.txt	CART	12	17	[0, 0, 0]	n/a	FR1	2	R1092J
1780.322	0.001	1785868	DISTRACT_START	n/a	n/a	n/a	-999	17	[0, 0, 0]	n/a	FR1	2	R1092J
1780.323	0.016	1785869	START	n/a	n/a	n/a	-999	17	[-999, -999, -999]	n/a	FR1	2	R1092J
1780.339	3.65	1785885	PROB	3.65	n/a	n/a	-999	17	[9, 4, 2]	15	FR1	2	R1092J
1783.989	2.3	1789535	PROB	2.3	n/a	n/a	-999	17	[5, 3, 2]	10	FR1	2	R1092J
1786.289	2.251	1791835	PROB	2.251	n/a	n/a	-999	17	[5, 7, 3]	15	FR1	2	R1092J
1788.54	2.149	1794086	PROB	2.149	n/a	n/a	-999	17	[2, 4, 2]	8	FR1	2	R1092J
1790.689	1.868	1796235	PROB	1.868	n/a	n/a	-999	17	[6, 4, 2]	12	FR1	2	R1092J
1792.557	2.283	1798103	PROB	2.283	n/a	n/a	-999	17	[3, 1, 8]	12	FR1	2	R1092J
1794.84	3.301	1800386	PROB	3.301	n/a	n/a	-999	17	[2, 4, 7]	13	FR1	2	R1092J
1798.141	2.428	1803687	PROB	2.428	n/a	n/a	-999	17	[7, 6, 2]	15	FR1	2	R1092J
1800.569	0.006	1806115	STOP	n/a	n/a	n/a	-999	17	[-999, -999, -999]	n/a	FR1	2	R1092J
1800.575	1.099	1806121	DISTRACT_END	n/a	n/a	n/a	-999	17	[0, 0, 0]	n/a	FR1	2	R1092J
1801.674	2.199	1807220	REC_START	n/a	n/a	n/a	-999	17	[0, 0, 0]	n/a	FR1	2	R1092J
1803.873	2.048	1809419	REC_WORD	2.048	n/a	STORE	-999	17	[0, 0, 0]	n/a	FR1	2	R1092J
1805.921	7.146	1811467	REC_WORD	7.146	n/a	FLAME	10	17	[0, 0, 0]	n/a	FR1	2	R1092J
1813.067	3.729	1818613	REC_WORD	3.729	n/a	GUIDE	-999	17	[0, 0, 0]	n/a	FR1	2	R1092J
1816.796	4.321	1822342	REC_WORD	4.321	n/a	ARK	-999	17	[0, 0, 0]	n/a	FR1	2	R1092J
1821.117	4.271	1826663	REC_WORD	4.271	n/a	CHIME	-999	17	[0, 0, 0]	n/a	FR1	2	R1092J
1825.388	3.281	1830934	REC_WORD	3.281	n/a	MAT	-999	17	[0, 0, 0]	n/a	FR1	2	R1092J
1828.669	3.023	1834215	REC_WORD	3.023	n/a	HOSE	-999	17	[0, 0, 0]	n/a	FR1	2	R1092J
1831.692	4.87	1837238	REC_END	n/a	n/a	n/a	-999	17	[0, 0, 0]	n/a	FR1	2	R1092J
1836.562	0.0	1842108	TRIAL	n/a	n/a	n/a	-999	18	[0, 0, 0]	n/a	FR1	2	R1092J
1836.562	10.428	1842108	COUNTDOWN_START	n/a	n/a	n/a	-999	18	[0, 0, 0]	n/a	FR1	2	R1092J
1846.99	0.007	1852535	COUNTDOWN_END	n/a	n/a	n/a	-999	18	[0, 0, 0]	n/a	FR1	2	R1092J
1846.997	3.584	1852542	ORIENT	n/a	n/a	n/a	-999	18	[0, 0, 0]	n/a	FR1	2	R1092J
1850.581	2.384	1856126	WORD	n/a	wordpools/wordpool_EN.txt	SEA	1	18	[0, 0, 0]	n/a	FR1	2	R1092J
1852.965	2.383	1858510	WORD	n/a	wordpools/wordpool_EN.txt	TANK	2	18	[0, 0, 0]	n/a	FR1	2	R1092J
1855.348	2.433	1860893	WORD	n/a	wordpools/wordpool_EN.txt	CROWN	3	18	[0, 0, 0]	n/a	FR1	2	R1092J
1857.781	2.501	1863326	WORD	n/a	wordpools/wordpool_EN.txt	DOOR	4	18	[0, 0, 0]	n/a	FR1	2	R1092J
1860.282	2.617	1865827	WORD	n/a	wordpools/wordpool_EN.txt	STEAK	5	18	[0, 0, 0]	n/a	FR1	2	R1092J
1862.899	2.45	1868444	WORD	n/a	wordpools/wordpool_EN.txt	LEAF	6	18	[0, 0, 0]	n/a	FR1	2	R1092J
1865.349	2.617	1870894	WORD	n/a	wordpools/wordpool_EN.txt	CAT	7	18	[0, 0, 0]	n/a	FR1	2	R1092J
1867.966	2.584	1873511	WORD	n/a	wordpools/wordpool_EN.txt	TRAIN	8	18	[0, 0, 0]	n/a	FR1	2	R1092J
1870.55	2.434	1876095	WORD	n/a	wordpools/wordpool_EN.txt	PASTE	9	18	[0, 0, 0]	n/a	FR1	2	R1092J
1872.984	2.4	1878529	WORD	n/a	wordpools/wordpool_EN.txt	TOAST	10	18	[0, 0, 0]	n/a	FR1	2	R1092J
1875.384	2.6	1880929	WORD	n/a	wordpools/wordpool_EN.txt	OAR	11	18	[0, 0, 0]	n/a	FR1	2	R1092J
1877.984	1.616	1883529	WORD	n/a	wordpools/wordpool_EN.txt	DOCK	12	18	[0, 0, 0]	n/a	FR1	2	R1092J
1879.6	0.001	1885145	DISTRACT_START	n/a	n/a	n/a	-999	18	[0, 0, 0]	n/a	FR1	2	R1092J
1879.601	0.016	1885146	START	n/a	n/a	n/a	-999	18	[-999, -999, -999]	n/a	FR1	2	R1092J
1879.617	3.568	1885162	PROB	3.568	n/a	n/a	-999	18	[7, 4, 4]	15	FR1	2	R1092J
1883.185	3.884	1888730	PROB	3.884	n/a	n/a	-999	18	[3, 8, 3]	14	FR1	2	R1092J
1887.069	3.334	1892614	PROB	3.334	n/a	n/a	-999	18	[7, 6, 6]	19	FR1	2	R1092J
1890.403	2.5	1895948	PROB	2.5	n/a	n/a	-999	18	[6, 8, 5]	19	FR1	2	R1092J
1892.903	1.882	1898448	PROB	1.882	n/a	n/a	-999	18	[2, 2, 2]	6	FR1	2	R1092J
1894.785	2.702	1900330	PROB	2.702	n/a	n/a	-999	18	[9, 5, 7]	21	FR1	2	R1092J
1897.487	2.173	1903032	PROB	2.173	n/a	n/a	-999	18	[7, 5, 5]	17	FR1	2	R1092J
1899.66	0.01	1905205	STOP	n/a	n/a	n/a	-999	18	[-999, -999, -999]	n/a	FR1	2	R1092J
1899.67	1.117	1905215	DISTRACT_END	n/a	n/a	n/a	-999	18	[0, 0, 0]	n/a	FR1	2	R1092J
1900.787	4.381	1906332	REC_START	n/a	n/a	n/a	-999	18	[0, 0, 0]	n/a	FR1	2	R1092J
1905.168	1.997	1910713	REC_WORD	1.997	n/a	STORE	-999	18	[0, 0, 0]	n/a	FR1	2	R1092J
1907.165	2.259	1912710	REC_WORD	2.259	n/a	CROWN	3	18	[0, 0, 0]	n/a	FR1	2	R1092J
1909.424	2.519	1914969	REC_WORD	2.519	n/a	LEAF	6	18	[0, 0, 0]	n/a	FR1	2	R1092J
1911.943	4.773	1917488	REC_WORD	4.773	n/a	OAR	11	18	[0, 0, 0]	n/a	FR1	2	R1092J
1916.716	7.409	1922261	REC_WORD	7.409	n/a	ARK	-999	18	[0, 0, 0]	n/a	FR1	2	R1092J
1924.125	1.221	1929669	REC_WORD	1.221	n/a	CARD	-999	18	[0, 0, 0]	n/a	FR1	2	R1092J
1925.346	1.625	1930890	REC_WORD	1.625	n/a	CHAIR	-999	18	[0, 0, 0]	n/a	FR1	2	R1092J
1926.971	3.828	1932515	REC_WORD	3.828	n/a	DOOR	4	18	[0, 0, 0]	n/a	FR1	2	R1092J
1930.799	5.693	1936343	REC_END	n/a	n/a	n/a	-999	18	[0, 0, 0]	n/a	FR1	2	R1092J
1936.492	0.0	1942036	TRIAL	n/a	n/a	n/a	-999	19	[0, 0, 0]	n/a	FR1	2	R1092J
1936.492	10.428	1942036	COUNTDOWN_START	n/a	n/a	n/a	-999	19	[0, 0, 0]	n/a	FR1	2	R1092J
1946.92	0.007	1952464	COUNTDOWN_END	n/a	n/a	n/a	-999	19	[0, 0, 0]	n/a	FR1	2	R1092J
1946.927	3.849	1952471	ORIENT	n/a	n/a	n/a	-999	19	[0, 0, 0]	n/a	FR1	2	R1092J
1950.776	2.451	1956320	WORD	n/a	wordpools/wordpool_EN.txt	WORM	1	19	[0, 0, 0]	n/a	FR1	2	R1092J
1953.227	2.4	1958771	WORD	n/a	wordpools/wordpool_EN.txt	NOSE	2	19	[0, 0, 0]	n/a	FR1	2	R1092J
1955.627	2.568	1961171	WORD	n/a	wordpools/wordpool_EN.txt	SHARK	3	19	[0, 0, 0]	n/a	FR1	2	R1092J
1958.195	2.549	1963739	WORD	n/a	wordpools/wordpool_EN.txt	FACE	4	19	[0, 0, 0]	n/a	FR1	2	R1092J
1960.744	2.519	1966288	WORD	n/a	wordpools/wordpool_EN.txt	BOWL	5	19	[0, 0, 0]	n/a	FR1	2	R1092J
1963.263	2.382	1968807	WORD	n/a	wordpools/wordpool_EN.txt	LEG	6	19	[0, 0, 0]	n/a	FR1	2	R1092J
1965.645	2.618	1971189	WORD	n/a	wordpools/wordpool_EN.txt	BENCH	7	19	[0, 0, 0]	n/a	FR1	2	R1092J
1968.263	2.416	1973807	WORD	n/a	wordpools/wordpool_EN.txt	FOOD	8	19	[0, 0, 0]	n/a	FR1	2	R1092J
1970.679	2.585	1976223	WORD	n/a	wordpools/wordpool_EN.txt	GLASS	9	19	[0, 0, 0]	n/a	FR1	2	R1092J
1973.264	2.6	1978808	WORD	n/a	wordpools/wordpool_EN.txt	HILL	10	19	[0, 0, 0]	n/a	FR1	2	R1092J
1975.864	2.55	1981408	WORD	n/a	wordpools/wordpool_EN.txt	BED	11	19	[0, 0, 0]	n/a	FR1	2	R1092J
1978.414	1.617	1983958	WORD	n/a	wordpools/wordpool_EN.txt	MUD	12	19	[0, 0, 0]	n/a	FR1	2	R1092J
1980.031	0.001	1985575	DISTRACT_START	n/a	n/a	n/a	-999	19	[0, 0, 0]	n/a	FR1	2	R1092J
1980.032	0.016	1985576	START	n/a	n/a	n/a	-999	19	[-999, -999, -999]	n/a	FR1	2	R1092J
1980.048	3.8	1985592	PROB	3.8	n/a	n/a	-999	19	[3, 1, 8]	12	FR1	2	R1092J
1983.848	2.167	1989392	PROB	2.167	n/a	n/a	-999	19	[7, 7, 1]	15	FR1	2	R1092J
1986.015	3.067	1991559	PROB	3.067	n/a	n/a	-999	19	[2, 9, 9]	20	FR1	2	R1092J
1989.082	1.817	1994626	PROB	1.817	n/a	n/a	-999	19	[5, 5, 5]	15	FR1	2	R1092J
1990.899	2.551	1996443	PROB	2.551	n/a	n/a	-999	19	[4, 5, 1]	10	FR1	2	R1092J
1993.45	3.383	1998994	PROB	3.383	n/a	n/a	-999	19	[4, 7, 9]	20	FR1	2	R1092J
1996.833	2.384	2002377	PROB	2.384	n/a	n/a	-999	19	[8, 4, 3]	16	FR1	2	R1092J
1999.217	2.391	2004761	PROB	2.391	n/a	n/a	-999	19	[1, 5, 7]	13	FR1	2	R1092J
2001.608	0.008	2007151	STOP	n/a	n/a	n/a	-999	19	[-999, -999, -999]	n/a	FR1	2	R1092J
2001.616	1.068	2007159	DISTRACT_END	n/a	n/a	n/a	-999	19	[0, 0, 0]	n/a	FR1	2	R1092J
2002.684	2.34	2008227	REC_START	n/a	n/a	n/a	-999	19	[0, 0, 0]	n/a	FR1	2	R1092J
2005.024	1.084	2010567	REC_WORD	1.084	n/a	SHARK	3	19	[0, 0, 0]	n/a	FR1	2	R1092J
2006.108	3.032	2011651	REC_WORD	3.032	n/a	FOOD	8	19	[0, 0, 0]	n/a	FR1	2	R1092J
2009.14	4.858	2014683	REC_WORD	4.858	n/a	VASE	-999	19	[0, 0, 0]	n/a	FR1	2	R1092J
2013.998	2.563	2019541	REC_WORD	2.563	n/a	BENCH	7	19	[0, 0, 0]	n/a	FR1	2	R1092J
2016.561	10.241	2022104	REC_WORD	10.241	n/a	STAIR	-999	19	[0, 0, 0]	n/a	FR1	2	R1092J
2026.802	1.436	2032345	REC_WORD	1.436	n/a	OAK	-999	19	[0, 0, 0]	n/a	FR1	2	R1092J
2028.238	1.656	2033781	REC_WORD	1.656	n/a	AIR	-999	19	[0, 0, 0]	n/a	FR1	2	R1092J
2029.894	2.802	2035437	REC_WORD	2.802	n/a	ART	-999	19	[0, 0, 0]	n/a	FR1	2	R1092J
2032.696	4.643	2038239	REC_END	n/a	n/a	n/a	-999	19	[0, 0, 0]	n/a	FR1	2	R1092J
2037.339	0.0	2042882	TRIAL	n/a	n/a	n/a	-999	20	[0, 0, 0]	n/a	FR1	2	R1092J
2037.339	10.428	2042882	COUNTDOWN_START	n/a	n/a	n/a	-999	20	[0, 0, 0]	n/a	FR1	2	R1092J
2047.767	0.006	2053310	COUNTDOWN_END	n/a	n/a	n/a	-999	20	[0, 0, 0]	n/a	FR1	2	R1092J
2047.773	3.518	2053316	ORIENT	n/a	n/a	n/a	-999	20	[0, 0, 0]	n/a	FR1	2	R1092J
2051.291	2.515	2056834	WORD	n/a	wordpools/wordpool_EN.txt	RUG	1	20	[0, 0, 0]	n/a	FR1	2	R1092J
2053.806	2.485	2059349	WORD	n/a	wordpools/wordpool_EN.txt	STORM	2	20	[0, 0, 0]	n/a	FR1	2	R1092J
2056.291	2.483	2061834	WORD	n/a	wordpools/wordpool_EN.txt	INK	3	20	[0, 0, 0]	n/a	FR1	2	R1092J
2058.774	2.568	2064317	WORD	n/a	wordpools/wordpool_EN.txt	CLOCK	4	20	[0, 0, 0]	n/a	FR1	2	R1092J
2061.342	2.567	2066885	WORD	n/a	wordpools/wordpool_EN.txt	LAND	5	20	[0, 0, 0]	n/a	FR1	2	R1092J
2063.909	2.5	2069452	WORD	n/a	wordpools/wordpool_EN.txt	BIRD	6	20	[0, 0, 0]	n/a	FR1	2	R1092J
2066.409	2.467	2071952	WORD	n/a	wordpools/wordpool_EN.txt	EEL	7	20	[0, 0, 0]	n/a	FR1	2	R1092J
2068.876	2.601	2074419	WORD	n/a	wordpools/wordpool_EN.txt	SKY	8	20	[0, 0, 0]	n/a	FR1	2	R1092J
2071.477	2.55	2077020	WORD	n/a	wordpools/wordpool_EN.txt	TOOTH	9	20	[0, 0, 0]	n/a	FR1	2	R1092J
2074.027	2.599	2079570	WORD	n/a	wordpools/wordpool_EN.txt	DOG	10	20	[0, 0, 0]	n/a	FR1	2	R1092J
2076.626	2.419	2082169	WORD	n/a	wordpools/wordpool_EN.txt	NET	11	20	[0, 0, 0]	n/a	FR1	2	R1092J
2079.045	1.616	2084588	WORD	n/a	wordpools/wordpool_EN.txt	ICE	12	20	[0, 0, 0]	n/a	FR1	2	R1092J
2080.661	0.0	2086204	DISTRACT_START	n/a	n/a	n/a	-999	20	[0, 0, 0]	n/a	FR1	2	R1092J
2080.661	0.016	2086204	START	n/a	n/a	n/a	-999	20	[-999, -999, -999]	n/a	FR1	2	R1092J
2080.677	3.435	2086220	PROB	3.435	n/a	n/a	-999	20	[5, 9, 9]	23	FR1	2	R1092J
2084.112	2.717	2089654	PROB	2.717	n/a	n/a	-999	20	[1, 3, 2]	6	FR1	2	R1092J
2086.829	2.384	2092371	PROB	2.384	n/a	n/a	-999	20	[8, 2, 1]	11	FR1	2	R1092J
2089.213	5.3	2094755	PROB	5.3	n/a	n/a	-999	20	[7, 8, 5]	20	FR1	2	R1092J
2094.513	2.784	2100055	PROB	2.784	n/a	n/a	-999	20	[7, 8, 5]	20	FR1	2	R1092J
2097.297	2.884	2102839	PROB	2.884	n/a	n/a	-999	20	[1, 6, 8]	15	FR1	2	R1092J
2100.181	4.439	2105723	PROB	4.439	n/a	n/a	-999	20	[4, 9, 7]	20	FR1	2	R1092J
2104.62	0.01	2110162	STOP	n/a	n/a	n/a	-999	20	[-999, -999, -999]	n/a	FR1	2	R1092J
2104.63	1.219	2110172	DISTRACT_END	n/a	n/a	n/a	-999	20	[0, 0, 0]	n/a	FR1	2	R1092J
2105.849	2.443	2111391	REC_START	n/a	n/a	n/a	-999	20	[0, 0, 0]	n/a	FR1	2	R1092J
2108.292	1.92	2113834	REC_WORD	1.92	n/a	DOG	10	20	[0, 0, 0]	n/a	FR1	2	R1092J
2110.212	7.462	2115754	REC_WORD	7.462	n/a	TOOTH	9	20	[0, 0, 0]	n/a	FR1	2	R1092J
2117.674	2.157	2123216	REC_WORD	2.157	n/a	AIR	-999	20	[0, 0, 0]	n/a	FR1	2	R1092J
2119.831	2.453	2125373	REC_WORD	2.453	n/a	CHIME	-999	20	[0, 0, 0]	n/a	FR1	2	R1092J
2122.284	8.748	2127826	REC_WORD	8.748	n/a	STAIR	-999	20	[0, 0, 0]	n/a	FR1	2	R1092J
2131.032	2.272	2136574	REC_WORD	2.272	n/a	CAR	-999	20	[0, 0, 0]	n/a	FR1	2	R1092J
2133.304	2.556	2138846	REC_WORD	2.556	n/a	MAT	-999	20	[0, 0, 0]	n/a	FR1	2	R1092J
2135.86	3.242	2141402	REC_END	n/a	n/a	n/a	-999	20	[0, 0, 0]	n/a	FR1	2	R1092J
2139.102	0.0	2144644	COUNTDOWN_START	n/a	n/a	n/a	-999	21	[0, 0, 0]	n/a	FR1	2	R1092J
2139.102	10.428	2144644	TRIAL	n/a	n/a	n/a	-999	21	[0, 0, 0]	n/a	FR1	2	R1092J
2149.53	0.007	2155072	COUNTDOWN_END	n/a	n/a	n/a	-999	21	[0, 0, 0]	n/a	FR1	2	R1092J
2149.537	3.551	2155079	ORIENT	n/a	n/a	n/a	-999	21	[0, 0, 0]	n/a	FR1	2	R1092J
2153.088	2.416	2158630	WORD	n/a	wordpools/wordpool_EN.txt	BAG	1	21	[0, 0, 0]	n/a	FR1	2	R1092J
2155.504	2.401	2161046	WORD	n/a	wordpools/wordpool_EN.txt	BRANCH	2	21	[0, 0, 0]	n/a	FR1	2	R1092J
2157.905	2.484	2163447	WORD	n/a	wordpools/wordpool_EN.txt	SHEET	3	21	[0, 0, 0]	n/a	FR1	2	R1092J
2160.389	2.55	2165931	WORD	n/a	wordpools/wordpool_EN.txt	SOAP	4	21	[0, 0, 0]	n/a	FR1	2	R1092J
2162.939	2.517	2168480	WORD	n/a	wordpools/wordpool_EN.txt	JEEP	5	21	[0, 0, 0]	n/a	FR1	2	R1092J
2165.456	2.583	2170997	WORD	n/a	wordpools/wordpool_EN.txt	DRUM	6	21	[0, 0, 0]	n/a	FR1	2	R1092J
2168.039	2.583	2173580	WORD	n/a	wordpools/wordpool_EN.txt	OAK	7	21	[0, 0, 0]	n/a	FR1	2	R1092J
2170.622	2.452	2176163	WORD	n/a	wordpools/wordpool_EN.txt	SLIME	8	21	[0, 0, 0]	n/a	FR1	2	R1092J
2173.074	2.565	2178615	WORD	n/a	wordpools/wordpool_EN.txt	SHIRT	9	21	[0, 0, 0]	n/a	FR1	2	R1092J
2175.639	2.452	2181180	WORD	n/a	wordpools/wordpool_EN.txt	GOLD	10	21	[0, 0, 0]	n/a	FR1	2	R1092J
2178.091	2.516	2183632	WORD	n/a	wordpools/wordpool_EN.txt	STEAM	11	21	[0, 0, 0]	n/a	FR1	2	R1092J
2180.607	1.618	2186148	WORD	n/a	wordpools/wordpool_EN.txt	RAKE	12	21	[0, 0, 0]	n/a	FR1	2	R1092J
2182.225	0.0	2187766	DISTRACT_START	n/a	n/a	n/a	-999	21	[0, 0, 0]	n/a	FR1	2	R1092J
2182.225	0.016	2187766	START	n/a	n/a	n/a	-999	21	[-999, -999, -999]	n/a	FR1	2	R1092J
2182.241	3.734	2187782	PROB	3.734	n/a	n/a	-999	21	[5, 2, 8]	15	FR1	2	R1092J
2185.975	2.334	2191516	PROB	2.334	n/a	n/a	-999	21	[1, 9, 2]	12	FR1	2	R1092J
2188.309	2.917	2193850	PROB	2.917	n/a	n/a	-999	21	[4, 6, 8]	18	FR1	2	R1092J
2191.226	1.984	2196767	PROB	1.984	n/a	n/a	-999	21	[5, 4, 2]	11	FR1	2	R1092J
2193.21	5.0	2198751	PROB	5.0	n/a	n/a	-999	21	[6, 5, 8]	19	FR1	2	R1092J
2198.21	4.369	2203751	PROB	4.369	n/a	n/a	-999	21	[5, 1, 9]	15	FR1	2	R1092J
2202.579	0.014	2208120	STOP	n/a	n/a	n/a	-999	21	[-999, -999, -999]	n/a	FR1	2	R1092J
2202.593	1.134	2208134	DISTRACT_END	n/a	n/a	n/a	-999	21	[0, 0, 0]	n/a	FR1	2	R1092J
2203.727	2.512	2209268	REC_START	n/a	n/a	n/a	-999	21	[0, 0, 0]	n/a	FR1	2	R1092J
2206.239	2.665	2211780	REC_WORD	2.665	n/a	STEAM	11	21	[0, 0, 0]	n/a	FR1	2	R1092J
2208.904	2.241	2214445	REC_WORD	2.241	n/a	ARK	-999	21	[0, 0, 0]	n/a	FR1	2	R1092J
2211.145	4.09	2216686	REC_WORD	4.09	n/a	BEAM	-999	21	[0, 0, 0]	n/a	FR1	2	R1092J
2215.235	3.208	2220776	REC_WORD	3.208	n/a	FLOOD	-999	21	[0, 0, 0]	n/a	FR1	2	R1092J
2218.443	4.441	2223984	REC_WORD	4.441	n/a	SKY	-999	21	[0, 0, 0]	n/a	FR1	2	R1092J
2222.884	6.117	2228425	REC_WORD	6.117	n/a	CHAIR	-999	21	[0, 0, 0]	n/a	FR1	2	R1092J
2229.001	3.443	2234542	REC_WORD	3.443	n/a	DOG	-999	21	[0, 0, 0]	n/a	FR1	2	R1092J
2232.444	1.3	2237985	REC_WORD	1.3	n/a	CAT	-999	21	[0, 0, 0]	n/a	FR1	2	R1092J
2233.744	3.505	2239285	REC_END	n/a	n/a	n/a	-999	21	[0, 0, 0]	n/a	FR1	2	R1092J
2237.249	0.0	2242790	TRIAL	n/a	n/a	n/a	-999	22	[0, 0, 0]	n/a	FR1	2	R1092J
2237.249	10.428	2242790	COUNTDOWN_START	n/a	n/a	n/a	-999	22	[0, 0, 0]	n/a	FR1	2	R1092J
2247.677	0.005	2253217	COUNTDOWN_END	n/a	n/a	n/a	-999	22	[0, 0, 0]	n/a	FR1	2	R1092J
2247.682	3.519	2253222	ORIENT	n/a	n/a	n/a	-999	22	[0, 0, 0]	n/a	FR1	2	R1092J
2251.201	2.566	2256741	WORD	n/a	wordpools/wordpool_EN.txt	CAR	1	22	[0, 0, 0]	n/a	FR1	2	R1092J
2253.767	2.401	2259307	WORD	n/a	wordpools/wordpool_EN.txt	BEACH	2	22	[0, 0, 0]	n/a	FR1	2	R1092J
2256.168	2.384	2261708	WORD	n/a	wordpools/wordpool_EN.txt	MAP	3	22	[0, 0, 0]	n/a	FR1	2	R1092J
2258.552	2.534	2264092	WORD	n/a	wordpools/wordpool_EN.txt	MOUTH	4	22	[0, 0, 0]	n/a	FR1	2	R1092J
2261.086	2.467	2266626	WORD	n/a	wordpools/wordpool_EN.txt	BREAD	5	22	[0, 0, 0]	n/a	FR1	2	R1092J
2263.553	2.533	2269093	WORD	n/a	wordpools/wordpool_EN.txt	FROG	6	22	[0, 0, 0]	n/a	FR1	2	R1092J
2266.086	2.549	2271626	WORD	n/a	wordpools/wordpool_EN.txt	HAND	7	22	[0, 0, 0]	n/a	FR1	2	R1092J
2268.635	2.585	2274175	WORD	n/a	wordpools/wordpool_EN.txt	SNAIL	8	22	[0, 0, 0]	n/a	FR1	2	R1092J
2271.22	2.483	2276760	WORD	n/a	wordpools/wordpool_EN.txt	SHELL	9	22	[0, 0, 0]	n/a	FR1	2	R1092J
2273.703	2.601	2279243	WORD	n/a	wordpools/wordpool_EN.txt	STAR	10	22	[0, 0, 0]	n/a	FR1	2	R1092J
2276.304	2.617	2281844	WORD	n/a	wordpools/wordpool_EN.txt	COIN	11	22	[0, 0, 0]	n/a	FR1	2	R1092J
2278.921	1.617	2284461	WORD	n/a	wordpools/wordpool_EN.txt	PIG	12	22	[0, 0, 0]	n/a	FR1	2	R1092J
2280.538	0.001	2286078	DISTRACT_START	n/a	n/a	n/a	-999	22	[0, 0, 0]	n/a	FR1	2	R1092J
2280.539	0.016	2286079	START	n/a	n/a	n/a	-999	22	[-999, -999, -999]	n/a	FR1	2	R1092J
2280.555	3.7	2286095	PROB	3.7	n/a	n/a	-999	22	[1, 5, 6]	12	FR1	2	R1092J
2284.255	3.0	2289795	PROB	3.0	n/a	n/a	-999	22	[8, 1, 7]	16	FR1	2	R1092J
2287.255	2.267	2292795	PROB	2.267	n/a	n/a	-999	22	[1, 3, 3]	7	FR1	2	R1092J
2289.522	3.134	2295062	PROB	3.134	n/a	n/a	-999	22	[9, 6, 5]	20	FR1	2	R1092J
2292.656	2.851	2298196	PROB	2.851	n/a	n/a	-999	22	[3, 6, 5]	14	FR1	2	R1092J
2295.507	2.667	2301047	PROB	2.667	n/a	n/a	-999	22	[2, 7, 7]	16	FR1	2	R1092J
2298.174	2.333	2303714	PROB	2.333	n/a	n/a	-999	22	[7, 5, 2]	14	FR1	2	R1092J
2300.507	2.131	2306047	PROB	2.131	n/a	n/a	-999	22	[1, 4, 1]	6	FR1	2	R1092J
2302.638	0.019	2308178	STOP	n/a	n/a	n/a	-999	22	[-999, -999, -999]	n/a	FR1	2	R1092J
2302.657	1.184	2308197	DISTRACT_END	n/a	n/a	n/a	-999	22	[0, 0, 0]	n/a	FR1	2	R1092J
2303.841	4.414	2309381	REC_START	n/a	n/a	n/a	-999	22	[0, 0, 0]	n/a	FR1	2	R1092J
2308.255	1.911	2313795	REC_WORD	1.911	n/a	SHARK	-999	22	[0, 0, 0]	n/a	FR1	2	R1092J
2310.166	1.905	2315706	REC_WORD	1.905	n/a	BEACH	2	22	[0, 0, 0]	n/a	FR1	2	R1092J
2312.071	2.032	2317611	REC_WORD	2.032	n/a	STAIR	-999	22	[0, 0, 0]	n/a	FR1	2	R1092J
2314.103	3.982	2319643	REC_WORD	3.982	n/a	STEAM	-999	22	[0, 0, 0]	n/a	FR1	2	R1092J
2318.085	6.42	2323625	REC_WORD	6.42	n/a	AIR	-999	22	[0, 0, 0]	n/a	FR1	2	R1092J
2324.505	4.51	2330044	REC_WORD	4.51	n/a	CAR	1	22	[0, 0, 0]	n/a	FR1	2	R1092J
2329.015	2.709	2334554	REC_WORD	2.709	n/a	BEACH	2	22	[0, 0, 0]	n/a	FR1	2	R1092J
2331.724	2.134	2337263	REC_WORD	2.134	n/a	AIR	-999	22	[0, 0, 0]	n/a	FR1	2	R1092J
2333.858	4.071	2339397	REC_END	n/a	n/a	n/a	-999	22	[0, 0, 0]	n/a	FR1	2	R1092J
2337.929	0.0	2343468	TRIAL	n/a	n/a	n/a	-999	23	[0, 0, 0]	n/a	FR1	2	R1092J
2337.929	10.428	2343468	COUNTDOWN_START	n/a	n/a	n/a	-999	23	[0, 0, 0]	n/a	FR1	2	R1092J
2348.357	0.007	2353896	COUNTDOWN_END	n/a	n/a	n/a	-999	23	[0, 0, 0]	n/a	FR1	2	R1092J
2348.364	3.65	2353903	ORIENT	n/a	n/a	n/a	-999	23	[0, 0, 0]	n/a	FR1	2	R1092J
2352.014	2.533	2357553	WORD	n/a	wordpools/wordpool_EN.txt	STRAW	1	23	[0, 0, 0]	n/a	FR1	2	R1092J
2354.547	2.434	2360086	WORD	n/a	wordpools/wordpool_EN.txt	JAIL	2	23	[0, 0, 0]	n/a	FR1	2	R1092J
2356.981	2.584	2362520	WORD	n/a	wordpools/wordpool_EN.txt	ROOM	3	23	[0, 0, 0]	n/a	FR1	2	R1092J
2359.565	2.451	2365104	WORD	n/a	wordpools/wordpool_EN.txt	SALT	4	23	[0, 0, 0]	n/a	FR1	2	R1092J
2362.016	2.4	2367555	WORD	n/a	wordpools/wordpool_EN.txt	PIPE	5	23	[0, 0, 0]	n/a	FR1	2	R1092J
2364.416	2.6	2369955	WORD	n/a	wordpools/wordpool_EN.txt	DEER	6	23	[0, 0, 0]	n/a	FR1	2	R1092J
2367.016	2.417	2372555	WORD	n/a	wordpools/wordpool_EN.txt	CHIN	7	23	[0, 0, 0]	n/a	FR1	2	R1092J
2369.433	2.383	2374972	WORD	n/a	wordpools/wordpool_EN.txt	SEAL	8	23	[0, 0, 0]	n/a	FR1	2	R1092J
2371.816	2.368	2377355	WORD	n/a	wordpools/wordpool_EN.txt	CUBE	9	23	[0, 0, 0]	n/a	FR1	2	R1092J
2374.184	2.516	2379723	WORD	n/a	wordpools/wordpool_EN.txt	TOOL	10	23	[0, 0, 0]	n/a	FR1	2	R1092J
2376.7	2.485	2382239	WORD	n/a	wordpools/wordpool_EN.txt	VEST	11	23	[0, 0, 0]	n/a	FR1	2	R1092J
2379.185	1.616	2384724	WORD	n/a	wordpools/wordpool_EN.txt	BUSH	12	23	[0, 0, 0]	n/a	FR1	2	R1092J
2380.801	0.0	2386340	DISTRACT_START	n/a	n/a	n/a	-999	23	[0, 0, 0]	n/a	FR1	2	R1092J
2380.801	0.016	2386340	START	n/a	n/a	n/a	-999	23	[-999, -999, -999]	n/a	FR1	2	R1092J
2380.817	4.102	2386356	PROB	4.102	n/a	n/a	-999	23	[8, 8, 7]	24	FR1	2	R1092J
2384.919	2.533	2390458	PROB	2.533	n/a	n/a	-999	23	[7, 2, 1]	10	FR1	2	R1092J
2387.452	2.651	2392991	PROB	2.651	n/a	n/a	-999	23	[5, 7, 3]	15	FR1	2	R1092J
2390.103	2.566	2395642	PROB	2.566	n/a	n/a	-999	23	[9, 1, 7]	17	FR1	2	R1092J
2392.669	2.751	2398208	PROB	2.751	n/a	n/a	-999	23	[5, 5, 7]	17	FR1	2	R1092J
2395.42	3.067	2400959	PROB	3.067	n/a	n/a	-999	23	[7, 1, 5]	13	FR1	2	R1092J
2398.487	2.796	2404026	PROB	2.796	n/a	n/a	-999	23	[4, 8, 9]	21	FR1	2	R1092J
2401.283	0.004	2406822	STOP	n/a	n/a	n/a	-999	23	[-999, -999, -999]	n/a	FR1	2	R1092J
2401.287	1.085	2406826	DISTRACT_END	n/a	n/a	n/a	-999	23	[0, 0, 0]	n/a	FR1	2	R1092J
2402.372	3.02	2407911	REC_START	n/a	n/a	n/a	-999	23	[0, 0, 0]	n/a	FR1	2	R1092J
2405.392	1.795	2410930	REC_WORD	1.795	n/a	CHAIR	-999	23	[0, 0, 0]	n/a	FR1	2	R1092J
2407.187	1.814	2412725	REC_WORD	1.814	n/a	ROOM	3	23	[0, 0, 0]	n/a	FR1	2	R1092J
2409.001	3.369	2414539	REC_WORD	3.369	n/a	STEAM	-999	23	[0, 0, 0]	n/a	FR1	2	R1092J
2412.37	2.252	2417908	REC_WORD	2.252	n/a	CHIN	7	23	[0, 0, 0]	n/a	FR1	2	R1092J
2414.622	5.202	2420160	REC_WORD	5.202	n/a	ARK	-999	23	[0, 0, 0]	n/a	FR1	2	R1092J
2419.824	4.896	2425362	REC_WORD	4.896	n/a	SHINE	-999	23	[0, 0, 0]	n/a	FR1	2	R1092J
2424.72	5.518	2430258	REC_WORD	5.518	n/a	WHALE	-999	23	[0, 0, 0]	n/a	FR1	2	R1092J
2430.238	2.146	2435776	REC_WORD	2.146	n/a	MOUSE	-999	23	[0, 0, 0]	n/a	FR1	2	R1092J
2432.384	2.591	2437922	REC_END	n/a	n/a	n/a	-999	23	[0, 0, 0]	n/a	FR1	2	R1092J
2434.975	0.0	2440513	COUNTDOWN_START	n/a	n/a	n/a	-999	24	[0, 0, 0]	n/a	FR1	2	R1092J
2434.975	10.428	2440513	TRIAL	n/a	n/a	n/a	-999	24	[0, 0, 0]	n/a	FR1	2	R1092J
2445.403	0.007	2450941	COUNTDOWN_END	n/a	n/a	n/a	-999	24	[0, 0, 0]	n/a	FR1	2	R1092J
2445.41	3.399	2450948	ORIENT	n/a	n/a	n/a	-999	24	[0, 0, 0]	n/a	FR1	2	R1092J
2448.809	2.535	2454347	WORD	n/a	wordpools/wordpool_EN.txt	RICE	1	24	[0, 0, 0]	n/a	FR1	2	R1092J
2451.344	2.399	2456882	WORD	n/a	wordpools/wordpool_EN.txt	BATH	2	24	[0, 0, 0]	n/a	FR1	2	R1092J
2453.743	2.418	2459281	WORD	n/a	wordpools/wordpool_EN.txt	DRESS	3	24	[0, 0, 0]	n/a	FR1	2	R1092J
2456.161	2.533	2461699	WORD	n/a	wordpools/wordpool_EN.txt	BOX	4	24	[0, 0, 0]	n/a	FR1	2	R1092J
2458.694	2.418	2464232	WORD	n/a	wordpools/wordpool_EN.txt	TEA	5	24	[0, 0, 0]	n/a	FR1	2	R1092J
2461.112	2.533	2466650	WORD	n/a	wordpools/wordpool_EN.txt	BEAK	6	24	[0, 0, 0]	n/a	FR1	2	R1092J
2463.645	2.617	2469183	WORD	n/a	wordpools/wordpool_EN.txt	JET	7	24	[0, 0, 0]	n/a	FR1	2	R1092J
2466.262	2.467	2471800	WORD	n/a	wordpools/wordpool_EN.txt	BOMB	8	24	[0, 0, 0]	n/a	FR1	2	R1092J
2468.729	2.468	2474267	WORD	n/a	wordpools/wordpool_EN.txt	SMOKE	9	24	[0, 0, 0]	n/a	FR1	2	R1092J
2471.197	2.432	2476735	WORD	n/a	wordpools/wordpool_EN.txt	WAVE	10	24	[0, 0, 0]	n/a	FR1	2	R1092J
2473.629	2.468	2479167	WORD	n/a	wordpools/wordpool_EN.txt	GRASS	11	24	[0, 0, 0]	n/a	FR1	2	R1092J
2476.097	1.616	2481635	WORD	n/a	wordpools/wordpool_EN.txt	FOG	12	24	[0, 0, 0]	n/a	FR1	2	R1092J
2477.713	0.0	2483251	DISTRACT_START	n/a	n/a	n/a	-999	24	[0, 0, 0]	n/a	FR1	2	R1092J
2477.713	0.017	2483251	START	n/a	n/a	n/a	-999	24	[-999, -999, -999]	n/a	FR1	2	R1092J
2477.73	3.518	2483268	PROB	3.518	n/a	n/a	-999	24	[5, 9, 6]	20	FR1	2	R1092J
2481.248	2.817	2486786	PROB	2.817	n/a	n/a	-999	24	[6, 8, 8]	22	FR1	2	R1092J
2484.065	3.699	2489603	PROB	3.699	n/a	n/a	-999	24	[9, 6, 3]	18	FR1	2	R1092J
2487.764	3.918	2493301	PROB	3.918	n/a	n/a	-999	24	[9, 6, 8]	23	FR1	2	R1092J
2491.682	2.834	2497219	PROB	2.834	n/a	n/a	-999	24	[5, 2, 5]	12	FR1	2	R1092J
2494.516	2.334	2500053	PROB	2.334	n/a	n/a	-999	24	[1, 2, 4]	7	FR1	2	R1092J
2496.85	2.829	2502387	PROB	2.829	n/a	n/a	-999	24	[9, 2, 4]	15	FR1	2	R1092J
2499.679	0.004	2505216	STOP	n/a	n/a	n/a	-999	24	[-999, -999, -999]	n/a	FR1	2	R1092J
2499.683	1.202	2505220	DISTRACT_END	n/a	n/a	n/a	-999	24	[0, 0, 0]	n/a	FR1	2	R1092J
2500.885	2.54	2506422	REC_START	n/a	n/a	n/a	-999	24	[0, 0, 0]	n/a	FR1	2	R1092J
2503.425	0.443	2508962	REC_WORD_VV	0.443	n/a	<>	-999	24	[0, 0, 0]	n/a	FR1	2	R1092J
2503.868	1.632	2509405	REC_WORD	1.632	n/a	STAIR	-999	24	[0, 0, 0]	n/a	FR1	2	R1092J
2505.5	2.182	2511037	REC_WORD	2.182	n/a	STEAM	-999	24	[0, 0, 0]	n/a	FR1	2	R1092J
2507.682	6.404	2513219	REC_WORD	6.404	n/a	RICE	1	24	[0, 0, 0]	n/a	FR1	2	R1092J
2514.086	5.612	2519623	REC_WORD	5.612	n/a	CLOUD	-999	24	[0, 0, 0]	n/a	FR1	2	R1092J
2519.698	11.199	2525235	REC_WORD	11.199	n/a	MAT	-999	24	[0, 0, 0]	n/a	FR1	2	R1092J
2530.897	3.525	2536434	REC_END	n/a	n/a	n/a	-999	24	[0, 0, 0]	n/a	FR1	2	R1092J
2534.422	0.0	2539959	TRIAL	n/a	n/a	n/a	-999	25	[0, 0, 0]	n/a	FR1	2	R1092J
2534.422	10.428	2539959	COUNTDOWN_START	n/a	n/a	n/a	-999	25	[0, 0, 0]	n/a	FR1	2	R1092J
2544.85	0.006	2550387	COUNTDOWN_END	n/a	n/a	n/a	-999	25	[0, 0, 0]	n/a	FR1	2	R1092J
2544.856	3.534	2550393	ORIENT	n/a	n/a	n/a	-999	25	[0, 0, 0]	n/a	FR1	2	R1092J
2548.39	2.551	2553927	WORD	n/a	wordpools/wordpool_EN.txt	MAZE	1	25	[0, 0, 0]	n/a	FR1	2	R1092J
2550.941	2.5	2556478	WORD	n/a	wordpools/wordpool_EN.txt	SNOW	2	25	[0, 0, 0]	n/a	FR1	2	R1092J
2553.441	2.567	2558978	WORD	n/a	wordpools/wordpool_EN.txt	STEM	3	25	[0, 0, 0]	n/a	FR1	2	R1092J
2556.008	2.534	2561545	WORD	n/a	wordpools/wordpool_EN.txt	SEED	4	25	[0, 0, 0]	n/a	FR1	2	R1092J
2558.542	2.417	2564079	WORD	n/a	wordpools/wordpool_EN.txt	HOUSE	5	25	[0, 0, 0]	n/a	FR1	2	R1092J
2560.959	2.45	2566496	WORD	n/a	wordpools/wordpool_EN.txt	BEAR	6	25	[0, 0, 0]	n/a	FR1	2	R1092J
2563.409	2.383	2568946	WORD	n/a	wordpools/wordpool_EN.txt	LAKE	7	25	[0, 0, 0]	n/a	FR1	2	R1092J
2565.792	2.585	2571329	WORD	n/a	wordpools/wordpool_EN.txt	HEART	8	25	[0, 0, 0]	n/a	FR1	2	R1092J
2568.377	2.432	2573913	WORD	n/a	wordpools/wordpool_EN.txt	WOOD	9	25	[0, 0, 0]	n/a	FR1	2	R1092J
2570.809	2.418	2576345	WORD	n/a	wordpools/wordpool_EN.txt	MOOSE	10	25	[0, 0, 0]	n/a	FR1	2	R1092J
2573.227	2.449	2578763	WORD	n/a	wordpools/wordpool_EN.txt	ROPE	11	25	[0, 0, 0]	n/a	FR1	2	R1092J
2575.676	1.601	2581212	WORD	n/a	wordpools/wordpool_EN.txt	COW	12	25	[0, 0, 0]	n/a	FR1	2	R1092J
2577.277	0.001	2582813	DISTRACT_START	n/a	n/a	n/a	-999	25	[0, 0, 0]	n/a	FR1	2	R1092J
2577.278	0.016	2582814	START	n/a	n/a	n/a	-999	25	[-999, -999, -999]	n/a	FR1	2	R1092J
2577.294	2.851	2582830	PROB	2.851	n/a	n/a	-999	25	[1, 4, 2]	7	FR1	2	R1092J
2580.145	3.25	2585681	PROB	3.25	n/a	n/a	-999	25	[3, 8, 4]	15	FR1	2	R1092J
2583.395	2.634	2588931	PROB	2.634	n/a	n/a	-999	25	[6, 4, 9]	19	FR1	2	R1092J
2586.029	2.682	2591565	PROB	2.682	n/a	n/a	-999	25	[7, 5, 2]	15	FR1	2	R1092J
2588.711	2.652	2594247	PROB	2.652	n/a	n/a	-999	25	[5, 7, 5]	17	FR1	2	R1092J
2591.363	3.017	2596899	PROB	3.017	n/a	n/a	-999	25	[6, 9, 3]	18	FR1	2	R1092J
2594.38	2.5	2599916	PROB	2.5	n/a	n/a	-999	25	[4, 5, 2]	11	FR1	2	R1092J
2596.88	2.052	2602416	PROB	2.052	n/a	n/a	-999	25	[9, 3, 1]	13	FR1	2	R1092J
2598.932	0.015	2604468	STOP	n/a	n/a	n/a	-999	25	[-999, -999, -999]	n/a	FR1	2	R1092J
2598.947	1.135	2604483	DISTRACT_END	n/a	n/a	n/a	-999	25	[0, 0, 0]	n/a	FR1	2	R1092J
2600.082	2.474	2605618	REC_START	n/a	n/a	n/a	-999	25	[0, 0, 0]	n/a	FR1	2	R1092J
2602.556	1.521	2608092	REC_WORD	1.521	n/a	CHAIR	-999	25	[0, 0, 0]	n/a	FR1	2	R1092J
2604.077	2.231	2609613	REC_WORD	2.231	n/a	STEM	3	25	[0, 0, 0]	n/a	FR1	2	R1092J
2606.308	3.227	2611844	REC_WORD	3.227	n/a	LEAF	-999	25	[0, 0, 0]	n/a	FR1	2	R1092J
2609.535	1.963	2615071	REC_WORD	1.963	n/a	OAK	-999	25	[0, 0, 0]	n/a	FR1	2	R1092J
2611.498	4.057	2617034	REC_WORD	4.057	n/a	LAKE	7	25	[0, 0, 0]	n/a	FR1	2	R1092J
2615.555	4.352	2621091	REC_WORD	4.352	n/a	SHIP	-999	25	[0, 0, 0]	n/a	FR1	2	R1092J
2619.907	1.964	2625443	REC_WORD	1.964	n/a	MAT	-999	25	[0, 0, 0]	n/a	FR1	2	R1092J
2621.871	8.223	2627407	REC_WORD	8.223	n/a	MOUSE	-999	25	[0, 0, 0]	n/a	FR1	2	R1092J
2630.094	9.641	2635630	REC_END	n/a	n/a	n/a	-999	25	[0, 0, 0]	n/a	FR1	2	R1092J
2639.735	0.0	2645271	SESS_END	n/a	n/a	n/a	-999	25	[0, 0, 0]	n/a	FR1	2	R1092J
